time,seconds_elapsed,rotationRateX,rotationRateY,rotationRateZ,gravityX,gravityY,gravityZ,accelerationX,accelerationY,accelerationZ,quaternionW,quaternionX,quaternionY,quaternionZ,pitch,roll,yaw
1784890839326799104,0.2271740436553955,-0.17166167497634888,0.24966228008270264,0.008236659690737724,-0.010850438848137856,0.6886916756629944,-0.7249730825424194,-0.0673050731420517,-0.03111422061920166,0.008237302303314209,0.9245903385323341,-0.36859161175171173,-0.04066543938642946,0.08728807679014534,-0.7596830892162678,-0.014965560763284806,0.1822818365142028
1784890839336718336,0.23709321022033691,-0.19231927394866943,0.2394791543483734,0.00898980163037777,-0.012316844426095486,0.689937174320221,-0.7237644195556641,-0.037060581147670746,-0.012035012245178223,0.03969764709472656,0.9243631442010727,-0.3693605423594664,-0.04111676034540936,0.0862257661495205,-0.7614022833269986,-0.017016111027350827,0.17921377273601025
1784890839346638080,0.24701309204101562,-0.24996154010295868,0.1912543624639511,0.026949092745780945,-0.013776730746030807,0.6916927099227905,-0.7220605611801147,0.00823778472840786,0.0014225244522094727,0.056655287742614746,0.9239899507423258,-0.37045281237592187,-0.04164659139388113,0.08528121641457359,-0.7638302607000227,-0.019077429926517134,0.1764095346492399
1784890839356557056,0.25693202018737793,-0.28458788990974426,0.1550547480583191,0.048162803053855896,-0.014678514562547207,0.6941816210746765,-0.7196502685546875,0.04212906211614609,-0.053632915019989014,0.05072021484375,0.9233976459814603,-0.3720310911990592,-0.042044485896883706,0.08462873896918506,-0.7672823096148979,-0.020393905532178326,0.17455591545762966
1784890839366477312,0.26685214042663574,-0.3031620979309082,0.15219902992248535,0.056887052953243256,-0.014664432033896446,0.6966919898986816,-0.7172205448150635,0.0534675158560276,-0.09746408462524414,0.002590358257293701,0.9227739077591646,-0.3736582093856321,-0.04206273652606159,0.0842539484866564,-0.7707758155791916,-0.020443348637865344,0.17381170720686964
1784890839376396288,0.27677106857299805,-0.2125093638896942,0.17744366824626923,0.04236500337719917,-0.01375475525856018,0.6984204649925232,-0.7155554890632629,0.036124132573604584,-0.05370610952377319,-0.032598137855529785,0.922344407803463,-0.37482237023406906,-0.04159851630272565,0.08401521312958708,-0.7731880757297385,-0.01922011807011814,0.17385186618237627
1784890839386315008,0.28668999671936035,0.06454167515039444,0.1271032691001892,0.014123243279755116,-0.012568903155624866,0.698412299156189,-0.7155852913856506,0.0462450310587883,0.010221123695373535,-0.07231748104095459,0.9223718302355418,-0.37488220480321555,-0.04087387456890656,0.08380354822352275,-0.7731767182339975,-0.017562700781729182,0.1740662094789217
1784890839396235264,0.29661011695861816,0.376471608877182,0.006633690558373928,-0.0044242083095014095,-0.01184199657291174,0.696103572845459,-0.717843770980835,0.10034296661615372,0.052797794342041016,-0.09865403175354004,0.9229837520806029,-0.37343317282751615,-0.040321140988879754,0.08380283749444156,-0.7699558665394153,-0.01649512597488187,0.17441071684015103
1784890839406154240,0.30652904510498047,0.3892611861228943,-0.08450953662395477,0.06575487554073334,-0.011052013374865055,0.6923835873603821,-0.7214450240135193,0.10388647019863129,-0.024689435958862305,-0.13748741149902344,0.9239185042968425,-0.37106893866152285,-0.039816099079546835,0.08424532662861096,-0.7647873183927458,-0.015318074771805175,0.1757015203461565
1784890839416074240,0.3164491653442383,-0.023505091667175293,-0.051835671067237854,0.26218220591545105,-0.009076296351850033,0.6898022890090942,-0.723940908908844,0.060773082077503204,-0.2161847949028015,-0.057553231716156006,0.9244827981107043,-0.36946440325821794,-0.03905906950646472,0.08545150607283361,-0.7612159269882194,-0.01253668771554612,0.17932337417592842
1784890839425993216,0.3263680934906006,-0.5790655612945557,0.0794704258441925,0.4310029149055481,-0.005078921094536781,0.6901252269744873,-0.723672091960907,-0.02197490632534027,-0.3807075023651123,0.06026577949523926,0.9242363507906785,-0.3697892583127509,-0.037680868755987335,0.08731072433272374,-0.7616620921621486,-0.007018147861403577,0.18556695178342544
1784890839435912192,0.3362870216369629,-0.9679927229881287,0.19570061564445496,0.48290330171585083,-0.00019676287774927914,0.6943396925926208,-0.7196473479270935,-0.11343543231487274,-0.28987497091293335,0.08485126495361328,0.922967509083364,-0.37265516194023746,-0.03611715141257608,0.0891885561438182,-0.7675019424740104,-0.00027341568669960944,0.19255615780390534
1784890839445832192,0.3462071418762207,-0.9284698367118835,0.2608641982078552,0.38325604796409607,0.004693979863077402,0.7003563642501831,-0.7137778997421265,-0.13105200231075287,-0.0725334882736206,0.01855701208114624,0.9212309637758916,-0.376720738866429,-0.034533084989999636,0.09067708131344597,-0.7758965908654888,0.006576152229857266,0.19891597019737073
1784890839455751168,0.356126070022583,-0.6738145351409912,0.25415676832199097,0.21639052033424377,0.008532281033694744,0.705261766910553,-0.7088956236839294,-0.09498857706785202,0.10444587469100952,-0.019589483737945557,0.9198327918889821,-0.38007168267964186,-0.033131557240876734,0.09140810811950692,-0.7827923298271663,0.012035437904265197,0.2030659387313443
1784890839465671424,0.3660461902618408,-0.3420770764350891,0.16833747923374176,0.14351391792297363,0.011056885123252869,0.7080109715461731,-0.7061149477958679,-0.03937721997499466,0.1895720362663269,-0.07692033052444458,0.9190482855908212,-0.3819848136440361,-0.03209565470571062,0.09169448095461048,-0.7866776913554213,0.015657482008734482,0.2053815088439373
1784890839475590144,0.3759651184082031,-0.2264968752861023,0.06944914162158966,0.11699099838733673,0.012337385676801205,0.7089080214500427,-0.7051931023597717,0.010031978599727154,0.12911993265151978,-0.06468909978866577,0.9187690886987799,-0.3826296419383053,-0.03159120857860303,0.09197854748599818,-0.7879487295068311,0.01749326100578196,0.20682864874678303
1784890839485509120,0.38588404655456543,-0.3500063121318817,0.028836198151111603,0.16982385516166687,0.013032606802880764,0.7095373272895813,-0.7045473456382751,-0.009187408722937107,0.0218316912651062,-0.053310930728912354,0.9185493882376515,-0.3830632334627151,-0.03144645668612851,0.09241666631074294,-0.7888414429292138,0.018495734351884636,0.2082469333970445
1784890839495429376,0.39580416679382324,-0.5648934245109558,0.08132006973028183,0.24530789256095886,0.01425390224903822,0.7113860845565796,-0.7026568651199341,-0.08389502763748169,-0.05016171932220459,-0.05582702159881592,0.9179641669027029,-0.3843135687866618,-0.03121924820098766,0.09311433490190553,-0.791468480235417,0.02028294046947926,0.2106538012289753
1784890839505348096,0.40572309494018555,-0.5868866443634033,0.13387514650821686,0.19992896914482117,0.015859847888350487,0.7142038941383362,-0.699757993221283,-0.13835741579532623,-0.02206522226333618,-0.05405670404434204,0.9171059985080846,-0.38622442245023203,-0.03084947797504487,0.09378527919763062,-0.7954860914320864,0.022660881180029565,0.21333689953888083
1784890839515268352,0.41564321517944336,-0.4089559316635132,0.1776275336742401,0.048374392092227936,0.01660490594804287,0.7165061235427856,-0.6973831057548523,-0.18287992477416992,0.024796366691589355,-0.05449366569519043,0.9164617005759225,-0.3877776156293434,-0.03060969257931614,0.09375235271108777,-0.7987807919529599,0.023805807806033023,0.21393530703351993
1784890839525187328,0.42556214332580566,-0.1289021521806717,0.1844865083694458,0.009736984968185425,0.016572928056120872,0.7174102663993835,-0.6964538097381592,-0.14718817174434662,0.11842042207717896,-0.0002319812774658203,0.9162612275203272,-0.3883868264437658,-0.030475829354511968,0.09323252632262356,-0.8000777502114202,0.023791673534719216,0.21286886352906606
1784890839535106304,0.43548107147216797,0.34223639965057373,0.14874878525733948,-0.10521247237920761,0.01557693351060152,0.7161170840263367,-0.6978062987327576,-0.05584486201405525,0.16957926750183105,0.0029515624046325684,0.9167184071158453,-0.38750975229939133,-0.030545947144791773,0.0923602530658917,-0.798223282866963,0.02231901254081388,0.21023749280224974
1784890839545026304,0.4454011917114258,0.7565047144889832,0.04306790232658386,-0.08942551910877228,0.013976153917610645,0.7118619680404663,-0.7021803259849548,0.033753324300050735,0.11427938938140869,0.01556539535522461,0.9179936379079757,-0.38466191432850233,-0.03074150249886503,0.09153123619773165,-0.7921458690696727,0.019901309666828036,0.207081336486832
1784890839554945280,0.4553201198577881,0.9262207746505737,-0.028571855276823044,0.011661284603178501,0.012835687957704067,0.7058147192001343,-0.7082801461219788,0.14384156465530396,0.020198464393615723,0.09415972232818604,0.9196794362046118,-0.38067220822676656,-0.030799099325566064,0.09126787142592149,-0.7835726067630684,0.01812034750021753,0.20531633303934507
1784890839564865024,0.4652400016784668,0.8746004104614258,-0.08829803764820099,0.12892480194568634,0.012137182056903839,0.6993187665939331,-0.7147069573402405,0.23168300092220306,-0.1850975751876831,0.1363072395324707,0.9213827601119916,-0.3764218042944711,-0.0308732918757882,0.09169157936446128,-0.7744440205375857,0.016980407862950464,0.20530219562819663
1784890839574784256,0.4751591682434082,0.6175997853279114,-0.04433012008666992,0.26980629563331604,0.012759528122842312,0.6938353776931763,-0.720020592212677,0.2842375636100769,-0.42468565702438354,0.224201500415802,0.9227118194629941,-0.3728992289046881,-0.0305921711175091,0.09280663253727979,-0.7668013893645632,0.017719205308319257,0.20763371849987391
1784890839584703232,0.4850780963897705,0.1494232714176178,0.006534392014145851,0.39370983839035034,0.014996121637523174,0.6908723711967468,-0.7228211760520935,0.26399558782577515,-0.5199128985404968,0.340786874294281,0.9233056870038487,-0.3710788745323636,-0.0298308636028117,0.09443023905440798,-0.7626949551276428,0.020743679221579506,0.2121573449716639
1784890839594623232,0.4949982166290283,-0.08563604205846786,0.24668829143047333,0.9154154658317566,0.02015657350420952,0.6907244920730591,-0.7228370904922485,0.2566683888435364,-0.5311327576637268,0.34054338932037354,0.9230358717848303,-0.3712017474104839,-0.028119891695105155,0.09707377686298091,-0.76249043702313,0.027878138066693432,0.2207412816233831
1784890839604542208,0.5049171447753906,0.3929041922092438,0.2813357710838318,1.2136911153793335,0.029896143823862076,0.6895815134048462,-0.7235907316207886,0.3849903345108032,-0.5291354060173035,0.14873111248016357,0.922746113505569,-0.3709395310183226,-0.02466779135922119,0.10166125997319472,-0.7609110744762579,0.041292885422125426,0.23597665295458503
1784890839614462208,0.5148370265960693,1.8259894847869873,-0.45164018869400024,0.8017085790634155,0.03805060684680939,0.6816822290420532,-0.7306582927703857,0.4452715218067169,-0.3718525171279907,-0.26455044746398926,0.9240626561248316,-0.3663267260170466,-0.02180797306096565,0.10694615861304033,-0.7500594432695271,0.05203015393464511,0.25093042784830866
1784890839624381184,0.5247561931610107,2.698457956314087,-1.0126721858978271,-1.554078459739685,0.03005923703312874,0.663994312286377,-0.747133195400238,0.21991023421287537,0.07820850610733032,-1.4799938201904297,0.9286109470741117,-0.3547413364045483,-0.024330579563406486,0.10605829410818444,-0.7261480179469315,0.040211080643115175,0.2427166446646841
1784890839634300160,0.534675121307373,4.769909858703613,-0.2152833342552185,1.5750892162322998,0.027404706925153732,0.6361210942268372,-0.7711024284362793,-0.2810668349266052,1.4598262310028076,-1.0723118782043457,0.9349214450084674,-0.3374500577236437,-0.02400511827252289,0.10711289596424024,-0.6894606351248694,0.03552469291092933,0.2408999816762853
1784890839644220160,0.5445950031280518,3.5942370891571045,-1.1559044122695923,1.473379135131836,0.0329025462269783,0.6010742783546448,-0.7985156178474426,0.9157974123954773,0.5146941542625427,-0.4912945628166199,0.941080615851006,-0.3166499456887858,-0.021794480456078544,0.11672712031313437,-0.6448446181797834,0.041181341304342624,0.2605694700275443
1784890839654139392,0.5545141696929932,1.0911061763763428,-0.8155651688575745,1.1165651082992554,0.03146585449576378,0.5809935331344604,-0.8132997155189514,0.7496925592422485,-1.010406255722046,0.8917909860610962,0.9503621751401884,-0.3055234206053875,-0.0023599962478747633,0.05883600569997725,-0.61994882633249,0.03866983570366642,0.1360475626820543
1784890839664059136,0.5644340515136719,0.5038906335830688,0.019621584564447403,1.7421096563339233,0.04019936919212341,0.5745327472686768,-0.8174937963485718,-0.2460556924343109,-0.46320462226867676,0.7818950414657593,0.9509501528504084,-0.30208127521229683,-3.199357406989379e-05,0.06663805344076776,-0.6120331394466766,0.049134333222042005,0.1554480805508839
1784890839673978368,0.5743532180786133,2.894026279449463,-0.14342577755451202,1.9046705961227417,0.05166478082537651,0.5599459409713745,-0.8269167542457581,-0.2113175094127655,0.7493191957473755,0.09235864877700806,0.9527724218417671,-0.2941545388916772,0.0038381558719307513,0.075387247896246,-0.5943205851832546,0.06239770941503759,0.17703270664821044
1784890839683897344,0.5842721462249756,5.664498805999756,-0.4756620228290558,1.7349766492843628,0.06063283979892731,0.5218101739883423,-0.850904107093811,0.3110407292842865,0.7459205389022827,0.003980278968811035,0.9582432664133005,-0.2729335146050427,0.007432180484956047,0.08498253696190046,-0.548971573652594,0.07113672012272163,0.19694813916666465
1784890839693817088,0.5941920280456543,7.204807758331299,-0.02928086183965206,1.5421900749206543,0.07038620859384537,0.46359696984291077,-0.883246123790741,0.03244277089834213,0.33625349402427673,0.18384426832199097,0.9658930212612633,-0.24125382118743843,0.013173626626714076,0.0931334008201446,-0.48205046457044387,0.07952231414267412,0.21180638317687353
1784890839703736320,0.6041111946105957,7.850605010986328,0.4055398106575012,1.6724681854248047,0.08276764303445816,0.39452987909317017,-0.9151479005813599,-0.27258697152137756,0.30401748418807983,0.5339070558547974,0.9733818869135641,-0.20486509159378424,0.021362105232227185,0.10050680940819064,-0.40555615712955906,0.09019643071717356,0.22433806556788324
1784890839713656064,0.6140310764312744,7.102252006530762,0.5252971649169922,1.3836848735809326,0.09395301342010498,0.3225483000278473,-0.9418786764144897,-0.4001206159591675,0.1354137361049652,0.7390435934066772,0.9795589037376586,-0.1678725448330074,0.029655877989035632,0.10678832681384728,-0.3284204343588104,0.09942177042211757,0.23366349077787438
1784890839723575040,0.6239500045776367,3.29288387298584,0.5270228981971741,0.6545481085777283,0.10285602509975433,0.2710617184638977,-0.9570508003234863,-0.602505087852478,-0.4388931393623352,0.7507672309875488,0.9829321866760392,-0.14198653214771778,0.036255177242598254,0.11121921867238763,-0.27449587521332586,0.10706092697210981,0.24014319928343827
1784890839733495296,0.6338701248168945,-3.5305368900299072,0.8777183294296265,-0.23046250641345978,0.10746382921934128,0.2757219970226288,-0.9552114605903625,-0.9170341491699219,-1.5293993949890137,-0.32875460386276245,0.9826342737925452,-0.14459991362305463,0.03853754529586842,0.10970686687685534,-0.27934073207006976,0.11203159349754457,0.23813667886645812
1784890839743414272,0.6437890529632568,-2.9484574794769287,0.7671294808387756,0.6935960650444031,0.11884891241788864,0.306639701128006,-0.944376528263092,-0.6777936220169067,-0.7130880355834961,-0.9594778418540955,0.9794956951851346,-0.1613813645108404,0.0420450846614922,0.11303335788351904,-0.31166065170084584,0.12519092024780354,0.24947578985046828
1784890839753333248,0.6537082195281982,-1.3623601198196411,0.13091082870960236,0.04523855075240135,0.12285760790109634,0.3257681429386139,-0.9374333024024963,-0.29485470056533813,1.721427321434021,0.008554518222808838,0.9776278547678856,-0.1716015797909869,0.042851605084552824,0.11384441185297318,-0.33182407135755065,0.13031473157678686,0.2537064869211937
1784890839763253248,0.663628101348877,-0.9041011333465576,-0.13484787940979004,0.02935013361275196,0.1230495423078537,0.33656278252601624,-0.9335867762565613,0.1775028109550476,0.9975894093513489,0.10129612684249878,0.9765638473348581,-0.17727033167239467,0.042211745586059904,0.11452737914709947,-0.34326435212080475,0.13104763123790833,0.2562323000716347
1784890839773172224,0.6735470294952393,0.06666435301303864,-0.040291931480169296,-0.20703743398189545,0.12128729373216629,0.34034109115600586,-0.9324469566345215,-0.1561688780784607,0.45294809341430664,-0.14299249649047852,0.9763277968848957,-0.17910832759618958,0.041191369104638886,0.11405035177787398,-0.3472796268410932,0.1293479712338779,0.2552963297128456
1784890839783092224,0.6834671497344971,0.9836466312408447,0.06281527876853943,-0.23552660644054413,0.12056903541088104,0.3362846374511719,-0.9340105652809143,-0.18674641847610474,0.5357856750488281,-0.13439452648162842,0.9768568841558398,-0.1768962741119451,0.04126041331635716,0.1129418930990235,-0.3429689693359276,0.12837750969651776,0.25247590756505434
1784890839793009408,0.6933844089508057,1.7248363494873047,-0.15992847084999084,-0.40926840901374817,0.11743344366550446,0.3252713978290558,-0.9383005499839783,0.038175687193870544,0.3840028643608093,0.0048593878746032715,0.9781958140443269,-0.1708683601355296,0.0406661610405603,0.11082949588746202,-0.3312987307170769,0.12450807097020235,0.2464791971434135
1784890839802928384,0.703303337097168,1.467838168144226,-0.30043286085128784,-0.1776130646467209,0.11286178976297379,0.3120293915271759,-0.9433450698852539,0.08524306863546371,0.5391364097595215,-0.025954246520996094,0.9796787196912702,-0.16363610857356975,0.03937892658472937,0.10909694071883126,-0.3173283180665643,0.11907400968900773,0.2408808680854669
1784890839812848640,0.7132234573364258,0.7081918120384216,-0.30061808228492737,0.02630617469549179,0.10902376472949982,0.30250826478004456,-0.9468910098075867,0.022018708288669586,-0.19287386536598206,0.17226332426071167,0.9806467638351106,-0.15845029189398543,0.038052633351008544,0.10852420788444644,-0.3073231245529633,0.1146338820109146,0.23820873895797826
1784890839822767616,0.7231423854827881,0.9546505808830261,-0.599613606929779,-0.15429635345935822,0.10408126562833786,0.2966242730617523,-0.9493055939674377,0.17033280432224274,-0.4306269586086273,0.18175798654556274,0.9812561715326963,-0.1551143585807037,0.035871082994683536,0.10857738187615322,-0.3011558835682777,0.10920319099922908,0.23699130960468032
1784890839832687360,0.7330622673034668,1.2660096883773804,-0.5927086472511292,-0.31971973180770874,0.09701558947563171,0.2873806953430176,-0.9528905153274536,-0.10112020373344421,0.2758669853210449,-0.2919825315475464,0.9822862019809572,-0.1498909048502952,0.03297670430203069,0.1075130694581939,-0.29149103500365986,0.10146228165200609,0.23294163799300097
1784890839842606592,0.7429814338684082,1.3711010217666626,-0.3392830193042755,-0.44831418991088867,0.09070754796266556,0.27613765001296997,-0.9568281769752502,-0.20775771141052246,0.13871830701828003,-0.24794477224349976,0.9834933734855176,-0.1436813859992853,0.030685116974409322,0.10561678040568787,-0.2797731806888,0.09451777876051161,0.2272772766246825
1784890839852525568,0.7529003620147705,1.1553040742874146,-0.029469985514879227,-0.39539143443107605,0.08743362873792648,0.2650545835494995,-0.9602611064910889,-0.00824052095413208,-0.3346956968307495,0.022227108478546143,0.9845916484674633,-0.13774639017710774,0.02992268037664039,0.10348867447183249,-0.2682605198894292,0.09080154935447321,0.22170847688812786
1784890839862445312,0.7628202438354492,1.0548149347305298,0.1645125448703766,-0.5447303056716919,0.08634816855192184,0.25565946102142334,-0.9629030227661133,-0.040281884372234344,-0.26100000739097595,0.02900409698486328,0.9855270259863921,-0.13280070794299434,0.030206928337866812,0.10093574662014768,-0.2585297666374669,0.08943560803524943,0.2157576871450761
1784890839872364544,0.7727394104003906,1.1531952619552612,0.07342531532049179,-0.6926009654998779,0.08531294763088226,0.24626608192920685,-0.9654401540756226,-0.10334884375333786,0.09330299496650696,-0.022703707218170166,0.9865067565713735,-0.12784371176613077,0.030592485480159994,0.09759399532192711,-0.24882579289971885,0.0881379503909883,0.2082454966094676
1784890839882284288,0.7826592922210693,1.2316386699676514,0.0038470341823995113,-0.7382267713546753,0.08306363224983215,0.23613311350345612,-0.9681640267372131,0.05000825971364975,0.17916534841060638,-0.013922154903411865,0.9875644839037132,-0.12244306571330776,0.030425005577161632,0.09380002539453072,-0.23838449277315318,0.08558542110028818,0.19965004081462315
1784890839892203520,0.7925784587860107,0.7960220575332642,0.14953255653381348,-0.936201810836792,0.08114311844110489,0.22710926830768585,-0.9704829454421997,0.06610418856143951,-0.049374908208847046,-0.014441311359405518,0.988547843788318,-0.11762226260137501,0.03038952879527944,0.08952434517030866,-0.2291083494227042,0.08341704649666527,0.19023348869890724
1784890839902122496,0.802497386932373,0.06655482947826385,0.5617800354957581,-1.316952109336853,0.08157457411289215,0.224252849817276,-0.9711108207702637,-0.01748766005039215,-0.4687291979789734,0.05651426315307617,0.9892135019850626,-0.11600811363541089,0.031411809379355185,0.08373813115063626,-0.2261762943024656,0.08380456012190435,0.17842319114431596
1784890839912042496,0.8124172687530518,-0.3018432557582855,0.7909324169158936,-1.7543456554412842,0.08429349213838577,0.22737252712249756,-0.970152735710144,-0.09077847003936768,-0.6005262136459351,0.11718642711639404,0.9896151716660121,-0.11745107708963118,0.03359875281934098,0.0757499377251414,-0.22937868780431095,0.08666916823642126,0.1627817380205588
1784890839921961472,0.8223364353179932,-0.16678474843502045,0.8116999864578247,-1.9320695400238037,0.08741136640310287,0.2310335338115692,-0.9690112471580505,-0.16715380549430847,-0.07897971570491791,0.020952165126800537,0.9900151747079396,-0.11909975657815845,0.036188905545359695,0.0661472331184359,-0.2331398289535919,0.08996327653284532,0.14397218179760862
1784890839931881472,0.8322563171386719,-0.184522807598114,0.8271296620368958,-2.145028591156006,0.09037154912948608,0.23394829034805298,-0.968039870262146,-0.08718246221542358,0.17813056707382202,-0.035210251808166504,0.9904140614054635,-0.12029089633545635,0.03886088177891554,0.05567680392231777,-0.23613669906383675,0.09308540412052928,0.12336281877142848
1784890839941800448,0.8421752452850342,-0.4361228346824646,1.102124810218811,-2.311631917953491,0.0936945453286171,0.2394653558731079,-0.9663734436035156,-0.059926845133304596,-0.1455780267715454,0.10268020629882812,0.9905562642643262,-0.12275303910381767,0.0417726953128182,0.04455342943243038,-0.24181514178237495,0.09665270442632248,0.10164813254816993
1784890839951719424,0.8520944118499756,-0.7073279023170471,1.1835007667541504,-2.1546900272369385,0.09706124663352966,0.2481178641319275,-0.9638550877571106,-0.15933236479759216,-0.27114337682724,0.1458924412727356,0.9903863920858488,-0.12673857233688596,0.04483064562376368,0.0325943687000825,-0.2507368773146401,0.10036274407732716,0.07845688996745442
1784890839961639424,0.8620142936706543,-1.0884076356887817,1.379360318183899,-1.491616129875183,0.10369376093149185,0.2589963674545288,-0.9602960348129272,-0.07123830914497375,-0.08107888698577881,0.07005250453948975,0.9897514724611433,-0.13199620815415852,0.04928471421568071,0.023237489604693698,-0.2619829794857282,0.1075642620467535,0.06113217468817523
1784890839971558656,0.8719334602355957,-1.4622576236724854,1.2689200639724731,-2.7066779136657715,0.11062629520893097,0.2731122076511383,-0.9556000828742981,-0.14187631011009216,-0.0789288580417633,-0.0980803370475769,0.9887697749089455,-0.13874399281295688,0.05431440066715649,0.011594794713081384,-0.2766267523694864,0.11525326266960881,0.03951284053754458
1784890839981478400,0.8818533420562744,-1.819183588027954,1.5288184881210327,-2.8653552532196045,0.11673058569431305,0.2911050617694855,-0.9495429396629333,-0.10167017579078674,-0.448133260011673,0.06322097778320312,0.9873028966625131,-0.14729781671402284,0.05942961073920048,-0.0021027616282617324,-0.2953817151824176,0.12231972132937796,0.013960632116979897
1784890839991397376,0.8917722702026367,-2.211193084716797,1.702223539352417,-2.65502667427063,0.12292995303869247,0.31323450803756714,-0.9416859149932861,-0.11716214567422867,-0.2858602702617645,0.08337908983230591,0.9851712198340808,-0.1578679672529145,0.06507491225698955,-0.016754215005463858,-0.31859704182659276,0.12980836680507943,-0.013125964067594857
1784890840001316608,0.9016914367675781,-1.5394271612167358,2.0215511322021484,-2.8796377182006836,0.13272622227668762,0.33199945092201233,-0.9338951110839844,-0.15190652012825012,-0.10914483666419983,-0.13423538208007812,0.9828338777599418,-0.1665729171646754,0.0728416072991204,-0.03138616830201901,-0.338422465837443,0.14117568438532885,-0.03968890009596467
1784890840011236352,0.9116113185882568,-0.8817817568778992,2.651791572570801,-1.7572126388549805,0.1461128145456314,0.34708371758461,-0.9263821840286255,-0.1797584444284439,0.439323753118515,-0.141046404838562,0.9804293865003109,-0.17329897145299364,0.08231876700496103,-0.04415102819221801,-0.35445972218263394,0.1564354140246745,-0.061929429245736155
1784890840021155328,0.9215302467346191,0.4733281135559082,2.7423853874206543,-1.4013065099716187,0.16572092473506927,0.3510424494743347,-0.9215778708457947,-0.022929176688194275,0.4766553044319153,-0.3286510109901428,0.978696071124027,-0.17411403113100277,0.09431525359085692,-0.05424896558237313,-0.358684168649195,0.17792151513107762,-0.07840843408016522
1784890840031075584,0.931450366973877,2.3170511722564697,2.655367851257324,-1.3566726446151733,0.18497666716575623,0.3396184742450714,-0.9221946001052856,0.09724989533424377,0.898144006729126,-0.36467063426971436,0.9782912933687343,-0.1667279634977783,0.10537779230793505,-0.06358765780790257,-0.3465112428905183,0.19795618831843487,-0.09506032688411127
1784890840040994304,0.9413692951202393,3.1022491455078125,2.8477225303649902,-1.6876271963119507,0.20457632839679718,0.31796514987945557,-0.9257681369781494,-0.4420946538448334,0.9067968130111694,-0.3005043864250183,0.9784092638006303,-0.15359688282220357,0.11629239083321244,-0.07482824660119174,-0.32358246506586924,0.21748496014339694,-0.11702753804643694
1784890840050914560,0.9512894153594971,3.308112382888794,3.191680908203125,-1.6125258207321167,0.22732247412204742,0.2914215922355652,-0.9291921257972717,-0.39870917797088623,0.4651396870613098,-0.13405555486679077,0.9782636734243203,-0.1375054357457653,0.1284375473742427,-0.08715691167479837,-0.29571259149847473,0.23993262526426404,-0.14181282512412743
1784890840060833536,0.9612083435058594,2.7946412563323975,3.1223397254943848,-1.2682147026062012,0.2525680363178253,0.26642975211143494,-0.9301744699478149,-0.005940258502960205,0.07478728890419006,0.02479422092437744,0.977456370498155,-0.12205712875377282,0.14147372503900288,-0.0983176357787432,-0.26968699702650384,0.26513509648480815,-0.1643177695694779
1784890840070752256,0.9711272716522217,1.7847472429275513,2.8482344150543213,-1.1058485507965088,0.2769477367401123,0.24821799993515015,-0.9282714128494263,0.2170860767364502,-0.22084373235702515,0.11242973804473877,0.9760184823662308,-0.11022066194750418,0.15399904053146538,-0.10734871471837679,-0.2508402541825444,0.28994032242885703,-0.1822817815140254
1784890840080672512,0.9810473918914795,0.772354006767273,2.9062764644622803,-1.3670181035995483,0.3000757396221161,0.24017205834388733,-0.9231857657432556,0.06009271740913391,-0.38275018334388733,0.22370761632919312,0.9737511495534528,-0.10354155405024454,0.16639192827409147,-0.11576476625880498,-0.24254309507497393,0.3142714479605378,-0.19804622064072283
1784890840090591488,0.9909663200378418,-0.07619772851467133,2.9851889610290527,-1.7527481317520142,0.32312995195388794,0.24190936982631683,-0.9149135947227478,-0.17362436652183533,-0.5438960790634155,0.1747097373008728,0.9704631199089252,-0.1014823223938373,0.17956763663460432,-0.12513299967805494,-0.2443331928897954,0.33950572205618246,-0.2143853265272241
1784890840100511488,1.0008864402770996,-0.7922549247741699,3.005741834640503,-1.8882132768630981,0.3453238010406494,0.25199398398399353,-0.9040190577507019,-0.2396872341632843,-0.6086682081222534,0.2540099620819092,0.9663152173235361,-0.10339291028422648,0.19313302854506126,-0.13507191740702804,-0.2547401802653828,0.3648824106214516,-0.2305163632976379
1784890840110430464,1.010805368423462,-1.1414666175842285,2.921175003051758,-2.069472074508667,0.3657761216163635,0.2675127387046814,-0.8914284706115723,-0.1879502534866333,-0.4806780219078064,0.26162201166152954,0.9615944634422872,-0.10794444601333561,0.20647941194156863,-0.14508752055450388,-0.27081075928411036,0.38937613573141194,-0.24578946684024983
1784890840120349440,1.0207242965698242,-0.8597052097320557,2.65938138961792,-2.4067182540893555,0.38388293981552124,0.2846766412258148,-0.8784037232398987,-0.06515735387802124,-0.22910413146018982,0.20295816659927368,0.9564596546223904,-0.11303929251796552,0.21913523954492561,-0.1561629395197739,-0.28866910649451205,0.41201029221490193,-0.2629608203498035
1784890840130269440,1.030644416809082,-0.07610572129487991,2.2977805137634277,-2.6641242504119873,0.3978031575679779,0.29872754216194153,-0.8674759268760681,0.060067325830459595,0.10463854670524597,0.08744668960571289,0.9513907874338512,-0.11616720118931968,0.2297111298037947,-0.16909657604479325,-0.30335903389739355,0.42996232311972205,-0.2850706301995947
1784890840140188416,1.0405633449554443,0.7522811889648438,1.832868218421936,-2.800607919692993,0.40719690918922424,0.3063790500164032,-0.8604199886322021,0.15545567870140076,0.3910696804523468,-0.01584649085998535,0.9468393537526743,-0.11574505368911488,0.23747227761201384,-0.18359008827241238,-0.31138681851005623,0.44202250849056507,-0.3125380703357167
1784890840150108672,1.0504834651947021,0.9986751675605774,1.4696779251098633,-2.8476669788360596,0.4122031629085541,0.31014689803123474,-0.8566781282424927,0.19068682193756104,0.36873185634613037,0.005710780620574951,0.942753916084397,-0.11332734826844454,0.24252389006151248,-0.19888201667193145,-0.315347530710049,0.44846602080848513,-0.34332913699280326
1784890840160027392,1.0604023933410645,0.418783575296402,1.4445990324020386,-2.855482578277588,0.41525372862815857,0.31505727767944336,-0.8534068465232849,0.14008989930152893,-0.12012627720832825,0.027753770351409912,0.9385786341809208,-0.11161263647308876,0.24665603988220525,-0.2139473540935018,-0.3205170134227134,0.452856951283482,-0.37379289718447284
1784890840169946368,1.0703213214874268,-0.422406405210495,1.6544193029403687,-2.8968968391418457,0.4190477132797241,0.32686471939086914,-0.8470882177352905,-0.01845872402191162,-0.45265820622444153,0.14712178707122803,0.9335546873783269,-0.11345989417872145,0.2521561952471761,-0.22807827501743266,-0.3329841696118913,0.45939216233804986,-0.4006891822008927
1784890840179866624,1.0802414417266846,-1.2242687940597534,1.9479901790618896,-3.2219245433807373,0.4236455261707306,0.34669166803359985,-0.8368567824363708,-0.1296239197254181,-0.5687833428382874,0.058383941650390625,0.927262334959487,-0.11917597498900649,0.2595547773268567,-0.2421009038627013,-0.35404172017526003,0.46862250104007047,-0.4254311816203051
1784890840189785600,1.0901603698730469,-1.776229977607727,2.2007925510406494,-3.6087229251861572,0.4284580945968628,0.37349674105644226,-0.8227537870407104,-0.11582076549530029,-0.5129468441009521,0.16201776266098022,0.919393411671702,-0.12796043946359084,0.2687921478641449,-0.2570848400201321,-0.3827757118656564,0.4801181124654935,-0.45053518147594324
1784890840199705344,1.1000802516937256,-2.1165544986724854,2.5528130531311035,-3.865593671798706,0.4330214560031891,0.40542128682136536,-0.8050627112388611,-0.10172262787818909,-0.29847246408462524,0.14928579330444336,0.9099754951934745,-0.1389152498322537,0.2795911234419631,-0.272902688454187,-0.41743964255157107,0.4934849606960759,-0.47613672681514396
1784890840209624576,1.109999418258667,-1.9272804260253906,2.9585607051849365,-4.028844833374023,0.4382019639015198,0.43893590569496155,-0.7844197154045105,-0.06770327687263489,-0.07135167717933655,0.021220862865447998,0.8990387185015439,-0.15000025483503793,0.29204464125027235,-0.28972255648417256,-0.4544140628657034,0.509446319543593,-0.5032461648845712
1784890840219543552,1.1199183464050293,-0.7832335233688354,2.901205062866211,-4.122889518737793,0.44270506501197815,0.46729153394699097,-0.7652782797813416,0.11071592569351196,0.20926791429519653,-0.34000736474990845,0.8875987145141208,-0.15773982035843398,0.3041036120476,-0.30790857110951436,-0.4862247790721069,0.5244523980830049,-0.5348788646538899
1784890840229463552,1.129838466644287,0.4783731997013092,2.7782223224639893,-4.543245315551758,0.4435097575187683,0.4872075021266937,-0.7522818446159363,0.4992392659187317,-0.050348371267318726,-0.7969887852668762,0.8763819028391896,-0.16045540355532303,0.313230175081062,-0.32877910689027023,-0.5088891964476707,0.5327021997273331,-0.5761326021943057
1784890840239382528,1.1397573947906494,1.6151187419891357,2.1357147693634033,-4.8070068359375,0.4390941858291626,0.49958905577659607,-0.7467308640480042,0.9056781530380249,-0.7304545640945435,-0.9277685284614563,0.8652527599012358,-0.15870340336931596,0.3185086906130393,-0.35313312859049734,-0.5231243236982283,0.5315655883366236,-0.6294971977953384
1784890840249302272,1.1496772766113281,2.4332125186920166,0.9473801851272583,-2.9248135089874268,0.430323988199234,0.5005581378936768,-0.75117427110672,1.3937422037124634,-1.2495663166046143,-0.9736028909683228,0.8576502189372288,-0.15319894951466448,0.3177152033121498,-0.3741965985376415,-0.524243359300884,0.5202308278438165,-0.6802442308627462
1784890840259221504,1.1595964431762695,2.368783950805664,0.461198627948761,-3.755521774291992,0.4197646677494049,0.49650707840919495,-0.7597883343696594,1.3248947858810425,-1.047990322113037,-1.1874772310256958,0.8519475222051335,-0.1467380377134156,0.31396460596491366,-0.39252970093798273,-0.519570174398965,0.5047420137168864,-0.7266404934449221
1784890840269141504,1.1695163249969482,2.5587587356567383,0.05531144142150879,-3.3614165782928467,0.40411442518234253,0.4924049377441406,-0.7708624601364136,1.2855981588363647,-0.5226173400878906,-1.267299771308899,0.8462330173967327,-0.14140105201130826,0.3075297155284329,-0.4114862084661328,-0.5148507485271574,0.48284849581835554,-0.7757193527495546
1784890840279060480,1.1794352531433105,3.1350955963134766,-0.8400518298149109,-2.980984926223755,0.38599202036857605,0.4828895330429077,-0.7860202789306641,1.4147281646728516,0.3905998766422272,-1.2035579681396484,0.8421420054793897,-0.1350355640234323,0.29791819655924967,-0.4287272156766563,-0.5039514601426929,0.45647917661394855,-0.8223272083530894
1784890840288979456,1.189354419708252,4.089521884918213,-1.5629618167877197,-2.451523780822754,0.36376526951789856,0.4641994535923004,-0.8075850605964661,1.3366436958312988,0.5077853798866272,-1.0974746942520142,0.8403624327812872,-0.12635691149588177,0.28326912358952355,-0.4445035359311813,-0.48273057502942385,0.4232163250985342,-0.8673996937591248
1784890840298899456,1.1992743015289307,4.26292610168457,-2.1633288860321045,-1.9807476997375488,0.33831343054771423,0.43796586990356445,-0.8329045176506042,1.0965315103530884,0.810004711151123,-0.6416743397712708,0.8404559348599883,-0.1162224369747257,0.2646508994432574,-0.4583513465415844,-0.45333473897887955,0.3858269849361856,-0.9085049068399015
1784890840308818688,1.209193468093872,3.9765167236328125,-2.5277278423309326,-1.1028757095336914,0.3120020031929016,0.4074244797229767,-0.8582890033721924,1.0134984254837036,0.6223606467247009,-0.8972956538200378,0.8422577959962279,-0.10595711942384192,0.24418963742672176,-0.4687710511312685,-0.4196320843689406,0.34866489861846844,-0.9407642428239646
1784890840318738432,1.2191133499145508,2.508901357650757,-2.5273478031158447,-0.517034113407135,0.28685441613197327,0.3826483190059662,-0.8782339096069336,0.7444413900375366,0.1566430628299713,-0.5576486587524414,0.8449589696511108,-0.09967148628262036,0.22571804610783555,-0.47451165313128485,-0.3926610756804318,0.3157022483446719,-0.9600834347349002
1784890840328657408,1.229032278060913,2.4028446674346924,-2.2265820503234863,0.03469835966825485,0.2650009095668793,0.36178895831108093,-0.8938027024269104,0.4186080992221832,-0.12848207354545593,-0.9958762526512146,0.8482116893351903,-0.09530737930450195,0.2097978756348005,-0.47690496285822237,-0.3701861330011291,0.28823076370826967,-0.9700648221543748
1784890840338576640,1.2389514446258545,3.5995895862579346,-2.3997039794921875,0.7902430295944214,0.2463686168193817,0.33447402715682983,-0.909631609916687,0.4135282039642334,-0.27275222539901733,-1.0839139223098755,0.8527565602022369,-0.08780908831126488,0.1935814069812754,-0.4770976457542761,-0.34104704877014325,0.264498676905207,-0.9743752689313249
1784890840348496384,1.2488713264465332,4.337639331817627,-3.191774368286133,2.1548523902893066,0.22458615899085999,0.2943018078804016,-0.9289497137069702,0.7490314245223999,-0.07877141237258911,-1.3018852472305298,0.8602144487920678,-0.07607717676542212,0.17244539895993471,-0.47382077244422804,-0.29872487953271937,0.23721179187466807,-0.9710798501987764
1784890840358415360,1.2587902545928955,5.513124942779541,-3.103607654571533,3.533858299255371,0.20296993851661682,0.2419208288192749,-0.9488295316696167,1.038012146949768,-0.4424976110458374,-0.6720048189163208,0.8713994110314234,-0.059871520932835855,0.14832608868095104,-0.46376470667690045,-0.24434499311691885,0.21073993947476777,-0.9521893950830063
1784890840368335360,1.2687103748321533,4.399157524108887,-3.073262929916382,2.4800806045532227,0.18008841574192047,0.18782402575016022,-0.9655517935752869,0.8614612817764282,-1.4855992794036865,-0.14290761947631836,0.881738976888606,-0.04274176546166173,0.12408559023643605,-0.4531140867565225,-0.18894626582624224,0.18439474587168642,-0.9318690671707981
1784890840378254336,1.2786293029785156,2.238586664199829,-3.1300063133239746,2.4776434898376465,0.15426799654960632,0.15225203335285187,-0.9762278199195862,0.8801405429840088,-1.382491946220398,0.2974711060523987,0.889290766730955,-0.033840741120542486,0.10363834521287175,-0.44415758587529763,-0.15284647119694458,0.15672857510797394,-0.9143919354627309
1784890840388174592,1.2885494232177734,0.8756890296936035,-3.340954303741455,3.824058771133423,0.12734976410865784,0.1329944133758545,-0.9829010963439941,1.356033444404602,-0.991041898727417,-0.07033681869506836,0.8978655317084363,-0.03257512616233374,0.08653509784241774,-0.4304510428417309,-0.13338962269248159,0.12884740102931205,-0.8854723122037482
1784890840398093568,1.2984683513641357,0.5342193245887756,-4.0218610763549805,4.7138543128967285,0.0970403254032135,0.12200053036212921,-0.9877747893333435,1.6530207395553589,-0.9390934109687805,-0.3262205123901367,0.9084323929543164,-0.03570779685752914,0.0695525332448188,-0.4106557336814636,-0.12230522234048731,0.09792710923685677,-0.8431120925290969
1784890840408012288,1.308387279510498,0.8180076479911804,-4.622506618499756,4.937962532043457,0.060210250318050385,0.1115841343998909,-0.991929292678833,1.610062599182129,-0.9802212119102478,-0.522108793258667,0.9194061785671561,-0.03977088340124188,0.04953416900517221,-0.3881456452136582,-0.11181699896563417,0.06062575951599669,-0.7955482508372982
1784890840417932544,1.3183073997497559,1.4115650653839111,-4.957391738891602,5.376646995544434,0.01821138896048069,0.09870275855064392,-0.9949502944946289,1.5323562622070312,-0.8390287160873413,-0.6747732162475586,0.9301248302232058,-0.04269819169919286,0.026489839135606843,-0.3637897107055884,-0.09886372937932422,0.018301773630736366,-0.7447489031639638
1784890840427851520,1.3282263278961182,2.2037410736083984,-5.046867847442627,5.856117248535156,-0.02602289617061615,0.08098103851079941,-0.9963758587837219,1.5662450790405273,-0.8795802593231201,-0.6962205171585083,0.9406348686896046,-0.0425453655146541,0.001398298428617613,-0.3367402369556711,-0.08106980882470768,-0.026111613661251597,-0.6886136265618629
1784890840437771520,1.338146448135376,2.7014760971069336,-5.422452449798584,6.378513336181641,-0.0733831599354744,0.059302330017089844,-0.995539128780365,1.6092108488082886,-1.1569890975952148,-0.59274822473526,0.950576406749263,-0.039533710492428584,-0.02583649153268806,-0.30687786402628864,-0.0593371441225991,-0.07357890986895806,-0.626726758422182
1784890840447690496,1.3480653762817383,2.4728281497955322,-5.492920875549316,6.7007341384887695,-0.12417160719633102,0.03977542743086815,-0.9914632439613342,1.6332963705062866,-1.4488940238952637,-0.5397409796714783,0.9594496235796186,-0.03626022046267074,-0.05434688610536997,-0.2742041565364798,-0.03978592110563402,-0.12459204092326118,-0.5592271728485072
1784890840457609472,1.3579843044281006,1.9155346155166626,-5.234448432922363,6.85041618347168,-0.17470817267894745,0.02794821374118328,-0.9842235445976257,1.5214946269989014,-1.749750018119812,-0.5282581448554993,0.9666584618922025,-0.03476252028681009,-0.0817300647910142,-0.2401732729950405,-0.027951854141715127,-0.1756787153417133,-0.4895139902924523
1784890840467529472,1.3679044246673584,1.3735734224319458,-4.756782531738281,6.961272716522217,-0.22140167653560638,0.025934312492609024,-0.9748377799987793,1.444591999053955,-1.8527470827102661,-0.3820347785949707,0.9722436467175963,-0.03578789312788619,-0.10630303293275828,-0.20533181907306103,-0.025937221263351806,-0.22332798128899106,-0.41917907222423223
1784890840477448448,1.3778233528137207,0.9227295517921448,-4.487403392791748,7.1010050773620605,-0.2637442648410797,0.031399741768836975,-0.9640814065933228,1.5135917663574219,-1.8621644973754883,-0.12062007188796997,0.9763081235341404,-0.03842190035363241,-0.12838629480671734,-0.16989151440774372,-0.031404904787026226,-0.26703676474847504,-0.3487966295303832
1784890840487368448,1.3877432346343994,0.30964210629463196,-4.203505039215088,7.43391752243042,-0.3023985028266907,0.04585113376379013,-0.9520781636238098,1.6835477352142334,-1.8735641241073608,0.3747923970222473,0.9789033170585246,-0.043653182044287545,-0.148510341208165,-0.13336900953641348,-0.045867216075696784,-0.3075419860234627,-0.2779294921710912
1784890840497287424,1.3976624011993408,-0.1989223062992096,-3.747413396835327,7.8038740158081055,-0.33542850613594055,0.06939584761857986,-0.9395062327384949,1.7122442722320557,-1.922850489616394,0.7746655344963074,0.9801236914177632,-0.051576649273761356,-0.1660925517925685,-0.09545023001924928,-0.06945166749183689,-0.34292062506762555,-0.206190540101243
1784890840507206400,1.4075813293457031,-0.6805704832077026,-3.2432782649993896,8.367776870727539,-0.36089590191841125,0.10129248350858688,-0.9270889759063721,1.6502177715301514,-1.8470810651779175,1.084315538406372,0.9800285093140905,-0.061920751043830415,-0.18061375111868508,-0.055576394432038476,-0.10146649814839832,-0.37122977108954613,-0.132365371366581
1784890840517126656,1.417501449584961,-1.262265682220459,-2.8511574268341064,8.747907638549805,-0.3783888816833496,0.14139050245285034,-0.9147844314575195,1.6362624168395996,-1.7980220317840576,1.3269548416137695,0.9783674421401682,-0.07496420206825455,-0.1923230116594376,-0.01376477423986116,-0.14186588878926018,-0.392207021632476,-0.05636447929131982
1784890840527045376,1.4274203777313232,-1.9906055927276611,-2.5014021396636963,8.835066795349121,-0.3881264925003052,0.1894727498292923,-0.9019190073013306,1.6268502473831177,-1.8557935953140259,1.3999963998794556,0.9747590645352946,-0.0913195482863905,-0.20174545250777914,0.02836155674946424,-0.1906251369062787,-0.4063799665188306,0.01878613928781993
1784890840536965376,1.437340259552002,-2.67708683013916,-2.2381160259246826,8.672444343566895,-0.39031654596328735,0.24379093945026398,-0.8878169655799866,1.6337552070617676,-1.9963544607162476,1.3774256706237793,0.9690654878111166,-0.1107889987493494,-0.2093258362365221,0.0694308520086104,-0.24627281420821612,-0.41420209140167014,0.09105333295290242
1784890840546884608,1.4472594261169434,-3.5211181640625,-1.9027507305145264,8.4893798828125,-0.38535600900650024,0.30361852049827576,-0.8713877201080322,1.665736198425293,-2.062544822692871,1.4900248050689697,0.961216343189707,-0.13362215634411992,-0.21552554524467107,0.10843012080025934,-0.3084881709318339,-0.41637577553599053,0.15899463308504402
1784890840556804352,1.457179307937622,-4.098743915557861,-1.6425479650497437,8.510940551757812,-0.3722130060195923,0.3681449592113495,-0.852013349533081,1.6882530450820923,-2.130016326904297,1.8768699169158936,0.9511822026069768,-0.15977334332494175,-0.22014948363863962,0.1458050819738123,-0.3770130545245018,-0.41187555078091675,0.22454667106807707
1784890840566723328,1.4670982360839844,-4.774325370788574,-1.3945258855819702,8.634119033813477,-0.3508778214454651,0.4355417490005493,-0.8289681077003479,1.7185382843017578,-2.1842904090881348,2.133869171142578,0.9387399477667167,-0.18856425685919384,-0.22351612490805128,0.1823495592191921,-0.4506400042698808,-0.4004048946742532,0.2907630662885414
1784890840576642560,1.4770174026489258,-5.440260887145996,-1.1765246391296387,8.802207946777344,-0.32066237926483154,0.5055057406425476,-0.8010240793228149,1.748991847038269,-2.0800297260284424,2.3544602394104004,0.923524489917225,-0.2203612205557621,-0.22567428149326302,0.21820777000329689,-0.5299679999146001,-0.3807783585964724,0.3595422340045802
1784890840586562304,1.4869372844696045,-5.802642345428467,-1.0781716108322144,8.821633338928223,-0.28246229887008667,0.5751448273658752,-0.7677392363548279,1.739814043045044,-1.9513959884643555,2.44912052154541,0.9054373991210822,-0.25414954968534437,-0.22702068041002307,0.2530866797508772,-0.6127811857526279,-0.3525441875665137,0.4325459850485471
1784890840596481536,1.496856451034546,-5.5516557693481445,-1.0530654191970825,8.849906921386719,-0.24737292528152466,0.6248271465301514,-0.7405388355255127,1.7002537250518799,-1.8186900615692139,2.4332878589630127,0.8881225412484963,-0.2782466604161201,-0.22871246789561953,0.28549573683950813,-0.6749101034967764,-0.3223904805995868,0.5080677386565685
1784890840606401536,1.5067763328552246,-5.003890514373779,-0.9428026080131531,8.945777893066406,-0.19723156094551086,0.6817139983177185,-0.7045323252677917,1.6640284061431885,-1.7687501907348633,2.2693514823913574,0.8660984804649787,-0.30940900470227073,-0.22803490303075727,0.3195928472642879,-0.7501028156678727,-0.2729593610018656,0.5989779036482266
1784890840616320256,1.516695261001587,-4.180363178253174,-0.8520756363868713,9.11732292175293,-0.14045189321041107,0.7280340194702148,-0.6709990501403809,1.6285500526428223,-1.7867803573608398,2.2217345237731934,0.8427020300674093,-0.3373960365617746,-0.22508749415158147,0.3540520040975027,-0.8154497680867019,-0.2063384930429306,0.7061107361472402
1784890840626239488,1.5266144275665283,-3.254725217819214,-0.7579039335250854,9.379859924316406,-0.0774555578827858,0.7619722485542297,-0.6429610848426819,1.6406574249267578,-1.8655946254730225,2.1712660789489746,0.818419866788464,-0.361206553109275,-0.21920145739195704,0.38944766359576477,-0.8663530806465309,-0.1198892169803455,0.8327908197366592
1784890840636159488,1.536534309387207,-3.339928150177002,-0.8598508238792419,9.512857437133789,-0.00994799006730318,0.7858898639678955,-0.6182864308357239,1.6584770679473877,-1.961259126663208,2.2866978645324707,0.7926188365494664,-0.3823056278706256,-0.2114218089484877,0.42532178797669895,-0.9041339080181887,-0.016088225359087795,0.9771865370234466
1784890840646078464,1.5464532375335693,-5.159063339233398,-0.38070306181907654,9.319709777832031,0.06071995571255684,0.8082789182662964,-0.5856605768203735,1.6338143348693848,-2.124532699584961,2.625272274017334,0.7631483629374831,-0.40657557931000904,-0.20461183236578756,0.4587318364703982,-0.9412231558001224,0.1033086171713834,1.1350537880901561
1784890840655998464,1.5563733577728271,-7.843018531799316,-0.04628617316484451,8.90201473236084,0.13373690843582153,0.8356600999832153,-0.5327162742614746,1.4639345407485962,-2.2373170852661133,2.714829921722412,0.727933981632111,-0.4393110793103619,-0.201612586304375,0.48628209061262534,-0.9893335274083436,0.24596399167733635,1.311040673725983
1784890840665917440,1.5662922859191895,-9.7144193649292,-0.06486891210079193,8.6183500289917,0.207306906580925,0.8641451001167297,-0.4585598111152649,1.3653860092163086,-2.07908034324646,2.2837703227996826,0.686275232889195,-0.47883033320654567,-0.2035720981246514,0.5082383598773685,-1.0434490941116374,0.424584449568161,1.5214351612858608
1784890840675837440,1.5762124061584473,-10.612606048583984,-0.31240227818489075,8.343480110168457,0.2802013158798218,0.8857712745666504,-0.3699955344200134,1.3409839868545532,-1.7369827032089233,1.9195865392684937,0.6389266748238326,-0.5206979085068909,-0.20946579355939127,0.5260899478907153,-1.088153153489136,0.6481630888025647,1.7786884766036237
1784890840685756416,1.5861313343048096,-9.866373062133789,-0.6173188090324402,8.070833206176758,0.35117945075035095,0.8935084939002991,-0.27984949946403503,1.2477128505706787,-1.5326075553894043,1.83613920211792,0.5889435932356448,-0.5597067198949104,-0.21634146942943863,0.5413596656191447,-1.1050985848212591,0.8979578650697528,2.0642088858867083
1784890840695675392,1.5960502624511719,-7.772014141082764,0.1466297060251236,8.053825378417969,0.420764684677124,0.884030282497406,-0.2035866379737854,1.096935510635376,-1.2195711135864258,1.8517189025878906,0.5415960265117179,-0.5919633670657718,-0.21860020789340992,0.5553981315311822,-1.0844154058638324,1.120152668571336,2.3183351115871194
1784890840705595392,1.6059703826904297,4.017541408538818,-7.327171802520752,14.383463859558105,0.4986059367656708,0.8466234803199768,-0.18606683611869812,1.3720757961273193,-0.1015673279762268,2.4631359577178955,0.504063494664319,-0.6045518211794968,-0.20367541517247317,0.5821970818148554,-1.009608341838201,1.2136273657913654,2.4469458079014745
1784890840715514368,1.615889310836792,1.8110805749893188,-4.2873430252075195,4.030152320861816,0.5504955649375916,0.8023504614830017,-0.23062583804130554,9.924785614013672,6.624056339263916,3.130162000656128,0.48072144874346606,-0.5907029865489941,-0.18909537626761339,0.6198546294180681,-0.9312229791323663,1.1740678251092431,2.467483918146623
1784890840725434624,1.6258094310760498,-0.17272573709487915,4.070468902587891,7.439330101013184,0.5968276858329773,0.7659966945648193,-0.23884248733520508,-1.357142686843872,2.1320135593414307,3.7149624824523926,0.46824542660903923,-0.5942809239457139,-0.16555646498479545,0.6325878793858318,-0.8725903164127177,1.1901290530037278,2.478635779168406
1784890840735353344,1.635728359222412,-8.555763244628906,6.178653717041016,-1.3950717449188232,0.6241565346717834,0.7604717016220093,-0.17919623851776123,-3.7712512016296387,1.1771960258483887,3.155301094055176,0.45013079889403157,-0.6195622763981676,-0.16292472272504316,0.6220774010848603,-0.8640392031465708,1.2912146631368067,2.5573937429216875
1784890840745272320,1.6456472873687744,-16.314102172851562,7.169692039489746,-2.872107744216919,0.6128252744674683,0.789559006690979,-0.032272640615701675,-0.03354066610336304,0.16753315925598145,3.3464510440826416,0.42521321781387483,-0.6690131541498477,-0.19048642953521108,0.5790767639252962,-0.9100900469886778,1.5181828693192254,2.744050005557544
1784890840755192576,1.6555674076080322,-12.378303527832031,4.351556301116943,-2.818049907684326,0.5826126933097839,0.8044402599334717,0.11592359095811844,2.2987349033355713,-0.06870728731155396,1.0259525775909424,0.38860404508592533,-0.7091121471775572,-0.23478023172416457,0.539467403280071,-0.9347325986934485,1.7672031943757522,2.995786109124917
1784890840765111552,1.6654863357543945,-5.854476451873779,1.9968385696411133,0.10514263063669205,0.5625060200691223,0.8010751605033875,0.20461013913154602,5.036920070648193,1.3785511255264282,1.2696635723114014,0.3655975018089035,-0.7316038408274086,-0.25896117184123985,0.513841707210217,-0.9290893220375785,1.9196654508824136,-3.1362540351144146
1784890840775031552,1.6754064559936523,-3.8037219047546387,0.336871862411499,4.157940864562988,0.5773464441299438,0.7780555486679077,0.2475893199443817,5.212433338165283,3.5914206504821777,1.6417691707611084,0.343641120384496,-0.7451961615316073,-0.26168176042070984,0.5080512462105334,-0.8915646041991566,1.9759150958364535,-3.07654489392701
1784890840784950528,1.6853253841400146,0.33942651748657227,-1.5171514749526978,2.209359884262085,0.6052426695823669,0.7525202631950378,0.25960439443588257,3.564358711242676,3.36156964302063,1.1847316026687622,0.3271140012678735,-0.7518471524033089,-0.25402372150473823,0.5130245512795741,-0.8518806485974042,1.9759877217954178,-3.0711712989865405
1784890840794870784,1.6952457427978516,3.0347213745117188,-0.7439703345298767,1.5125981569290161,0.6198991537094116,0.7486753463745117,0.23496873676776886,-0.014705061912536621,1.6550111770629883,-0.04212820529937744,0.3295365591177888,-0.7465780379200699,-0.24516443810363017,0.5233749127836522,-0.8460616612214741,1.9331072580848376,-3.109719312688447
1784890840804789760,1.7051646709442139,-0.3006218671798706,1.4298582077026367,1.1641075611114502,0.6337168216705322,0.740324854850769,0.22432652115821838,-1.8178904056549072,1.394883394241333,0.2661520540714264,0.3306657933407367,-0.7467447882737934,-0.2335283357565644,0.527728150137048,-0.8335534864993566,1.9110172211519005,3.1412487938227804
1784890840814708736,1.7150835990905762,-5.73867654800415,2.094447612762451,-2.8669838905334473,0.6191932559013367,0.7413277626037598,0.2589065432548523,-2.845038652420044,-0.07439672946929932,0.6987349987030029,0.3246598186360492,-0.7549850717361789,-0.2438253704538171,0.514920034931468,-0.835046572681657,1.9668381359476894,-3.091177654087946
1784890840824628736,1.725003719329834,-8.616179466247559,3.117753267288208,-2.1347014904022217,0.5921984314918518,0.7358396053314209,0.328391969203949,-0.6416521072387695,0.20758092403411865,0.49669650197029114,0.306084457996283,-0.7692315907273274,-0.2692187663389076,0.49205325110875897,-0.8269057500151439,2.077111020341581,-2.9739886465625354
1784890840834547712,1.7349226474761963,-7.749541759490967,2.979898691177368,-1.1194677352905273,0.571239173412323,0.7159963250160217,0.4012923240661621,0.8157695531845093,1.257331371307373,-0.054063260555267334,0.28292141099595397,-0.7851653783019353,-0.29010600955322674,0.4683048739453731,-0.7980502292687863,2.1831944668209604,-2.865093062503562
1784890840844467712,1.744842529296875,-6.589969635009766,1.6166554689407349,-2.162734270095825,0.550335168838501,0.6943796873092651,0.4636468291282654,0.775226354598999,1.8388845920562744,0.05635756254196167,0.26111836472277955,-0.7969165659996774,-0.31104243567017004,0.4472067782023755,-0.7675575070758186,2.270908861410386,-2.76863947822496
1784890840854386688,1.7547616958618164,-6.817105293273926,1.8254283666610718,-1.607983946800232,0.5265612602233887,0.6730892658233643,0.5193111896514893,0.19783449172973633,1.2572543621063232,-0.28534817695617676,0.24219989160896638,-0.8060631037911273,-0.3315386402285724,0.42624360760579266,-0.7383780212494035,2.349262541072361,-2.682070957735391
1784890840864306688,1.7646815776824951,-6.3443684577941895,1.2237900495529175,-2.2915093898773193,0.506589412689209,0.6474893689155579,0.5693192481994629,0.44597089290618896,1.2378711700439453,0.01622140407562256,0.22226941611733364,-0.8133124758141231,-0.3509735756443867,0.40735315064909033,-0.7042853283536523,2.414432626713864,-2.604637055145835
1784890840874225920,1.7746007442474365,-5.08026123046875,0.853990375995636,-1.47445809841156,0.4879179298877716,0.6231582164764404,0.6112362146377563,0.17043772339820862,1.0119431018829346,-0.20294159650802612,0.20443322483267015,-0.8179463304653011,-0.3695698870394589,0.39062627642995135,-0.672774400948771,2.467921061816538,-2.5365361536114723
1784890840884144896,1.7845196723937988,-4.671948432922363,1.3128631114959717,-0.07728885859251022,0.4740677773952484,0.5989062786102295,0.6454229950904846,0.2462843358516693,0.6109935641288757,-0.6080999970436096,0.19003215546266872,-0.8233332534510893,-0.3805704244198314,0.375734249689512,-0.6421346478008125,2.5080809572761447,-2.492808345154739
1784890840894064640,1.7944395542144775,-1.2512884140014648,0.3303697109222412,-0.9713016152381897,0.4681395888328552,0.5809224247932434,0.6658635139465332,0.6081695556640625,0.5597177743911743,-0.3082738518714905,0.17980617939463014,-0.8268836076673373,-0.38625803262622554,0.3670666270705477,-0.6198614978239884,2.5288183878253316,-2.469518583176824
1784890840903983872,1.804358720779419,-1.355265498161316,0.48532775044441223,-0.7054921984672546,0.4602467119693756,0.5833361744880676,0.6692469120025635,-0.22114157676696777,0.6456523537635803,-0.937923789024353,0.17988184407722982,-0.8247598914454544,-0.3929307383740622,0.36471761902543876,-0.6228300988649546,2.5391637980897386,-2.451720462973975
1784890840913903616,1.8142786026000977,-1.1185284852981567,0.019992029294371605,-0.4737066328525543,0.4563775658607483,0.571161687374115,0.6822713017463684,0.033811092376708984,0.3962608575820923,0.6456096768379211,0.17312641619362987,-0.8268984660340128,-0.3967046473905689,0.35901485495921426,-0.6079203711133835,2.5520391254030357,-2.4368671203221903
1784890840923822592,1.82419753074646,-0.9278625845909119,0.06355172395706177,-0.39891451597213745,0.4519125819206238,0.5690276622772217,0.6870098114013672,-0.42185279726982117,-0.20953065156936646,-0.34594541788101196,0.17188452767378296,-0.8269403956231969,-0.3995929184403096,0.35630153464766173,-0.6053229319226471,2.5597561836167797,-2.427771954831276
1784890840933742848,1.8341176509857178,0.9181216359138489,0.21761879324913025,-0.10667704045772552,0.4498670697212219,0.5699478983879089,0.6875894069671631,-0.19625070691108704,0.7430099248886108,0.3764670491218567,0.17241710544568373,-0.8266623156019111,-0.400529814451141,0.35563703080712605,-0.6064424656982994,2.562223625595554,-2.4252030691328414
1784890840943661568,1.84403657913208,1.4539426565170288,0.08531643450260162,-0.3264515995979309,0.445671021938324,0.5793789625167847,0.6824200749397278,-0.00492095947265625,0.5855684280395508,0.10439932346343994,0.17830451601316738,-0.8253934946354926,-0.3999194993274264,0.35636694286629583,-0.6179665188792152,2.5630592646182375,-2.4286512474118545
1784890840953580800,1.8539557456970215,0.6474118232727051,0.49923771619796753,-0.4078892171382904,0.442004919052124,0.5894362926483154,0.6761629581451416,0.1265833079814911,0.4558975100517273,0.05766266584396362,0.18484636514792716,-0.8242954417188575,-0.39826938014762975,0.35742173136629335,-0.6303608486622171,2.562623682272327,-2.435038148696639
1784890840963500800,1.8638756275177002,0.07429517060518265,0.3989192545413971,-1.2496768236160278,0.43308693170547485,0.5953583717346191,0.6767451763153076,-0.22308021783828735,0.2076505422592163,0.2958652377128601,0.1885884214645342,-0.823022638053362,-0.4012559523713517,0.35505182047346,-0.6377116369238252,2.5723109243217306,-2.4269130121321254
1784890840973419776,1.8737945556640625,0.6640340685844421,0.6800105571746826,-0.8434752225875854,0.42497920989990234,0.6027186512947083,0.6753689050674438,0.33510687947273254,-0.24819588661193848,-0.05805927515029907,0.19349608042499264,-0.8218596670791463,-0.40277928798485746,0.35337641679659915,-0.6469037716159646,2.579939473454109,-2.4230193348064404
1784890840983339776,1.8837146759033203,0.058655425906181335,1.118213176727295,-1.1395022869110107,0.4135279059410095,0.6093159914016724,0.6765566468238831,0.602875292301178,-0.05639851093292236,0.3302793502807617,0.19793020822744767,-0.820432699040805,-0.40640928375050606,0.35006481458082395,-0.6551976924790137,2.5929608061128855,-2.412427074235948
1784890840993258752,1.8936336040496826,-0.8757966756820679,0.7744539976119995,-1.32635498046875,0.4010390341281891,0.6139998435974121,0.6798321008682251,1.0944442749023438,-0.16546779870986938,0.2746661305427551,0.20144191850512616,-0.8193282347667858,-0.41063034679286553,0.3456950122571034,-0.6611181882659867,2.6086260719740926,-2.3992093860352792
1784890841003178752,1.9035537242889404,-0.18683868646621704,-0.27400583028793335,-1.2509384155273438,0.38978537917137146,0.6123178005218506,0.6878477931022644,0.8069920539855957,0.11706763505935669,0.6802706122398376,0.20007403559275114,-0.8178430360630602,-0.4183977291307721,0.340656087049378,-0.658988902937851,2.626038185253073,-2.375669163436334
1784890841013097728,1.9134726524353027,0.8228884339332581,1.0542335510253906,-0.5772904753684998,0.3826253116130829,0.62050861120224,0.6845194101333618,1.0638315677642822,-0.41082239151000977,-0.1495158076286316,0.20542602986639655,-0.8163029673456048,-0.4194152733516377,0.33991236121388363,-0.6693911310540985,2.6318893444879286,-2.373053081685315
1784890841023016704,1.923391580581665,0.09123167395591736,0.6828409433364868,-0.6843644976615906,0.3717108368873596,0.6269105672836304,0.684700071811676,0.5869225263595581,0.057720720767974854,0.655906617641449,0.2104987100778118,-0.8154274004162995,-0.4212222499107015,0.3366604566329218,-0.6775814417459922,2.6442312973064763,-2.3664552057967803
1784890841032936704,1.9333117008209229,-0.3566872477531433,0.967505156993866,-0.8876632452011108,0.3614053726196289,0.6279247403144836,0.6892727613449097,0.459868460893631,0.11951184272766113,0.5758640170097351,0.21277399995032625,-0.815892637433966,-0.4230314316470238,0.33179950738864766,-0.6788838198282368,2.658672194712882,-2.358414618805657
1784890841042855680,1.9432306289672852,0.2585933208465576,0.6769298911094666,-0.37610703706741333,0.3519779145717621,0.6311833262443542,0.6911723017692566,0.16677513718605042,-0.27276962995529175,0.42204785346984863,0.21574354159636736,-0.8152606646503985,-0.42536597637242907,0.328433509074694,-0.6830778920917375,2.6705742860953676,-2.3499802417537334
1784890841052775936,1.953150749206543,-0.8436469435691833,1.0174661874771118,-0.6120644211769104,0.3416401445865631,0.6300840377807617,0.6973348259925842,0.424396812915802,0.141964852809906,0.5200875401496887,0.21734996479533286,-0.8166547841302346,-0.4263125300870873,0.3226321431343086,-0.6816614163406739,2.686039356756277,-2.343428331394379
1784890841062694912,1.9630696773529053,-1.48786461353302,0.5745754241943359,-1.1159462928771973,0.33106011152267456,0.6253926157951355,0.7065998315811157,0.26693183183670044,0.3291056752204895,0.4542278051376343,0.21576403014990334,-0.8169865594296877,-0.43108336878193115,0.3164584959438529,-0.6756345830923419,2.7034400831226297,-2.3266558666059725
1784890841072613632,1.9729886054992676,-1.7371540069580078,0.45822587609291077,-0.9461617469787598,0.31983131170272827,0.6176749467849731,0.718460738658905,0.4863210618495941,-0.11730867624282837,0.5726311802864075,0.21231320470022721,-0.8172141281147471,-0.43748307815317744,0.3093425345245728,-0.6657828092602873,2.7227694197418173,-2.3052670824508166
1784890841082533888,1.9829087257385254,-1.9810149669647217,0.7867769002914429,-0.4274314045906067,0.30972856283187866,0.6061429977416992,0.732570230960846,0.38639265298843384,-0.25984472036361694,0.34253352880477905,0.20731195565202687,-0.818752006773135,-0.44264012439814027,0.301225366921934,-0.6512022089191761,2.7415893752923424,-2.2870191426151028
1784890841092452864,1.9928276538848877,-1.7198281288146973,1.0480889081954956,-0.5568516850471497,0.2976803481578827,0.5954723954200745,0.746190071105957,0.2820926606655121,-0.06452739238739014,0.2482559084892273,0.20362750424276213,-0.8205632783443549,-0.44695741324773247,0.29230286079990536,-0.637853497035148,2.7620058542434593,-2.2707654719780197
1784890841102372608,2.0027475357055664,-2.3226301670074463,0.9208537936210632,-0.9987668991088867,0.2803749144077301,0.584039568901062,0.761766254901886,0.3237358033657074,0.08003818988800049,0.3328840732574463,0.24680471127135006,-0.8889828340571836,-0.30098610962796957,0.2412557725660388,-0.6236963650387819,2.788921106415143,-2.603430588630454
1784890841112291840,2.012666702270508,-2.845933198928833,1.2416545152664185,-0.21061208844184875,0.2647440731525421,0.5660891532897949,0.7806749939918518,0.301067054271698,-0.1094394326210022,0.26845818758010864,0.2600527702238545,-0.9186920847739027,-0.21527273447956902,0.20502441813803687,-0.6017539208533697,2.814641362637786,-2.7835242102671836
1784890841122211584,2.0225865840911865,-2.2111356258392334,1.3563517332077026,-0.1688280701637268,0.25263655185699463,0.5475460290908813,0.7977269887924194,0.47139301896095276,-0.2677608132362366,0.15182757377624512,0.25031676935251057,-0.9225975934295937,-0.21835104114665538,0.19615832371502961,-0.5794287838360699,2.8348901386827796,-2.7688919462682504
1784890841132130816,2.032505750656128,-1.4603617191314697,0.3150877058506012,-0.47142893075942993,0.2437536120414734,0.5343772172927856,0.8093360662460327,0.4658868610858917,0.1016547679901123,-0.005686283111572266,0.2437744985215392,-0.9254827885640654,-0.21943028219380475,0.1894884645696927,-0.5637707720491192,2.8490561681726456,-2.7612690925619607
1784890841142049792,2.0424246788024902,-1.6844879388809204,0.8927150964736938,-0.6359617710113525,0.2339518517255783,0.5221563577651978,0.8201339840888977,0.2587697505950928,0.3435510993003845,0.07543504238128662,0.23749318029901537,-0.9276226975314811,-0.2226726571921111,0.18311233860633952,-0.549377406120868,2.8637125558316163,-2.7491918267737687
1784890841151969792,2.052344560623169,-1.2689213752746582,1.1602741479873657,-0.04627961292862892,0.2230757772922516,0.5131846070289612,0.8287817239761353,0.237251415848732,-0.005356729030609131,0.027282297611236572,0.23335722780749438,-0.9293919976926788,-0.2249919382033094,0.1765039778345507,-0.5388911720255548,2.8786629049459225,-2.7395613894558006
1784890841161888768,2.0622637271881104,-1.6844874620437622,0.5414999723434448,-0.15796303749084473,0.2151787281036377,0.5004628300666809,0.8385913968086243,0.4570167064666748,-0.10435986518859863,0.19159066677093506,0.22722895228374942,-0.9318470350901924,-0.2257361109747007,0.17050346364545224,-0.5241332864476183,2.890416203109664,-2.733962850985916
1784890841171808768,2.072183609008789,-1.3814016580581665,0.8040120005607605,0.008062422275543213,0.2085634171962738,0.48810386657714844,0.8474997282028198,0.2985318899154663,-0.09898951649665833,0.0450020432472229,0.22115995918043144,-0.9339894008341303,-0.22674579146090096,0.16534319920059964,-0.5099159198378511,2.9002949064320918,-2.728440615079642
1784890841181727744,2.0821025371551514,-1.2870010137557983,0.7043387293815613,-0.1815091371536255,0.20165136456489563,0.4776744246482849,0.8550810813903809,0.252663791179657,0.1411609649658203,-0.03194582462310791,0.21619208227313827,-0.9357613799176345,-0.22779632534332442,0.16037576015238858,-0.4980056962164478,2.9099969388672107,-2.723150971702698
1784890841191647744,2.092022657394409,-0.8491908311843872,0.5920500159263611,0.09528970718383789,0.19526520371437073,0.467471182346344,0.8621731996536255,0.24101413786411285,-0.007159173488616943,-0.04958146810531616,0.21139370425612547,-0.9375015156224595,-0.2284239607415882,0.15564773475872737,-0.48642797835993773,2.9188697362203593,-2.719081274300341
1784890841201566720,2.1019415855407715,-0.6221356987953186,0.8191712498664856,0.14448727667331696,0.18969644606113434,0.4621894061565399,0.8662539720535278,0.3153083920478821,-0.2755134701728821,-0.2754032611846924,0.20944376778542315,-0.9389110508529863,-0.22709696352677033,0.1516781274186006,-0.4804625668287756,2.926010890559483,-2.7199651112802172
1784890841211485952,2.111860752105713,-1.5332722663879395,0.6488365530967712,0.06058864668011665,0.18319354951381683,0.45247429609298706,0.8727584481239319,0.18515363335609436,-0.07050096988677979,0.02693033218383789,0.20500776481966035,-0.9405725530755036,-0.22738184335535583,0.1469443418470661,-0.46953796819998667,2.934694545600578,-2.71685067077055
1784890841221405696,2.1217806339263916,-0.8948465585708618,0.007002043072134256,0.13013899326324463,0.18041053414344788,0.4413067400455475,0.8790338039398193,0.3097780644893646,-0.22652402520179749,-0.22893309593200684,0.1994028317937962,-0.9421467222012129,-0.2277640306318205,0.14395004253836946,-0.45705435538524464,2.9391663240805985,-2.714429565826209
1784890841231324672,2.131699562072754,0.004331998527050018,-0.2861744463443756,0.023551033809781075,0.18233896791934967,0.43821123242378235,0.880183756351471,0.30032703280448914,-0.043771564960479736,-0.707179605960846,0.19760619291417397,-0.9425132020398417,-0.2275098555035664,0.144429637135754,-0.4536076817232007,2.9373219410134976,-2.715178013838295
1784890841241244672,2.1416196823120117,1.5968942642211914,-0.4299715757369995,0.3486733138561249,0.1830911934375763,0.4450475871562958,0.8765902519226074,0.0569600909948349,0.2817743718624115,-0.7595247030258179,0.20127790381344274,-0.9418354458136442,-0.22636504301747748,0.14557519150123577,-0.4612274116084769,2.9356854073907113,-2.718358305313699
1784890841251163648,2.151538610458374,0.9690852165222168,-0.4014461934566498,-0.303127646446228,0.18637272715568542,0.45755818486213684,0.8694285750389099,-0.04414553940296173,0.21048691868782043,-0.8090035915374756,0.20751430053698336,-0.9399711685344972,-0.2262045159531325,0.1490758859938642,-0.47524712130473085,2.9304260765592733,-2.7205968524962874
1784890841261083904,2.161458730697632,0.27700603008270264,-0.16510671377182007,0.23611769080162048,0.18674874305725098,0.4625812768936157,0.8666852712631226,0.0036504119634628296,-0.3197742998600006,-0.19218581914901733,0.210172153904008,-0.9393165557620996,-0.22589167333442076,0.14994999135639547,-0.48090450330267787,2.9293628234274207,-2.721807605090714
1784890841271002880,2.171377658843994,-0.6019527316093445,-0.2387750893831253,-0.20182982087135315,0.18952487409114838,0.46180459856987,0.8664966225624084,0.25392603874206543,-0.46964770555496216,-0.11858731508255005,0.20937051427598394,-0.9391413702347193,-0.2264106849343942,0.15137886962565356,-0.48002867557478995,2.9262583705687986,-2.72134719888674
1784890841280921600,2.1812965869903564,-0.9118046164512634,-0.25802719593048096,-0.30227014422416687,0.18921558558940887,0.45508718490600586,0.8701112270355225,0.09220229089260101,-0.05773293972015381,0.056036412715911865,0.20550426185900428,-0.9395591901881833,-0.22865726734772773,0.15070666773702943,-0.4724701235684642,2.9274650647801295,-2.715874500962792
1784890841290841856,2.1912167072296143,-1.0031025409698486,0.06473728269338608,-0.0367327481508255,0.1896587461233139,0.4470076262950897,0.8741933703422546,0.16275827586650848,-0.20434698462486267,-0.10031324625015259,0.20109320695441152,-0.9404644966557432,-0.22939751471649755,0.14988301908396792,-0.463417342997045,2.927950668429652,-2.71368740043793
1784890841300760832,2.2011356353759766,-0.8114018440246582,0.04086931049823761,-0.02065763995051384,0.18909507989883423,0.4398503601551056,0.877937912940979,0.09279581904411316,-0.21946758031845093,-0.10874223709106445,0.19725999629039973,-0.9412277226648872,-0.23034611402937694,0.1487266168319468,-0.45543203239353186,2.9294480710302095,-2.7109053108187964
1784890841310680832,2.2110557556152344,-0.1334363967180252,0.062322936952114105,0.48552006483078003,0.1885388344526291,0.43456611037254333,0.8806846737861633,0.10513181984424591,-0.06264841556549072,-0.15659403800964355,0.19468237671925162,-0.9421415621055615,-0.2295900844641754,0.14750072184220508,-0.449556478180738,2.930693989574077,-2.711921668275803
1784890841320599808,2.2209746837615967,-0.42722538113594055,-0.504298746585846,-0.3807224929332733,0.19210484623908997,0.4328474700450897,0.8807602524757385,0.16800254583358765,0.0548233687877655,-0.4253770112991333,0.19336078397105666,-0.9421275187664704,-0.229729970764331,0.14910210154875156,-0.4476491012403472,2.9268433865830557,-2.7123082356159505
1784890841330519552,2.2308945655822754,0.06667513400316238,-0.42359858751296997,0.01063330378383398,0.19458091259002686,0.4311496317386627,0.8810498118400574,0.21655192971229553,0.0011777281761169434,-0.19966840744018555,0.19187318028047506,-0.9417090561134146,-0.2317519067848776,0.15053208643892507,-0.44576651580823407,2.924230584588865,-2.7084383229590316
1784890841340438784,2.240813732147217,-0.4385913908481598,-0.28038686513900757,0.3115040063858032,0.1982875019311905,0.42888331413269043,0.8813294768333435,0.3047337532043457,-0.39801472425460815,-0.28368818759918213,0.19031802934211958,-0.9418555625498192,-0.23145803682972288,0.1520343399357048,-0.4432562827346995,2.9202907637694664,-2.7097092143173556
1784890841350357760,2.250732660293579,-0.7864063382148743,-0.48591792583465576,0.35388875007629395,0.20286424458026886,0.42372700572013855,0.8827807903289795,0.14654681086540222,-0.3290613889694214,-0.1441025733947754,0.187242916300345,-0.9424318261514547,-0.23067866546567475,0.15345944554892227,-0.4375560278039217,2.9157129192359945,-2.711918166419847
1784890841360277760,2.260652542114258,-1.038795828819275,-0.2476842999458313,0.007186907343566418,0.2064255177974701,0.41433411836624146,0.8864063620567322,0.0331527441740036,-0.18981623649597168,-0.07781243324279785,0.18193023959254767,-0.9433393383044059,-0.2308983760632623,0.15394265014859596,-0.4272110446094066,2.912791530216885,-2.7113353818287176
1784890841370196736,2.270571708679199,-0.6112343668937683,-0.18035399913787842,0.303129106760025,0.20950494706630707,0.4068503677845001,0.8891459703445435,0.10445989668369293,-0.3174796402454376,-0.13595688343048096,0.17766157105659552,-0.943993655636248,-0.23119031898194484,0.15447784544366264,-0.41900349885880556,2.9101885679454074,-2.7106464494733005
1784890841380116736,2.280491590499878,-0.8202264308929443,-0.4935572147369385,0.2969789505004883,0.21405114233493805,0.3996639847755432,0.8913194537162781,0.21626192331314087,-0.1516934633255005,-0.15013927221298218,0.17356187703421205,-0.9447550611349504,-0.2304291674140687,0.15561630509425206,-0.4111502635828827,2.905905020516841,-2.7124917328690255
1784890841390035968,2.2904107570648193,-0.43101766705513,-0.5216513872146606,0.12784132361412048,0.2194238007068634,0.39431318640708923,0.8923960328102112,0.058072566986083984,0.00392603874206543,-0.10398948192596436,0.1701658051841154,-0.9449943360171497,-0.23061596325354494,0.15762512539311996,-0.4053203606812372,2.900493835691488,-2.7126430789744096
1784890841399955712,2.300330638885498,-0.2535931468009949,-0.3553071618080139,0.385810911655426,0.22414077818393707,0.3906911611557007,0.8928166627883911,0.14042223989963531,-0.0004017949104309082,-0.13080787658691406,0.16786814623127222,-0.9452503157930761,-0.2300220810164145,0.15941149995180295,-0.40138231511432504,2.8956268798188094,-2.7144615565056505
1784890841409874688,2.3102495670318604,-0.017407251521945,-0.4921558201313019,0.4587607681751251,0.22990359365940094,0.3884378969669342,0.892334520816803,0.18136660754680634,-0.05306488275527954,-0.0709078311920166,0.1663362169779391,-0.9455156946530141,-0.2284016936512415,0.16175645566805716,-0.39893577338982855,2.8894337794062728,-2.7187839670634646
1784890841419794688,2.320169687271118,-0.3678055703639984,-0.46451613306999207,0.5804232358932495,0.23608222603797913,0.3859352469444275,0.891806960105896,0.14271725714206696,-0.11449658870697021,-0.1090308427810669,0.16466735572767777,-0.9458051376010437,-0.22661890934347684,0.16425989255086004,-0.39622140865290334,2.882805336214123,-2.723481225822666
1784890841429713664,2.3300886154174805,-0.5530678033828735,-0.40167832374572754,0.6511484980583191,0.24228249490261078,0.38031870126724243,0.8925563097000122,0.264706015586853,-0.3811427056789398,0.030920803546905518,0.16148134313324974,-0.9465297769886807,-0.22440930491680106,0.16626963417064314,-0.39014087236124384,2.8765318419427124,-2.7286843316512277
1784890841439632640,2.3400075435638428,-1.1654342412948608,-0.3275420069694519,0.7672876715660095,0.24823252856731415,0.37092652916908264,0.8948711156845093,0.17927296459674835,-0.40408384799957275,0.020671486854553223,0.15642194275124455,-0.9476923617119092,-0.22206923169105952,0.16762060440386004,-0.3800065136161653,2.87100144608631,-2.733594744592218
1784890841449552896,2.3499276638031006,-1.2834839820861816,-0.015794236212968826,0.7317107915878296,0.25251883268356323,0.3578523099422455,0.898986279964447,0.11752209067344666,-0.2678406834602356,0.1635291576385498,0.14968767392822838,-0.9493382169914503,-0.21965903821481272,0.16763221501491868,-0.3659668886991777,2.867756187484816,-2.7378154444388847
1784890841459471616,2.359846591949463,-0.903918981552124,-0.1968517154455185,0.5530697107315063,0.25566133856773376,0.34627601504325867,0.902624249458313,0.18446320295333862,-0.01778477430343628,0.014368057250976562,0.14380438415305577,-0.9507755002224163,-0.21757316860813633,0.1673566873796331,-0.3535986144117724,2.8655799552054195,-2.7412835420515607
1784890841469391872,2.3697667121887207,-0.3182182013988495,-0.39146462082862854,0.5060350894927979,0.26029735803604126,0.3393782377243042,0.9039180874824524,0.20108267664909363,0.2927628755569458,-0.05662798881530762,0.14011054597387396,-0.9515236580758186,-0.21578178468146242,0.16855280706635745,-0.34625583902301793,2.8612127884647838,-2.744932324075639
1784890841479310848,2.379685640335083,0.1669224500656128,-0.4727645218372345,0.26992136240005493,0.2655271589756012,0.3379178047180176,0.9029434323310852,0.1101900041103363,0.3953585922718048,-0.09590613842010498,0.13906955072910498,-0.9515896367906036,-0.21435690379442515,0.17084475677828112,-0.3447036691549532,2.8555865066307606,-2.748584539450317
1784890841489230848,2.389605760574341,0.35790276527404785,-0.3860725164413452,0.2810395359992981,0.27006906270980835,0.33969348669052124,0.9009277820587158,-0.00992196798324585,0.31661751866340637,-0.05968034267425537,0.13970093574409698,-0.9513089013276006,-0.213249295256908,0.17326196769452243,-0.346590971058814,2.8503489869205874,-2.751890069625112
1784890841499149824,2.399524688720703,0.4859071373939514,-0.5603585243225098,0.06925860047340393,0.27506163716316223,0.34316447377204895,0.8980976343154907,0.06234070658683777,0.06053730845451355,-0.07310068607330322,0.14114853569301086,-0.9508003680235297,-0.21219679043462938,0.17614852127913042,-0.3502838782064636,2.8443922530963,-2.755404677618348
1784890841509068800,2.4094436168670654,0.1407172679901123,-0.4568862318992615,0.04430371895432472,0.279790997505188,0.3458172380924225,0.8956160545349121,0.04206269979476929,-0.14623215794563293,-0.03216665983200073,0.14202344413441556,-0.9501571764751964,-0.21215409282268205,0.17894550699684486,-0.3531096154051182,2.8387983263211174,-2.756658686929464
1784890841518988800,2.4193637371063232,-0.057040080428123474,-0.4811045527458191,0.14606307446956635,0.28419607877731323,0.3460843563079834,0.8941245675086975,0.16421401500701904,-0.16239896416664124,-0.007588624954223633,0.14174625532680157,-0.9498139091650287,-0.2119335024440346,0.18123425787251482,-0.3533943138626993,2.8338426458159276,-2.7578973119658254
1784890841528907776,2.4292826652526855,-0.2205832153558731,-0.5942473411560059,0.10593774914741516,0.2894221544265747,0.3444230556488037,0.8930889964103699,0.07718554139137268,-0.09518596529960632,-0.026893138885498047,0.14036386501928097,-0.9495508130340509,-0.21189087215398242,0.1837214971458163,-0.35162417568029797,2.8282033475748722,-2.7586075599875555
1784890841538827776,2.4392025470733643,-0.04072768613696098,-0.551003634929657,0.1041579619050026,0.2951326370239258,0.34264835715293884,0.8919016122817993,0.12532323598861694,-0.07728281617164612,0.0003406405448913574,0.1388945218675712,-0.9492716613255138,-0.2117407034044908,0.18643339996476993,-0.3497344506315185,2.8220312789165543,-2.759593477549094
1784890841548746752,2.4491217136383057,-0.10611628741025925,-0.6640364527702332,-0.07061810791492462,0.30018866062164307,0.34215807914733887,0.8904011845588684,0.10410821437835693,0.11142465472221375,0.0028328895568847656,0.13805770057659522,-0.9488057657987625,-0.21205709031410538,0.1890486397925615,-0.3492126579420428,2.8164212347690163,-2.7596778893729095
1784890841558666752,2.4590415954589844,-0.029981566593050957,-0.5976487398147583,-0.09383022040128708,0.3055564761161804,0.3417152166366577,0.8887442946434021,0.07524189352989197,0.19374626874923706,0.08630776405334473,0.13709334835397688,-0.9481682629966444,-0.21295323056395993,0.19192026813653573,-0.3487413622172396,2.810445629942302,-2.758592843169236
1784890841568585984,2.468960762023926,-0.10013295710086823,-0.5614838600158691,-0.133165642619133,0.3102819621562958,0.34134799242019653,0.8872464895248413,0.12897273898124695,0.07396566867828369,0.11435550451278687,0.13621200798710628,-0.947552597107795,-0.21393295965103543,0.19448125788831563,-0.34835064858732534,2.8051731940502727,-2.757232838928077
1784890841578504704,2.478879690170288,0.09988974779844284,-0.5835370421409607,-0.19023391604423523,0.31479236483573914,0.34208428859710693,0.8853720426559448,0.1539117693901062,0.048754215240478516,0.13106143474578857,0.13587375682080963,-0.9467942419888561,-0.21509690797835698,0.19710957314419203,-0.3491341260171989,2.799983757963949,-2.755628267605939
1784890841588424704,2.488799571990967,0.04572664201259613,-0.6413561105728149,-0.20363254845142365,0.3193299472332001,0.3431922197341919,0.8833160400390625,0.21173691749572754,0.04132923483848572,0.15528857707977295,0.13571317896217036,-0.9459826302803219,-0.2162749880982387,0.19980953132935114,-0.3503134404548296,2.7946985701802585,-2.7540622309016154
1784890841598343936,2.498718738555908,-0.20411795377731323,-0.4837273359298706,-0.22599464654922485,0.32367128133773804,0.3432063162326813,0.8817289471626282,0.20147517323493958,-0.05205342173576355,0.21516412496566772,0.13493009591392074,-0.9452098099788183,-0.21781390480049226,0.20230988272939943,-0.35032843487197257,2.7897773615714927,-2.7515137060884673
1784890841608263680,2.508638620376587,-0.38563182950019836,-0.2935755252838135,-0.1658998727798462,0.32626843452453613,0.3413635492324829,0.8814874291419983,0.18366503715515137,-0.06463015079498291,0.282987117767334,0.1333995210251481,-0.94481317223967,-0.21925276462052581,0.20361954243309724,-0.3483672012829308,2.787094912274768,-2.7485663827999027
1784890841618182656,2.518557548522949,-0.7579858899116516,-0.23427638411521912,-0.3277031183242798,0.3276951313018799,0.3371710777282715,0.8825712203979492,0.17804226279258728,-0.09412899613380432,0.2754337787628174,0.1307029595579221,-0.9446670432238312,-0.2211103240592199,0.20403732855214934,-0.34391039520504463,2.786073296022186,-2.7441292074455905
1784890841628102656,2.528477668762207,-1.1103407144546509,-0.10379668325185776,-0.3403661847114563,0.32810378074645996,0.3301657438278198,0.885063886642456,0.20917338132858276,-0.07470321655273438,0.31801509857177734,0.1265265329699742,-0.9447136505605592,-0.22371424149061694,0.20361479016372702,-0.33647915865072103,2.786586649856626,-2.7374648503788976
1784890841638021632,2.5383965969085693,-1.2239925861358643,0.11708471924066544,-0.3732793629169464,0.3266226649284363,0.32081329822540283,0.8890422582626343,0.28156208992004395,-0.04173010587692261,0.3685259222984314,0.12131034680427402,-0.9450662948513561,-0.22665132018474352,0.201897459972128,-0.32658804189603385,2.7895129376715877,-2.7294310271826285
1784890841647941888,2.548316717147827,-1.3561182022094727,0.1231926754117012,-0.31028732657432556,0.3245813250541687,0.3106508255004883,0.8933883309364319,0.3062627911567688,-0.05929282307624817,0.3874495029449463,0.11580701642177701,-0.945546532281689,-0.22942522832840423,0.19973602684988911,-0.3158776441848329,2.793105589863807,-2.7215733984305177
1784890841657860864,2.5582356452941895,-1.3277947902679443,0.42772412300109863,-0.29199087619781494,0.3211773931980133,0.29953962564468384,0.8983993530273438,0.3429308831691742,-0.01644328236579895,0.5037003755569458,0.11002996222291983,-0.9462160279610489,-0.23210971204617933,0.1967074336251698,-0.30421010133918286,2.79825237309694,-2.71362732007777
1784890841667779584,2.5681545734405518,-1.4344449043273926,0.5967192649841309,-0.07289714366197586,0.3159691095352173,0.288167804479599,0.9039486050605774,0.3407844603061676,-0.09010869264602661,0.5505802631378174,0.1045505050489537,-0.9472405765110444,-0.23390083402157866,0.19260049885530567,-0.292312916131769,2.8053248199725966,-2.7073829700403085
1784890841677699840,2.5780746936798096,-1.9954588413238525,0.9063234925270081,-0.10838688910007477,0.30880218744277954,0.27296358346939087,0.9111157655715942,0.30457058548927307,-0.18147191405296326,0.650590717792511,0.09743925517423874,-0.948715358016097,-0.2355781411527131,0.18694295333641925,-0.27647226035555583,2.814815836482756,-2.7006757208344485
1784890841687618816,2.587993621826172,-2.47457218170166,1.0628668069839478,-0.1397826373577118,0.29918569326400757,0.25284162163734436,0.9200865626335144,0.24417981505393982,-0.22706949710845947,0.6958497762680054,0.08812969356986321,-0.9505447508232147,-0.2377140493732564,0.17941554995330597,-0.2556161940036591,2.8272058914248603,-2.692213033049983
1784890841697538816,2.5979137420654297,-2.418174982070923,1.0586222410202026,-0.11031652241945267,0.2890956997871399,0.23035793006420135,0.9291709661483765,0.24657931923866272,-0.016078799962997437,0.6292853355407715,0.07773396802888843,-0.9523301786819025,-0.2401097699638058,0.1713822989152496,-0.23244549531115988,2.839953691704146,-2.683112101045195
1784890841707457792,2.607832670211792,-1.9233617782592773,1.3037251234054565,-0.13087931275367737,0.27824458479881287,0.21047993004322052,0.9371650218963623,0.26940861344337463,0.4176786541938782,0.3100121021270752,0.06890065165326845,-0.953964219538054,-0.24193963841150104,0.16331019803419586,-0.21206586486744,2.8529820491700577,-2.675766422954123
1784890841717377536,2.6177525520324707,-1.1751309633255005,1.6824357509613037,-0.2853386402130127,0.2636354863643646,0.1965675950050354,0.9443821907043457,0.28127115964889526,0.6864280700683594,0.19699060916900635,0.06356531225138781,-0.95543995946559,-0.24356841810866847,0.15417007557337964,-0.19785598830078582,2.8693613164290337,-2.669555827569669
1784890841727296768,2.627671718597412,-0.7355090379714966,1.7455172538757324,-0.4220251142978668,0.24673160910606384,0.18876859545707703,0.9505206942558289,0.2908202111721039,0.4774301052093506,0.3676553964614868,0.061510146273794836,-0.956536015894521,-0.245558929169703,0.14476211021180524,-0.18990804913926357,2.887622519549098,-2.6633297713771658
1784890841737215744,2.6375906467437744,-0.7390679121017456,2.029100179672241,-0.26880162954330444,0.22824853658676147,0.1827569305896759,0.9562960863113403,0.30728912353515625,0.1878790259361267,0.5998103022575378,0.06062780422313721,-0.9576379864145232,-0.24713868567988687,0.13481894758127635,-0.18378988347445582,2.9072963633972213,-2.6581616475142016
1784890841747135744,2.647510528564453,-0.9701823592185974,2.264159917831421,-0.04241376742720604,0.20760700106620789,0.17523227632045746,0.9623892903327942,0.23500469326972961,-0.0012820959091186523,0.7289865016937256,0.05941796607822312,-0.9590449629862059,-0.24784550053209853,0.12359167504038836,-0.17614169706934252,2.9291280265199617,-2.6546306127315056
1784890841757054720,2.6574296951293945,-1.22427237033844,2.415540933609009,0.0580189973115921,0.1850803643465042,0.16438011825084686,0.9688778519630432,0.2356196939945221,-0.19584375619888306,0.7493074536323547,0.05693150081775436,-0.9607766048746958,-0.24768377385688717,0.11099478508923405,-0.16512955255592682,2.952841136565643,-2.652654733278122
1784890841766974720,2.6673495769500732,-1.24009370803833,2.516448497772217,-0.021393004804849625,0.16132918000221252,0.1524362713098526,0.9750567674636841,0.2571125626564026,-0.3160715699195862,0.5994974970817566,0.05404811860682617,-0.962388999123038,-0.2476606503368718,0.09772574394925168,-0.15303288762168907,2.9776219681893896,-2.6504429639670404
1784890841776893952,2.6772687435150146,-0.9077881574630737,2.4097204208374023,0.09152316302061081,0.1372716724872589,0.14161114394664764,0.9803582429885864,0.3882409930229187,-0.06431014835834503,0.4389530420303345,0.051779455364792254,-0.9638521096027016,-0.24732213990907373,0.08449641156310024,-0.14208876901354875,3.0024751817365276,-2.6491517593088907
1784890841786813696,2.6871886253356934,-0.1874861717224121,2.3725602626800537,0.16974179446697235,0.11425849050283432,0.13592569530010223,0.9841083288192749,0.4257195293903351,0.2587581276893616,0.2698131799697876,0.051927177761158794,-0.9650704101610134,-0.24636001063696059,0.07245277257787534,-0.13634777169293635,3.0260065913154794,-2.649616005721417
1784890841796733952,2.697108745574951,0.5334466695785522,2.255279779434204,0.11293697357177734,0.09163234382867813,0.13786205649375916,0.9862037897109985,0.36065343022346497,0.29641836881637573,0.15022516250610352,0.055748608943080126,-0.9659769055775008,-0.24492958940908696,0.06156529731923151,-0.13830254114475693,3.0489444461538695,-2.651368204485508
1784890841806653952,2.707028865814209,0.8016565442085266,2.228003740310669,0.15423648059368134,0.07000268250703812,0.14450304210186005,0.9870249629020691,0.343098521232605,0.18105846643447876,0.22206610441207886,0.061711911094101436,-0.9665489220016086,-0.2435070192865468,0.051760054038214834,-0.14501071801284707,3.070788303064824,-2.6531404009267088
1784890841816572928,2.7169477939605713,0.8550988435745239,2.2349467277526855,0.15341931581497192,0.048479169607162476,0.15261434018611908,0.9870962500572205,0.2979563772678375,-0.020366385579109192,0.28544116020202637,0.06837055562680333,-0.967006518708726,-0.24175715606158066,0.04215964914266045,-0.15321306332498677,3.0925191754342842,-2.655392088343802
1784890841826491904,2.7268667221069336,0.6482951045036316,2.346069097518921,0.11188119649887085,0.026277149096131325,0.15991084277629852,0.9867815971374512,0.19979706406593323,-0.19604367017745972,0.28673213720321655,0.07467884791521807,-0.9673074333049501,-0.2402231075511886,0.032128522954703705,-0.1606003265796368,3.1149698029131945,-2.6568999408486134
1784890841836411904,2.7367868423461914,0.4361632466316223,2.403310537338257,0.017747972160577774,0.0030140981543809175,0.16535376012325287,0.9862298965454102,0.16617535054683685,-0.3082523047924042,0.2821570634841919,0.0801811746541504,-0.9674913560868066,-0.23890461632318621,0.0213569886283135,-0.16611669129983384,3.1385364808617853,-2.6576689271892207
1784890841846330880,2.7467057704925537,0.36327624320983887,2.2400431632995605,0.06403770297765732,-0.019584108144044876,0.16906574368476868,0.985410213470459,0.20630590617656708,-0.2679884731769562,0.2525506019592285,0.08473696296535618,-0.967559356979116,-0.23776881816489387,0.010702964751561945,-0.16988169203780926,-3.1217212040469327,-2.6579686179532227
1784890841856250880,2.7566256523132324,0.5122975707054138,2.2287051677703857,0.09200029820203781,-0.04121892526745796,0.17322903871536255,0.9840188026428223,0.23590581119060516,-0.08158473670482635,0.19238817691802979,0.08938894998443392,-0.9675361253974416,-0.23639634731037057,0.0005392646485221739,-0.17410733459738417,-3.0997287736830588,-2.6586717078593067
1784890841866169856,2.766544818878174,0.847689151763916,2.2510461807250977,0.19437965750694275,-0.06290516257286072,0.17994001507759094,0.9816640019416809,0.17434009909629822,0.044821932911872864,0.14499902725219727,0.09528620413638848,-0.967364481600126,-0.2346017194480179,-0.009405217363548086,-0.18092547422523056,-3.077600014570807,-2.6599399879826504
1784890841876089856,2.7764647006988525,1.1901763677597046,2.0462989807128906,0.19311906397342682,-0.08364047110080719,0.1896350234746933,0.978285551071167,0.11673679202795029,0.08989070355892181,0.10856735706329346,0.10252972603251718,-0.966936470942664,-0.2327587452747193,-0.01856951853367597,-0.1907904154754901,-3.056303074010083,-2.6609797270172133
1784890841886009088,2.786383867263794,1.5145883560180664,1.9487828016281128,0.3650050759315491,-0.10231080651283264,0.20332004129886627,0.9737520813941956,0.17533940076828003,0.08269067108631134,0.022036314010620117,0.11149170404075873,-0.966282501237732,-0.23059524576818555,-0.026333860007530567,-0.20474760104573378,-3.0369081015248893,-2.662307910313435
1784890841895928832,2.7963037490844727,1.5006145238876343,1.9743369817733765,0.34280911087989807,-0.12035701423883438,0.21810689568519592,0.9684747457504272,0.11188840866088867,-0.04447716474533081,-0.017592906951904297,0.12092148344020055,-0.9655321837726768,-0.22800210676052624,-0.033772210317641514,-0.21987424537447295,-3.0179517493352424,-2.6641409947780708
1784890841905847808,2.806222677230835,1.2390213012695312,1.9052261114120483,0.33143553137779236,-0.1386026293039322,0.23202095925807953,0.9627854824066162,0.036994338035583496,-0.21538883447647095,-0.11845552921295166,0.12994589623967698,-0.9646937346442929,-0.22529702108877342,-0.04148973962866156,-0.23415482167176022,-2.9986149357341763,-2.665887369604083
1784890841915767040,2.8161418437957764,1.1814745664596558,1.7293119430541992,0.12598516047000885,-0.1550341248512268,0.2432781159877777,0.9574865102767944,0.06079581379890442,-0.22544056177139282,-0.19695782661437988,0.1338780230931134,-0.9766446275427189,-0.1578243144511566,-0.05773630582276701,-0.24574408089957994,-2.9810680078504905,-2.801299830402181
1784890841925686784,2.826061725616455,0.9995753765106201,1.6262342929840088,0.36092495918273926,-0.17017443478107452,0.2543126344680786,0.9520325660705566,0.15166550874710083,-0.22704514861106873,-0.2898620367050171,0.13734737576468228,-0.9820228722791506,-0.1079229816102969,-0.07155055251823385,-0.257136900135993,-2.964712163984616,-2.899747719231235
1784890841935605760,2.8359806537628174,0.9267152547836304,1.519675850868225,0.3229280412197113,-0.18406559526920319,0.26402315497398376,0.9467900991439819,0.01177862286567688,-0.15249672532081604,-0.3030371069908142,0.14011561722082985,-0.9840954567446701,-0.07036457273962118,-0.0835016768779898,-0.2671910098875189,-2.9495776908988613,-2.9729478694889804
1784890841945525760,2.845900774002075,0.7123209238052368,1.4099684953689575,0.31398195028305054,-0.19688130915164948,0.2721037268638611,0.9419118762016296,-0.1022367775440216,-0.06101357936859131,-0.36889827251434326,0.14210837618586888,-0.9845178587921866,-0.040994037725943296,-0.09407148936923204,-0.2755785765337601,-2.9355363018083427,-3.02969037793603
1784890841955444736,2.8558197021484375,0.7524545192718506,1.1990307569503784,0.3176969885826111,-0.20810271799564362,0.27984338998794556,0.9372199177742004,-0.19071625173091888,0.06015294790267944,-0.40757203102111816,0.14405383172331937,-0.9840198777920207,-0.017743583752077935,-0.10314357359419132,-0.2836309823618161,-2.9230949137483293,-3.0742151755860934
1784890841965364992,2.8657398223876953,0.836544394493103,0.9277390241622925,0.20943467319011688,-0.21744707226753235,0.28747987747192383,0.9327762722969055,-0.3022519648075104,0.1916460394859314,-0.5047217011451721,0.14615258059350114,-0.9830502579232158,0.0005836857686514328,-0.11068492759342799,-0.2915945978517092,-2.912564809528974,-3.109005311105654
1784890841975283968,2.8756587505340576,0.9599538445472717,0.520109236240387,0.22631506621837616,-0.22342921793460846,0.29611578583717346,0.9286523461341858,-0.23093181848526,0.1699029505252838,-0.511492133140564,0.14896269206427776,-0.9818795074454073,0.015453565757388668,-0.11612077629479337,-0.3006234874852658,-2.9054850553100713,-3.137144920973327
1784890841985202688,2.88557767868042,0.9406245946884155,0.5629855990409851,0.22093947231769562,-0.22783192992210388,0.3051692545413971,0.9246426820755005,-0.22770391404628754,0.15997964143753052,-0.5228026509284973,0.15209922843133816,-0.9805646341845835,0.02853640769915554,-0.12060023717856112,-0.31011614550241534,-2.90000511266136,3.1213484698441314
1784890841995122944,2.8954977989196777,0.6349600553512573,0.3546099066734314,0.15702976286411285,-0.23103375732898712,0.31322577595710754,0.9211477637290955,-0.2619166970252991,0.23743343353271484,-0.4347890615463257,0.1548628626768978,-0.9792758958748105,0.03990757580629453,-0.12427252016083312,-0.3185878316700232,-2.895851081238214,3.099807785566296
1784890842005041920,2.90541672706604,0.624902069568634,0.20020544528961182,0.06512806564569473,-0.23342320322990417,0.31910666823387146,0.918523371219635,-0.1875210851430893,0.1294407844543457,-0.33305859565734863,0.15673968787058826,-0.9781923027863613,0.04900513102880623,-0.1271658415155115,-0.32478672657876284,-2.8927318975293606,3.0824594489278274
1784890842014961920,2.915336847305298,0.46641674637794495,0.02632167935371399,0.20524808764457703,-0.23438426852226257,0.32448217272758484,0.91639244556427,-0.13908982276916504,-0.008762568235397339,-0.42316746711730957,0.1585697091947935,-0.9772491150258217,0.05639504848716344,-0.1290711646768283,-0.33046421989573693,-2.891192284579555,3.0682728560453625
1784890842024880896,2.92525577545166,0.26799795031547546,-0.417279988527298,0.14552271366119385,-0.2314925193786621,0.32849738001823425,0.9156967401504517,-0.052946537733078,0.01117849349975586,-0.4229600429534912,0.15985172603050768,-0.9766620617133804,0.06308407014060487,-0.12883714955076472,-0.3347122224561989,-2.8939759467792996,3.0546291533994183
1784890842034800640,2.935175657272339,-0.020499981939792633,-0.3951096534729004,0.16719867289066315,-0.22703994810581207,0.33013153076171875,0.9162237644195557,0.06854690611362457,0.06945034861564636,-0.46146607398986816,0.16000340232239374,-0.9763767227831105,0.06928483057637018,-0.1276206030225768,-0.3364429234228327,-2.8986859554896416,3.0413579022255606
1784890842044719872,2.9450948238372803,-0.48045453429222107,-0.3936624825000763,0.16055169701576233,-0.22333839535713196,0.32711511850357056,0.9182135462760925,0.012690767645835876,-0.03761008381843567,-0.4119420051574707,0.15779160445988635,-0.976467701251335,0.07495062582742319,-0.12647195288773103,-0.3332491167648008,-2.9029944804826857,3.028693681070544
1784890842054639872,2.955014705657959,-0.468801885843277,-0.5593461394309998,-0.029477229341864586,-0.21841555833816528,0.3233364522457123,0.9207326173782349,0.0488903671503067,-0.03265649080276489,-0.5837421417236328,0.15529797485450056,-0.9766960937295115,0.08019378425191952,-0.12456455139393172,-0.32925322393730944,-2.908678568632134,3.0166108349758254
1784890842064559104,2.9649338722229004,-0.708598792552948,-0.522344708442688,-0.03613726422190666,-0.21386747062206268,0.3176855742931366,0.9237622022628784,0.12060575187206268,0.04338318109512329,-0.5481671094894409,0.1519587309988064,-0.9771052038808933,0.08453718932578545,-0.12258649365377086,-0.3232876079353053,-2.9140831258154245,3.0062422045601793
1784890842074478848,2.974853754043579,-0.5629099011421204,-0.7471581697463989,-0.06300666183233261,-0.2084035724401474,0.3121996223926544,0.9268761873245239,0.2498464435338974,-0.18791678547859192,-0.5925103425979614,0.148804473473208,-0.9775434781631455,0.08858242209927072,-0.1200798211895445,-0.31750749082888835,-2.9204256520306684,2.99640191266976
1784890842084397824,2.9847726821899414,-0.5306017994880676,-0.8029263615608215,0.051121242344379425,-0.20148026943206787,0.3066779673099518,0.9302442669868469,0.40108048915863037,-0.24271315336227417,-0.6394881010055542,0.14579952123199538,-0.9780916828417794,0.09197173254900722,-0.11670641114782088,-0.3117008593086238,-2.928298614874599,2.9877186142452508
1784890842094317056,2.994691848754883,-0.5839173197746277,-0.8653680682182312,0.1339714527130127,-0.19353212416172028,0.3020228445529938,0.9334492683410645,0.4608355760574341,-0.26235002279281616,-0.671776294708252,0.14329137776744155,-0.9785628305152448,0.09560032128394857,-0.11288468875702308,-0.30681389394619857,-2.93715897135483,2.978539293520369
1784890842104236800,3.0046117305755615,-0.5984272956848145,-1.0599215030670166,0.13665005564689636,-0.18429900705814362,0.2969556748867035,0.9369375109672546,0.42860740423202515,-0.19841435551643372,-0.6185778379440308,0.1406680288040299,-0.9790954037484677,0.09920153466108161,-0.10836940643984175,-0.3015029169523273,-2.9473686823526974,2.9692370159106583
1784890842114155776,3.014530658721924,-0.5507470369338989,-1.2175627946853638,0.20776398479938507,-0.17324398458003998,0.2917804419994354,0.940665066242218,0.45130491256713867,-0.17050358653068542,-0.5681827068328857,0.13810547972081105,-0.9796633074307437,0.1029190598386534,-0.10292890939861794,-0.2960877456081073,-2.9594617961260186,2.9594852040476396
1784890842124075776,3.0244507789611816,-0.6792703866958618,-1.3874062299728394,0.18865926563739777,-0.16056740283966064,0.28634944558143616,0.9445754289627075,0.42353731393814087,-0.149172842502594,-0.5130565166473389,0.13556764992740541,-0.9802894899094824,0.1063965906051978,-0.09661190993644772,-0.29041454992480353,-2.9732132138756433,2.950047620314989
1784890842133994752,3.034369707107544,-0.5782802700996399,-1.4648797512054443,0.2241605520248413,-0.14656566083431244,0.28058379888534546,0.9485734105110168,0.37241095304489136,-0.11392730474472046,-0.4183608293533325,0.13301901169893543,-0.98096882818462,0.1094844912729708,-0.0895505991683563,-0.2844023003259638,-2.988293265735917,2.94128524817449
1784890842143915008,3.0442898273468018,-0.6275826096534729,-1.6241940259933472,0.13300348818302155,-0.13154645264148712,0.2753124535083771,0.9523122310638428,0.3207249045372009,-0.06434446573257446,-0.4254262447357178,0.13087318760204042,-0.981624511525789,0.11211351748557802,-0.08195178639371217,-0.2789147116831653,-3.004327557784566,2.9334511394025027
1784890842153833984,3.054208755493164,-0.7357149124145508,-1.6284096240997314,0.13236698508262634,-0.1156700924038887,0.26924845576286316,0.9560988545417786,0.3034295439720154,-0.0027080178260803223,-0.3179919123649597,0.12845568471643684,-0.9823368942547164,0.11429639703835959,-0.0738209765549797,-0.272612588248419,-3.0211964617078753,2.92646395689451
1784890842163753984,3.064128875732422,-0.6861668229103088,-1.6632328033447266,0.07112201303243637,-0.09979838132858276,0.2626765966415405,0.9597091674804688,0.2575284540653229,-0.02900347113609314,-0.1985853910446167,0.12584230793282436,-0.983024306109557,0.11626602255627287,-0.06564473853439716,-0.26579517238524253,-3.0379769178942473,2.9200030124151297
1784890842173672960,3.074047803878784,-0.825657844543457,-1.6339324712753296,0.02400004304945469,-0.08399206399917603,0.2551546096801758,0.9632454514503479,0.21382910013198853,-0.046215981245040894,-0.17168033123016357,0.12278607120652142,-0.9836857721993273,0.11825829760523272,-0.057453818223371866,-0.2580075963754059,-3.0546156974631966,2.91359190836675
1784890842183591936,3.0839667320251465,-0.9978386759757996,-1.5352580547332764,0.059240322560071945,-0.06854758411645889,0.24663691222667694,0.9666807651519775,0.2534078061580658,-0.12767936289310455,-0.11533176898956299,0.11926002918490786,-0.9843423080980591,0.12004422235070712,-0.04936318150564602,-0.24920842425990694,-3.0708008933246935,2.907754245463593
1784890842193511936,3.0938868522644043,-1.1245466470718384,-1.4411132335662842,0.16571535170078278,-0.05392860248684883,0.23664243519306183,0.9700992107391357,0.22089025378227234,-0.12195731699466705,-0.02692270278930664,0.11496680576558206,-0.9849544382770307,0.1221243766394398,-0.041630911707706574,-0.238908664499505,-3.0860590001385666,2.901539267423526
1784890842203430912,3.1038057804107666,-1.0713638067245483,-1.4357621669769287,0.13868959248065948,-0.039533037692308426,0.22598890960216522,0.9733275771141052,0.20083367824554443,-0.050482288002967834,0.0185549259185791,0.11036681988644366,-0.9854856499800785,0.12442596757084888,-0.03399239409562054,-0.22795808693151864,-3.1009985926776342,2.8950523869070106
1784890842213350656,3.1137256622314453,-1.0472915172576904,-1.355960488319397,0.2786427140235901,-0.025679586455225945,0.21582679450511932,0.9760937690734863,0.11987210065126419,-0.007376536726951599,0.010585129261016846,0.10602573107606088,-0.9858669299385372,0.12693809657438182,-0.026675504666931242,-0.21753850690811086,-3.115290196289614,2.8883584428616
1784890842223269888,3.1236448287963867,-0.9811691641807556,-1.3343698978424072,0.15784679353237152,-0.012089714407920837,0.20607836544513702,0.9784607887268066,0.08733080327510834,-0.029137447476387024,0.01065969467163086,0.10193088024731081,-0.9861708191813022,0.1292188529227384,-0.01948572024548705,-0.2075655981020031,-3.1292374325573054,2.88230227054968
1784890842233189888,3.1335647106170654,-0.95279860496521,-1.1758606433868408,0.2448655366897583,0.0006374046206474304,0.19681264460086823,0.9804407954216003,0.09335673600435257,-0.09216788411140442,-0.04980736970901489,0.09806729544354201,-0.9863833113803607,0.13140917892932927,-0.012741740771235285,-0.19810591957859003,3.1409425332185417,2.8766413164764444
1784890842243108864,3.143483877182007,-0.9153090119361877,-1.1238757371902466,0.20208851993083954,0.012227002531290054,0.18768566846847534,0.9821529388427734,0.14216142892837524,-0.13209791481494904,-0.07362949848175049,0.09423348138783524,-0.9864760987774621,0.1339453664759295,-0.006597865586165957,-0.1888054030504765,3.129144111945235,2.870501298076339
1784890842253028864,3.1534037590026855,-0.8457744717597961,-1.0451374053955078,0.21563208103179932,0.0232399832457304,0.17893245816230774,0.983586847782135,0.14427100121974945,-0.13701657950878143,-0.11649090051651001,0.0905872490694561,-0.9865321920694762,0.1361897533646084,-0.0007268528018843799,-0.1799012872159142,3.117969259256153,2.8650980511079416
1784890842262947840,3.163322687149048,-0.8161497712135315,-0.964198648929596,0.18307706713676453,0.033439550548791885,0.17092852294445038,0.9847157001495361,0.12216957658529282,-0.14125019311904907,-0.14444482326507568,0.08729175120891512,-0.986533459907234,0.13823740089897202,0.00471630353730395,-0.17177198868566096,3.1076471125292833,2.860233842129433
1784890842272867072,3.1732418537139893,-0.6666480898857117,-0.9133854508399963,0.13482129573822021,0.04291721060872078,0.16360189020633698,0.9855926632881165,0.06702236831188202,-0.11015033721923828,-0.08758223056793213,0.08430985095943554,-0.9864914226534778,0.1401106891788051,0.009777980233104389,-0.16434064000898171,3.098075573214481,2.8558368805368635
1784890842282786816,3.183161735534668,-0.635985255241394,-0.9454326033592224,0.037883300334215164,0.052198879420757294,0.15702751278877258,0.986213743686676,0.0629592090845108,-0.06451347470283508,-0.0702897310256958,0.08170630683657037,-0.9864496773212955,0.14150586358481737,0.014737211829290536,-0.15768010494205245,3.088713430831974,2.8524586884979084
1784890842292705792,3.1930806636810303,-0.536360502243042,-0.9151328206062317,-0.06068551912903786,0.061177052557468414,0.15141336619853973,0.9865755438804626,0.04198761656880379,-0.04745525121688843,-0.023379743099212646,0.07956644262277492,-0.9864234594436959,0.14232543369937292,0.019529338121321606,-0.15199797030262602,3.079662454510027,2.850284628031724
1784890842302625792,3.203000783920288,-0.4701332449913025,-0.851836621761322,-0.02905195765197277,0.06971947103738785,0.14646582305431366,0.9867556095123291,0.035398319363594055,-0.07268960773944855,0.016814768314361572,0.0777330838061812,-0.9863803700337503,0.14293899237696572,0.024076559506602552,-0.14699460825938304,3.0710546203091194,2.848575035004317
1784890842312544768,3.2129197120666504,-0.46183615922927856,-0.7513895034790039,-0.06011839956045151,0.07765163481235504,0.1421351581811905,0.9867967963218689,0.06852757930755615,-0.0816340446472168,0.05933058261871338,0.07617444745628175,-0.9862814802101604,0.14369151983227282,0.028267989071924304,-0.14261813538022186,3.0630638772734398,2.8466358366230615
1784890842322465024,3.222839832305908,-0.5337660312652588,-0.7368683815002441,-0.10826648026704788,0.08493421971797943,0.1372307538986206,0.9868909120559692,0.03989792615175247,-0.0766686350107193,0.1353929042816162,0.07427671327374659,-0.9862514541983607,0.14406080740595337,0.032209581450472674,-0.13766517601990488,3.0557417739144994,2.8455837391851166
1784890842332383744,3.2327587604522705,-0.6766802072525024,-0.6415925621986389,-0.007353685796260834,0.09158963710069656,0.13159839808940887,0.9870630502700806,0.08112460374832153,-0.13016405701637268,0.18368291854858398,0.0719851263051918,-0.9861945705520828,0.14474730696821667,0.0358703694646376,-0.13198123363647574,3.0490675375918666,2.84400757477217
1784890842342304000,3.2426788806915283,-0.9544731974601746,-0.5341838002204895,-0.019377058371901512,0.09733903408050537,0.12356582283973694,0.9875509142875671,0.09988081455230713,-0.18731704354286194,0.27862346172332764,0.06843701530815242,-0.986211805804112,0.145470687934522,0.039255195325517564,-0.1238824490980968,3.043343911349813,2.842597375574496
1784890842352222976,3.2525978088378906,-1.209999442100525,-0.3445303738117218,0.04870705306529999,0.10172200202941895,0.1129300594329834,0.9883819818496704,0.15017007291316986,-0.2778165638446808,0.3196622133255005,0.06350977544284846,-0.9862703314836461,0.1464985958087386,0.042135411692567765,-0.11317148192773063,3.039036036034801,2.840858522769503
1784890842362142720,3.2625176906585693,-1.347029209136963,-0.22556911408901215,0.08749572932720184,0.10464836657047272,0.10023339837789536,0.9894453287124634,0.20969794690608978,-0.26949915289878845,0.3488572835922241,0.05747063411737827,-0.986340882240912,0.14783208358594926,0.04443512471003047,-0.10040199751974085,3.036219715275373,2.838749683218785
1784890842372061952,3.2724368572235107,-1.3042643070220947,-0.09082704782485962,0.141349196434021,0.1063789650797844,0.08706411719322205,0.9905065894126892,0.2272849678993225,-0.17695364356040955,0.354006290435791,0.05112150965235654,-0.9863948480850327,0.14925985020777752,0.04618748293901644,-0.08717448413971395,3.034604201119868,2.836563426493508
1784890842381980928,3.282355785369873,-1.084962010383606,0.002132453490048647,0.19284941256046295,0.10705254226922989,0.07488805055618286,0.991428792476654,0.23581242561340332,-0.12989600002765656,0.38219767808914185,0.04521332768305324,-0.9863519741508805,0.1510767376378614,0.047341708181500776,-0.07495822373564447,3.0340313494222095,2.8335835924695174
1784890842391900672,3.2922756671905518,-0.7456903457641602,0.1244865134358406,0.186417818069458,0.10679969936609268,0.06563050299882889,0.9921121001243591,0.21451988816261292,-0.13868959248065948,0.3974599838256836,0.04068833214074207,-0.986246876381895,0.15288281037498772,0.04783721335694758,-0.0656777130192754,3.034356787552725,2.830485103217687
1784890842401819904,3.302194833755493,-0.43684548139572144,0.24130794405937195,0.20347163081169128,0.10513404756784439,0.059678420424461365,0.9926655292510986,0.21281331777572632,-0.08087289333343506,0.44228601455688477,0.0376520397868798,-0.9862432786179226,0.15380820560128308,0.047428289272236496,-0.059713903347952305,3.0360751664832932,2.829023510591181
1784890842411739904,3.312114715576172,-0.19652001559734344,0.3885767161846161,0.19292135536670685,0.10232765227556229,0.056396134197711945,0.9931507706642151,0.1801277995109558,-0.027755387127399445,0.5107401609420776,0.035899310911873296,-0.9860528119505988,0.15580513848268485,0.04621509802080489,-0.056426071191779406,3.038921597806527,2.8252661133164763
1784890842421658880,3.3220338821411133,-0.18836940824985504,0.5631759762763977,0.1860695779323578,0.09789542108774185,0.054307352751493454,0.9937140941619873,0.15562938153743744,-0.04040658101439476,0.5627284049987793,0.034599980885760086,-0.9858889245068545,0.15773415291804285,0.04411258787675342,-0.0543340826896593,3.0433948327147777,2.8216275917922635
1784890842431578880,3.331953763961792,-0.38012319803237915,0.7749998569488525,0.18238185346126556,0.09231078624725342,0.051111746579408646,0.9944177269935608,0.16067995131015778,-0.08797696977853775,0.641004204750061,0.03265916906182202,-0.9857305340656213,0.15982547969060384,0.04152821275617262,-0.05113402762238363,3.049028941019809,2.8177433219511228
1784890842441497856,3.3418726921081543,-0.39525821805000305,0.9030521512031555,0.2055785208940506,0.08441245555877686,0.04670817404985428,0.9953358173370361,0.16229167580604553,-0.08172708004713058,0.768885612487793,0.029916727003060032,-0.9856445039850926,0.1617802003032041,0.03791051738862437,-0.04672517310475254,3.0569870927094387,2.8142428549777887
1784890842451417856,3.351792812347412,-0.1943703144788742,1.1480019092559814,0.17404073476791382,0.07453165203332901,0.043667372316122055,0.9962620735168457,0.1909560114145279,-0.08199745416641235,0.751677930355072,0.02767372808459226,-0.9855469911452049,0.16379304551146226,0.03321309147696865,-0.043681261786588696,3.0669204602282503,2.8105811694324205
1784890842461336832,3.3617117404937744,-0.041327230632305145,1.3659801483154297,0.19551007449626923,0.062104158103466034,0.042324818670749664,0.9971719980239868,0.18452365696430206,-0.045986924320459366,0.7710776329040527,0.02603912516551235,-0.9854450279140508,0.16578325243434833,0.02713010618641373,-0.0423374652750349,3.079392703534877,2.806932994664955
1784890842471255808,3.3716306686401367,-0.031111545860767365,1.478715419769287,0.1991511881351471,0.04817938059568405,0.04195103794336319,0.9979574084281921,0.25383782386779785,-0.10107884556055069,0.7706278562545776,0.02473653392019747,-0.9852881398316917,0.1678867918948735,0.020234438747183437,-0.041963351590108604,3.093352116496164,2.8030347978703087
1784890842481175808,3.3815507888793945,0.029042337089776993,1.5836846828460693,0.20621362328529358,0.03312546759843826,0.04172549396753311,0.9985798001289368,0.28633254766464233,-0.13369020819664001,0.7209635972976685,0.023384880825170814,-0.9850695972425534,0.17008170953497012,0.012776145962168431,-0.04173760973815194,3.1084322348136983,2.798952666131099
1784890842491094784,3.391469717025757,0.10061359405517578,1.654730200767517,0.1663319170475006,0.017191819846630096,0.04232551157474518,0.9989559054374695,0.2729845643043518,-0.11735297739505768,0.6063907146453857,0.022333057671429093,-0.9847910691284155,0.17223386822491196,0.004822749926834045,-0.042338157260451426,3.124384563836254,2.7949430317696575
1784890842501015040,3.4013898372650146,0.33496859669685364,1.60126531124115,0.13631996512413025,0.001004270394332707,0.04434756189584732,0.9990155696868896,0.29088109731674194,0.03920956328511238,0.5156174898147583,0.02192759119408717,-0.9844664371071851,0.17416548848669286,-0.0033692305806793874,-0.044362111852734185,3.1405873939044087,2.7913667647794327
1784890842510933760,3.411308765411377,0.6338481307029724,1.658861517906189,0.15040723979473114,-0.01498012151569128,0.04912922903895378,0.9986802935600281,0.28489282727241516,0.14098003506660461,0.40999603271484375,0.02287060868651036,-0.9840675619171704,0.17592948423468563,-0.011700085979420695,-0.049149013655415005,-3.1265938616369886,2.7881435741995064
1784890842520854016,3.4212288856506348,0.7485496997833252,1.7949258089065552,0.05096135288476944,-0.0318913608789444,0.056144632399082184,0.9979132413864136,0.2525792121887207,0.052040182054042816,0.3747063875198364,0.024808509010113805,-0.9836018676257345,0.17743726718846642,-0.020686860981453618,-0.05617417037107746,-3.109645475660852,2.7855384431136385
1784890842530772992,3.431147813796997,0.7394394278526306,1.855534315109253,-0.016909904778003693,-0.05003669112920761,0.06343375146389008,0.9967307448387146,0.2295563519001007,-0.03653252124786377,0.4069250822067261,0.026755132529726174,-0.9830854720607154,0.1786290002979878,-0.03031027246925059,-0.06347636996147593,-3.091433948774523,2.783702575992583
1784890842540692736,3.441067695617676,0.8085076808929443,1.8727223873138428,-0.054477788507938385,-0.06848707795143127,0.07115042954683304,0.9951114654541016,0.25096696615219116,-0.05747856944799423,0.3536584973335266,0.028879644056028525,-0.9825264973307402,0.17943637994424158,-0.040126752466587735,-0.07121059840504282,-3.0728774869966773,2.7827675875727933
1784890842550611968,3.450986862182617,0.7742373943328857,1.8321229219436646,-0.05660192668437958,-0.08673490583896637,0.07883679121732712,0.9931071400642395,0.2540627717971802,-0.05517040938138962,0.3183246850967407,0.031000456710248727,-0.9818926071072329,0.18011241415133353,-0.04985374246908412,-0.07891868853128524,-3.054476795160841,2.782199960831997
1784890842560531968,3.460906744003296,0.7609095573425293,1.84479820728302,-0.002399939578026533,-0.10481725633144379,0.08633488416671753,0.9907370805740356,0.2264755666255951,-0.07756107300519943,0.2474374771118164,0.033023341550261605,-0.9811368698891629,0.18093914566128136,-0.05950631919428278,-0.08644249493619145,-3.036187504967562,2.7814178462916095
1784890842570450688,3.470825672149658,0.7199172377586365,1.8067225217819214,0.04207624867558479,-0.1227990984916687,0.09362492710351944,0.9880053997039795,0.1941186785697937,-0.11431585252285004,0.15448111295700073,0.03492062601996847,-0.9802396193407381,0.18202472164290834,-0.0691218399241669,-0.09376225223209922,-3.0179368927883887,2.7801957671998103
1784890842580369920,3.4807448387145996,0.8259928226470947,1.7600905895233154,0.06971746683120728,-0.14013047516345978,0.10111043602228165,0.9849568009376526,0.18723437190055847,-0.11568258702754974,0.08297520875930786,0.036953598898235185,-0.9792562272742212,0.18312739430142402,-0.078460010551448,-0.10128351643416683,-3.0002703784720293,2.7790249188806353
1784890842590289920,3.4906647205352783,0.826378583908081,1.6839118003845215,0.08000212907791138,-0.15685857832431793,0.10929413884878159,0.981555163860321,0.16284000873565674,-0.07168120890855789,0.01603412628173828,0.03936193189179583,-0.9781660780811448,0.1843060028532051,-0.08759650352484893,-0.10951290415297757,-2.9831263834547164,2.7778235702412917
1784890842600208896,3.5005838871002197,1.009889006614685,1.5832200050354004,0.16355454921722412,-0.17261968553066254,0.11828994005918503,0.9778599739074707,0.08433231711387634,0.020763419568538666,-0.017715811729431152,0.042229443424505624,-0.9769720498150374,0.18562216807116025,-0.09636771342978816,-0.11856755340633712,-2.966864755491202,2.7764708096200206
1784890842610128896,3.5105037689208984,1.0187718868255615,1.458022952079773,0.2136915773153305,-0.18713021278381348,0.12862469255924225,0.9738776087760925,0.06356456875801086,0.020987704396247864,-0.09100431203842163,0.04582991519977114,-0.9756515926498055,0.18719716852398777,-0.10469345502625856,-0.12898203084056617,-2.951756808139894,2.7747589627153757
1784890842620047872,3.5204226970672607,0.9119975566864014,1.3258825540542603,0.2536555230617523,-0.20014488697052002,0.1384899616241455,0.9699292182922363,0.01233971118927002,-0.0160229355096817,-0.12279176712036133,0.04930694202653083,-0.9743161091761032,0.1888722538210449,-0.11226865564588562,-0.13893652287544395,-2.9380988481971158,2.7728481759665513
1784890842629967872,3.5303428173065186,0.6116212010383606,1.2104843854904175,0.21875038743019104,-0.21198228001594543,0.1463548094034195,0.966252326965332,-0.05791515111923218,-0.09836593270301819,-0.17839539051055908,0.05186365985764564,-0.9730129293971314,0.19071441922022708,-0.11909635203112182,-0.1468823877723464,-2.92562802116564,2.770442995741589
1784890842639886848,3.540261745452881,0.40215614438056946,1.0751200914382935,0.07964975386857986,-0.2227174937725067,0.1514284759759903,0.963050901889801,-0.08872972428798676,-0.03794883191585541,-0.24542975425720215,0.05316586916427914,-0.9718979455820361,0.19219737971631184,-0.12509243881740045,-0.1520132543558527,-2.9143255978843525,2.768502941618089
1784890842649807104,3.5501818656921387,0.6239911317825317,0.8871693015098572,0.004390988033264875,-0.23199762403964996,0.15605328977108002,0.9601166844367981,-0.11066892743110657,0.1323530375957489,-0.3517642617225647,0.054454834070195426,-0.9709747524463135,0.1930449750932624,-0.13029282627167557,-0.15669371688142253,-2.904502456705749,2.767780117968085
1784890842659725824,3.560100793838501,0.850588321685791,0.7629719972610474,0.05208127945661545,-0.23969246447086334,0.16339893639087677,0.956999659538269,-0.14098380506038666,0.22377759218215942,-0.46948134899139404,0.05726491147924605,-0.9700355467056356,0.1937288896521377,-0.13498485035592497,-0.16413491081698983,-2.896178806513771,2.7676401972316405
