time,seconds_elapsed,rotationRateX,rotationRateY,rotationRateZ,gravityX,gravityY,gravityZ,accelerationX,accelerationY,accelerationZ,quaternionW,quaternionX,quaternionY,quaternionZ,pitch,roll,yaw
1782985341298836224,0.1713712215423584,-0.07347013801336288,-0.07280149310827255,-0.24318812787532806,0.10563349723815918,0.7217235565185547,-0.6840736865997314,0.01587221771478653,-0.04322624206542969,0.061927080154418945,0.9119904482154522,-0.397209991303085,0.013688661922966902,0.1015402933210507,-0.8062891014453015,0.15320819780252332,0.287213875513102
1782985341308756224,0.1812913417816162,-0.22147798538208008,-0.06286150962114334,-0.2627770006656647,0.10403753072023392,0.7233467102050781,-0.6826021671295166,0.021084539592266083,-0.0864754319190979,0.06431609392166138,0.9116854382280717,-0.3981548616225488,0.013100876987882544,0.10065150754085495,-0.8086370252664699,0.1512491402647031,0.28473197046582766
1782985341318676224,0.19121122360229492,-0.36388200521469116,-0.053344134241342545,-0.29111650586128235,0.10303912311792374,0.7255794405937195,-0.6803804039955139,0.019214287400245667,-0.10396689176559448,0.05489206314086914,0.9111684522616855,-0.3995580566513606,0.012773795246799913,0.0998114837925304,-0.8118760742123321,0.15030129399411085,0.2829149328480624
1782985341328596224,0.20113110542297363,-0.40698713064193726,-0.036920420825481415,-0.303926557302475,0.1018238291144371,0.7280637621879578,-0.6779049634933472,0.0129680335521698,-0.08298319578170776,0.03920257091522217,0.910595595785557,-0.40111645026102344,0.012374049300638703,0.09883453742467464,-0.8154931981955283,0.1490891522055075,0.28072721263909517
1782985341338516224,0.21105122566223145,-0.367617130279541,-0.024326786398887634,-0.3125928044319153,0.10052336007356644,0.7304124236106873,-0.6755684018135071,0.00576937198638916,-0.035267770290374756,0.0073708295822143555,0.9100681448855491,-0.4025821196276102,0.01197600327566226,0.09777558412707163,-0.8189255629674174,0.14771438119101749,0.27825591339111333
1782985341348436224,0.22097110748291016,-0.2541307806968689,-0.003878503106534481,-0.32598876953125,0.09912418574094772,0.7322304844856262,-0.6738048195838928,0.0032165125012397766,0.028175950050354004,-0.004173696041107178,0.9097075846570372,-0.40368658191167833,0.0116080420069865,0.09661497208129632,-0.8215912226357109,0.14606345475542817,0.27532932606129273
1782985341358355200,0.23089027404785156,-0.06559418141841888,0.030546657741069794,-0.3196766674518585,0.09779812395572662,0.7332372069358826,-0.6729032397270203,0.0017502158880233765,0.08149057626724243,0.005514264106750488,0.9095936466316293,-0.4042509003402223,0.011384141208512446,0.09534701811563033,-0.8230706078110884,0.14432702715717072,0.2719659629588918
1782985341368275200,0.24081015586853027,0.15725089609622955,0.05792209133505821,-0.32481151819229126,0.09665852040052414,0.7333576679229736,-0.6729366183280945,0.006277255713939667,0.12937426567077637,0.023949861526489258,0.9097459011304505,-0.4042306613228611,0.011368827283610187,0.093972373563768,-0.823247763809991,0.14266110969838539,0.2682265099432074
1782985341378195200,0.2507302761077881,0.4124232828617096,0.08043013513088226,-0.31254127621650696,0.0957305058836937,0.7328885197639465,-0.6735801100730896,0.01649787276983261,0.15982693433761597,0.0298117995262146,0.9100735174277712,-0.40382737671133845,0.011549678926624653,0.09250040642681197,-0.8225579187598696,0.14117647432917874,0.26424289771103565
1782985341388115200,0.2606501579284668,0.5950801372528076,0.09857585281133652,-0.3095950186252594,0.09530583769083023,0.7326669692993164,-0.6738812327384949,0.04559382051229477,0.1412649154663086,0.019721686840057373,0.9103104582213662,-0.40362741628588383,0.012012582384673122,0.09096938839140636,-0.8222323482530633,0.14049645514382078,0.2605355673496767
1782985341398035200,0.2705702781677246,0.5913475751876831,0.07521189749240875,-0.3228760361671448,0.09498674422502518,0.7320854663848877,-0.6745579242706299,0.08683697879314423,0.0641334056854248,0.029629945755004883,0.9106480755237607,-0.4031915257106586,0.012554763706353295,0.089437396650615,-0.8213783039817742,0.13989353782668768,0.2567952595575608
1782985341407955200,0.2804901599884033,0.4719971716403961,0.07121768593788147,-0.3883650302886963,0.09488876163959503,0.7315861582756042,-0.6751132607460022,0.12944594025611877,-0.04478806257247925,0.03503751754760742,0.9109500819583031,-0.40282604924864074,0.013211909067805271,0.08790144190284387,-0.8206456500244294,0.13963764426076083,0.2532174703812855
1782985341417875200,0.29041028022766113,0.34230348467826843,0.05999220162630081,-0.49132612347602844,0.09502498805522919,0.7312024235725403,-0.6755096912384033,0.16686159372329712,-0.11654788255691528,0.02724003791809082,0.9112200428469835,-0.402551411858086,0.014054262774769188,0.0862149931633497,-0.8200830023692202,0.13975451112971793,0.2494970536596632
1782985341427795200,0.30033016204833984,0.3076198101043701,0.020945999771356583,-0.6181743144989014,0.0951208844780922,0.7304832339286804,-0.6762738227844238,0.2149224430322647,-0.13833534717559814,0.003651142120361328,0.9116078856298306,-0.4020427706802501,0.0149895559059396,0.08430904892243152,-0.8190292364209796,0.13973768914175014,0.24517708014313214
1782985341437715200,0.31025028228759766,0.4044110178947449,-0.04840339720249176,-0.7662524580955505,0.09372208267450333,0.7287998795509338,-0.6782822608947754,0.27273300290107727,-0.12499439716339111,-0.01359701156616211,0.9123778813307598,-0.40077693352405347,0.01538527866761978,0.08190055171807822,-0.8165676322170425,0.1373061920534814,0.23852574176391186
1782985341447635200,0.32017016410827637,0.6158947944641113,-0.1415429264307022,-0.9392011165618896,0.0908590778708458,0.7257672548294067,-0.6819138526916504,0.327262282371521,-0.10101139545440674,-0.011125028133392334,0.9136301269737079,-0.3985093280171325,0.015277358250332987,0.07897351799094333,-0.8121490138804076,0.13246109210289583,0.22947240975592811
1782985341457555200,0.3300902843475342,0.9666493535041809,-0.2324896603822708,-1.112296223640442,0.08680260181427002,0.7207013368606567,-0.6877899169921875,0.369709849357605,-0.06512272357940674,0.0069732666015625,0.9155252519186822,-0.3948231819811421,0.014822430968279402,0.07555531393309474,-0.8048134916691309,0.1255413857259319,0.21817241553599365
1782985341467475200,0.3400101661682129,1.464723825454712,-0.29796427488327026,-1.2985427379608154,0.08197793364524841,0.7126175761222839,-0.6967465877532959,0.3924330770969391,-0.013337790966033936,0.0316922664642334,0.9182842599619885,-0.3891303158591813,0.014293125392798308,0.07160536012302929,-0.793222268772976,0.11711971272831304,0.2047362464665029
1782985341477395200,0.3499302864074707,2.0558722019195557,-0.35823869705200195,-1.4661675691604614,0.0771048367023468,0.7006446123123169,-0.7093320488929749,0.4082619845867157,0.060448527336120605,0.07763350009918213,0.9220381605676237,-0.38096758479903353,0.014059207980861771,0.0671692104748664,-0.7763005315670761,0.10827550047858639,0.18974962004810877
1782985341487315200,0.3598501682281494,2.5890259742736816,-0.434560626745224,-1.630299687385559,0.07347064465284348,0.6846922039985657,-0.7251197695732117,0.4420627951622009,0.09861773252487183,0.12766188383102417,0.9266367110064518,-0.37043902139774715,0.014664490584158592,0.06248441929336389,-0.7541812798699756,0.10097747290404985,0.17467907749911665
1782985341497235200,0.3697702884674072,3.1051082611083984,-0.5007303357124329,-1.7959394454956055,0.06979697197675705,0.6652066707611084,-0.7433898448944092,0.48496681451797485,0.0557711124420166,0.22416383028030396,0.9318911576096649,-0.3578624607942427,0.015476956647082967,0.057216521414435714,-0.7277705506390852,0.09361568729398571,0.15831796557504083
1782985341507155200,0.37969017028808594,3.5086164474487305,-0.5757979154586792,-1.9730337858200073,0.06442757695913315,0.6424292325973511,-0.7636319398880005,0.5331218838691711,-0.031619906425476074,0.3198453187942505,0.9376631130329101,-0.34342189715111554,0.015666517331283224,0.0510272420535327,-0.6976639898078378,0.08417059562080402,0.13936091512210128
1782985341517075200,0.38961029052734375,3.880718231201172,-0.6266171336174011,-2.161266326904297,0.05279562622308731,0.6159048080444336,-0.7860495448112488,0.5706479549407959,-0.0777120590209961,0.3933493494987488,0.9440174057202587,-0.3268102652994337,0.013048672991695091,0.04308199661581298,-0.6635339768904824,0.06706504475776255,0.11432202552304305
1782985341526994176,0.39952921867370605,4.207491397857666,-0.6752212047576904,-2.3617844581604004,0.03803999722003937,0.585476279258728,-0.8097965717315674,0.5924684405326843,-0.07571065425872803,0.4038364887237549,0.950658196186764,-0.308253602766327,0.00902443897691859,0.03387094769935727,-0.625467452016056,0.046940251768058806,0.08640811991949285
1782985341536914432,0.40944933891296387,4.4833903312683105,-0.6993183493614197,-2.533372640609741,0.021686574444174767,0.55134516954422,-0.8339953422546387,0.6140556335449219,-0.02311640977859497,0.37810850143432617,0.9573093659959151,-0.2880702393842207,0.004228546030071473,0.023588901802251,-0.5839757736343012,0.025997374724562827,0.05708636373994382
1782985341546833152,0.41936826705932617,4.636505603790283,-0.7794078588485718,-2.663294553756714,0.00460677919909358,0.5139068961143494,-0.8578336238861084,0.6422132849693298,0.023095667362213135,0.3451840877532959,0.9637211755289808,-0.26661207397952635,-0.0010917099990391725,0.012585677685719564,-0.5397329037124279,0.005370196246517699,0.027602913740286898
1782985341556753408,0.429288387298584,4.478541374206543,-0.8781464099884033,-2.88334059715271,-0.013418389484286308,0.47508373856544495,-0.8798382878303528,0.6502134203910828,0.04371511936187744,0.2774975895881653,0.9694940281103549,-0.24501042127476547,-0.007123298647659404,0.0008032341231330021,-0.4950591764396886,-0.015249789968422849,-0.002196858452793343
1782985341566673152,0.4392082691192627,4.18396520614624,-0.9263757467269897,-3.0926730632781982,-0.032159075140953064,0.4369191825389862,-0.8989257216453552,0.6156857013702393,0.042908698320388794,0.21434015035629272,0.9743296766266429,-0.2243847510582467,-0.013734328398296535,-0.012022978613010502,-0.4521707894580356,-0.03575975680091567,-0.03290445011684818
1782985341576593408,0.4491283893585205,3.7048890590667725,-0.9309231638908386,-3.3171017169952393,-0.05101138725876808,0.40089350938796997,-0.914703369140625,0.5620587468147278,0.025681227445602417,0.1564788818359375,0.9781011504776299,-0.20548073451370372,-0.020639355728691206,-0.025882307354354248,-0.4124919392497835,-0.05571052098456514,-0.06456992952597869
1782985341586513408,0.4590482711791992,3.06600284576416,-0.9243661761283875,-3.5921361446380615,-0.06977365911006927,0.368802011013031,-0.9268854856491089,0.4899854362010956,0.026354849338531494,0.1537836790084839,0.9806924159757077,-0.18918905550280116,-0.02765415086594214,-0.0410521227506821,-0.37771985891492477,-0.07513582583228191,-0.09803966447084679
1782985341596433408,0.46896839141845703,2.309499979019165,-0.9382850527763367,-3.854008197784424,-0.08865926414728165,0.34197908639907837,-0.935515820980072,0.43671223521232605,-0.005065023899078369,0.17074531316757202,0.9820567417587551,-0.17615629351150167,-0.03480013924744934,-0.05764154810704486,-0.34902215578320467,-0.09448825515423574,-0.1339256463848237
1782985341606353408,0.47888827323913574,1.420828938484192,-0.9287480115890503,-4.11978816986084,-0.10777238011360168,0.3217475414276123,-0.9406719207763672,0.4002986252307892,-0.0640723705291748,0.1461620330810547,0.9821470477266562,-0.16703316600676013,-0.041999598466439685,-0.07565208502342378,-0.32757460095143015,-0.11407219580223579,-0.17262328344148425
1782985341616273408,0.48880839347839355,0.6091837286949158,-0.8236312866210938,-4.420738220214844,-0.1267978698015213,0.30843570828437805,-0.9427564740180969,0.3509342074394226,-0.14223697781562805,0.11876660585403442,0.9809701329621211,-0.1619585142795381,-0.04890003395325647,-0.09526798790701005,-0.3135481325743761,-0.13369465080077655,-0.21478903653568135
1782985341626193408,0.49872827529907227,0.10843194276094437,-0.6483337879180908,-4.6754045486450195,-0.1450919359922409,0.3001616597175598,-0.9427890777587891,0.2950553297996521,-0.1965850293636322,0.06035810708999634,0.97868433591416,-0.15990735775978246,-0.055091596125887744,-0.11649671880626575,-0.304862136953213,-0.15269849526577828,-0.2604556332618025
1782985341636113408,0.5086483955383301,-0.07397015392780304,-0.4828859567642212,-4.827785491943359,-0.16212885081768036,0.29390084743499756,-0.9419854283332825,0.24910394847393036,-0.19384896755218506,0.01528865098953247,0.9755491642212606,-0.15923721078303266,-0.060421862516261936,-0.13891179611582305,-0.29830536546202413,-0.17044402794661406,-0.30855834029330387
1782985341646033408,0.5185682773590088,0.2099803388118744,-0.4446520209312439,-4.901156425476074,-0.17830520868301392,0.2862476706504822,-0.9414188861846924,0.19605118036270142,-0.1664051115512848,-0.11482501029968262,0.9718606658724159,-0.15815857205611106,-0.06539433211570617,-0.1618529101077947,-0.2903083274397421,-0.18718327004838503,-0.35749068348342733
1782985341655953408,0.5284883975982666,0.7218883633613586,-0.44504088163375854,-4.977756023406982,-0.19408637285232544,0.2737586498260498,-0.9420120120048523,0.11117011308670044,-0.1620032787322998,-0.21590113639831543,0.9678913863533332,-0.15492049816634354,-0.07066554144605672,-0.18491171181546395,-0.27729881919263955,-0.20319054871121722,-0.40599271552220345
1782985341665873408,0.5384082794189453,1.2157182693481445,-0.45947176218032837,-5.058036804199219,-0.20929646492004395,0.2555583715438843,-0.943867027759552,0.04598163068294525,-0.2077678143978119,-0.179332435131073,0.9636586985583347,-0.14909482494976545,-0.07640177535592345,-0.20807559531619496,-0.25842519726984636,-0.21821279316677816,-0.4537804250886851
1782985341675792128,0.5483272075653076,1.5243033170700073,-0.5287160277366638,-5.090660095214844,-0.22406810522079468,0.232722207903862,-0.9463793635368347,0.056358739733695984,-0.3281506896018982,-0.09607058763504028,0.9590241375757786,-0.14128545695092673,-0.08275715840058442,-0.23121939529046806,-0.23487580959380017,-0.2324825251064854,-0.5007179655533641
1782985341685712384,0.5582473278045654,1.7379039525985718,-0.6205378174781799,-5.0205397605896,-0.2384381741285324,0.20668837428092957,-0.9489083886146545,0.11240057647228241,-0.48569536209106445,0.052363038063049316,0.9539075024146059,-0.13224032086192386,-0.08976800852449902,-0.2539974819196471,-0.2081890277561701,-0.24617950339007327,-0.5463132458224759
1782985341695632128,0.5681672096252441,1.70406174659729,-0.6955330967903137,-4.939001083374023,-0.25236082077026367,0.17885129153728485,-0.9509606957435608,0.14298582077026367,-0.615344226360321,0.1354852318763733,0.948281668160727,-0.12264894595651907,-0.09734931972567008,-0.27612006269408196,-0.17981879552510824,-0.2593957243938639,-0.5902060466353383
1782985341705552384,0.578087329864502,1.1722252368927002,-0.779941201210022,-4.88646125793457,-0.26582199335098267,0.15303851664066315,-0.9517971873283386,0.12249615788459778,-0.640434741973877,0.24789398908615112,0.9418793085127877,-0.11442789606416058,-0.10491739939831601,-0.2979296644817854,-0.1536422897564912,-0.2723448842429902,-0.6338045514744077
1782985341715472128,0.5880072116851807,0.5068418383598328,-0.8350672125816345,-4.832033634185791,-0.27903592586517334,0.13251061737537384,-0.9510940313339233,0.11225736141204834,-0.6634096503257751,0.33325040340423584,0.934565490361582,-0.10917743602559632,-0.11195207215996236,-0.3195845836437938,-0.13290150564022069,-0.28537622970866694,-0.6781105613633753
1782985341725392384,0.5979273319244385,0.09684552997350693,-0.8383748531341553,-4.773040294647217,-0.29167941212654114,0.11648909002542496,-0.9493963122367859,0.09476473927497864,-0.7359806895256042,0.33402466773986816,0.9264624624240837,-0.1064029762039648,-0.11823804970657312,-0.3411238334686798,-0.11675416883831696,-0.29807306248010174,-0.7231422658709379
1782985341735312128,0.6078472137451172,-0.09570781141519547,-0.8320269584655762,-4.673474311828613,-0.30364933609962463,0.10286788642406464,-0.9472144842147827,0.061568647623062134,-0.7461631894111633,0.3557685613632202,0.9177992062733881,-0.10498088355259233,-0.12398293291640373,-0.3622871958648052,-0.1030501756298878,-0.3102206638986027,-0.7680458097377584
1782985341745232384,0.617767333984375,-0.006519873160868883,-0.8195681571960449,-4.5563812255859375,-0.3149217963218689,0.08951940387487411,-0.9448865056037903,0.016139447689056396,-0.6695364713668823,0.3924725651741028,0.9087892570002405,-0.10381594784923383,-0.12953372815920813,-0.38281239276890155,-0.08963940057515485,-0.3217120817792414,-0.8119061510565593
1782985341755152128,0.6276872158050537,0.45327141880989075,-0.7948604822158813,-4.500360488891602,-0.3253691792488098,0.07334017008543015,-0.9427386522293091,-0.024179160594940186,-0.5970065593719482,0.4086962938308716,0.8996171502663994,-0.1013827571553961,-0.13547038455052687,-0.40256459713137926,-0.07340607903201772,-0.33233142403900595,-0.853836321484398
1782985341765072384,0.6376073360443115,1.2743772268295288,-1.1916861534118652,-4.1526780128479,-0.3357055187225342,0.05103970319032669,-0.9405832290649414,-0.04651188850402832,-0.5495290756225586,0.4316263198852539,0.8904874419574423,-0.09626757357714065,-0.14297185899329964,-0.4210983551222105,-0.05106188756459522,-0.342819269535955,-0.8922840977787728
1782985341774992128,0.6475272178649902,1.9594058990478516,-1.0062248706817627,-3.7180287837982178,-0.34623920917510986,0.022368667647242546,-0.9378795623779297,-0.08857524394989014,-0.5201408863067627,0.4116191864013672,0.8820452457375296,-0.08825297806177958,-0.15255042325430188,-0.436962315779246,-0.022370532814174286,-0.35365173577236136,-0.923914086207905
1782985341784912384,0.657447338104248,1.8162373304367065,0.1670621931552887,-3.759709596633911,-0.34965676069259644,-0.008285779505968094,-0.9368412494659424,-0.12989646196365356,-0.5410611629486084,0.4968235492706299,0.8745008792647899,-0.07773125426185472,-0.15980373298266098,-0.451296967659791,0.00828587464667348,-0.3572175312658353,-0.9513337259280663
1782985341794832128,0.6673672199249268,1.9793670177459717,-0.12951064109802246,-4.478504657745361,-0.3472954034805298,-0.0404772125184536,-0.9368817806243896,-0.20731580257415771,-0.8336072564125061,0.6175611019134521,0.8658635161728617,-0.06576246931173507,-0.16502848594693695,-0.46767640550980133,0.04048827357432061,-0.3549892196819457,-0.9831995434810126
1782985341804752384,0.6772873401641846,1.991910457611084,-0.5298495292663574,-4.1799516677856445,-0.34754690527915955,-0.07420890033245087,-0.9347214698791504,0.028378784656524658,-0.9105475544929504,0.6711106300354004,0.8557890381046996,-0.05425450748545007,-0.17232447187585823,-0.48475333826853334,0.07427718072895852,-0.3559786545928243,-1.0173872446865977
1782985341814672128,0.6872072219848633,2.1201727390289307,-0.5032303333282471,-3.4945430755615234,-0.34873780608177185,-0.10655458271503448,-0.9311434030532837,0.20091062784194946,-0.6934027075767517,0.6959596872329712,0.8465075739150005,-0.04340400588879628,-0.1804006212315294,-0.4989955789239407,0.10675725728764064,-0.35835540120988213,-1.0459363784005882
1782985341824592384,0.6971273422241211,2.2221479415893555,-0.35167810320854187,-3.306129217147827,-0.3456330895423889,-0.1406705379486084,-0.9277659058570862,-0.052224576473236084,-0.5722506046295166,0.6744089722633362,0.9658988606203199,0.03895434918979736,-0.1860097011671773,-0.17584733476127568,0.14113866009339862,-0.35661521758600884,-0.33468950656198215
1782985341834511360,0.7070462703704834,2.2225863933563232,-0.19610752165317535,-3.173849582672119,-0.3408834934234619,-0.1746959388256073,-0.9237314462661743,-0.23246550559997559,-0.6023883819580078,0.6217142343521118,0.962228404453335,0.05376801291361782,-0.18773193149469752,-0.1896899655838485,0.17559695686253263,-0.3535253792666844,-0.35783603758988514
1782985341844431360,0.7169663906097412,1.815446138381958,0.17473499476909637,-3.1147663593292236,-0.33261165022850037,-0.20628750324249268,-0.9202255010604858,-0.28721562027931213,-0.6464651823043823,0.5311568975448608,0.9585758781641308,0.06780068405886856,-0.18785718236443744,-0.20308857814467615,0.20777932276647498,-0.3468349112769789,-0.38102964595374217
1782985341854351360,0.7268862724304199,1.6696077585220337,0.3175022304058075,-3.087542772293091,-0.32143744826316833,-0.23494035005569458,-0.9173227548599243,-0.26025813817977905,-0.5339500308036804,0.5019937753677368,0.9548735978190701,0.08070792804079165,-0.18661421939126854,-0.21651246573903893,0.2371571987166356,-0.3370384563057427,-0.4054158675394409
1782985341864271360,0.7368063926696777,1.4277045726776123,0.343021422624588,-2.9064767360687256,-0.30910417437553406,-0.2613588571548462,-0.9144102931022644,-0.16497117280960083,-0.4159330129623413,0.4254118800163269,0.9510885627750773,0.09280106016001324,-0.184885971036835,-0.22942463145629396,0.2644297124965192,-0.32597752878792796,-0.42966946266015565
1782985341874191360,0.7467262744903564,1.1212034225463867,0.42732223868370056,-2.7838804721832275,-0.29635265469551086,-0.284159779548645,-0.9118269085884094,-0.17714279890060425,-0.408039927482605,0.4309766888618469,0.9473438529179821,0.1033291714769193,-0.1827829819919035,-0.24177108307700357,0.28812997890127195,-0.3142407330946989,-0.4537936297049783
1782985341884111360,0.7566463947296143,0.6569899320602417,0.5555555820465088,-2.5301942825317383,-0.2826571762561798,-0.3029170036315918,-0.9101352691650391,-0.2818112075328827,-0.5506596565246582,0.35968971252441406,0.9438364881845951,0.11217155799769049,-0.17986081727439085,-0.253456484160436,0.3077519768570487,-0.30112208478994545,-0.4776461826497334
1782985341894031360,0.766566276550293,0.3529357612133026,0.558384358882904,-2.3714044094085693,-0.2687491476535797,-0.3169378936290741,-0.9095736742019653,-0.2652321755886078,-0.5675225257873535,0.35975372791290283,0.9407228813500695,0.11894496938514797,-0.17625339328977266,-0.264248470128569,0.32249918186015375,-0.2872930532631862,-0.5006379311863264
1782985341903951360,0.7764863967895508,-0.03800935670733452,0.6179198622703552,-2.3555755615234375,-0.25461477041244507,-0.3274003267288208,-0.9099342226982117,-0.33315375447273254,-0.5007246732711792,0.15921711921691895,0.9377206660071745,0.1240779795356804,-0.17215554363278301,-0.275040133543587,0.3335509618620235,-0.27283869606056427,-0.5244022810914609
1782985341913871360,0.7864062786102295,-0.26460522413253784,0.7117281556129456,-2.124600410461426,-0.240305095911026,-0.33476972579956055,-0.9111436009407043,-0.317403644323349,-0.45519304275512695,0.08097392320632935,0.9349359450029803,0.12788130761533306,-0.1675546592567158,-0.28542344948829806,0.3413608387253795,-0.2578681258057323,-0.5479136715286482
1782985341923791360,0.7963263988494873,-0.2900938093662262,0.5162481069564819,-2.201197385787964,-0.22686585783958435,-0.3402021825313568,-0.9125756621360779,-0.18351927399635315,-0.3777696192264557,-0.06407839059829712,0.9322047507846791,0.1307733398945452,-0.16312725480519483,-0.2954354022602306,0.34713190404435096,-0.2436601131173376,-0.5708881603310665
1782985341933711360,0.806246280670166,-0.4868370592594147,0.18723715841770172,-1.9215199947357178,-0.2163122147321701,-0.34440377354621887,-0.9135617613792419,-0.1726495623588562,-0.18606802821159363,-0.16419702768325806,0.929363246147434,0.13278216676375743,-0.15996257072160944,-0.30506523800250057,0.351603628205279,-0.2324971720790566,-0.592859703896644
1782985341943631360,0.8161664009094238,-0.44956186413764954,0.2619883716106415,-2.2182934284210205,-0.20634374022483826,-0.3480432629585266,-0.914487898349762,-0.11035239696502686,0.057790607213974,-0.13392817974090576,0.9263681466806715,0.13448160110139049,-0.15706921003475635,-0.3147794276380224,0.3554830504445829,-0.22192215470637533,-0.6150930232862181
1782985341953551360,0.8260862827301025,-0.6870226263999939,0.20207686722278595,-2.092914342880249,-0.19619746506214142,-0.3502279222011566,-0.915885865688324,-0.23977665603160858,-0.12808933854103088,-0.33351898193359375,0.9232157712215787,0.13548539599770026,-0.15395051445483776,-0.3249856483823735,0.3578144286147163,-0.2110267358724963,-0.6386375387081705
1782985341963471360,0.8360064029693604,-0.5147656202316284,0.2321024090051651,-2.2496750354766846,-0.1863894760608673,-0.3510602116584778,-0.9176141619682312,-0.2506375014781952,0.10417300462722778,-0.1550939679145813,0.9199620524102041,0.1358205825839149,-0.15081676328581356,-0.33537596202182546,0.35870312692136047,-0.20039761981496762,-0.6627127181586389
1782985341973391360,0.8459262847900391,0.13706645369529724,0.09909117221832275,-2.2891275882720947,-0.17611119151115417,-0.35579758882522583,-0.9178196787834167,-0.2722835838794708,0.027916759252548218,-0.18252211809158325,0.9161754960694465,0.1382222612303541,-0.14827265618109545,-0.34573434020954846,0.3637673708413811,-0.189575762559977,-0.6867210137446323
1782985341983310336,0.8558452129364014,1.1268784999847412,-0.06334114074707031,-2.174431324005127,-0.16723516583442688,-0.367587685585022,-0.9148287773132324,-0.06215021014213562,-0.10152852535247803,-0.15908479690551758,0.9116316676173963,0.14396142433541126,-0.1478537149736111,-0.3554462488832912,0.37641376683317773,-0.18080845392032244,-0.7090128659211571
1782985341993230336,0.8657653331756592,2.0535728931427,-0.2523297369480133,-2.0541281700134277,-0.16036555171012878,-0.3875848650932312,-0.9077779650688171,0.062221020460128784,-0.1303289532661438,-0.19824010133743286,0.9063239118514087,0.15353517262548572,-0.15012649384182836,-0.36395867070887533,0.39801023184468903,-0.17485320399623164,-0.7283800247626274
1782985342003150336,0.8756852149963379,2.852201223373413,-0.3559373617172241,-2.122069835662842,-0.15400707721710205,-0.41495683789253235,-0.8967121243476868,-0.01211535930633545,-0.08933088183403015,-0.20486563444137573,0.9001045391647402,0.16674049885245348,-0.1544070853491145,-0.37170922987385524,0.42789536266406575,-0.17008700628811813,-0.7462206333514559
1782985342013070336,0.8856053352355957,3.6943283081054688,-0.4712388217449188,-2.1881368160247803,-0.14765067398548126,-0.4490758776664734,-0.8812094926834106,-0.14603523910045624,-0.15778139233589172,-0.11317527294158936,0.892644282835638,0.1833268092468842,-0.16058186604501917,-0.3791979479867728,0.4657307978314485,-0.16601245024136393,-0.7639492636511985
1782985342022990336,0.8955252170562744,4.486626625061035,-0.4934069812297821,-2.085512161254883,-0.14104938507080078,-0.48946788907051086,-0.8605383038520813,-0.09483624994754791,-0.23065540194511414,-0.045391201972961426,0.8839961187627464,0.20331474964379415,-0.16850503818612453,-0.38577184526219505,0.5114794547697651,-0.16246368085745094,-0.7803999574531202
1782985342032910336,0.9054453372955322,5.2227606773376465,-0.6132590770721436,-2.1103057861328125,-0.13463249802589417,-0.5348857045173645,-0.8341290950775146,-0.007609933614730835,-0.188640296459198,0.02170538902282715,0.8740118543604711,0.22615954318662457,-0.17828995575029447,-0.3913665640747739,0.564372460870169,-0.1600247679095406,-0.7955296446004373
1782985342042830336,0.9153652191162109,5.881409645080566,-0.6860653758049011,-2.095850944519043,-0.12766104936599731,-0.5849379897117615,-0.8009682893753052,-0.07731024920940399,-0.17336279153823853,0.07864779233932495,0.862296893858786,0.25198576412125556,-0.1897867953894839,-0.3961415793864419,0.6248035712000553,-0.15805399680132848,-0.810148022117521
1782985342052750336,0.9252853393554688,6.318971633911133,-0.7098647952079773,-2.0834362506866455,-0.11971040070056915,-0.6365165114402771,-0.7619161009788513,-0.13465359807014465,-0.10347366333007812,0.12861531972885132,0.8491094842746052,0.279577631177648,-0.2021838114546927,-0.3999640189666827,0.6899732304002675,-0.15584351098182447,-0.8243214245248166
1782985342062670336,0.9352052211761475,6.572700500488281,-0.7299924492835999,-2.1029090881347656,-0.11066734045743942,-0.6877779364585876,-0.7174359560012817,-0.20964516699314117,-0.044033586978912354,0.19732487201690674,0.8344201112741076,0.3081859347148954,-0.2151823990171291,-0.4030646371247677,0.7584235406654168,-0.1530476886832469,-0.838898294880641
1782985342072590336,0.9451253414154053,6.652859687805176,-0.7272756099700928,-2.0525546073913574,-0.10067547112703323,-0.7369820475578308,-0.6683725118637085,-0.24965104460716248,-0.08207917213439941,0.25968116521835327,0.8184184684665342,0.33706047599321604,-0.22848187721074228,-0.40543481685895083,0.8285944237998312,-0.14950385709575797,-0.8540593321556543
1782985342082510336,0.955045223236084,6.453609466552734,-0.7157161235809326,-1.9253205060958862,-0.08989756554365158,-0.7819901704788208,-0.6167737245559692,-0.3307414948940277,-0.0702131986618042,0.26249516010284424,0.8017807141693546,0.36517726559804575,-0.2413684246557214,-0.40685929343559696,0.8978524262854963,-0.14473534622317852,-0.8693538410307764
1782985342092430336,0.9649653434753418,6.112161636352539,-0.7122290730476379,-1.771934151649475,-0.07886788249015808,-0.8214450478553772,-0.5648078918457031,-0.40140247344970703,-0.0994533896446228,0.2603950500488281,0.7849404569945106,0.3915022523975488,-0.253617908360551,-0.4077652499905152,0.9639403167263532,-0.13873956727252215,-0.8855669259124914
1782985342102350336,0.9748852252960205,5.821293354034424,-0.7248029112815857,-1.5785082578659058,-0.06862522661685944,-0.8555306196212769,-0.5131842494010925,-0.368752658367157,-0.10835182666778564,0.14895695447921753,0.7683068299296583,0.4158943959298025,-0.2654048225222997,-0.4077951636607445,1.026574818731749,-0.13293569380837275,-0.900912344133841
1782985342112270336,0.9848053455352783,5.231040000915527,-0.732343316078186,-1.4131330251693726,-0.05915382504463196,-0.884082555770874,-0.46357202529907227,-0.40587300062179565,-0.12554579973220825,0.057932376861572266,0.7522224750283744,0.43792128569871386,-0.27647591028094626,-0.407366544510392,1.0845271570619153,-0.1269184858030114,-0.916131137602668
1782985342122190336,0.994725227355957,5.054486274719238,-0.7159065008163452,-1.2416452169418335,-0.05053819343447685,-0.9081678986549377,-0.41554445028305054,-0.36918529868125916,-0.10669422149658203,0.026201188564300537,0.7365874624554922,0.4580591454773056,-0.2870707195018291,-0.4064619140358416,1.1388863424185274,-0.1210248547338585,-0.9309416272053729
1782985342132110336,1.0046453475952148,4.736861228942871,-0.8022253513336182,-1.0462596416473389,-0.04325563460588455,-0.92838454246521,-0.3690948784351349,-0.27987974882125854,-0.08293747901916504,-0.018524110317230225,0.7214744801487312,0.4764369704539277,-0.2974228781512437,-0.4049962776812466,1.1900419249659708,-0.11666165268865526,-0.9440123434214437
1782985342142030336,1.0145652294158936,4.484081268310547,-0.8626189231872559,-0.8810799717903137,-0.0373995341360569,-0.9452184438705444,-0.32428914308547974,-0.229629248380661,-0.07432806491851807,-0.004827678203582764,0.706813569327445,0.4931054375164549,-0.30773764113161917,-0.4031863318309327,1.2382631479219632,-0.11482048287991467,-0.9549182066961331
1782985342151949312,1.024484395980835,4.029413223266602,-0.9511052966117859,-0.7830396890640259,-0.03264249488711357,-0.9588268399238586,-0.28210920095443726,-0.17499911785125732,-0.13629645109176636,0.040242135524749756,0.6927705650239322,0.50786953853951,-0.3178268802405987,-0.4014020217019549,1.2828420141329602,-0.11519643963454461,-0.9642271856203495
1782985342161869312,1.0344042778015137,3.7054920196533203,-1.0456554889678955,-0.7043177485466003,-0.028492603451013565,-0.9694662094116211,-0.24356432259082794,-0.12894757091999054,-0.14917093515396118,0.08110404014587402,0.6795706179755985,0.5206203000262185,-0.32737186575501376,-0.3999575103740144,1.323044545713784,-0.11645255961099561,-0.9732035617789977
1782985342171789312,1.0443243980407715,3.7216145992279053,-1.0985187292099,-0.6114904880523682,-0.02475222758948803,-0.978293240070343,-0.20574191212654114,-0.08366145938634872,-0.10616415739059448,0.02046966552734375,0.6663820700570223,0.5324963456891508,-0.337011403119529,-0.3985045980999963,1.3620583729586668,-0.11973173052887139,-0.9808470909298572
1782985342181709312,1.0542442798614502,3.747180461883545,-1.2115137577056885,-0.501226007938385,-0.021905655041337013,-0.9856036901473999,-0.16764771938323975,-0.05113814398646355,-0.05043762922286987,0.004943251609802246,0.6530182870724419,0.5437655002788783,-0.3471242131739083,-0.39672548428732846,1.4009081205510632,-0.12992869500913828,-0.982287611886025
1782985342191629312,1.064164400100708,3.809122085571289,-1.2669243812561035,-0.47258633375167847,-0.01926647126674652,-0.9914957880973816,-0.12870541214942932,-0.12613451480865479,-0.10313922166824341,-0.006914734840393066,0.639207957726898,0.5547664843056801,-0.35760515213026844,-0.3946720452490664,1.4402875955145062,-0.14859100869876482,-0.9758713734145058
1782985342201549312,1.0740842819213867,3.94010853767395,-1.3370118141174316,-0.3663043677806854,-0.01678195409476757,-0.9959043860435486,-0.08884210884571075,-0.13528713583946228,-0.17900711297988892,-0.04914313554763794,0.6249088197999084,0.5655232872109603,-0.3684594386209912,-0.3923137758112396,1.4802602395590534,-0.1866965763601757,-0.9506150825267742
1782985342211469312,1.0840044021606445,4.047123432159424,-1.4463026523590088,-0.2843780517578125,-0.014908977784216404,-0.9987539052963257,-0.04762769117951393,-0.07966499775648117,-0.20948278903961182,-0.12578845024108887,0.610038822698856,0.5760371082140675,-0.3799571097856131,-0.3894438321427527,1.5208692908868755,-0.3033692200283479,-0.8475450330761155
1782985342221389312,1.0939242839813232,4.073760509490967,-1.515042781829834,-0.22110053896903992,-0.013113319873809814,-0.9998975992202759,-0.00571661489084363,-0.11875313520431519,-0.17972874641418457,-0.19087761640548706,0.5946346113592649,0.5861566204136088,-0.39187001530364246,-0.3863520539354794,1.556485294650559,-1.1596963864556704,-0.005746121880412423
1782985342231309312,1.103844404220581,4.108834266662598,-1.55968177318573,-0.12884573638439178,-0.011450669728219509,-0.9992705583572388,0.03642807900905609,-0.1240321472287178,-0.15090632438659668,-0.21260607242584229,0.5789214147458245,0.595818981406187,-0.40399725318006957,-0.3829306111433648,1.5325988588356863,-2.837035682849057,1.6565944539774013
1782985342241229312,1.1137642860412598,4.0875773429870605,-1.603247880935669,-0.014542865566909313,-0.010133152827620506,-0.9968736171722412,0.07836104184389114,-0.08039724081754684,-0.1252882480621338,-0.16229963302612305,0.5630660753491971,0.6048608843765056,-0.41632178671960446,-0.37917826056981563,1.4917014477821346,-3.012992639204133,1.8171073089066516
1782985342251149312,1.1236844062805176,4.124953746795654,-1.5815975666046143,0.1509830504655838,-0.009570209309458733,-0.9926910400390625,0.12030332535505295,-0.042660631239414215,-0.13253778219223022,-0.10600578784942627,0.5471245138525185,0.6133231411511032,-0.4289363424906638,-0.3748374512919179,1.4498181537293642,-3.0622091588985803,1.8506691450315644
1782985342261069312,1.1336042881011963,4.043064117431641,-1.5592291355133057,0.2660593092441559,-0.009750076569616795,-0.9867939352989197,0.1616867333650589,0.013488476164638996,-0.17870283126831055,-0.018452420830726624,0.5313427790448636,0.6211511462477645,-0.44160459395516694,-0.3699073493249418,1.4080987703302583,-3.081363320707914,1.8543708739507994
1782985342270989312,1.143524408340454,3.8816678524017334,-1.5557576417922974,0.3887910842895508,-0.010442427359521389,-0.9794199466705322,0.20156355202198029,0.08887264132499695,-0.22266757488250732,0.03012600541114807,0.5159356366260559,0.6281136070147385,-0.45415313785276856,-0.36473111275573283,1.3675672261683098,-3.089831809597069,1.847359790271542
1782985342280909312,1.1534442901611328,3.6991004943847656,-1.5540404319763184,0.5281247496604919,-0.011717778630554676,-0.9708525538444519,0.2393905073404312,0.07902427762746811,-0.22233885526657104,0.03400120139122009,0.5010667418785911,0.634030411930396,-0.46658406563446503,-0.35949516616376537,1.3287625736659188,-3.092683305554225,1.8344520547629208
1782985342290828288,1.1633632183074951,3.409207820892334,-1.5765739679336548,0.5551418662071228,-0.013165345415472984,-0.9614146947860718,0.2747882604598999,0.033673159778118134,-0.21081125736236572,-0.006340384483337402,0.48681596967860385,0.6389387047209837,-0.4786976689092135,-0.3544236648649739,1.2920992569568688,-3.0937183894282567,1.8195057196629678
1782985342300748288,1.173283338546753,3.14316463470459,-1.5937888622283936,0.6790750026702881,-0.014560045674443245,-0.9516371488571167,0.3068788945674896,-0.0005919458344578743,-0.13303381204605103,-0.0393160879611969,0.47343980028913857,0.6426707946225639,-0.49031999322645636,-0.3498789408210901,1.258521481325903,-3.0941826318346566,1.803611552461347
1782985342310668288,1.1832032203674316,3.080305576324463,-1.6049680709838867,0.8048784732818604,-0.01663520187139511,-0.941265344619751,0.3372581899166107,0.04439094662666321,-0.10307681560516357,-0.06012806296348572,0.4605840207567543,0.6454813490678719,-0.5019790075838382,-0.34530185709735145,1.2263582874867647,-3.092307769108858,1.7849429910744847
1782985342320588288,1.1931233406066895,3.029926061630249,-1.6040935516357422,0.8679370880126953,-0.018853629007935524,-0.9301559329032898,0.3666803538799286,0.09787889569997787,-0.1308639645576477,-0.023845791816711426,0.4478981886913343,0.6476864051450082,-0.5136560069680576,-0.34065680341251203,1.1948373906843328,-3.090220821257625,1.7656443064279126
1782985342330508288,1.2030432224273682,3.152526378631592,-1.5600017309188843,0.9928224086761475,-0.021434541791677475,-0.9179762005805969,0.39605531096458435,0.17180988192558289,-0.16706079244613647,0.0299394428730011,0.4351913411989191,0.6495686926051883,-0.5254409241640315,-0.33553043991481046,1.1629475304740322,-3.0875253249030084,1.7457526413069526
1782985342340428288,1.212963342666626,3.2992353439331055,-1.5197643041610718,1.1100331544876099,-0.024660203605890274,-0.9042211174964905,0.42635178565979004,0.272066205739975,-0.20637446641921997,0.09887093305587769,0.42216976960973157,0.6512848409010288,-0.5375908798463778,-0.3295401677921154,1.1295523861977963,-3.0838169866994756,1.7248651899370957
1782985342350348288,1.2228832244873047,3.453566312789917,-1.4065648317337036,1.2012842893600464,-0.02840687520802021,-0.8887602686882019,0.45749127864837646,0.32883718609809875,-0.2308838963508606,0.14806902408599854,0.40886470303693656,0.6529259972753043,-0.5499393459076063,-0.32262055765259434,1.0946333903929089,-3.0795795539011888,1.7038157242115808
1782985342360268288,1.2328033447265625,3.463430404663086,-1.2926467657089233,1.2680907249450684,-0.0326392836868763,-0.8716408610343933,0.48905715346336365,0.3181312382221222,-0.2298148274421692,0.19105756282806396,0.39547226505405203,0.6545473334381179,-0.5622244763657754,-0.31475881956169743,1.0585401193445658,-3.0749522788225736,1.6832666976823725
1782985342370188288,1.2427232265472412,3.2883782386779785,-1.1858562231063843,1.3833091259002686,-0.03741096332669258,-0.8538670539855957,0.5191451907157898,0.302379846572876,-0.17723047733306885,0.27162641286849976,0.3826581873582395,0.6556430554109907,-0.5741992441648478,-0.30659450924639,1.02337021903439,-3.0696543858780783,1.6626387659896598
1782985342380108288,1.252643346786499,3.066439390182495,-1.0647408962249756,1.4626363515853882,-0.042949989438056946,-0.8359965682029724,0.5470514297485352,0.28875383734703064,-0.15548914670944214,0.2848730683326721,0.37076553864119444,0.6560234558054774,-0.5857977058611695,-0.29834086820775907,0.9899464083908459,-3.0632415871999297,1.641468659849121
1782985342390028288,1.2625632286071777,2.7490336894989014,-0.9463102221488953,1.5327519178390503,-0.049046799540519714,-0.818612277507782,0.5722482204437256,0.2703450322151184,-0.17926663160324097,0.25508320331573486,0.36003227247999675,0.655731940685349,-0.5967744396560403,-0.29026290376617647,0.9589906783295317,-3.05609264475766,1.6203927762777275
1782985342399948288,1.2724833488464355,2.276909589767456,-0.80534827709198,1.6036546230316162,-0.05590038746595383,-0.8026155829429626,0.5938713550567627,0.2829206585884094,-0.2288936972618103,0.22888249158859253,0.3508864624278214,0.6545257277448756,-0.6070681655873189,-0.2827418389631924,0.9316672640695187,-3.0477404080943042,1.5987863155430684
1782985342409868288,1.2824032306671143,1.6994402408599854,-0.6750072836875916,1.6327358484268188,-0.06336599588394165,-0.7891684770584106,0.6108989119529724,0.30952078104019165,-0.2921454906463623,0.20825374126434326,0.34381168082234465,0.6523169070110796,-0.6163863313012806,-0.27630407816526137,0.909453905139404,-3.0382364358300347,1.5768574571002585
1782985342419788288,1.292323350906372,1.1447319984436035,-0.6056007742881775,1.7042696475982666,-0.07135146856307983,-0.7787439823150635,0.6232709884643555,0.33775466680526733,-0.34601181745529175,0.18336957693099976,0.33883949939670593,0.6490563404350778,-0.6247890482795264,-0.2712052325341872,0.8926611744355701,-3.0276098138437235,1.554301895488579
1782985342429708288,1.3022432327270508,0.7755904197692871,-0.5134332180023193,1.747649908065796,-0.07977696508169174,-0.7709509134292603,0.6318783760070801,0.33595678210258484,-0.36883479356765747,0.18033164739608765,0.3355830711741634,0.6448802879433017,-0.632509755161566,-0.2672916018904312,0.8803328413857715,-3.0160034657547525,1.5309530880980313
1782985342439627520,1.3121623992919922,0.6203329563140869,-0.4182273745536804,1.804443359375,-0.08859898149967194,-0.7644829154014587,0.6385268568992615,0.29314303398132324,-0.3749825954437256,0.17433947324752808,0.33332125698957515,0.6402648977523542,-0.6397845531456894,-0.26388187531072865,0.870238794722125,-3.0037176967462367,1.5073786592120424
1782985342449547264,1.322082281112671,0.6792681217193604,-0.36427924036979675,1.8894941806793213,-0.09780064970254898,-0.7580575942993164,0.6448131799697876,0.29025977849960327,-0.34681618213653564,0.18308299779891968,0.331336548388922,0.635452949437632,-0.6469977839203019,-0.2604027397278209,0.8603295997017165,-2.991067075223861,1.483625267542733
1782985342459467520,1.3320024013519287,0.9676951169967651,-0.2769387364387512,2.0186378955841064,-0.107236348092556,-0.7501235604286194,0.6525450348854065,0.3153662383556366,-0.3218521475791931,0.15586555004119873,0.32879760642549266,0.6307833938459755,-0.6545111465701425,-0.25616325026300585,0.8482488818794066,-2.9787129489696578,1.4602041007801485
1782985342469387264,1.3419222831726074,1.3441500663757324,-0.22723698616027832,2.153855085372925,-0.11631499230861664,-0.7394495010375977,0.6630876064300537,0.35488617420196533,-0.30512136220932007,0.11889475584030151,0.3249161768014437,0.6265451321785601,-0.6625594410358032,-0.2507700954372754,0.8322522489230274,-2.9679451095522342,1.438039625393932
1782985342479307520,1.3518424034118652,1.7318850755691528,-0.1920182853937149,2.3010470867156982,-0.12318619340658188,-0.725640594959259,0.6769571900367737,0.3937550187110901,-0.31221652030944824,0.08708089590072632,0.31885982202809127,0.6229546587909497,-0.6711230056350116,-0.24464231080055357,0.811964926644021,-2.961591783515773,1.4188400154848995
1782985342489227264,1.361762285232544,1.9185034036636353,-0.17102617025375366,2.373897075653076,-0.13355772197246552,-0.709997832775116,0.6914231181144714,0.3962377607822418,-0.32328176498413086,0.08447128534317017,0.31343740921345886,0.6187154847880434,-0.6803695353970105,-0.23673951180346703,0.7894951711531514,-2.9507791862221655,1.396252792308638
1782985342499147520,1.3716824054718018,1.8629096746444702,-0.10453076660633087,2.424691915512085,-0.14757463335990906,-0.6935883164405823,0.705093502998352,0.36124348640441895,-0.31816089153289795,0.12429791688919067,0.30931840885605505,0.6136190843399089,-0.6899408411902844,-0.22754195738171906,0.7664584150698538,-2.9352729388573677,1.3704042194156212
1782985342509067264,1.3816022872924805,1.7601197957992554,-0.012918718159198761,2.4730193614959717,-0.16276776790618896,-0.6771641969680786,0.7176042795181274,0.34662091732025146,-0.3260708451271057,0.12780922651290894,0.3059946595116014,0.608046136240525,-0.6993440046438693,-0.21809470784145882,0.7439018888076658,-2.9185455662326514,1.3440388513659338
1782985342518987520,1.3915224075317383,1.6781882047653198,0.04643435403704643,2.516629457473755,-0.17868943512439728,-0.6607528924942017,0.729023814201355,0.36611315608024597,-0.31626737117767334,0.14272606372833252,0.3033119175707717,0.6020819466134345,-0.7085260930243954,-0.20854252260639333,0.7218213742228692,-2.9012236583317867,1.3176154425197681
1782985342528907264,1.401442289352417,1.6158738136291504,0.13636364042758942,2.6017556190490723,-0.19522908329963684,-0.6441646218299866,0.73955237865448,0.39490556716918945,-0.2971806526184082,0.16410356760025024,0.3011195236467689,0.5956840035768771,-0.7175909462058263,-0.1988740724252777,0.6999306376245399,-2.883497656928119,1.2910159942865511
1782985342538829056,1.4113640785217285,1.627699851989746,0.2105174958705902,2.6963210105895996,-0.21264277398586273,-0.6270639300346375,0.7493822574615479,0.3825036287307739,-0.2958791255950928,0.17407959699630737,0.29939425216091126,0.5888549808849171,-0.7265954415108159,-0.18887012046927576,0.6777782873196291,-2.865103103600028,1.2641309513241223
1782985342548749056,1.4212839603424072,1.7490744590759277,0.22252412140369415,2.793930768966675,-0.23060360550880432,-0.6085532903671265,0.759266197681427,0.36375173926353455,-0.2989327311515808,0.13923245668411255,0.29764890648387327,0.581682503051581,-0.7357163710661319,-0.17824735716415127,0.6542361795165176,-2.846727398327793,1.2373117322785354
1782985342558669056,1.431204080581665,1.928456425666809,0.20949967205524445,2.9107162952423096,-0.24866457283496857,-0.5880697965621948,0.7696362733840942,0.3259808421134949,-0.3060647249221802,0.08064448833465576,0.2954959382018582,0.574151968378352,-0.7450957436334741,-0.1669252821971099,0.6286702757983426,-2.829085981319171,1.2107330091821638
1782985342568589056,1.4411239624023438,2.1944305896759033,0.22766421735286713,3.048818826675415,-0.2668856084346771,-0.5647891759872437,0.7808879017829895,0.26482561230659485,-0.3227231502532959,-0.0120888352394104,0.2927178769028966,0.5663216467309946,-0.7548004606633143,-0.15450722075608514,0.6001777682683002,-2.8122666286025364,1.184632472683463
1782985342578508032,1.4510431289672852,2.492709159851074,0.27333158254623413,3.14627742767334,-0.2853895425796509,-0.5382290482521057,0.7930084466934204,0.22424757480621338,-0.3199252486228943,-0.08080446720123291,0.2893046416294225,0.5582626842560322,-0.7647529091066705,-0.14070759799359323,0.5683344365653233,-2.796141477803156,1.15931981709801
1782985342588428032,1.4609630107879639,2.856410026550293,0.27460092306137085,3.1880621910095215,-0.3036114275455475,-0.5079936981201172,0.8060781359672546,0.21959656476974487,-0.32103145122528076,-0.10719531774520874,0.28500680149591356,0.5502257233223581,-0.7747843056591583,-0.12542686825135443,0.532853947396998,-2.7813739270631497,1.1357282720672683
1782985342598348032,1.4708831310272217,3.1100995540618896,0.2583484351634979,3.2099156379699707,-0.32089224457740784,-0.47419750690460205,0.8198567032814026,0.22866812348365784,-0.35568225383758545,-0.09402656555175781,0.2796756768718173,0.5422636937484744,-0.7847792197279001,-0.10887238951758246,0.49405231958969603,-2.768521636366867,1.1141733362935726
1782985342608268032,1.4808030128479004,3.1124672889709473,0.3416478633880615,3.2162413597106934,-0.33740440011024475,-0.4383326470851898,0.8330804109573364,0.20688071846961975,-0.4166173040866852,-0.059490203857421875,0.27396903384173643,0.5341755949873402,-0.7944788455419082,-0.09165600178690106,0.4537427769162704,-2.7567763224904853,1.0939819779383884
1782985342618188032,1.4907231330871582,2.875753164291382,0.44492098689079285,3.268522024154663,-0.3538168966770172,-0.4025926887989044,0.8442350625991821,0.2143210470676422,-0.4842939078807831,-0.02557051181793213,0.2689194270163899,0.5256059894521806,-0.803651593994219,-0.07459785784011466,0.41434746347381496,-2.7447320010409975,1.0739171819080884
1782985342628108032,1.500643014907837,2.5503363609313965,0.4673846364021301,3.3043320178985596,-0.3698674440383911,-0.3682185411453247,0.8530025482177734,0.3160802125930786,-0.5049504041671753,-0.015111923217773438,0.26474252378906926,0.5162269766681905,-0.8124106080051604,-0.05839662509407812,0.3770922071293619,-2.732454884023158,1.052988565239701
1782985342638028032,1.5105631351470947,2.2240078449249268,0.4021877944469452,3.364274501800537,-0.3848268985748291,-0.33597850799560547,0.8596668839454651,0.39917007088661194,-0.4782000780105591,-0.04925721883773804,0.26128022114605304,0.5060330239636157,-0.8208312985669128,-0.04358122041319338,0.3426439292830142,-2.720697602329714,1.0310273077608554
1782985342647948032,1.5204830169677734,2.089961290359497,0.30938246846199036,3.5057191848754883,-0.3983684778213501,-0.30464068055152893,0.8651567101478577,0.42485785484313965,-0.4804849326610565,-0.09464907646179199,0.2579473712221153,0.49488957092566976,-0.829254284414793,-0.02974344272353046,0.30956115720266686,-2.7100758160426794,1.007742771392448
1782985342657868032,1.5304031372070312,1.9391636848449707,0.24372650682926178,3.599776268005371,-0.4105411469936371,-0.27351388335227966,0.8698539733886719,0.36662641167640686,-0.46656787395477295,-0.13497555255889893,0.2545582575608341,0.4828525789903123,-0.8377233225927194,-0.016524340598032573,0.27704432012116365,-2.7006230315335933,0.9832780968982203
1782985342667788032,1.54032301902771,1.7964918613433838,0.21502013504505157,3.659860134124756,-0.42143845558166504,-0.24291662871837616,0.8737170100212097,0.29556864500045776,-0.4445071220397949,-0.15914785861968994,0.2512487730094852,0.47010785381080467,-0.8460833906625721,-0.003952676742708709,0.2453714145679318,-2.692163492744976,0.9579542392558853
1782985342677708032,1.5502431392669678,1.7613093852996826,0.1821061223745346,3.710937738418579,-0.43105366826057434,-0.21265028417110443,0.8769106864929199,0.2921224534511566,-0.4248161315917969,-0.18817484378814697,0.2479483386539859,0.45685447818201447,-0.8542478199317725,0.008137176682249553,0.21428648512410142,-2.6847203263473,0.9322004421511123
1782985342687628032,1.5601630210876465,1.9043011665344238,0.06501522660255432,3.782815933227539,-0.43912410736083984,-0.18125653266906738,0.8799521923065186,0.3506994843482971,-0.3670375347137451,-0.1996849775314331,0.24414736986689817,0.4432296900019966,-0.8622781144844348,0.020393766370241137,0.18226399438480945,-2.6787199246346454,0.9065391015655874
1782985342697548032,1.5700831413269043,2.184924364089966,-0.025204414501786232,3.890289306640625,-0.4449838697910309,-0.14744172990322113,0.8833179473876953,0.3500894606113434,-0.31831756234169006,-0.17889583110809326,0.23923245316021974,0.4292954512644096,-0.8702668462721591,0.03330075038434289,0.1479812319351798,-2.6749382996884514,0.8813040370110891
1782985342707468032,1.580003023147583,2.412397861480713,-0.10400030761957169,3.9314627647399902,-0.4489917755126953,-0.1107521653175354,0.8866457939147949,0.27781862020492554,-0.3145560920238495,-0.19188249111175537,0.2333311812810774,0.4151805161779485,-0.878036471963855,0.04726281805482474,0.11097983859484434,-2.6728432465873033,0.8568637183155041
1782985342717388032,1.5899231433868408,2.3874263763427734,-0.1920659840106964,4.000143527984619,-0.4507182538509369,-0.07284562289714813,0.8896891474723816,0.22540688514709473,-0.32756027579307556,-0.20871984958648682,0.2266690200864402,0.4007801230604624,-0.8855618910919159,0.06145434460311935,0.07291020431619316,-2.672677445326344,0.8325588866931363
1782985342727307008,1.5998420715332031,1.9181345701217651,-0.3576926290988922,3.899907350540161,-0.44991934299468994,-0.03731384500861168,0.8922895193099976,0.19108444452285767,-0.3253113031387329,-0.2537243366241455,0.21989680697505332,0.38598128482435473,-0.8928399719240695,0.07416685144567567,0.03732250929572403,-2.6745665959328613,0.8072093096495125
1782985342737227008,1.6097619533538818,1.4595465660095215,-0.5127501487731934,3.7971389293670654,-0.4462716281414032,-0.00700365100055933,0.8948703408241272,0.14693984389305115,-0.28425613045692444,-0.36920487880706787,0.21330026187292642,0.3710871762143485,-0.8998497025060233,0.08407089107288708,0.007003708343131982,-2.678985795118636,0.7806301988136477
1782985342747147008,1.6196820735931396,1.1332849264144897,-0.651114821434021,3.6970653533935547,-0.44004228711128235,0.018348168581724167,0.8977896571159363,0.09670424461364746,-0.17949624359607697,-0.4684683084487915,0.2067829710419385,0.35619296120605176,-0.9066539552459225,0.09135649055327333,-0.01834919908767243,-2.685864417301643,0.7529366777359977
1782985342757067008,1.6296019554138184,0.9185363054275513,-0.831988513469696,3.5248658657073975,-0.43040162324905396,0.03516275808215141,0.90195232629776,-0.012637317180633545,-0.07475931942462921,-0.4744468927383423,0.20031698676736803,0.34221430333334285,-0.9131623832403845,0.09432354948861742,-0.035170008370253886,-2.6963599167206307,0.7250779639706959
1782985342766987008,1.6395220756530762,1.0093985795974731,-0.8867453336715698,3.552520751953125,-0.42003384232521057,0.053396232426166534,0.9059363603591919,-0.0957590639591217,0.006113048642873764,-0.48657894134521484,0.1934351827216668,0.3280494782282576,-0.9194301008251908,0.09805468247958597,-0.05342163779318878,-2.707448771208963,0.6972182153046721
1782985342776907008,1.6494419574737549,1.2508820295333862,-0.7322460412979126,3.34900164604187,-0.41020071506500244,0.07623481750488281,0.9088032841682434,-0.14746221899986267,-0.01963997632265091,-0.5099844336509705,0.18627919066162524,0.3138498145492758,-0.9251486014027365,0.10439522767318563,-0.07630885557499015,-2.717605344302998,0.6705501980095159
1782985342786827008,1.6593620777130127,1.510841727256775,-0.8013776540756226,3.239511013031006,-0.4005856215953827,0.10087240487337112,0.910689651966095,-0.08105802536010742,-0.040203459560871124,-0.4615320563316345,0.1791244679572109,0.30055354150153807,-0.9300604282974734,0.11211389344538511,-0.10104426000912951,-2.727194190490895,0.6463826333637627
1782985342796747008,1.6692819595336914,1.6671961545944214,-1.089759111404419,3.276038885116577,-0.3883093297481537,0.1275375634431839,0.9126609563827515,0.10074222087860107,-0.008305400609970093,-0.40556567907333374,0.17060062469482998,0.28744589467716924,-0.9347220575343612,0.12068531935967183,-0.12788586790709644,-2.739324456803623,0.6227922475233664
1782985342806667008,1.6792020797729492,1.1023585796356201,-1.2744370698928833,3.038245677947998,-0.37292978167533875,0.15201130509376526,0.9153229594230652,0.08626288175582886,-0.015033155679702759,-0.4012848138809204,0.16108416790339963,0.2746645300188984,-0.9392661304527054,0.12802523089323772,-0.15260291651516952,-2.7546977823816388,0.5989353821460678
1782985342816587008,1.689121961593628,0.34586846828460693,-1.3381338119506836,2.816525459289551,-0.35633066296577454,0.16852588951587677,0.9190360307693481,-0.07961288094520569,0.043159276247024536,-0.42925959825515747,0.15218069650466007,0.26249587252780593,-0.9437234456073098,0.13161667994601584,-0.16933397142580942,-2.7717152127951605,0.5743347750970048
1782985342826507008,1.6990420818328857,-0.06277761608362198,-1.4391082525253296,2.6760737895965576,-0.3390277028083801,0.17879466712474823,0.9236301779747009,-0.17449155449867249,0.15053576231002808,-0.5191349387168884,0.14380852841144068,0.2506500677135614,-0.9481506320083666,0.13230276614269074,-0.1797612421303358,-2.7898011808101404,0.5489222662703923
1782985342836427008,1.7089619636535645,-0.37412166595458984,-1.488996982574463,2.5383057594299316,-0.32088449597358704,0.18499723076820374,0.9288752675056458,-0.17963430285453796,0.22239719331264496,-0.498668909072876,0.13551593822301508,0.23916940288196809,-0.9524891824066494,0.13114047575480572,-0.1860690508133535,-2.808972656872572,0.5233476576804544
1782985342846347008,1.7188820838928223,-0.2393469363451004,-1.439469575881958,2.3774118423461914,-0.3028114438056946,0.18927262723445892,0.9340672492980957,-0.1608574390411377,0.17434434592723846,-0.4589846134185791,0.12741558938599096,0.2283043471410762,-0.9565096728663115,0.12935138039978153,-0.19042133117692361,-2.8280972392566297,0.4987861670190066
1782985342856267008,1.728801965713501,-0.30883467197418213,-1.5594772100448608,2.292109966278076,-0.2844763994216919,0.19367492198944092,0.9389160871505737,-0.083611398935318,0.15292850136756897,-0.4080474376678467,0.11909741754594445,0.21802249071218122,-0.9601688509171579,0.1278976863855988,-0.19490661392066086,-2.847400631769398,0.4755299372179341
1782985342866187008,1.7387220859527588,-0.49489572644233704,-1.531522512435913,2.117386817932129,-0.2658095359802246,0.19561035931110382,0.9439712166786194,-0.064695805311203,0.22594420611858368,-0.32586830854415894,0.110816144240984,0.20820089234835595,-0.9636586524593921,0.125435700596448,-0.19687979107225886,-2.8671134256969166,0.4528410267761303
1782985342876105984,1.748641014099121,-0.7135527729988098,-1.5168770551681519,1.8546150922775269,-0.2476903647184372,0.19497856497764587,0.9490166902542114,-0.18155460059642792,0.34275639057159424,-0.3558008670806885,0.10293428847224383,0.19929241749883067,-0.9668458445415787,0.1220497614781329,-0.19623559367504728,-2.886291101554834,0.4318249432624483
1782985342886026240,1.758561134338379,-1.3291442394256592,-1.606651782989502,1.4438717365264893,-0.22997123003005981,0.18945369124412537,0.9545785784721375,-0.2686554789543152,0.48297059535980225,-0.3828929662704468,0.09551662320316619,0.19176996638099197,-0.9698007823586053,0.11656421677728576,-0.1906057384447364,-2.9051837445881663,0.413149922661237
1782985342895945984,1.7684810161590576,-2.1336681842803955,-1.7065744400024414,1.1628552675247192,-0.21195225417613983,0.1754598319530487,0.9613999724388123,-0.3853835463523865,0.5318460464477539,-0.3765307068824768,0.08850309152804792,0.18570347101367796,-0.9727354266370937,0.10708487173457007,-0.17637282894963766,-2.9246016329443476,0.3965377540993913
1782985342905866240,1.7784011363983154,-2.4033379554748535,-1.58266282081604,0.9421689510345459,-0.19442179799079895,0.1554509997367859,0.9685221910476685,-0.47891801595687866,0.5182550549507141,-0.35630905628204346,0.08209748148368029,0.18048369873242825,-0.975544323771087,0.09486268604452204,-0.1560839824963272,-2.9434850042326346,0.3814221305161006
1782985342915785984,1.7883210182189941,-2.2088444232940674,-1.1434398889541626,0.93073970079422,-0.18035350739955902,0.13449101150035858,0.9743636250495911,-0.4233604669570923,0.4917907118797302,-0.2219986915588379,0.07737441394327255,0.1755472498161473,-0.9779391467867217,0.08265173592226041,-0.13489978289487328,-2.9585653892276995,0.36762975504124595
1782985342925706240,1.798241138458252,-1.1497178077697754,-1.0825074911117554,0.6426469087600708,-0.16913244128227234,0.11855386942625046,0.9784369468688965,-0.3993336856365204,0.43439409136772156,-0.05579918622970581,0.07348691145877533,0.17134702040247676,-0.9797237679883956,0.07335608217802785,-0.11883335196424105,-2.9704243148167975,0.3564911172705435
1782985342935625984,1.8081610202789307,0.18274985253810883,-0.8183333873748779,0.3717293441295624,-0.15880480408668518,0.11570221185684204,0.9805071353912354,-0.3952265977859497,0.46300262212753296,-0.0981675386428833,0.0687249770062698,0.16948512342674965,-0.980575521861067,0.07087569025551364,-0.11596193009586915,-2.981025035992529,0.3516433593241164
1782985342945546240,1.8180811405181885,1.3245370388031006,-0.81034255027771,0.4089495837688446,-0.15119779109954834,0.12341844290494919,0.9807683825492859,-0.3407149910926819,0.6031440496444702,0.10451275110244751,0.06441464201415001,0.1678980229348132,-0.9809151041661516,0.07393536211375586,-0.1237339326972631,-2.9886342203205913,0.34853738368387355
1782985342955465984,1.8280010223388672,2.0319747924804688,-0.8147335648536682,-0.004190059844404459,-0.14296379685401917,0.1408703774213791,0.9796516299247742,-0.5056263208389282,0.601118803024292,-0.15813350677490234,0.05886531502052325,0.16795833394220183,-0.9806201217271995,0.08190950162711554,-0.141340496992421,-2.996682278373068,0.3495392356541314
1782985342965386240,1.837921142578125,1.3330938816070557,-0.20128291845321655,0.3554079830646515,-0.13860607147216797,0.15789470076560974,0.9776796102523804,-0.6690263152122498,0.8161500692367554,-0.17749357223510742,0.055325618166099946,0.16748549026725235,-0.9801981443173183,0.08999567210105319,-0.1585582484055816,-3.0007607190372676,0.34967615348546693
1782985342975305984,1.8478410243988037,1.5180901288986206,-0.8087326884269714,-0.24061255156993866,-0.13370737433433533,0.17115367949008942,0.9761294722557068,-0.7195640802383423,0.8055614233016968,-0.17818641662597656,0.05177543934313785,0.1676201351198343,-0.9797796896100956,0.09620064993784481,-0.17200050208202133,-3.0054627331176564,0.35063231101874986
1782985342985226240,1.8577611446380615,1.5694648027420044,-0.9130303263664246,-0.8451424241065979,-0.12594498693943024,0.18563257157802582,0.9745146632194519,-0.6568156480789185,0.670690655708313,-0.3707089424133301,0.0463283986294762,0.17125786948741184,-0.9787379952640326,0.10293908083409614,-0.18671558585270367,-3.0130663925135597,0.3584995321615215
1782985342995145984,1.8676810264587402,1.735522985458374,-0.27938979864120483,-0.14634759724140167,-0.12157798558473587,0.20130930840969086,0.9719535708427429,-0.5403940677642822,0.5577849745750427,-0.1938772201538086,0.042439794373745,0.17461640407880857,-0.9774895923746377,0.11055395627390908,-0.20269441725490236,-3.017152783194504,0.36621719770505523
1782985343005066240,1.877601146697998,2.084606647491455,-0.7797383069992065,0.08156286180019379,-0.11725611239671707,0.21871311962604523,0.968718945980072,-0.2632066011428833,0.22870516777038574,-0.1352834701538086,0.03870056071070236,0.1751927416730447,-0.9765587360233186,0.11892435482150315,-0.2204954663103847,-3.0211362058706426,0.36836979212587634
1782985343014985984,1.8875210285186768,2.8607711791992188,-0.6281343698501587,0.281770259141922,-0.10998804122209549,0.2444310337305069,0.9634086489677429,-0.1954166293144226,0.11550857126712799,-0.37798988819122314,0.03287124919491726,0.17480631021717807,-0.9752676900781992,0.13120665967976036,-0.24693287865313035,-3.0279193010955114,0.36883363133396596
1782985343024904960,1.897439956665039,2.906026840209961,-0.7990954518318176,0.3487113416194916,-0.10326682776212692,0.2721226215362549,0.9567055106163025,-0.42328348755836487,0.3536403477191925,-0.2753089666366577,0.027122533134637587,0.17444726580887218,-0.9736123010253613,0.1446086478856724,-0.2755982023367781,-3.03406891444265,0.3695132909716653
1782985343034824960,1.9073600769042969,1.917866826057434,-0.7589594721794128,0.10011350363492966,-0.09556139260530472,0.29566437005996704,0.950499951839447,-0.6832624673843384,0.4959462881088257,-0.4660031199455261,0.021259066063345627,0.17394758397415494,-0.9721071001332064,0.1558780361661245,-0.30015090156277324,-3.0413913255264644,0.3692935560812076
1782985343044744960,1.9172799587249756,2.7122647762298584,-1.2390400171279907,-0.4202883243560791,-0.08743401616811752,0.3166939616203308,0.9444893002510071,-0.785750150680542,0.4054892361164093,-0.13769620656967163,0.01504305307686929,0.1755140909748189,-0.9702780270478968,0.165918677385009,-0.32224200449970536,-3.0492829421035443,0.37292418703604197
1782985343054665216,1.9272000789642334,0.5945814847946167,-0.5981879234313965,0.5540003776550293,-0.077741838991642,0.3335295021533966,0.93952876329422,-0.5822007656097412,0.2010926902294159,-0.0001214742660522461,0.008547505624339076,0.1761311389526695,-0.9688870972694235,0.17367372606913467,-0.3400449841753197,-3.0590351656170864,0.37382804046565643
1782985343064584960,1.937119960784912,0.31583574414253235,-1.3222728967666626,-0.6028356552124023,-0.06846056133508682,0.33614110946655273,0.9393203258514404,-0.5547084212303162,0.24157193303108215,0.7295640707015991,0.0035712016572011225,0.1766940957678745,-0.9687307960573129,0.17414699997799524,-0.3428165731774948,-3.068838212417394,0.37342821217821
1782985343074505216,1.94704008102417,0.211145281791687,-0.524044394493103,-0.45001789927482605,-0.061886195093393326,0.3392392694950104,0.9386623501777649,-0.8096500635147095,-0.16420570015907288,0.021161317825317383,-0.0006841347405075567,0.18047356431704487,-0.9678638642490328,0.1751239677697512,-0.3461080805428669,-3.0757577342276265,0.38020963881454234
1782985343084424960,1.9569599628448486,0.12046996504068375,-0.5655046701431274,-0.36612221598625183,-0.060685161501169205,0.3401428759098053,0.9384137392044067,-0.6679983139038086,0.12044370174407959,0.09460639953613281,-0.0017538995260548606,0.1825902194884098,-0.9674025440044458,0.17547110394468415,-0.3470688270993892,-3.0770147638786636,0.3844206372287906
1782985343094345216,1.9668800830841064,0.8437157869338989,-0.32135140895843506,0.3720892667770386,-0.05638483166694641,0.34434324502944946,0.9371490478515625,-0.2571222484111786,0.13884153962135315,-0.2688141465187073,-0.004423437504250761,0.18321991388217962,-0.9669565534505112,0.17721702144841273,-0.3515391585062806,-3.0814987524266546,0.3851979137305361
1782985343104264960,1.9767999649047852,1.8545989990234375,-0.3268048167228699,0.131450816988945,-0.05226998031139374,0.35661786794662476,0.9327872395515442,0.22232916951179504,0.3196975290775299,-0.44886982440948486,-0.0075709219184264065,0.18261231487923354,-0.965943248706157,0.18316437584474404,-0.36464522863207943,-3.0856148593447177,0.38401454496676374
1782985343114185216,1.986720085144043,2.4338412284851074,-0.6569297313690186,-0.17684629559516907,-0.05046970769762993,0.37699103355407715,0.9248409867286682,0.535363495349884,0.2982714772224426,-0.37920188903808594,-0.010540813495841801,0.18285328840389695,-0.963838761540178,0.19356773877701894,-0.3865454669881913,-3.087075501869352,0.3856433892202148
1782985343124104960,1.9966399669647217,2.166574716567993,-1.3998541831970215,0.41976749897003174,-0.03980116546154022,0.3995920717716217,0.9158284664154053,0.9643617272377014,0.13657119870185852,-0.17823398113250732,-0.018170184574165277,0.18288517548220906,-0.9614921936071968,0.20434173580533932,-0.41107181467980214,-3.098160788207785,0.38498473733924876
1782985343134025216,2.0065600872039795,2.881223201751709,-0.7146053314208984,0.17015446722507477,-0.02976091206073761,0.42235779762268066,0.9059406518936157,1.0084596872329712,-0.3394262194633484,0.05295228958129883,-0.025369889292082143,0.18206463942243475,-0.9590739297848349,0.21537436312193528,-0.4360449369258809,-3.108753622541479,0.38247899003754
1782985343143944960,2.016479969024658,1.812504529953003,-0.9459530115127563,0.6039473414421082,-0.021067926660180092,0.4441244602203369,0.8957173228263855,0.7440446019172668,-0.5863363742828369,0.24788308143615723,-0.03180583824848455,0.18113854816721134,-0.9565811513346041,0.22611878518573372,-0.4601968234061119,-3.118076259183906,0.3797979194802123
1782985343153865216,2.026400089263916,0.7967575192451477,-1.1305432319641113,0.08734205365180969,-0.009618103504180908,0.4558115303516388,0.8900245428085327,0.5550892949104309,-0.3693704307079315,0.46689391136169434,-0.038590415701613194,0.18017263962492489,-0.9552748783490266,0.23129763964106892,-0.4732837472103046,-3.1307865147321725,0.3754425975189122
1782985343163784960,2.0363199710845947,0.49088332056999207,-1.0873061418533325,0.16414158046245575,0.0004946353146806359,0.4603700339794159,0.8877269625663757,0.17174658179283142,-0.12376117706298828,0.25146371126174927,-0.04436524023162929,0.18089211671347274,-0.9545373298961828,0.23274071344512748,-0.4784119964136421,3.1410354605780095,0.3744375058812254
1782985343173704192,2.046239137649536,0.9250102639198303,-1.0362190008163452,0.17116060853004456,0.0105798514559865,0.46704378724098206,0.8841708898544312,0.14431211352348328,0.014264196157455444,-0.14930760860443115,-0.050333798892889164,0.18145967887428577,-0.9534976873122536,0.2353318113901291,-0.48594456663843466,3.129627379894783,0.3731554595757332
1782985343183623936,2.056159019470215,0.11741925030946732,-0.8981513977050781,0.5683817863464355,0.02129170671105385,0.47241783142089844,0.8811176419258118,0.057168979197740555,-0.03519248962402344,-0.189955472946167,-0.05614425569757382,0.18061551864804717,-0.9528572009020777,0.23725317263037807,-0.492032022675619,3.1174329231300617,0.3685912679071256
1782985343193544192,2.0660791397094727,-0.8691988587379456,-0.7588100433349609,-0.22397175431251526,0.02905014343559742,0.4693382978439331,0.882540762424469,-0.05647018551826477,-0.08434367179870605,0.14230084419250488,-0.05977839351911946,0.1807750570181752,-0.9532002656456642,0.23485379966862047,-0.48854125976435814,3.1086880443547553,0.36664746454937586
1782985343203463936,2.0759990215301514,-2.2583200931549072,-0.7880127429962158,-0.3953043520450592,0.033740412443876266,0.4554878771305084,0.889602541923523,-0.06547868996858597,-0.08967360854148865,0.2575838565826416,-0.06135115287304421,0.18381405326533085,-0.9544703600269687,0.2267925132654161,-0.47292015883583055,3.1036833116835902,0.37137015244901
1782985343213384192,2.085919141769409,-2.3729894161224365,-0.6363089680671692,-0.24228978157043457,0.03838216885924339,0.43495646119117737,0.8996330499649048,0.2229398488998413,0.008326590061187744,0.36272650957107544,-0.06204047080105977,0.186545266934074,-0.9565654062482395,0.2152543670238925,-0.44998993873292753,3.0989542603148967,0.3754367302788421
1782985343223303936,2.095839023590088,-2.8477981090545654,-0.468458890914917,-0.26444607973098755,0.04254773259162903,0.41088566184043884,0.9106935262680054,0.26198717951774597,0.13504329323768616,0.24670088291168213,-0.062054840786674004,0.18926917112417166,-0.9589181124032202,0.20199615266313667,-0.4234253186214593,3.094906458372545,0.3797097782873855
1782985343233224192,2.1057591438293457,-2.026106595993042,-0.9019190073013306,-0.5732177495956421,0.04679148644208908,0.38911569118499756,0.919999897480011,0.22582203149795532,0.23780697584152222,-0.14340364933013916,-0.06241016742744084,0.19242146960285295,-0.9607153175024303,0.19001341315441123,-0.39967144854449393,3.0907761218577052,0.38505395143148213
1782985343243143936,2.1156790256500244,-1.2153840065002441,-0.7866743206977844,-0.3893835246562958,0.052350834012031555,0.3749268054962158,0.9255753755569458,0.25404566526412964,0.26781925559043884,-0.3002547025680542,-0.06431325855577696,0.19606054301208578,-0.9614301530085939,0.1818687668388575,-0.3843178322911135,3.085092536285731,0.3913398612548103
1782985343253064192,2.1255991458892822,-1.1800204515457153,-0.698680579662323,-0.6196657419204712,0.05672207847237587,0.3636094331741333,0.9298229813575745,0.26258334517478943,0.2978438138961792,-0.15769779682159424,-0.06585035700402106,0.19945061901326974,-0.9618372803249322,0.1753631557738735,-0.37213962174484183,3.0806650668145803,0.3974599052839567
1782985343262983936,2.135519027709961,-0.5515515208244324,-0.4916575849056244,-0.5144281983375549,0.05994119122624397,0.35633036494255066,0.9324353933334351,0.36071309447288513,0.20037129521369934,-0.19888436794281006,-0.06726010633600919,0.2029734673877997,-0.9617793242758962,0.17105084959072459,-0.3643375169906447,3.0773964351652987,0.40414567032623544
1782985343272904192,2.1454391479492188,-0.3909897804260254,-0.8171036243438721,-0.13002242147922516,0.06481080502271652,0.3526291251182556,0.9335161447525024,0.4720239043235779,-0.054747045040130615,-0.14463675022125244,-0.06967467320017878,0.20530723742093887,-0.9615648764504638,0.16848560759272982,-0.3603792152048485,3.072277325992511,0.40807838556101533
1782985343282823936,2.1553590297698975,0.11166276037693024,-0.5304709672927856,-0.2320432960987091,0.07010611146688461,0.35059961676597595,0.9338979721069336,0.3773273527622223,0.06436315178871155,0.03396713733673096,-0.07230391928543761,0.20658629494637426,-0.9613901786704421,0.16680303964022122,-0.3582112720003633,3.0666649088081184,0.40975698086211526
1782985343292744192,2.1652791500091553,1.0532127618789673,-0.8088040351867676,-0.461957186460495,0.07377675175666809,0.3566407859325409,0.9313240647315979,0.2183680236339569,0.1352110505104065,-0.06486892700195312,-0.07517965744931657,0.20846577096451868,-0.960314559128108,0.1693695088771533,-0.3646697503759302,3.0625406827996002,0.41294504272554117
1782985343302663936,2.175199031829834,1.422697901725769,-0.7735717296600342,-0.10344777256250381,0.07992222160100937,0.36845922470092773,0.926202118396759,0.2512392997741699,0.15899136662483215,-0.06360745429992676,-0.07998243260523048,0.2101961169263948,-0.958602454131298,0.17464759385775275,-0.3773510854227946,3.055515618439491,0.4152685854985986
1782985343312584192,2.185119152069092,1.9203063249588013,-0.7562494874000549,-0.12530966103076935,0.08587805926799774,0.38404348492622375,0.9193124175071716,0.26060324907302856,0.06392398476600647,0.02369588613510132,-0.08491310320859183,0.2104202893438661,-0.9567546760513898,0.182026080741228,-0.39417164420191547,3.0484474393975898,0.41435754171085326
1782985343322503936,2.1950390338897705,2.5301499366760254,-1.0157824754714966,0.10554565489292145,0.09406416863203049,0.40444526076316833,0.9097117781639099,0.21599441766738892,0.1481669843196869,-0.020048320293426514,-0.09157162047669493,0.21045122106511577,-0.9542359151308637,0.1917254044360494,-0.4163721772387114,3.038558845418209,0.41235466334568416
1782985343332422912,2.204957962036133,2.600881814956665,-0.6053460240364075,-0.17339010536670685,0.10037267208099365,0.42769792675971985,0.8983318209648132,0.16622889041900635,0.11073902249336243,-0.0726633071899414,-0.09766830535917824,0.2102485525184838,-0.9512946199756754,0.2032118556646797,-0.4419444793837253,3.030321871996397,0.4100124044062519
1782985343342343168,2.2148780822753906,2.10054612159729,-1.083945631980896,0.6644923090934753,0.10879851132631302,0.44910678267478943,0.8868292570114136,0.19715547561645508,-0.03751614689826965,-0.021228671073913574,-0.1044236888448349,0.20892072706376014,-0.9485603643996304,0.2137313780326406,-0.46576536933226553,3.019520060120324,0.40459023142780043
1782985343352262912,2.2247979640960693,1.7519437074661255,-0.9370264410972595,0.04822537675499916,0.11835408955812454,0.4646885097026825,0.8775290846824646,0.20220255851745605,-0.14588657021522522,0.09141945838928223,-0.11102141813180036,0.207524065132527,-0.9464133865912846,0.22115561958779542,-0.4832828009143867,3.007529653233142,0.39862857588476774
1782985343362183168,2.234718084335327,1.821850061416626,-0.814862072467804,0.5823587775230408,0.1273682862520218,0.48006999492645264,0.86793452501297,0.1074644923210144,-0.24242955446243286,0.0735938549041748,-0.11731136390174882,0.20594074030255843,-0.9442222599393879,0.2286281700197691,-0.5007344993207556,2.9958839351268516,0.3921622002820058
1782985343372102912,2.244637966156006,2.0674245357513428,-0.6842684149742126,0.34825605154037476,0.13578912615776062,0.4957892596721649,0.8577611446380615,0.16422916948795319,0.1264793872833252,0.0762750506401062,-0.12317050498971502,0.20351582606616248,-0.9420519446581305,0.23653418435886983,-0.5187434306235765,2.9845890916886066,0.38378922546327754
1782985343382023168,2.2545580863952637,2.457744598388672,-0.7756284475326538,0.22035212814807892,0.14335298538208008,0.5148534774780273,0.8452075123786926,0.055346980690956116,0.17093753814697266,0.0423046350479126,-0.1292362800620198,0.20169607592855296,-0.9391072644916947,0.24636195214988374,-0.5408367496578045,2.97358463366672,0.37644612442221514
1782985343391942912,2.2644779682159424,2.0991039276123047,-0.6065893173217773,0.22753067314624786,0.15040072798728943,0.5337132811546326,0.8321835994720459,0.14444483816623688,-0.006781518459320068,0.10826122760772705,-0.13509608736709058,0.2000068497014642,-0.9359963000281671,0.2562365825940023,-0.5629854587903919,2.9627924992352836,0.36920428389184595
1782985343401863168,2.2743980884552,1.687501311302185,-0.8545447587966919,0.060340262949466705,0.15662109851837158,0.549182653427124,0.8208945393562317,0.08581052720546722,-0.011249423027038574,0.18447637557983398,-0.14032686428644156,0.1991465847107276,-0.9331601773682361,0.2643122942964007,-0.5813858792709176,2.953065252805829,0.3639597119640533
1782985343411782912,2.284317970275879,1.5958483219146729,-0.6489455699920654,-0.13510353863239288,0.1617739051580429,0.5624678134918213,0.8108385801315308,0.1261289268732071,0.11807417869567871,0.14285099506378174,-0.14500243641638785,0.19921849364424254,-0.9304468262571525,0.2712102739145269,-0.5973674851746263,2.9446641429246503,0.3610405439183973
1782985343421703168,2.2942380905151367,1.5863268375396729,-0.5948840379714966,-0.1358325034379959,0.16596360504627228,0.575947642326355,0.8004626035690308,0.11139538884162903,0.08681786060333252,0.10244572162628174,-0.14934380148701554,0.1995730911886695,-0.9275785035019974,0.27832557986474166,-0.6137629089556946,2.9371546262248227,0.3588599277677712
1782985343431622912,2.3041579723358154,1.1411867141723633,-0.436445415019989,-0.08160815387964249,0.16931350529193878,0.5871027708053589,0.7916083931922913,0.1026286631822586,-0.056371450424194336,0.17827099561691284,-0.15290338773231693,0.1998020646856816,-0.9251396213605487,0.28428247962799824,-0.6274752269117889,2.9308820438579914,0.3568126196253927
1782985343441543168,2.3140780925750732,0.5367165803909302,-0.4581276774406433,0.06675645709037781,0.17309577763080597,0.5939311385154724,0.785673975944519,0.12872304022312164,-0.2396678924560547,0.23452860116958618,-0.155923998664481,0.19962384186214813,-0.9235731233035813,0.28783798284177226,-0.6359364268746702,2.9247418899789697,0.3541129804072811
1782985343451462912,2.323997974395752,0.011784631758928299,-0.3983924686908722,-0.006243457086384296,0.17649628221988678,0.5958113670349121,0.783490777015686,0.17718717455863953,-0.3125777840614319,0.2243216633796692,-0.1581469164265058,0.2000049996339778,-0.9228994479378205,0.28852059693168747,-0.6382755090446647,2.920022072477662,0.35334511629716303
1782985343461383168,2.3339180946350098,-0.508299708366394,-0.3940969407558441,0.20026996731758118,0.17971517145633698,0.5939863920211792,0.7841446995735168,0.15246866643428802,-0.24675732851028442,0.15300440788269043,-0.15972087229875595,0.2004987649814633,-0.9229694443355528,0.28708355885821646,-0.636005085965709,2.9162972824546727,0.35337542639746894
1782985343471302144,2.343837022781372,-0.6536041498184204,-0.28197863698005676,0.18346303701400757,0.18349850177764893,0.5886862277984619,0.7872593402862549,0.19610966742038727,-0.15587055683135986,0.18594640493392944,-0.1608652141602918,0.20042360616616164,-0.923829015951113,0.2837125957528255,-0.6294326502605749,2.912596054684033,0.35243719689331343
1782985343481222144,2.35375714302063,-0.5160931944847107,-0.3136464059352875,0.13169077038764954,0.1863943338394165,0.5839656591415405,0.7900893688201904,0.143912672996521,-0.17042195796966553,0.11564183235168457,-0.16170211468955512,0.2005736388743768,-0.9245620031087,0.2807271531135812,-0.6236053334462985,2.909913281073478,0.35228295388150127
1782985343491142144,2.3636770248413086,-0.4997866451740265,-0.4640960991382599,0.2398952692747116,0.1907794028520584,0.5794504880905151,0.7923640608787537,0.2793744206428528,-0.11259251832962036,0.034189462661743164,-0.16329928707295988,0.20050781853099925,-0.9251911394045621,0.2777614863573905,-0.6180543016337716,2.9053174547139977,0.35109130713092274
1782985343501062144,2.3735971450805664,-0.6137507557868958,-0.32173842191696167,0.17760153114795685,0.19506937265396118,0.574811577796936,0.7946947813034058,0.1447896510362625,-0.11086803674697876,-0.010759115219116211,-0.16489754666017506,0.20067169998733478,-0.9257852048181413,0.2747025223240919,-0.6123738966729549,2.9008872028182235,0.3504863762905829
1782985343510982144,2.383517026901245,-0.7906419634819031,-0.2799054980278015,0.15220136940479279,0.19757524132728577,0.5689226388931274,0.7983050346374512,0.08999189734458923,-0.09719717502593994,-0.00031626224517822266,-0.16538176696537146,0.20092912954752187,-0.9267038441077273,0.27110203254534304,-0.6051952030856188,2.89897451457671,0.35095396440232496
1782985343520902144,2.393437147140503,-1.2186264991760254,-0.4293190538883209,0.2636662423610687,0.20134977996349335,0.5606980323791504,0.8031665086746216,0.17952486872673035,-0.14175260066986084,-0.006382882595062256,-0.16620737138339434,0.2012840145901497,-0.9279374941056387,0.26606764181044823,-0.5952286011388742,2.895960035207484,0.35152621513605725
1782985343530822144,2.4033570289611816,-1.1583040952682495,-0.48041900992393494,0.13281342387199402,0.20591925084590912,0.5506366491317749,0.8089479207992554,0.16544917225837708,-0.10326415300369263,-0.02199101448059082,-0.16723833609223326,0.2018579853322631,-0.9293693131980013,0.25991814228886406,-0.5831267676510357,2.8923344396672324,0.3525931708507703
1782985343540742400,2.4132773876190186,-1.297209620475769,-0.22041068971157074,0.16538448631763458,0.2089831382036209,0.5407841205596924,0.8147875070571899,0.060776978731155396,-0.09162640571594238,-0.05186331272125244,-0.16765269677088718,0.2029519748662799,-0.9307009457469437,0.2539662443754665,-0.5713690408106565,2.8905171053002134,0.35530346659702006
1782985343550662400,2.4231972694396973,-1.4447075128555298,-0.06861051172018051,0.19343237578868866,0.21109971404075623,0.5291708111763,0.8218364119529724,0.11737620830535889,-0.08852756023406982,-0.0053844451904296875,-0.1670898681054488,0.20325028610709592,-0.9325274873404229,0.24731103142100286,-0.5576230267023122,2.8901647953563354,0.3568745300447956
1782985343560582400,2.433117389678955,-1.4258486032485962,-0.41370952129364014,0.07161764800548553,0.21372956037521362,0.5174046754837036,0.8286205530166626,0.22433501482009888,-0.03475397825241089,-0.04106873273849487,-0.16695883619783866,0.20419479639612265,-0.9341385094430027,0.2404463666323975,-0.5438153169972589,2.8891605756030567,0.3596849969788376
1782985343570502400,2.443037271499634,-1.15763258934021,-0.36844295263290405,0.041534584015607834,0.21716545522212982,0.5063515901565552,0.8345342874526978,0.25839000940322876,0.1250113844871521,-0.0903019905090332,-0.16742889298715452,0.20540150760366338,-0.9354556963542812,0.23388135542498337,-0.5309486163041596,2.887015228543918,0.3627216727033379
1782985343580422400,2.4529573917388916,-0.8309268355369568,-0.2440156191587448,0.11835722625255585,0.21964943408966064,0.4982939660549164,0.8387238383293152,0.06167687475681305,0.09357929229736328,-0.23732900619506836,-0.16778413610998952,0.20637986407975462,-0.9363595793191944,0.22909971035419008,-0.521629917912051,2.8854594917910936,0.36516666270326426
1782985343590342400,2.4628772735595703,-0.7714807987213135,-0.4505451023578644,0.06399518996477127,0.22305803000926971,0.4913009703159332,0.8419436812400818,0.13131211698055267,0.11564800143241882,-0.21790474653244019,-0.16865436395826575,0.20683903976340987,-0.9371176322091254,0.224908996073894,-0.5135828104787702,2.8826102300321517,0.3661088992533012
1782985343600262400,2.472797393798828,-0.9101454615592957,-0.4415872097015381,0.09271697700023651,0.22684180736541748,0.484355092048645,0.8449512124061584,0.17655475437641144,0.00461268424987793,-0.152568519115448,-0.16985423033031458,0.20782899470454066,-0.93770076406496,0.22062145810904055,-0.5056258660771986,2.879309887056982,0.36809895319438896
1782985343610182400,2.482717275619507,-1.0421003103256226,-0.36353209614753723,0.02206571213901043,0.2306162416934967,0.47606128454208374,0.8486352562904358,0.12421165406703949,-0.09056323766708374,-0.06250250339508057,-0.17083144344007065,0.20874753459227052,-0.9384786138528606,0.21563624684748303,-0.4961704640399954,2.87625087945324,0.3701540524048322
1782985343620102400,2.4926373958587646,-1.4347320795059204,-0.24580508470535278,0.20280589163303375,0.23325087130069733,0.4657089114189148,0.8536447286605835,0.04281112551689148,-0.1064407229423523,-0.019050002098083496,-0.17089569631776222,0.2095990007037942,-0.9396225986667253,0.2096957727998724,-0.4844355249683723,2.8748623681315215,0.3726781673626317
1782985343630021376,2.502556324005127,-1.6079262495040894,-0.35211366415023804,0.08684813976287842,0.2367793321609497,0.45228978991508484,0.8598658442497253,0.1151798814535141,-0.09906411170959473,0.026272952556610107,-0.17102181234315858,0.21060881533717,-0.941050932667705,0.20203602757178338,-0.46933106957842663,2.8728845725125987,0.37574026608563343
1782985343639941376,2.5124764442443848,-1.8740758895874023,-0.17787262797355652,0.17579957842826843,0.23933091759681702,0.4370756447315216,0.8669981956481934,0.10350356996059418,-0.13119789958000183,0.010351777076721191,-0.17041461946170441,0.21174630538114136,-0.9426890265258832,0.19354543966944995,-0.4523447461049837,2.8722547428492007,0.3795700391990815
1782985343649861376,2.5223963260650635,-1.9338542222976685,-0.26539742946624756,0.22750964760780334,0.24170467257499695,0.42007210850715637,0.8747105598449707,0.14408330619335175,-0.0415320098400116,0.023086190223693848,-0.16939369259514003,0.21248238293149738,-0.9445668446449101,0.18425681102576114,-0.433524768568827,2.871994721655787,0.38282192967172246
1782985343659781376,2.5323164463043213,-1.9029264450073242,-0.22986993193626404,0.178219735622406,0.2450631707906723,0.40323764085769653,0.8816706538200378,0.18346460163593292,0.015951722860336304,0.04910004138946533,-0.16895570048918554,0.21336874576374792,-0.9462077489560171,0.17498160660196402,-0.41505213124312595,2.870482959498661,0.3861577240540123
1782985343669701376,2.542236328125,-1.8192116022109985,-0.13156546652317047,0.1339646577835083,0.24730926752090454,0.3862314522266388,0.8886300325393677,0.12421172857284546,0.06892293691635132,0.11759549379348755,-0.16794538940978887,0.21432728573122656,-0.9478284743749333,0.16576885413172243,-0.39654248535522035,2.8701573605842303,0.38991122613110635
1782985343679621376,2.552156448364258,-1.8677140474319458,0.01813259907066822,0.10766527056694031,0.24805521965026855,0.3697166442871094,0.8954207301139832,0.07062458992004395,-0.022609710693359375,0.13357090950012207,-0.16624698109131883,0.2153155903788817,-0.9493943153682765,0.1570082694463514,-0.3787040450315968,2.8713434537809768,0.39394153104502283
1782985343689541376,2.5620763301849365,-2.1074695587158203,0.038374755531549454,0.19537514448165894,0.24831610918045044,0.35179170966148376,0.9025417566299438,0.13768547773361206,-0.05207860469818115,0.2520144581794739,-0.16408977678015116,0.21608161476214663,-0.9510939036253295,0.1476605739906249,-0.3594844782547031,2.873105804105133,0.39773077562929887
1782985343699461376,2.5719964504241943,-2.2551109790802,-0.023890523239970207,0.06446696817874908,0.24870437383651733,0.3319518566131592,0.9099200367927551,0.16573967039585114,-0.07882371544837952,0.3635939359664917,-0.1618412319999316,0.21736004004368265,-0.9527405968576386,0.13728617405242743,-0.33837201045429216,2.8747838662915983,0.402765605265293
1782985343709381376,2.581916332244873,-2.533261775970459,0.2733694016933441,0.11890970170497894,0.24801239371299744,0.30989983677864075,0.9178520441055298,0.15771882236003876,-0.09932848811149597,0.42135095596313477,-0.15876031482617298,0.21859128740273698,-0.9545385688490782,0.12597321404742762,-0.31508766974497276,2.877685516594209,0.4080776300687012
1782985343719301376,2.591836452484131,-2.5489888191223145,0.3539988100528717,0.12645399570465088,0.24538524448871613,0.2863599956035614,0.9261661767959595,0.10610093176364899,-0.008024454116821289,0.457103967666626,-0.15453233657693696,0.21987650971617417,-0.9564190519746382,0.11417795565594363,-0.29042557707124284,2.8825961494075036,0.41385362949181786
1782985343729221376,2.6017563343048096,-2.6283578872680664,0.5333376526832581,0.0734400525689125,0.24149517714977264,0.2622913122177124,0.9342823028564453,0.17740434408187866,0.0594097375869751,0.4478435516357422,-0.14962211727821842,0.22112143368858778,-0.958251771237516,0.10233322733223053,-0.26539587837078893,2.8886469779421224,0.4196290664959106
1782985343739141376,2.6116764545440674,-2.469752550125122,0.5587054491043091,0.12456216663122177,0.23651203513145447,0.23827838897705078,0.9419582486152649,0.20617596805095673,0.14038372039794922,0.41824066638946533,-0.1441914483588834,0.22228710330422402,-0.9599831055954121,0.09071752718559524,-0.24059279169463613,2.8955926238199097,0.42520082634169964
1782985343749061376,2.621596336364746,-2.4776432514190674,0.6639013886451721,0.10686013102531433,0.23099181056022644,0.2148720622062683,0.9489325284957886,0.23183776438236237,0.1620963215827942,0.3473168611526489,-0.13856772818233537,0.22308327343433096,-0.9616132931373573,0.07957865414925747,-0.21656083643099114,2.9028138232339473,0.42983328328636206
1782985343758981376,2.631516456604004,-2.3788559436798096,0.8507816195487976,0.09288395941257477,0.2241629809141159,0.19180509448051453,0.9554906487464905,0.18214812874794006,0.16499125957489014,0.3963468074798584,-0.13238192255701678,0.2241074839169846,-0.9630790024618422,0.06877396863571196,-0.19300105557908404,2.9111549628609232,0.434855589551761
1782985343768901376,2.6414363384246826,-2.5046892166137695,0.8844018578529358,0.0797862634062767,0.21609610319137573,0.16842713952064514,0.961735188961029,0.24241524934768677,0.06655819714069366,0.4277147650718689,-0.1255561498879841,0.22490770232377427,-0.9645123794729036,0.058034529719610414,-0.16923379050290388,2.9205695200198565,0.43935513455618147
1782985343778820352,2.651355266571045,-2.6939327716827393,1.0684576034545898,0.10659471154212952,0.20743948221206665,0.14382213354110718,0.9676177501678467,0.28020089864730835,-0.026070058345794678,0.5058472156524658,-0.11832883018515421,0.22580069108842749,-0.9658275850485981,0.046791304632948255,-0.1443226237098343,2.93040760967883,0.44400709686968015
1782985343788740352,2.6612753868103027,-2.976684093475342,1.1585358381271362,0.22711285948753357,0.19705511629581451,0.11625996977090836,0.9734745025634766,0.2440764456987381,-0.057132184505462646,0.5967157483100891,-0.10991464417145716,0.2264046726535049,-0.9672012063758179,0.03437216088058004,-0.11652347725597882,2.941866906243403,0.44819586667399597
1782985343798660352,2.6711952686309814,-2.9866926670074463,1.1358293294906616,0.11381463706493378,0.1861092746257782,0.08682436496019363,0.9786854386329651,0.24701149761676788,0.031110838055610657,0.5719586610794067,-0.10104481994662623,0.22693310648363024,-0.9684235026450381,0.021149598499269586,-0.08693382516741273,2.9536738730724865,0.45216115591773376
1782985343808580352,2.6811153888702393,-2.6144309043884277,1.2186819314956665,0.17766445875167847,0.1751166731119156,0.05923506245017052,0.9827643632888794,0.208275705575943,0.22085529565811157,0.4221278429031372,-0.0924091507626278,0.2275811004606251,-0.9693240100528501,0.008858703648938374,-0.05926975613528319,2.965255550378875,0.4559724230810007
1782985343818500352,2.691035270690918,-1.7835983037948608,1.369154930114746,0.24346324801445007,0.16266342997550964,0.037294890731573105,0.9859764575958252,0.15326978266239166,0.3945440948009491,0.25380009412765503,-0.08373513627691416,0.22742422656788575,-0.9701888697131492,-0.0004081204279448109,-0.037303540462641796,2.978088433499745,0.4574531082554328
1782985343828420352,2.700955390930176,-0.9944198131561279,1.4692914485931396,0.2403300404548645,0.14894674718379974,0.02327263355255127,0.9885712265968323,0.16306494176387787,0.48078620433807373,0.14382916688919067,-0.07538385958442771,0.2267863594289896,-0.9710064721644641,-0.005622737488883489,-0.023274734478893427,2.992048777667633,0.4571463943439197
1782985343838340352,2.7108752727508545,-0.534690260887146,1.60980224609375,0.2562490999698639,0.13412965834140778,0.015872178599238396,0.9908369183540344,0.2159680277109146,0.36805421113967896,0.1353534460067749,-0.0672737233021771,0.22597761110757966,-0.9717780424740861,-0.007477289775820902,-0.01587284503299811,3.0070405018455726,0.45589008322070945
1782985343848260352,2.7207953929901123,-0.23473979532718658,1.6381776332855225,0.21573440730571747,0.11809920519590378,0.01174022164195776,0.9929324984550476,0.222049742937088,0.22377918660640717,0.28052031993865967,-0.05895751248578687,0.22499006776157832,-0.9725459950634503,-0.007603490120845746,-0.011740491442076853,3.023208994737979,0.45398813151924583
1782985343858180352,2.730715274810791,-0.0024758633226156235,1.7350049018859863,0.24139747023582458,0.10158849507570267,0.010332413017749786,0.9947727918624878,0.17772363126277924,0.049268417060375214,0.35161691904067993,-0.05072494661419002,0.22403435812870764,-0.9732394313600706,-0.006368344879764728,-0.010332596867435956,3.0398231491670007,0.4519799562137655
1782985343868100352,2.740635395050049,-0.03109312802553177,1.7214643955230713,0.09967122226953506,0.08458451926708221,0.010221533477306366,0.9963640570640564,0.15638229250907898,-0.06654172390699387,0.38205409049987793,-0.04240361482820422,0.22321724386123565,-0.9738357573199635,-0.004471443170119073,-0.010221711570549975,3.0569025264758567,0.4502113209522082
1782985343878020352,2.7505552768707275,0.014886748045682907,1.766732931137085,0.07712949812412262,0.06742659211158752,0.010066148824989796,0.9976736903190613,0.17289933562278748,-0.10686790198087692,0.45030927658081055,-0.0340067479225022,0.22277859771509445,-0.974272310416913,-0.002610051937894619,-0.010066318570143241,3.0741114555430444,0.44925386245377374
1782985343887940352,2.7604753971099854,0.15279428660869598,1.7348194122314453,0.0990758091211319,0.05006122216582298,0.010869158431887627,0.9986873865127563,0.1539640575647354,-0.12227357178926468,0.3849341869354248,-0.025620762202832544,0.22243138659994416,-0.9746116969558821,-0.00027116714716345617,-0.010869372000689458,3.091507555632042,0.4484928850329781
1782985343897860352,2.770395278930664,0.15776701271533966,1.7564102411270142,0.15249858796596527,0.03286417946219444,0.012476392090320587,0.9993817210197449,0.21440449357032776,-0.07006306946277618,0.3229599595069885,-0.017408988261527408,0.221710852686771,-0.9749539222006826,0.0024395351548431995,-0.012476715701490485,3.1087199873205242,0.4470024412780895
1782985343907780352,2.780315399169922,0.12550920248031616,1.759705662727356,0.11303719878196716,0.015353331342339516,0.013638117350637913,0.999789297580719,0.23244941234588623,-0.04400310665369034,0.31896698474884033,-0.008994985765615993,0.22111614313173192,-0.9751934676750178,0.004952988824139139,-0.013638540626652942,3.126237293733917,0.4458367989223378
1782985343917700352,2.7902352809906006,0.27808162569999695,1.7851544618606567,0.24266280233860016,-0.002248393604531884,0.015932241454720497,0.9998707175254822,0.1974235624074936,-0.11903587728738785,0.28252387046813965,-0.0006577966699629665,0.22022192765362,-0.9754166651939785,0.008018377961378845,-0.015932915591290994,-3.1393439730725423,0.444116503233225
1782985343927619584,2.800154447555542,0.017426872625947,1.7605055570602417,0.2491699755191803,-0.01977708376944065,0.017444666475057602,0.9996521472930908,0.1727922260761261,-0.1361885666847229,0.3216063380241394,0.007737875217963182,0.219081698621798,-0.9756173840939437,0.010677915717321015,-0.01744555161067151,-3.121811269165421,0.44195801220647235
1782985343937539328,2.8100743293762207,-0.1531979888677597,1.7482653856277466,0.1311226189136505,-0.037545960396528244,0.01693633198738098,0.999151349067688,0.11353473365306854,-0.16709807515144348,0.35286885499954224,0.01648063349991075,0.21781716656947775,-0.9757721806218705,0.012357321821632962,-0.01693714170887974,-3.1040324743421803,0.43956760294747477
1782985343947459584,2.8199944496154785,3.7095509469509125e-05,1.7248868942260742,0.2538887560367584,-0.05425834283232689,0.015911558642983437,0.9984003305435181,0.1094493716955185,-0.12243316322565079,0.318021297454834,0.024767420064546134,0.21682807594269546,-0.9758000546807166,0.013656538475758123,-0.01591222939051245,-3.087300783712301,0.4377380024152308
1782985343957379328,2.8299143314361572,0.2485702782869339,1.8624128103256226,0.3053642511367798,-0.07212972640991211,0.017419271171092987,0.9972432255744934,0.1429762840270996,-0.08796065300703049,0.23388171195983887,0.033363699050839066,0.21534268557124217,-0.9758325385963856,0.01628790101585273,-0.017420151529720252,-3.0693892674895915,0.43501895209846664
1782985343967299584,2.839834451675415,0.4283086061477661,1.7879431247711182,0.2877330482006073,-0.09010441601276398,0.020593950524926186,0.9957196116447449,0.08612184971570969,0.04424064978957176,0.19701433181762695,0.04184818853899928,0.2138489568522017,-0.9757706778555193,0.019724067670834608,-0.020595406796123733,-3.0513466965418314,0.4324260708244922
1782985343977219328,2.8497543334960938,0.7152483463287354,1.8113797903060913,0.35816121101379395,-0.10757706314325333,0.02692403458058834,0.9938321709632874,0.19101211428642273,0.1032487004995346,0.09332609176635742,0.0497720726105184,0.21233526200820926,-0.9756176612737656,0.024630943271500606,-0.026927288332060876,-3.033767774015331,0.43005310127718477
1782985343987139584,2.8596744537353516,0.805830180644989,1.7751048803329468,0.44142547249794006,-0.1254550963640213,0.03487688675522804,0.9914863109588623,0.2480289191007614,0.056019723415374756,0.1044001579284668,0.05776957041318317,0.21020587863590973,-0.9754776476935304,0.03032560229999339,-0.03488396234390878,-3.015729172393848,0.42668780125593636
1782985343997059328,2.8695943355560303,0.9713373184204102,1.701985478401184,0.17280715703964233,-0.14251261949539185,0.04425416141748428,0.9888031482696533,0.17911846935749054,0.016750473529100418,0.0756499171257019,0.06522841711738281,0.2087484692637308,-0.9751028910828674,0.03665604216140673,-0.04426861845294072,-2.9984519642114895,0.42496447916433694
1782985344006979584,2.879514455795288,0.9039012789726257,1.5705784559249878,0.2294350117444992,-0.15826724469661713,0.05384388566017151,0.9859272241592407,0.20973515510559082,0.042988382279872894,0.11554378271102905,0.07202836022274044,0.2079181089161037,-0.97454279923854,0.04299241060266031,-0.053869938504227194,-2.9824242773758174,0.42469320160791324
1782985344016899328,2.889434337615967,0.8610037565231323,1.3736804723739624,0.28163424134254456,-0.1729576736688614,0.06297553330659866,0.9829142093658447,0.2569572627544403,0.02940119057893753,0.06910324096679688,0.07839604175574125,0.2066608841593462,-0.9740371553917959,0.0489603098075284,-0.0630172316010112,-2.9674116257123027,0.4236421124904737
1782985344026819584,2.8993544578552246,0.7733972072601318,1.3398058414459229,0.2145172506570816,-0.18607231974601746,0.0713329091668129,0.979943037033081,0.20838069915771484,-0.004514679312705994,-0.01366513967514038,0.08408244498916213,0.2055701948891542,-0.9735052254723057,0.05439241263930064,-0.07139354046000171,-2.953945810531453,0.42293628873095923
1782985344036739328,2.9092743396759033,0.4986366331577301,1.3225138187408447,0.09194706380367279,-0.19907324016094208,0.0780872255563736,0.9768684506416321,0.044105008244514465,-0.1022113785147667,-0.08557218313217163,0.08989370194210868,0.20458034814182086,-0.9729240010312304,0.05903246187219543,-0.07816680450327776,-2.940558265762245,0.42239630367644165
1782985344046659584,2.919194459915161,0.5241326689720154,1.2399548292160034,0.11070609837770462,-0.21095649898052216,0.0830741748213768,0.9739587903022766,-0.11565785109996796,-0.0314689576625824,-0.18128013610839844,0.09532314218548166,0.20401175532278404,-0.9722955291032919,0.0627218033317653,-0.08317002632533463,-2.928290604785013,0.4225578530192955
1782985344056579328,2.92911434173584,0.5224698781967163,1.10849130153656,-0.04294561222195625,-0.22218665480613708,0.0878649428486824,0.9710370302200317,-0.15946617722511292,0.1715802550315857,-0.25303471088409424,0.10043457358367765,0.2038509057175814,-0.9715777454745322,0.06629026898916432,-0.08797839371406393,-2.9166511728956928,0.4235719313507425
1782985344066499584,2.9390344619750977,0.5827441215515137,1.0729975700378418,-0.07411471754312515,-0.23275776207447052,0.0930902361869812,0.9680690169334412,-0.2593076229095459,0.2363470196723938,-0.27008646726608276,0.10514763436650441,0.20420376798965925,-0.9707395733580775,0.07006684783160469,-0.09322521481015984,-2.905636308187121,0.4257296426924822
1782985344076419328,2.9489543437957764,0.3759165108203888,0.9840748310089111,-0.1170101910829544,-0.2432214468717575,0.0973319336771965,0.9650750756263733,-0.2815283238887787,0.2221871316432953,-0.22642755508422852,0.10992103024673099,0.20446260684590753,-0.9699137046069183,0.07334745896182686,-0.09748626845506089,-2.8947105773807267,0.42763079270620874
1782985344086338304,2.9588732719421387,0.6963450908660889,0.9079068303108215,0.05690754950046539,-0.25215286016464233,0.10265599191188812,0.9622271060943604,-0.20475637912750244,0.26587429642677307,-0.1989976167678833,0.11385765553118288,0.20431785293534616,-0.9692098695290133,0.07696077974737692,-0.10283715405341887,-2.885304160061709,0.4287953114701005
1782985344096258304,2.9687933921813965,0.7074136137962341,0.8070666790008545,-0.11910948902368546,-0.2604638636112213,0.10937956720590591,0.9592678546905518,-0.11282715201377869,0.18609163165092468,-0.20197415351867676,0.11731492144603105,0.20459585767276092,-0.9683875644613938,0.08126078034872772,-0.10959884785493779,-2.8764612956217683,0.4310547737180562
1782985344106178304,2.978713274002075,0.7194207310676575,0.7109377384185791,-0.24371452629566193,-0.2670097351074219,0.11582078784704208,0.9567083716392517,-0.03436651825904846,0.15189462900161743,-0.1653725504875183,0.11986303500933836,0.20551785511645837,-0.9675311904597461,0.08531444476073716,-0.11608130603727018,-2.8694260630150112,0.4345200269995034
1782985344116098304,2.988633394241333,0.529913067817688,0.557485818862915,0.11708875745534897,-0.27273350954055786,0.12135405093431473,0.9544051885604858,0.03849589824676514,0.08323577791452408,-0.15550094842910767,0.12214013091130806,0.20587513520888043,-0.966859876430498,0.08876430058838179,-0.12165390045470531,-2.863248131823077,0.43665845174646933
1782985344126018304,2.9985532760620117,0.192878857254982,0.44973963499069214,-0.15558378398418427,-0.27826520800590515,0.12512212991714478,0.9523195028305054,0.038381874561309814,-0.04252631962299347,-0.13864481449127197,0.12453705893717072,0.20586268201379587,-0.9663230857905072,0.09127237085716976,-0.12545092979216413,-2.857309549911026,0.4377743959762938
1782985344135938304,3.0084733963012695,-0.07317326962947845,0.3267704248428345,-0.11962947249412537,-0.2818284332752228,0.12466629594564438,0.9513314962387085,0.126554936170578,-0.03247268497943878,-0.1429511308670044,0.12627701841409275,0.20690551329006415,-0.9658446294880171,0.09158880787551356,-0.1249914940451276,-2.8535831801766403,0.4402135352615212
1782985344145858304,3.0183932781219482,0.1470605731010437,0.29993510246276855,0.0717008039355278,-0.2848277688026428,0.1253100037574768,0.9503526091575623,0.3643871545791626,-0.138249471783638,-0.27835577726364136,0.12773495739826118,0.20675335321316296,-0.9656238208003497,0.0922353282152094,-0.1256402865014106,-2.850404274967136,0.4403044121697242
1782985344155778304,3.028313398361206,-0.5831923484802246,0.2708602547645569,-0.1990562528371811,-0.28749433159828186,0.12343895435333252,0.949794352054596,0.13046619296073914,-0.1852981150150299,-0.3773459196090698,0.12926570734861717,0.20679035126598963,-0.9654713532079857,0.09161367526183091,-0.12375460196798384,-2.8476687716740545,0.4403379384420033
1782985344165698304,3.0382332801818848,-0.8820818066596985,0.015787456184625626,-0.09504756331443787,-0.28901997208595276,0.11623439937829971,0.9502405524253845,0.26738300919532776,-0.04691372066736221,-0.33084046840667725,0.13075377169391056,0.20699488684325063,-0.965543055571451,0.08822243751442028,-0.11649773313616887,-2.8463287244233326,0.43971448822125847
1782985344175618304,3.0481534004211426,-0.9631342887878418,0.051595598459243774,-0.16225682199001312,-0.2901442348957062,0.10684969276189804,0.9509992599487305,0.3483107089996338,-0.16442108154296875,-0.43332958221435547,0.13228287012170226,0.20701044699933502,-0.9657361512479664,0.08367583826770243,-0.10705405815643013,-2.8454689728399645,0.4383017176997021
1782985344185538304,3.0580732822418213,-0.8438169956207275,-0.08700196444988251,-0.11954665184020996,-0.2901153266429901,0.0981321856379509,0.9519472718238831,0.19819635152816772,-0.1060667484998703,-0.5001648664474487,0.13315592407840043,0.20712468103700704,-0.9659570398697769,0.07934718342645142,-0.09829037164516857,-2.8457747492338408,0.43710826473088793
1782985344195458304,3.067993402481079,-0.518757700920105,-0.2280806303024292,-0.010858648456633091,-0.2884555459022522,0.09169027954339981,0.9530931711196899,0.09321931004524231,0.07339456677436829,-0.4754929542541504,0.13299033420204162,0.20704231686219754,-0.9662712163169157,0.07594116902695741,-0.09181924119043441,-2.8477046288677537,0.43575502011279316
1782985344205378304,3.077913284301758,0.03858894854784012,-0.2014564722776413,-0.020351752638816833,-0.28672465682029724,0.08887585252523422,0.9538817405700684,0.14133888483047485,0.22354784607887268,-0.4034208059310913,0.13241588488523445,0.2069507383862971,-0.9664948363862605,0.07433199656927099,-0.0889932731088343,-2.8495972155690383,0.43497381985036326
1782985344215298304,3.0878334045410156,0.4959416091442108,-0.24395863711833954,-0.03992651775479317,-0.28477513790130615,0.09177251160144806,0.9541913270950317,0.12223851680755615,0.12151483446359634,-0.40614140033721924,0.13110813268109445,0.20730238568305265,-0.9664995516068762,0.07559784722297927,-0.09190182519313002,-2.851561629918397,0.43600379689929697
1782985344225218304,3.0977532863616943,0.6402249932289124,-0.4677956998348236,-0.04922201484441757,-0.2813083529472351,0.09700248390436172,0.9547020196914673,0.14558145403862,0.09327460080385208,-0.29271483421325684,0.1287617305130516,0.20807660291345073,-0.966465280154224,0.07790610489580042,-0.09715525566399354,-2.855046101534506,0.4381456773444235
1782985344235138304,3.107673406600952,0.7927032709121704,-0.6106430292129517,0.1454806625843048,-0.27620449662208557,0.10420013964176178,0.9554339051246643,0.2955067753791809,0.032655976712703705,-0.24647974967956543,0.12540954867677992,0.2085813848192928,-0.9665457861343819,0.08096684761253288,-0.10438962514337559,-2.8601766679025213,0.4398823623463671
1782985344245057280,3.1175923347473145,0.7681308388710022,-0.7116633653640747,-0.02554568275809288,-0.2698274254798889,0.11203635483980179,0.9563687443733215,0.2899690270423889,-0.04602683335542679,-0.23188138008117676,0.12135426991055898,0.20907096608221085,-0.9666817995007879,0.08419505916543416,-0.11227207034020338,-2.8666030199510826,0.44154357778482234
1782985344254977536,3.1275124549865723,0.7844926714897156,-0.8068985939025879,0.14820154011249542,-0.2621082365512848,0.11985543370246887,0.9575664401054382,0.28641554713249207,-0.06597667187452316,-0.23010390996932983,0.11663287420744446,0.20953269496703028,-0.9668915570520711,0.0872549953297469,-0.1201442671157537,-2.8744137887872627,0.4429805936290789
1782985344264897280,3.137432336807251,0.7232170104980469,-0.8384256362915039,0.026877511292696,-0.25428691506385803,0.1271236389875412,0.9587376117706299,0.29804912209510803,-0.0929439514875412,-0.23615765571594238,0.11191889021317525,0.2100185794462875,-0.967088934007807,0.09002984237081882,-0.1274685452830951,-2.882331110544676,0.44432975702213773
1782985344274817536,3.147352457046509,0.5802919864654541,-0.8143057227134705,0.10986287146806717,-0.24583755433559418,0.13398103415966034,0.9600069522857666,0.3014863133430481,-0.12030915915966034,-0.24661266803741455,0.10696599580872318,0.2102044474752958,-0.9673766407743044,0.09249266970109467,-0.13438516029905748,-2.890900878509255,0.44489273765160875
1782985344284737280,3.1572723388671875,0.46567243337631226,-0.8123355507850647,-0.0018428829498589039,-0.236979141831398,0.13908295333385468,0.9615074992179871,0.2565409541130066,-0.08000095188617706,-0.1940210461616516,0.10197128185392523,0.21065914755236348,-0.9676654724988237,0.09406418057977615,-0.13953530671636316,-2.899942635072113,0.4456766453098245
1782985344294657536,3.1671924591064453,0.5769134759902954,-0.8247381448745728,0.086617611348629,-0.22756381332874298,0.14473943412303925,0.9629462957382202,0.2788791060447693,-0.08580997586250305,-0.23493409156799316,0.0966608299846783,0.21096546527024673,-0.9679704204298529,0.0958312469015217,-0.14524962514861706,-2.909529808804226,0.44613996837322195
1782985344304577280,3.177112340927124,0.6461330056190491,-0.8644866347312927,-0.027727343142032623,-0.2190311998128891,0.15087591111660004,0.9639821648597717,0.2169407606124878,-0.08761298656463623,-0.23398655652999878,0.09172623150692902,0.21144879709841155,-0.9681324811200541,0.09795493608747315,-0.15145426386656946,-2.9181709630428787,0.4470863407628551
1782985344314497536,3.187032461166382,0.7215729355812073,-0.9288830161094666,0.08542561531066895,-0.21018363535404205,0.15770822763442993,0.9648580551147461,0.21241141855716705,-0.11386972665786743,-0.2131185531616211,0.08654983750771626,0.2120761502488334,-0.968221423893206,0.10039983139540876,-0.15836940002100047,-2.927104593134277,0.44834773177752957
1782985344324417280,3.1969523429870605,0.6439969539642334,-0.8760296702384949,0.044002268463373184,-0.20122301578521729,0.1646963655948639,0.9656001925468445,0.19524163007736206,-0.19345922768115997,-0.18369442224502563,0.08132973200785532,0.21244530287901325,-0.9683321163442281,0.10288443552300236,-0.16545016695379355,-2.936141377536566,0.4490370694190299
1782985344334337536,3.2068724632263184,0.1780509054660797,-0.7791907787322998,0.08863408863544464,-0.19361934065818787,0.16885747015476227,0.9664360880851746,0.07608088850975037,-0.2554663419723511,-0.10005736351013184,0.07708049934913414,0.21283683597775632,-0.9684619407301845,0.10411798392649413,-0.16967037891582007,-2.943866673945397,0.449526874328232
1782985344344257280,3.216792345046997,-0.2779885530471802,-1.0931100845336914,0.1286371648311615,-0.18414610624313354,0.16859208047389984,0.9683318734169006,0.18359684944152832,-0.2654091417789459,-0.010522603988647461,0.07244079459994562,0.21263813019545566,-0.9689948171623529,0.1028898331019397,-0.16940112816072608,-2.9536681875284527,0.4480381733231447
1782985344354177536,3.226712465286255,-0.5971137285232544,-0.9091358184814453,0.004165041726082563,-0.17416870594024658,0.16432929039001465,0.9709072113037109,0.07440678775310516,-0.21787241101264954,-0.023763835430145264,0.0679593624394251,0.21263809227390257,-0.9696590392322819,0.09963852492270053,-0.16507802352899464,-2.9640929639186284,0.44647142100969756
1782985344364097280,3.2366323471069336,-0.7629354596138,-0.9168786406517029,0.03708783537149429,-0.16527019441127777,0.157908633351326,0.9735246896743774,0.010759711265563965,-0.15230868756771088,-0.014418423175811768,0.06422800662883281,0.21281463995038968,-0.9702949431269015,0.09545858227248653,-0.15857235952068496,-2.9734311363828767,0.44521423217713696
1782985344374017280,3.2465522289276123,-0.8071818351745605,-0.9350459575653076,-0.027056459337472916,-0.15616269409656525,0.15011046826839447,0.9762580394744873,0.08334778249263763,-0.05669619143009186,-0.02436918020248413,0.06055302588928929,0.2129214938868761,-0.9709755170963311,0.09057723601233239,-0.15068001363483463,-2.982975936948254,0.44373647239012015
1782985344383937280,3.25647234916687,-0.7555018663406372,-1.0344560146331787,-0.05157751590013504,-0.1464942842721939,0.14254072308540344,0.9788879752159119,0.03309093415737152,-0.01625896990299225,-0.09148252010345459,0.05655713822314548,0.21332964844290023,-0.9715628938995193,0.08577486819572487,-0.14302788394394625,-2.9930413340166466,0.44294844083289747
1782985344393856256,3.2663912773132324,-0.6449154019355774,-1.0319520235061646,-0.10801918804645538,-0.1363016664981842,0.13542556762695312,0.9813673496246338,-0.008488982915878296,0.016094207763671875,-0.10949540138244629,0.05224601658832662,0.2139568366452206,-0.9720628296939283,0.08115851786507196,-0.1358429790862183,-3.003585989402337,0.44270569941150184
1782985344403776512,3.2763113975524902,-0.13800400495529175,-1.1254370212554932,-0.032740410417318344,-0.12573011219501495,0.1315518468618393,0.9833039045333862,-0.020586445927619934,0.03458587825298309,-0.23890364170074463,0.04740573748460764,0.21467121295692598,-0.9724033237358397,0.07810809656711577,-0.1319342737827458,-3.014417778880314,0.44296988539820054
1782985344413696256,3.286231279373169,0.06407087296247482,-1.0893746614456177,0.004839886911213398,-0.11489160358905792,0.13128939270973206,0.9846640229225159,0.05818994343280792,0.02654750645160675,-0.3551168441772461,0.04207677827675186,0.21511050051027517,-0.9726558857942843,0.07679576910791101,-0.13166952644055102,-3.025436861163556,0.44297565857246796
1782985344423616512,3.2961513996124268,0.1964118778705597,-0.9849212169647217,0.07078907638788223,-0.104657843708992,0.13245010375976562,0.9856486916542053,0.0797860398888588,-0.04146197438240051,-0.28697943687438965,0.03690030216311971,0.21549675957320916,-0.9728234611041426,0.07624913778431577,-0.13284046140523262,-3.0358073349740655,0.4430364119052131
1782985344433536256,3.3060712814331055,0.2899295687675476,-0.9516792297363281,0.23654301464557648,-0.09495854377746582,0.13521623611450195,0.9862551093101501,0.1414063274860382,-0.09825944900512695,-0.2530399560928345,0.03188324434596354,0.2150216952929825,-0.9730843901920915,0.07652337736058953,-0.13563169293962382,-3.0456065965176338,0.44147350655492923
1782985344443456512,3.3159914016723633,0.1290075182914734,-0.8995938897132874,0.14913435280323029,-0.08549323678016663,0.13738605380058289,0.9868209958076477,0.1303388476371765,-0.17496848106384277,-0.13872241973876953,0.027046563980852534,0.21455385254607418,-0.9733330090112825,0.07653698443688864,-0.13782196243303016,-3.0551734335235814,0.43989320940181387
1782985344453376256,3.325911283493042,-0.03341447189450264,-0.8583540320396423,0.1771165430545807,-0.07671190053224564,0.1380149871110916,0.9874548316001892,0.16165758669376373,-0.2267296016216278,-0.053067684173583984,0.022711563059607136,0.21409458630884928,-0.973596902325128,0.07587320165635081,-0.13845693634687095,-3.0640618866156526,0.4382896678833786
1782985344463296512,3.3358314037323,-0.16905058920383453,-0.7442724704742432,0.1783786118030548,-0.06851477921009064,0.13687489926815033,0.98821622133255,0.12260716408491135,-0.11510057747364044,0.0005382299423217773,0.0188664200556135,0.21346575478858115,-0.9739304370306021,0.07440447677806765,-0.13730592971384975,-3.0723716591391588,0.4362970674075895
1782985344473216256,3.3457512855529785,-0.1031506136059761,-0.7471709251403809,0.13502956926822662,-0.06107310205698013,0.13586100935935974,0.9888436794281006,0.12201670557260513,-0.024181947112083435,0.01774805784225464,0.015367531993070473,0.21296647916436612,-0.9742007589194729,0.07308891591608187,-0.13628248527881834,-3.0799088671379273,0.43465227754731167
1782985344483136512,3.3556714057922363,-0.17216269671916962,-0.7143591642379761,0.1446036398410797,-0.053705375641584396,0.1344638615846634,0.98946213722229,0.1959630697965622,-0.03361852467060089,0.06032729148864746,0.011938956915956976,0.21255568039379322,-0.9744491553661138,0.07159903738798983,-0.13487238576314195,-3.0873685166338327,0.4331932128052518
1782985344493056256,3.365591287612915,-0.24169403314590454,-0.7214155197143555,0.10332947224378586,-0.04639643803238869,0.13239537179470062,0.9901106357574463,0.2157537341117859,-0.09736117720603943,0.08334529399871826,0.00860238845069535,0.21225811013340062,-0.9746803690823501,0.0697906859804871,-0.1327852355951048,-3.0947670576960324,0.43196242022797904
1782985344502976512,3.375511407852173,-0.2824385464191437,-0.6970303058624268,0.08142710477113724,-0.03936280310153961,0.12982189655303955,0.9907554984092712,0.2025250494480133,-0.07618728280067444,0.050427794456481934,0.005449055516727549,0.21203535715600758,-0.9748942242097102,0.06776770440023437,-0.13018935989467584,-3.101883448360618,0.43090965039946866
1782985344512896256,3.3854312896728516,-0.2851163446903229,-0.7337950468063354,0.08495978266000748,-0.032073669135570526,0.1270206868648529,0.9913811087608337,0.18583649396896362,-0.04698836803436279,0.04603314399719238,0.0021927190267777667,0.21184252450875093,-0.9750965635095679,0.06560873933827849,-0.12736475828970903,-3.10925142443444,0.4299194630302288
1782985344522816512,3.3953514099121094,-0.23027972877025604,-0.6552615761756897,0.06842288374900818,-0.02520590089261532,0.1244969442486763,0.9918995499610901,0.13435202836990356,-0.04484608769416809,0.02206200361251831,-0.0008936032431511037,0.21174832487949047,-0.9752499254406855,0.06363420600563592,-0.12482081788135826,-3.1161863745162424,0.42919496495250575
1782985344532736256,3.405271291732788,-0.16083180904388428,-0.6246492862701416,0.058429181575775146,-0.01870569959282875,0.12250547111034393,0.9922915697097778,0.08852991461753845,-0.07968930900096893,0.016100764274597168,-0.0038557597380287044,0.21163835106834172,-0.9753742899387783,0.061962581052878274,-0.12281397695994363,-3.12274387571488,0.42849796827523223
1782985344542654208,3.415189266204834,-0.10568760335445404,-0.5927589535713196,0.04252132028341293,-0.01258082315325737,0.12116029113531113,0.9925532341003418,0.05576319620013237,-0.05826356261968613,0.0016179084777832031,-0.006704693051064619,0.21155076184367722,-0.9754603435599655,0.06065009506317204,-0.12145870162192375,-3.1289181194642377,0.4279016137980936
1782985344552574464,3.425109386444092,0.17819131910800934,-0.5475011467933655,0.0444372296333313,-0.006749393884092569,0.12153661996126175,0.9925639629364014,0.04813123121857643,0.020187005400657654,0.04156988859176636,-0.009598082456866854,0.21152973091541075,-0.9754676579805901,0.0602152518330612,-0.12183783339867305,-3.134792799610278,0.427501398668664
1782985344562494208,3.4350292682647705,0.4878879189491272,-0.373486191034317,0.032324377447366714,-0.002157102571800351,0.12474914640188217,0.9921858906745911,0.05507458373904228,0.03427793085575104,0.058793604373931885,-0.01218603164510515,0.2114711203934195,-0.9753834661899006,0.06130674046351857,-0.12507500171232658,-3.1394185657925253,0.42714374609861416
1782985344572414464,3.4449493885040283,0.6099604964256287,-0.2888477146625519,0.10117889940738678,0.0012017920380458236,0.1303958296775818,0.9914613962173462,0.10161192715167999,-0.007654100656509399,0.09902334213256836,-0.014418753535916892,0.21122102055509118,-0.9752519625565887,0.06372955505830637,-0.13076821293036872,3.1403805121626553,0.4264942419661105
1782985344582334208,3.454869270324707,0.535438597202301,-0.20250748097896576,0.10117252171039581,0.00378978019580245,0.13597168028354645,0.990705668926239,0.2024327516555786,-0.02322445809841156,0.2230854034423828,-0.016249152275472585,0.21071748192382717,-0.975167155837161,0.06620594237089736,-0.13639418743993753,3.1377673380721673,0.42536177711570705
1782985344592254464,3.464789390563965,0.4556114375591278,-0.11288165301084518,0.13511782884597778,0.00569579005241394,0.14097975194454193,0.9899964928627014,0.22452881932258606,-0.07172006368637085,0.3046663999557495,-0.01767991734585706,0.21016479912980893,-0.9751046078819676,0.06847899300239142,-0.1414509849913603,3.1358393732447265,0.42415885677838283
1782985344602174208,3.4747092723846436,0.28086039423942566,0.06261507421731949,0.15748172998428345,0.006378070916980505,0.1445913463830948,0.9894710779190063,0.20098887383937836,-0.1155080795288086,0.3746647834777832,-0.0183482063569148,0.2094441386923354,-0.9751249659843362,0.07019894977074616,-0.14509996562894,3.1351468031085177,0.42267663987987636
1782985344612094464,3.4846293926239014,0.1281714290380478,0.19295725226402283,0.17926955223083496,0.0055511463433504105,0.1465393453836441,0.9891895055770874,0.18536682426929474,-0.09899292886257172,0.4316328763961792,-0.01808438470617201,0.2085414993823758,-0.9752462272355967,0.07126233736313523,-0.1470689332983364,3.1359808995682728,0.42091083720148864
