time,seconds_elapsed,rotationRateX,rotationRateY,rotationRateZ,gravityX,gravityY,gravityZ,accelerationX,accelerationY,accelerationZ,quaternionW,quaternionX,quaternionY,quaternionZ,pitch,roll,yaw
1784804897724293632,0.3747868537902832,0.0031544032972306013,-0.07696811109781265,0.04650609940290451,0.06260435283184052,0.5367820858955383,-0.8413950800895691,-0.006223127245903015,0.08695143461227417,0.03582257032394409,0.8445310197842621,-0.2616735105873332,-0.10406452107229731,0.455483214386898,-0.5666184974219454,0.07426856208901574,1.01086472915633
1784804897734212608,0.3847057819366455,0.09943140298128128,-0.06129914149641991,-0.016293639317154884,0.061465684324502945,0.5361407995223999,-0.8418877720832825,-0.026248402893543243,0.05130738019943237,0.03915339708328247,0.8446002701438292,-0.26105278740395405,-0.10443920541064776,0.45562518270528446,-0.5658585896677261,0.07288004757966153,1.0106218108798406
1784804897744131584,0.3946247100830078,0.16909363865852356,-0.01707027107477188,-0.12466255575418472,0.060161180794239044,0.5351182818412781,-0.8426321744918823,-0.06690555810928345,0.012809514999389648,0.0147055983543396,0.8449514234292387,-0.26025016185768807,-0.10466017504265857,0.455382439053825,-0.5646477790236497,0.07127577944647522,1.009315452474096
1784804897754051584,0.4045448303222656,0.1543234884738922,0.015039462596178055,-0.2076495885848999,0.05857492983341217,0.533912181854248,-0.8435086011886597,-0.06214548647403717,-0.009528636932373047,-0.013211369514465332,0.8455969788109495,-0.25934595920976417,-0.10481116027534967,0.45466475065647993,-0.563220707670304,0.06933070973158222,1.0067428826080547
1784804897763970560,0.41446375846862793,0.048406437039375305,0.040064118802547455,-0.21766343712806702,0.05684216693043709,0.5332608819007874,-0.8440390229225159,-0.041140880435705185,-0.03683149814605713,-0.03512662649154663,0.8462893403919477,-0.2587149124857697,-0.10510515968720784,0.4536671616149715,-0.5624505763485113,0.06724389104382565,1.003597505330226
1784804897773890816,0.42438387870788574,-0.002826390555128455,0.06376545876264572,-0.1540522426366806,0.05545952171087265,0.5331154465675354,-0.8442228436470032,-0.01639702171087265,-0.0972786545753479,-0.024841487407684326,0.8468468889250969,-0.25841516666880626,-0.10540488744312239,0.45272715056216345,-0.5622787132345718,0.06559873385868058,1.0008415681387322
1784804897783809536,0.43430280685424805,-0.05584173649549484,0.036439862102270126,-0.08261830359697342,0.05461877956986427,0.5331956148147583,-0.8442270159721375,-0.001014653593301773,-0.0675584077835083,0.06892794370651245,0.8471755797412811,-0.25832188801903727,-0.10562339204805328,0.4521140258158266,-0.5623734582300837,0.0646067537225371,0.9991091641493969
1784804897793728512,0.44422173500061035,-0.0887184590101242,0.07222821563482285,-0.0400703065097332,0.054331228137016296,0.5337049961090088,-0.8439236283302307,-0.018381524831056595,0.04857039451599121,0.10848051309585571,0.8472867564254689,-0.25854899941523,-0.10578560468043367,0.45173780214693393,-0.5629756761525873,0.06429059578854794,0.9982383691395581
1784804897803648768,0.45414185523986816,0.0048484401777386665,0.10558256506919861,-0.0420709066092968,0.05453258007764816,0.5340744853019714,-0.8436768651008606,0.0024590007960796356,0.08025956153869629,0.015216171741485596,0.8474041532764935,-0.2588262354470539,-0.10569087496518874,0.451380735352581,-0.563412672700693,0.06454702005386262,0.9975563758767749
1784804897813567744,0.46406078338623047,0.10331057012081146,0.10945799946784973,-0.023692965507507324,0.05489383265376091,0.5336632132530212,-0.8439136147499084,0.06397213041782379,0.04975658655166626,-0.016712546348571777,0.8476373648401404,-0.25875077726956947,-0.10531484059895385,0.45107385260119987,-0.5629262445193932,0.06495523400700777,0.9968649189359923
1784804897823486464,0.4739797115325928,0.10868103057146072,0.13581842184066772,0.0968513935804367,0.055814821273088455,0.5328188538551331,-0.844386637210846,0.10019104182720184,0.028490900993347168,0.022243082523345947,0.8477922999911636,-0.25856550613654167,-0.10464498286552992,0.45104478100817685,-0.5619281412706029,0.0660050063918483,0.9969279834495579
1784804897833406720,0.4838998317718506,0.03486273065209389,0.058980897068977356,0.2983706593513489,0.05772566422820091,0.5321876406669617,-0.8446561694145203,0.11453080177307129,-0.01100844144821167,0.033483684062957764,0.847476675805683,-0.25863698629334264,-0.10382111346941703,0.45178690721900927,-0.5611824537099326,0.06823609976602463,0.9992182595157183
1784804897843325696,0.4938187599182129,0.026118509471416473,0.01994040235877037,0.22186575829982758,0.05941466987133026,0.5319278836250305,-0.8447026610374451,-0.026043705642223358,-0.04793435335159302,-0.021248817443847656,0.8468896449655474,-0.2587917361494984,-0.10332228155525466,0.4529120897599506,-0.5608756628652269,0.07022231470084773,1.0024224803153123
1784804897853244672,0.5037379264831543,0.026014111936092377,0.08166555315256119,0.15845084190368652,0.06074432656168938,0.5316007733345032,-0.8448140621185303,-0.12902742624282837,-0.0466611385345459,-0.07626748085021973,0.8465607263119199,-0.25887983708301904,-0.1028309239497234,0.45358799141106887,-0.5604893638401556,0.07177907087709286,1.0044205639693273
1784804897863164672,0.513657808303833,-0.11343345791101456,0.08860145509243011,0.18544188141822815,0.062369924038648605,0.5318383574485779,-0.8445460200309753,-0.022651303559541702,-0.08118528127670288,-0.04060107469558716,0.8461526208606455,-0.25932932100471834,-0.10234886083744014,0.45420131709813927,-0.5607699022706113,0.0737164187868439,1.0065172969489726
1784804897873083648,0.5235767364501953,-0.17381291091442108,0.05180481821298599,0.07287698239088058,0.06341245770454407,0.5329171419143677,-0.8437879681587219,0.014910906553268433,-0.10084927082061768,-0.014610469341278076,0.8457290078365702,-0.26007822576423995,-0.10230017431237529,0.4545726707905776,-0.5620442955191204,0.07501111734877162,1.0080410769104673
1784804897883002880,0.5334959030151367,-0.11985314637422562,0.09283572435379028,0.033608075231313705,0.06420104950666428,0.5339940786361694,-0.8430472612380981,-0.01340455561876297,-0.008252441883087158,0.0030509233474731445,0.8454831188702222,-0.260801854802186,-0.10226815833475766,0.4546230192137443,-0.5633175124204759,0.07600685880618523,1.0087165504311928
1784804897892922624,0.5434157848358154,-0.05825662612915039,0.06436626613140106,0.029848754405975342,0.06495735794305801,0.534568190574646,-0.8426253199577332,0.014739297330379486,0.05002659559249878,0.060429275035858154,0.8453649011545543,-0.2612769376279804,-0.10208678081270828,0.4546105827735033,-0.5639966952767815,0.07693709236601635,1.009108017536424
1784804897902841600,0.5533347129821777,0.023470262065529823,0.05257667973637581,-0.009827250614762306,0.06538571417331696,0.5346319079399109,-0.8425517678260803,0.04076967388391495,0.05911809206008911,0.07584333419799805,0.8453719026201459,-0.26142241553978773,-0.1018943153720362,0.45455722653165526,-0.5640721385160231,0.07744916137886469,1.0091550210448788
1784804897912761600,0.5632548332214355,0.15260426700115204,0.08820790797472,-0.005880978424102068,0.06589359045028687,0.5338857173919678,-0.842985212802887,0.04741816222667694,0.024479150772094727,0.03027164936065674,0.8455480044440342,-0.2611917157585527,-0.10142123711891929,0.4544681621076647,-0.5631893851347239,0.07800833342649068,1.0089428074012652
1784804897922680576,0.5731737613677979,0.24543793499469757,0.14808957278728485,0.03239177539944649,0.06688547134399414,0.5322393774986267,-0.8439476490020752,0.07077930122613907,-0.03069823980331421,-0.012696027755737305,0.8458405819960739,-0.2606288224127195,-0.1004927544123453,0.45445313584804947,-0.5612435185673867,0.0790877966050006,1.008856039847482
1784804897932599808,0.5830929279327393,0.45939311385154724,0.20190779864788055,0.17363332211971283,0.06904406100511551,0.5293554067611694,-0.8455861210823059,0.1977863609790802,-0.021634459495544434,-0.05701708793640137,0.8461461381475115,-0.25970729689937344,-0.09878802222225465,0.4547855839746219,-0.5578405896259819,0.08147157643943172,1.009702675380643
1784804897942519552,0.593012809753418,0.9418630599975586,0.13389208912849426,0.2844005227088928,0.07150014489889145,0.5231382846832275,-0.8492432236671448,0.22198739647865295,0.002023458480834961,-0.056594789028167725,0.8465767961671313,-0.25712153145433897,-0.09626474646048015,0.455992829936638,-0.5505292014960298,0.08399468988607582,1.0118819884103596
1784804897952438528,0.6029317378997803,1.0860334634780884,0.14460252225399017,0.10193087160587311,0.07414639741182327,0.5140770077705383,-0.854533314704895,-0.06093229353427887,-0.09565049409866333,0.16286766529083252,0.8475107275646053,-0.2532077830357206,-0.09283945449033632,0.4571566982284645,-0.5399312020197757,0.08655152458319235,1.013318891391459
1784804897962357760,0.6128509044647217,0.8313730359077454,0.10202145576477051,0.37953895330429077,0.0766262412071228,0.5057178735733032,-0.8592891693115234,-0.1014370396733284,-0.007182776927947998,0.23181724548339844,0.8483282133117243,-0.24962654166881343,-0.08967725707513599,0.4582400128293541,-0.5302139080821539,0.0889387431148584,1.0146885947525555
1784804897972275968,0.6227691173553467,0.47801631689071655,0.014002654701471329,0.5635772347450256,0.07960177958011627,0.4996456205844879,-0.8625646829605103,-0.14074374735355377,0.11358985304832458,0.15350401401519775,0.847995678923529,-0.2471671381732323,-0.08732738003404882,0.4606361935363554,-0.5231896374673972,0.09202434486211412,1.0198778514467783
1784804897982195200,0.6326882839202881,0.39710721373558044,0.017711753025650978,0.4648861289024353,0.08240636438131332,0.4957646429538727,-0.8645383715629578,-0.23525366187095642,0.03608044981956482,-0.20585042238235474,0.8472984810877409,-0.245751701215204,-0.08565577340542879,0.4629843435638499,-0.5187150807173314,0.09503123322682769,1.025420040929934
1784804897992114176,0.6426072120666504,0.4716344475746155,0.1602928787469864,0.4681900441646576,0.08516277372837067,0.4917609989643097,-0.8665555119514465,-0.12691083550453186,-0.1300971806049347,-0.33118313550949097,0.8468052775569451,-0.24431312280381737,-0.08386499736192715,0.4649717834903689,-0.5141110391020878,0.09796275994505312,1.030058551599924
1784804898002033920,0.6525270938873291,1.6324794292449951,0.3434450328350067,0.25944817066192627,0.08941259980201721,0.4834369421005249,-0.8708008527755737,0.1364479809999466,0.013297677040100098,-0.18397819995880127,0.8470885007291685,-0.2412046112162653,-0.08012428425764823,0.46673510962939785,-0.5045767028870293,0.10232000816362274,1.0335997759952193
1784804898011953152,0.6624462604522705,2.703613042831421,0.5469579696655273,0.4582954943180084,0.09478402882814407,0.4634440541267395,-0.8810423016548157,0.255450963973999,0.093913733959198,0.09187304973602295,0.8492478244192921,-0.23283137086725142,-0.07258366041441838,0.4682939757455107,-0.4818779045775457,0.10716950763995844,1.0342251869679857
1784804898021872128,0.6723651885986328,2.0279321670532227,0.15495243668556213,0.6457809209823608,0.10014257580041885,0.44149988889694214,-0.8916553854942322,0.25061118602752686,-0.13966578245162964,0.3770679831504822,0.8507368528266245,-0.22350379863684897,-0.06494887776275159,0.4712478878836417,-0.457269606680853,0.11184217643285893,1.037761406633816
1784804898031792128,0.6822853088378906,1.1876674890518188,-0.18329644203186035,0.6079791784286499,0.10335534065961838,0.42642706632614136,-0.8985975980758667,0.360511839389801,-0.43320193886756897,0.3534621000289917,0.8509490719369233,-0.2169567374881188,-0.060257579678421,0.47453608222601296,-0.4405389956720894,0.11451527405862412,1.043069782853023
1784804898041711104,0.6922042369842529,0.39931705594062805,-0.6405873894691467,0.3035610020160675,0.10185836255550385,0.41911792755126953,-0.9022001028060913,0.18097853660583496,-0.28967761993408203,0.1442197561264038,0.8504991550476662,-0.21294791144497888,-0.0596080623097424,0.47723308819795235,-0.4324735717589849,0.11242391352125779,1.0474041062512727
1784804898051630080,0.7021231651306152,0.16933445632457733,-0.48344436287879944,-0.0125522306188941,0.09686636924743652,0.41658028960227966,-0.903923511505127,-0.4109532833099365,0.15574634075164795,-0.02744239568710327,0.8504421538126717,-0.21040891762431765,-0.061370384856587065,0.47823612762384365,-0.42968042297960285,0.10675472340090968,1.047848819642964
1784804898061550080,0.712043285369873,0.6019388437271118,-0.15870001912117004,0.0847504585981369,0.09402861446142197,0.4135000705718994,-0.9056358337402344,-0.5806313753128052,0.7855050563812256,-0.21850961446762085,0.8504736244379059,-0.2081812479865522,-0.061989035219806816,0.4790745887418525,-0.4262948169171947,0.10345538903542204,1.0484092825309081
1784804898071469056,0.7219622135162354,1.504381537437439,0.057293251156806946,0.11893559247255325,0.09393302351236343,0.40383416414260864,-0.9099970459938049,-0.3639068007469177,0.9532672762870789,-0.36376094818115234,0.8513982725126927,-0.20360454176835005,-0.059554015092543086,0.4797078606462332,-0.41570410527847895,0.10285915293582441,1.0479105802730946
1784804898081389056,0.7318820953369141,1.54037606716156,0.05255020037293434,0.3334662616252899,0.09495256841182709,0.39046353101730347,-0.915708601474762,0.012301452457904816,0.2962583005428314,-0.10225099325180054,0.8523393689780243,-0.19756692707855208,-0.05579428601409324,0.48101143067853486,-0.4011350251022328,0.10332372904575826,1.0486000073252122
1784804898091308032,0.7418012619018555,1.2681970596313477,-0.01733461022377014,0.2227802276611328,0.09584278613328934,0.37852174043655396,-0.920616865158081,0.05071786791086197,-0.5053985714912415,0.07511216402053833,0.8535983353179762,-0.19224943500646466,-0.05226577009171848,0.4813297316298328,-0.3881986708494288,0.10373345022846067,1.0472880055052756
1784804898101227008,0.7517201900482178,0.877017617225647,-0.17703188955783844,-0.03577083349227905,0.09500361979007721,0.3691546320915222,-0.9244994521141052,0.0665259137749672,-0.4667651057243347,0.11982721090316772,0.8543662155356914,-0.18767653321076572,-0.05027727215181567,0.4819836020819004,-0.3780992276058287,0.10240277324555992,1.0468811617216416
1784804898111147264,0.7616403102874756,0.46947649121284485,-0.24000845849514008,0.004212534986436367,0.09279836714267731,0.3632323443889618,-0.9270656704902649,0.06738840788602829,-0.08704826235771179,0.04730492830276489,0.8549959343179994,-0.1843784394122854,-0.049716850040224844,0.48219784871431576,-0.371734864322033,0.09976669235497196,1.0457960713819225
1784804898121065984,0.7715592384338379,0.5430046916007996,-0.2774786353111267,0.006880589760839939,0.09046661853790283,0.35885125398635864,-0.9290003180503845,0.04123198986053467,0.005910098552703857,0.015487134456634521,0.8553286118939354,-0.18175003774007026,-0.049666553075076225,0.4826108074967173,-0.3670368744887615,0.09707452990846284,1.0454522847254073
1784804898130984960,0.7814781665802002,0.6624174118041992,-0.4008314609527588,0.021755674853920937,0.08735226839780807,0.35314324498176575,-0.9314823746681213,0.06781435757875443,0.16892093420028687,0.03524219989776611,0.855791426708487,-0.178316275307774,-0.04961971711909933,0.48307571839345625,-0.3609286911012731,0.09350423279263377,1.0448537788858083
1784804898140905216,0.791398286819458,0.5925198197364807,-0.49403974413871765,0.09284316748380661,0.08328556269407272,0.3473120331764221,-0.934043824672699,0.05685114860534668,0.03609555959701538,0.06255334615707397,0.856066277713669,-0.17456953560704153,-0.050035619873437666,0.48391369392009814,-0.35470317006385615,0.08893146390438104,1.044941213209219
1784804898150824192,0.8013172149658203,0.350600928068161,-0.41535475850105286,0.013805340975522995,0.0792466253042221,0.3429097533226013,-0.9360197186470032,-0.035209767520427704,-0.18295186758041382,0.029327213764190674,0.8562239256500892,-0.17149348843527873,-0.05079499155473629,0.4846551383273147,-0.35001272729313243,0.0844619964240134,1.0450886995698987
1784804898160742912,0.8112361431121826,0.07714235037565231,-0.316826730966568,0.01414922159165144,0.07587850838899612,0.3410703241825104,-0.9369704127311707,-0.06092490255832672,-0.10303321480751038,-0.048823654651641846,0.8562807038397274,-0.16977874064880727,-0.05186508501777522,0.4850449786026372,-0.34805525222309225,0.08080648358300888,1.044992255140158
1784804898170663168,0.8211562633514404,0.08374112844467163,-0.25099313259124756,-0.005558436270803213,0.07329042255878448,0.34047049283981323,-0.9373944401741028,-0.051622942090034485,-0.05539053678512573,-0.019560515880584717,0.8562385688175452,-0.16883219251455545,-0.052900493982333104,0.4853378474199483,-0.34741724140551294,0.07802651729867416,1.0450371236671616
1784804898180582144,0.8310751914978027,0.2828581631183624,-0.28544381260871887,-0.020497336983680725,0.07078058272600174,0.33884918689727783,-0.9381744861602783,0.026814639568328857,0.12048614025115967,-0.05299067497253418,0.856356428518358,-0.16744721060640305,-0.053611559456171964,0.48553148805743657,-0.34569345670347007,0.07530235131011878,1.0447155279200395
1784804898190502144,0.8409953117370605,0.5544790029525757,-0.3627457916736603,0.03954043239355087,0.06773897260427475,0.33500936627388,-0.9397766590118408,0.09092190861701965,0.220441073179245,-0.014233291149139404,0.8565952046312394,-0.16490772753343996,-0.05401031201513812,0.48593515436184065,-0.3416151597053835,0.07195542336724928,1.0444532343477086
1784804898200421120,0.8509142398834229,0.6850510239601135,-0.4278578460216522,0.045665401965379715,0.06417787820100784,0.3291301727294922,-0.9421011209487915,0.07511961460113525,0.1376819610595703,-0.014319777488708496,0.8568736064893676,-0.1612966953028686,-0.05415549170457745,0.48663953553037403,-0.33538227330879483,0.06801698262036779,1.0445193888424467
1784804898210340096,0.8608331680297852,0.7833853363990784,-0.580777108669281,0.011813962832093239,0.060027141124010086,0.3225022852420807,-0.9446634650230408,0.12478731572628021,-0.0241013765335083,-0.0019002556800842285,0.857203559454177,-0.15720242823506844,-0.05436613985437312,0.48737427641500425,-0.32837182621554406,0.06345809850354919,1.0444835003719077
1784804898220260096,0.870753288269043,1.1245338916778564,-0.9301043152809143,-0.223258376121521,0.052627064287662506,0.31390121579170227,-0.9479960203170776,0.2757268249988556,0.14821121096611023,0.06173503398895264,0.8579714711746902,-0.15143061442270217,-0.05541452360963066,0.48773236435981715,-0.3192991453052361,0.0554570907376361,1.042760099690041
1784804898230179072,0.8806722164154053,1.4237186908721924,-0.994557797908783,-0.2277631163597107,0.04250327870249748,0.3021668493747711,-0.9523070454597473,0.1762925088405609,0.3026610314846039,-0.012918174266815186,0.8592139485980061,-0.14360301409692403,-0.056786134815126635,0.4877549386204364,-0.30696495534539897,0.04460230890941479,1.0395260477593855
1784804898240098048,0.8905911445617676,1.588687777519226,-0.6652653217315674,-0.07961921393871307,0.03470398485660553,0.2880490720272064,-0.9569866061210632,-0.18051697313785553,0.11708700656890869,0.029816806316375732,0.8563847510598835,-0.134830709387846,-0.05768343309527521,0.4950741986751807,-0.2921889495098534,0.036247931859152864,1.053652782950546
1784804898250018048,0.9005112648010254,1.3872127532958984,-0.26964473724365234,-0.11450688540935516,0.030299300327897072,0.27420738339424133,-0.9611931443214417,-0.37775719165802,-0.03156211972236633,0.01501089334487915,0.8574223850170893,-0.12753558441429635,-0.05601878619816291,0.49540221515733895,-0.27776540580774145,0.03151215749568232,1.052248414804053
1784804898259937024,0.9104301929473877,1.1685080528259277,0.13200382888317108,-0.22858676314353943,0.029384015128016472,0.2624431848526001,-0.9644999504089355,-0.3275254964828491,-0.2397838830947876,0.03282880783081055,0.8550746379672661,-0.12172702186903879,-0.05415308434643837,0.501096101465054,-0.2655532621691019,0.030456122184096036,1.0642305602032667
1784804898269856000,0.92034912109375,0.8916261792182922,0.14135098457336426,-0.33746957778930664,0.029955491423606873,0.25282612442970276,-0.9670478701591492,-0.06090031564235687,-0.14168113470077515,0.054450273513793945,0.8564537627430813,-0.11769513410584405,-0.051224135506809675,0.5000108971047077,-0.25560017741031665,0.030966322223708598,1.060847601443644
1784804898279776000,0.9302692413330078,0.7485785484313965,0.18911784887313843,-0.33676230907440186,0.03066197596490383,0.24514159560203552,-0.9690023064613342,0.02820643223822117,-0.05333861708641052,0.009895861148834229,0.8577837336438923,-0.1145604576861881,-0.048731464985371294,0.49870650869313576,-0.2476657379381948,0.03163227640575613,1.0571834499241224
1784804898289694976,0.9401881694793701,0.7906674146652222,0.20433887839317322,-0.3602924048900604,0.031578585505485535,0.2381715476512909,-0.9707095623016357,0.018683861941099167,-0.05155657231807709,0.008276760578155518,0.85566492904328,-0.11147499005302534,-0.04710130057664016,0.5031821319407656,-0.24048278343417656,0.0325199749857041,1.0671168126778179
1784804898299613952,0.9501070976257324,1.0744222402572632,0.2751777470111847,-0.3312896192073822,0.03300025314092636,0.22941216826438904,-0.9727697968482971,-0.06280066817998886,0.07832707464694977,-0.06839841604232788,0.8570645151859693,-0.10806191591840456,-0.044019696407760794,0.5018219983084199,-0.2314737036612147,0.033911007347638134,1.0633404015237125
1784804898309533952,0.9600272178649902,1.4556739330291748,0.4027263820171356,-0.35491690039634705,0.03541528061032295,0.21757276356220245,-0.9754014015197754,-0.08674585819244385,0.21570055186748505,-0.01712179183959961,0.8586383135022022,-0.10354327615257479,-0.03972528256475964,0.5004409040036609,-0.21932696509533672,0.0362924765221219,1.0593954892907922
1784804898319452928,0.9699461460113525,2.4170260429382324,0.5540862679481506,-0.48562633991241455,0.03909195587038994,0.19935034215450287,-0.9791482090950012,-0.10768021643161774,0.29283714294433594,-0.09886997938156128,0.8570255928687255,-0.0962999857713269,-0.03394401166528813,0.5050557874981018,-0.2006949131079826,0.03990325978530331,1.0690660740772306
1784804898329373184,0.9798662662506104,3.2315802574157715,0.6858373880386353,-0.7164028286933899,0.04374467581510544,0.172012060880661,-0.9841231107711792,-0.16497574746608734,0.6575930118560791,-0.1435319185256958,0.8560694164678571,-0.08544112503804825,-0.025264008608801316,0.5091234828949089,-0.17287181862732798,0.04442117041440796,1.0769092716307795
1784804898339292160,0.9897851943969727,3.609616756439209,0.7451279759407043,-0.8283706307411194,0.04916570708155632,0.13974617421627045,-0.9889659881591797,-0.13772772252559662,0.5394988059997559,-0.06437873840332031,0.8594271616320092,-0.07288779902716411,-0.014295871068424398,0.5058338274811385,-0.14020507356242867,0.04967336059192155,1.067435320804265
1784804898349210880,0.999704122543335,3.3373947143554688,0.6942262053489685,-0.7341512441635132,0.05487021431326866,0.10611499100923538,-0.9928387999534607,-0.05999716371297836,-0.06393970549106598,0.0692548155784607,0.8626469726266085,-0.05976328523830681,-0.0029922641459498925,0.5022544259726027,-0.10631515531456195,0.05520982108804898,1.0574321087286636
1784804898359131136,1.0096242427825928,1.4739818572998047,0.8514831066131592,-0.6641725301742554,0.06121288239955902,0.08267571032047272,-0.9946947693824768,-0.02532421424984932,-0.892474889755249,0.3561602830886841,0.8650036674335652,-0.05116927333018824,0.005857872547971813,0.499115173698587,-0.08277018810032796,0.06146185467299575,1.0492318250309274
1784804898369050112,1.019543170928955,-0.632070004940033,1.2233850955963135,-0.8372340798377991,0.0707796961069107,0.07994511723518372,-0.994283139705658,-0.0509890541434288,-1.7504315376281738,0.36620092391967773,0.8668702783902527,-0.05234192521165774,0.010896816275081708,0.49565856447212503,-0.08003052162013646,0.07106677896522745,1.041667477665756
1784804898378968832,1.0294620990753174,-1.9390300512313843,1.2439454793930054,-1.264221429824829,0.08232338726520538,0.09335988014936447,-0.9922231435775757,0.020902320742607117,-1.5603092908859253,0.2827199697494507,0.8689427514029153,-0.06100851773535264,0.012898935523946903,0.4909684551405775,-0.09349603416273734,0.08277902533670217,1.0324753923889332
1784804898388889088,1.0393822193145752,-2.700932264328003,0.9217051863670349,-1.7492213249206543,0.09130855649709702,0.11816239356994629,-0.9887873530387878,0.1380310356616974,-0.3768751621246338,0.17787426710128784,0.8717861936167005,-0.07402381250292449,0.011260888792088789,0.4841305963044354,-0.11843910682944314,0.092082831686129,1.0193182898888686
1784804898398808064,1.0493011474609375,-2.316784381866455,0.7930064797401428,-2.0245132446289062,0.09709303081035614,0.1445639580488205,-0.9847203493118286,0.08840806782245636,0.5231758952140808,-0.05711919069290161,0.8723335477839977,-0.08707176862122083,0.007636968218471764,0.4810345611708993,-0.14507228761515267,0.0982819192274434,1.015034477017979
1784804898408727296,1.059220314025879,-1.500156283378601,0.9966256022453308,-2.1877403259277344,0.10236132144927979,0.16527442634105682,-0.9809212684631348,-0.10623705387115479,0.8184444308280945,-0.20573949813842773,0.8763925501721243,-0.09748888350923572,0.005940160340166447,0.47158965351591997,-0.16603625761557325,0.10397590916519145,0.9959866760445418
1784804898418647040,1.0691401958465576,-0.795218825340271,1.186560869216919,-2.3295440673828125,0.10910414904356003,0.17837204039096832,-0.9778955578804016,-0.17526626586914062,0.45730912685394287,-0.1776983141899109,0.8797832385954872,-0.1049144928092125,0.0067212284988262885,0.46360469925933784,-0.1793317076522524,0.11111084023641175,0.979953987790927
1784804898428566016,1.07905912399292,-0.7107731699943542,1.3666815757751465,-2.5953876972198486,0.11681994050741196,0.18800732493400574,-0.9751955270767212,-0.11826953291893005,0.0004234611988067627,-0.07560092210769653,0.8843660356124222,-0.11098826273821791,0.00915608630049864,0.4533149497321638,-0.18913288983831647,0.11922318264640729,0.9586551046777964
1784804898438485248,1.0889782905578613,-1.2613348960876465,1.5743823051452637,-3.1376638412475586,0.1252320408821106,0.2006254494190216,-0.9716307520866394,-0.1944611668586731,-0.3372984230518341,0.049923598766326904,0.8890562222393432,-0.11854358496993814,0.011490484441069529,0.44203435020675513,-0.20199630557951556,0.12818183489615464,0.9358101775207899
1784804898448404992,1.09889817237854,-1.7781894207000732,1.834755539894104,-3.582608461380005,0.13444700837135315,0.21983368694782257,-0.9662283062934875,-0.21608152985572815,-0.3833163380622864,0.07221585512161255,0.8943618801560396,-0.12926351384461435,0.013296240615293258,0.4280547144707258,-0.22164397820550794,0.13825847369600888,0.9081961475767232
1784804898458323968,1.1088171005249023,-1.4777780771255493,2.1141607761383057,-3.5138630867004395,0.14501695334911346,0.24080032110214233,-0.9596797823905945,-0.12997178733348846,-0.19857925176620483,-0.07526284456253052,0.8996652907728407,-0.14109929893643075,0.015846028797288168,0.41284652277387124,-0.24319035851298168,0.14997508233092996,0.8788033687517076
1784804898468243200,1.1187362670898438,-0.7978858351707458,2.282890796661377,-3.22757887840271,0.1576201170682907,0.25649547576904297,-0.9536068439483643,-0.01423327624797821,0.21646597981452942,-0.09969210624694824,0.9048248073162997,-0.15087740906522126,0.020798879437081565,0.39761231122200247,-0.2593946122085186,0.16380732952236118,0.8494804249869201
1784804898478162944,1.1286561489105225,0.28463634848594666,2.2857112884521484,-2.860818862915039,0.17117096483707428,0.264242559671402,-0.9491450786590576,0.19424651563167572,0.5056549310684204,-0.18127179145812988,0.9100493348157092,-0.15697332305300918,0.028050668237792772,0.3825999888521495,-0.2674184892485002,0.1784244371672937,0.8200273172293971
1784804898488082176,1.1385753154754639,1.4346375465393066,2.2409160137176514,-2.1391468048095703,0.18575845658779144,0.26044511795043945,-0.9474503397941589,0.17067159712314606,0.6238017082214355,-0.24076682329177856,0.9149532910403652,-0.15761468823487013,0.03784760387901259,0.36957492332953235,-0.2634831893416164,0.19360560461396564,0.7935088654799606
1784804898498002176,1.1484951972961426,2.1644182205200195,2.1634981632232666,-2.245983123779297,0.20066982507705688,0.24667221307754517,-0.9480951428413391,-0.2502608895301819,0.46734756231307983,-0.1790716052055359,0.9198077883710788,-0.15332165979731488,0.049445824590029226,0.35777239098651364,-0.24924484718479142,0.20857751177288988,0.7681359761505245
1784804898507920896,1.1584141254425049,1.9310412406921387,2.33770489692688,-2.485128402709961,0.21572484076023102,0.2319323718547821,-0.9485094547271729,-0.3449515104293823,0.0849469006061554,0.0051348209381103516,0.9249437843489996,-0.14824580839032772,0.06138776716226508,0.3445776010258076,-0.23406376226254472,0.22363149155086426,0.7396233709241347
1784804898517840128,1.1683332920074463,1.3514094352722168,2.385340690612793,-2.467393159866333,0.23199912905693054,0.22150889039039612,-0.9471590518951416,-0.08974142372608185,-0.38724982738494873,0.0770723819732666,0.9297089942111981,-0.1451402575061658,0.07317644162368937,0.33048561400181903,-0.22336152046137384,0.2402126554253365,0.7101506969392333
1784804898527760128,1.178253173828125,0.3175801932811737,2.323566436767578,-2.7126054763793945,0.24800913035869598,0.21950800716876984,-0.9435611963272095,0.034385278820991516,-0.6699932217597961,0.11090433597564697,0.9335263668577987,-0.14584825170249763,0.08335283572403683,0.31671612377969294,-0.22131014539992386,0.25702985957644275,0.6828799877404389
1784804898537678848,1.1881721019744873,-0.4872336983680725,2.3845460414886475,-3.0257959365844727,0.2631429433822632,0.2275468111038208,-0.9375383853912354,-0.005101561546325684,-0.7774125337600708,0.03182244300842285,0.9368580925509286,-0.15101023996534657,0.09179711310759314,0.30177157790096176,-0.22955766179532566,0.2736338723849514,0.6549736429400859
1784804898547598080,1.1980912685394287,-1.0521059036254883,2.471818447113037,-3.367272138595581,0.27808457612991333,0.2431151419878006,-0.9292814135551453,-0.12093433737754822,-0.6424071788787842,0.015005350112915039,0.9397717220996274,-0.15956520150088824,0.09948984885152137,0.28542902969380357,-0.2455760646800749,0.2907657205121112,0.6258693638395892
1784804898557518080,1.2080111503601074,-1.3355863094329834,2.6985793113708496,-3.6297109127044678,0.2927246391773224,0.26391610503196716,-0.9190541505813599,-0.15248113870620728,-0.36285412311553955,-0.012311756610870361,0.9422934264307657,-0.17040672705319398,0.10693205167387193,0.26760066108370256,-0.2670800098115769,0.30834750556347307,0.595155622149886
1784804898567437056,1.2179303169250488,-1.6224042177200317,2.860696315765381,-3.8020451068878174,0.3079839050769806,0.2879992723464966,-0.9067537188529968,-0.0635228157043457,-0.09671512246131897,0.045868098735809326,0.9446172012620815,-0.1825942952866081,0.11524955057292494,0.24713390170506386,-0.292136941924234,0.32742967777759946,0.5603716722516658
1784804898577356032,1.2278492450714111,-1.8567209243774414,2.8929390907287598,-3.576286554336548,0.32229065895080566,0.315455824136734,-0.8925336599349976,0.007741689682006836,0.05762156844139099,-0.11150991916656494,0.9459913893993007,-0.19627839153339813,0.12332056913671387,0.22664307401397127,-0.3209369735410174,0.346525827946596,0.526942202010903
1784804898587276032,1.2377691268920898,-1.7104358673095703,3.194854259490967,-3.609168529510498,0.337321013212204,0.34228846430778503,-0.8769567608833313,-0.012354552745819092,0.008007556200027466,-0.2266198992729187,0.9464055354877899,-0.209767790546156,0.13235972920700875,0.20686932665573923,-0.34935140205824017,0.3672035800480704,0.49591560018224584
1784804898597195264,1.2476882934570312,-1.8623814582824707,3.3484036922454834,-4.072991847991943,0.35195818543434143,0.3708247244358063,-0.8594267964363098,0.05204877257347107,0.10531052947044373,-0.19080513715744019,0.9460053382250915,-0.22396529832225484,0.14186665485995087,0.186513198693966,-0.37989690677322924,0.38869195077651236,0.46497572108280133
1784804898607115008,1.25760817527771,-1.1862040758132935,3.271742820739746,-4.335913181304932,0.3638599216938019,0.3985489308834076,-0.8418816328048706,0.23231622576713562,0.3212081491947174,-0.5116034746170044,0.9455149308631009,-0.23701763566089917,0.15126734997196803,0.16414146613324448,-0.40993415313086967,0.4079519382048195,0.42972488367003514
1784804898617033984,1.2675271034240723,0.3074410557746887,2.730250835418701,-4.3356757164001465,0.371215283870697,0.4178714156150818,-0.8292060494422913,0.509857714176178,0.3931637108325958,-1.059877872467041,0.9459638327738128,-0.24462361830760712,0.15986327636463424,0.1405537581889544,-0.4311011119329617,0.42091925580671474,0.3884851432427068
1784804898626953216,1.2774462699890137,2.720834255218506,1.6573684215545654,-4.182301044464111,0.3716498017311096,0.42136186361312866,-0.8272427916526794,0.8715447187423706,0.13500410318374634,-1.9255800247192383,0.9490876853303573,-0.24191929428984393,0.16689418955765928,0.11337534310837895,-0.4349464899486408,0.42224110664724984,0.33242993049558334
1784804898636872960,1.2873661518096924,4.375757217407227,0.5338387489318848,-4.448453426361084,0.36308494210243225,0.40670329332351685,-0.8383088707923889,1.1763590574264526,-0.07577067613601685,-1.9490141868591309,0.9549463181730392,-0.2280666177911797,0.16979748220154867,0.08504087841559672,-0.41884252205676237,0.408724788721645,0.2656798097126488
1784804898646791936,1.2972850799560547,4.879753112792969,-0.5972257256507874,-4.029513359069824,0.34577229619026184,0.3823752701282501,-0.8568726181983948,1.613044261932373,-0.23001626133918762,-1.7656402587890625,0.9618872481026418,-0.20862499190417352,0.16744939841623654,0.05665045166467827,-0.3923655528337007,0.3835442383760113,0.19478962786590467
1784804898656711168,1.307204246520996,3.9691853523254395,-1.067612886428833,-3.303846836090088,0.32439282536506653,0.3559728264808655,-0.8763861060142517,1.7516112327575684,-0.6195531487464905,-1.2010064125061035,0.9680995154329449,-0.18906236839748183,0.1614383914061124,0.031248884149943493,-0.3639548874882716,0.3545103509483679,0.13043739181086975
1784804898666630912,1.3171241283416748,2.193068742752075,-1.3016538619995117,-2.9891183376312256,0.3028997778892517,0.33894872665405273,-0.8907106518745422,1.582033634185791,-1.1129660606384277,-0.40587443113327026,0.9722588092789384,-0.1756205508418516,0.15427924686836572,0.008259471333796998,-0.34579925165379904,0.32779702662536525,0.07473956506181818
1784804898676550144,1.3270432949066162,1.0442787408828735,-1.5614429712295532,-2.6852657794952393,0.28069496154785156,0.33267727494239807,-0.9002978205680847,1.5634212493896484,-1.2839864492416382,-0.4215863347053528,0.9746676471295019,-0.1686948782443709,0.14626389884139554,-0.013107747684255506,-0.3391411248507043,0.30222889843445816,0.02523652606968593
1784804898686469120,1.3369622230529785,0.4899596571922302,-1.9455006122589111,-1.415671944618225,0.2581503689289093,0.33276256918907166,-0.9069881439208984,1.5521066188812256,-0.9044636487960815,-0.29659461975097656,0.975979794134441,-0.16611607451998947,0.13751867312574026,-0.030943782892086564,-0.33923157802697984,0.27729114860803894,-0.015602672605619377
1784804898696388864,1.3468821048736572,1.6299928426742554,-2.3053197860717773,0.6998676061630249,0.23797407746315002,0.32470256090164185,-0.9153887629508972,1.3921681642532349,-0.9247239232063293,-0.11706668138504028,0.977769978758328,-0.16069195693667188,0.1283888920954891,-0.040747324579674726,-0.3306972212005582,0.2543404226820872,-0.04063312903345187
1784804898706308096,1.3568012714385986,3.3763163089752197,-2.592538356781006,1.4508321285247803,0.21930336952209473,0.29821664094924927,-0.928963303565979,0.8408467769622803,-1.076598048210144,-0.04326564073562622,0.9810584843566528,-0.14657909545228637,0.11846055550889603,-0.044788427789370464,-0.30282374811889623,0.23182877717653605,-0.05571509764916553
1784804898716227072,1.366720199584961,3.4282312393188477,-2.725400924682617,2.0202245712280273,0.19896630942821503,0.2631770074367523,-0.9440075755119324,0.7276999950408936,-1.0556880235671997,-0.06066161394119263,0.9847652459212237,-0.12847101035874686,0.1071980648065955,-0.04733965002547386,-0.2663138307712929,0.20772736726741647,-0.06814639706173545
1784804898726146816,1.3766400814056396,3.6643600463867188,-2.876530408859253,3.009598970413208,0.17874589562416077,0.22466589510440826,-0.9579014182090759,0.9091752767562866,-1.241938829421997,-0.08554035425186157,0.9883309834052448,-0.10917358751991726,0.09555320377118122,-0.046396235931982256,-0.22660015367025815,0.18447987819228673,-0.0727687369256906
1784804898736066048,1.386559247970581,2.7436718940734863,-3.070629596710205,3.3747715950012207,0.15698041021823883,0.1878025233745575,-0.9695810079574585,0.9781972169876099,-1.0807774066925049,0.05797523260116577,0.9918964686754558,-0.09214576203576876,0.08196734659464756,-0.030526845606967647,-0.18892437844037152,0.16051254791938266,-0.04629299230530509
1784804898745986048,1.3964791297912598,1.7668431997299194,-3.395085334777832,3.9480435848236084,0.13204307854175568,0.16131018102169037,-0.9780305027961731,1.1273105144500732,-0.9001560211181641,0.025454819202423096,0.9944186433918932,-0.08028699061216969,0.06737025716138519,-0.01211527787151827,-0.1620180748019728,0.1341977294643099,-0.013454003428602066
1784804898755905024,1.4063982963562012,1.0365285873413086,-3.546922206878662,4.835546493530273,0.10472866892814636,0.1421375423669815,-0.9842910170555115,1.2182083129882812,-0.9119434356689453,-0.19133764505386353,0.996009899312549,-0.07189857034346309,0.05181778231216263,0.010477423495542457,-0.1426205488430942,0.1060012959021456,0.02861689978123494
1784804898765824000,1.4163172245025635,0.3285960257053375,-3.6726696491241455,5.513499736785889,0.07656797766685486,0.13114619255065918,-0.9884017705917358,1.1771703958511353,-1.1157348155975342,-0.38110506534576416,0.9964015028584979,-0.06715127594840735,0.035914216721736225,0.03721464776783039,-0.13152507213913717,0.07731205199470793,0.07975749793150179
1784804898775744000,1.4262371063232422,-0.366291344165802,-3.8351516723632812,5.88928747177124,0.046950601041316986,0.12726645171642303,-0.9907567501068115,1.2852942943572998,-1.421806812286377,-0.752178430557251,0.99545064940695,-0.06521223036259928,0.01920944225472687,0.06675510896727965,-0.12761253621990046,0.047353203219683546,0.13694595503913393
1784804898785663232,1.4361562728881836,-1.3027679920196533,-3.8626203536987305,5.924318790435791,0.016706548631191254,0.1338319629430771,-0.9908632040023804,1.4639300107955933,-1.5069704055786133,-0.8798795938491821,0.9929667674594082,-0.06756598302817783,0.0017982037271735997,0.09720450611582845,-0.13423472989505575,0.01685900345793302,0.19629746660166522
1784804898795581952,1.446075201034546,-1.4496175050735474,-3.6748552322387695,6.256514549255371,-0.011989535763859749,0.14750199019908905,-0.9889891147613525,1.6441917419433594,-1.3447675704956055,-0.633798360824585,0.9889575844869549,-0.0725670785373863,-0.015475022730965852,0.12828645249343362,-0.14804216526690436,-0.012122427761634138,0.2570980818384717
1784804898805501952,1.4559950828552246,-1.3573871850967407,-3.5275261402130127,6.784026622772217,-0.037020161747932434,0.16288015246391296,-0.9859510660171509,1.7341485023498535,-1.0460894107818604,0.009937942028045654,0.9833346093831263,-0.07764193604229215,-0.03156235069740754,0.161333824628284,-0.16360909183436598,-0.03753003584582506,0.32216118103201025
1784804898815421184,1.465914249420166,-1.0988950729370117,-3.4044952392578125,7.193784236907959,-0.059027187526226044,0.1780998855829239,-0.9822403788566589,1.7086701393127441,-1.0356743335723877,0.3607652187347412,0.9759624640398838,-0.08183628427303707,-0.04671850480017949,0.19651324060456965,-0.17905513364399156,-0.060022255854233424,0.39200323503926693
1784804898825340160,1.4758331775665283,-1.251744270324707,-3.266570568084717,7.376623153686523,-0.07792474329471588,0.19409407675266266,-0.9778830409049988,1.5597972869873047,-1.2295860052108765,0.5230795741081238,0.9668355617587513,-0.08570799540427981,-0.06093129881271481,0.23274577695956614,-0.19533388446732322,-0.07951915119398664,0.46467393550426034
1784804898835260160,1.4857532978057861,-1.5956330299377441,-3.1878907680511475,7.467389106750488,-0.09403742104768753,0.21403281390666962,-0.972289502620697,1.447217345237732,-1.4883400201797485,0.512175977230072,0.9558911430152456,-0.09090257849038094,-0.07477939365708777,0.2691040372233509,-0.21570159017993057,-0.09641761356013173,0.5383911424368062
1784804898845179136,1.4956722259521484,-2.3604648113250732,-3.1411373615264893,7.520833492279053,-0.10759273916482925,0.24006152153015137,-0.9647768139839172,1.3935881853103638,-1.6536052227020264,0.40896016359329224,0.9430273117630206,-0.09851382335585171,-0.08891921580777754,0.3051031527381452,-0.2424292218522111,-0.1110619585214971,0.612271786746928
1784804898855098880,1.5055921077728271,-3.5936813354492188,-2.9866838455200195,7.549808979034424,-0.11754808574914932,0.27662980556488037,-0.9537601470947266,1.3990727663040161,-1.7130922079086304,0.26619911193847656,0.9279661230436153,-0.11091904474416561,-0.10400429599459655,0.3402339146558181,-0.2802852822582641,-0.12262860190880542,0.6855309093406088
1784804898865018112,1.5155112743377686,-4.551482677459717,-2.9378821849823,7.657484531402588,-0.12260899692773819,0.3241361379623413,-0.9380313754081726,1.40623939037323,-1.7510160207748413,0.3851596713066101,0.9104242893766239,-0.12858502791974188,-0.12020904967145216,0.3743572663996436,-0.33009841100101805,-0.12997200938479522,0.7585525905291212
1784804898874937088,1.5254302024841309,-4.791580677032471,-2.9128153324127197,7.682496070861816,-0.12293363362550735,0.37670665979385376,-0.9181391000747681,1.2941830158233643,-1.716428279876709,0.6707483530044556,0.8904264972715173,-0.14874358672422178,-0.13713420584021155,0.4076889309074627,-0.38623846663764866,-0.1331027026471891,0.8326727963980998
1784804898884856832,1.5353500843048096,-4.858813285827637,-2.814455270767212,7.541431427001953,-0.11825302243232727,0.4290964901447296,-0.895484447479248,1.0966770648956299,-1.6190073490142822,0.988227367401123,0.8685692909960312,-0.1691942546235089,-0.15372402117107795,0.4396925369136566,-0.44349224663516323,-0.13129512704496907,0.9075908518616035
1784804898894776064,1.545269250869751,-4.8240580558776855,-2.6562037467956543,7.477293014526367,-0.1084049791097641,0.4797746539115906,-0.8706691265106201,0.9778813123703003,-1.6023638248443604,1.2414577007293701,0.8451670353620189,-0.18951755382505478,-0.1695539621826032,0.4701354960030815,-0.5003978540761529,-0.12387020907542473,0.9835852600999823
1784804898904695040,1.5551881790161133,-5.137173652648926,-2.5652952194213867,7.436138153076172,-0.09331563860177994,0.5291523933410645,-0.8433800935745239,0.9131703972816467,-1.5603718757629395,1.4825555086135864,0.8200673547857082,-0.2101353658401707,-0.18480553487377072,0.49917903088039267,-0.5576013494337465,-0.1101965907338296,1.0620175412390895
1784804898914615040,1.565108299255371,-5.674520969390869,-2.5097391605377197,7.402317523956299,-0.07341539859771729,0.5793107748031616,-0.8117938041687012,0.8240867853164673,-1.5948596000671387,1.6349749565124512,0.7929182489975901,-0.23219786531137995,-0.20046759162327787,0.5264764670393994,-0.6178828886430795,-0.09019067427999211,1.1434682054809127
1784804898924534016,1.5750272274017334,-6.611866474151611,-2.6121466159820557,7.284282684326172,-0.04958920180797577,0.6315404176712036,-0.7737555503845215,0.7890758514404297,-1.8362675905227661,1.5400519371032715,0.7632519939717585,-0.256330842175769,-0.21775381715598227,0.5516559481318203,-0.683538379983815,-0.06400144780036268,1.228916624427003
1784804898934452992,1.5849461555480957,-8.015767097473145,-2.5587093830108643,7.174994945526123,-0.022025084123015404,0.6875515580177307,-0.7258015275001526,0.7382421493530273,-2.2206172943115234,1.4598407745361328,0.7306178174166875,-0.2837534737973554,-0.23787224327998585,0.5736710621031983,-0.7581117309383849,-0.03033656899681386,1.3192011104475
1784804898944373248,1.5948662757873535,-9.242053985595703,-2.4624621868133545,7.310997009277344,0.00956216175109148,0.7440825700759888,-0.6680192351341248,0.6169942021369934,-2.5599241256713867,1.635106086730957,0.6948838557845477,-0.31337603720871166,-0.26035713518520953,0.592575784163456,-0.8391605637416822,0.014313223929460783,1.4185842478450987
1784804898954291968,1.6047852039337158,-9.63379955291748,-2.2818121910095215,7.485281467437744,0.05121034383773804,0.8009483218193054,-0.5965393781661987,0.44145017862319946,-2.735244035720825,1.9623689651489258,0.6542093047713899,-0.3477206313532706,-0.28428974552058117,0.6085062249964335,-0.9288773953321661,0.08563574976442716,1.5413614932349124
1784804898964211968,1.6147050857543945,-9.333145141601562,-2.1761319637298584,7.45358419418335,0.0998864471912384,0.8480648398399353,-0.5203927755355835,0.333829402923584,-2.6269803047180176,2.2181010246276855,0.6109814416516182,-0.38166614326169096,-0.3068135689447061,0.6220112136876195,-1.012322529333724,0.18963787097983967,1.6940272922444846
1784804898974131712,1.6246249675750732,-8.6414213180542,-2.19909930229187,7.531398296356201,0.15362122654914856,0.8816264271736145,-0.44624587893486023,0.38296931982040405,-2.4955179691314697,2.18701434135437,0.5666230902840107,-0.4127641775411004,-0.32634766451310226,0.6340829752325563,-1.079297378614916,0.3315453533591027,1.8827975659212923
1784804898984050688,1.6345438957214355,-8.354479789733887,-2.3653321266174316,7.599948883056641,0.21132422983646393,0.9024057388305664,-0.3755076825618744,0.4614815413951874,-2.5914621353149414,2.0991556644439697,0.5209158743167019,-0.44088672257579825,-0.34331480773350814,0.6452910359583954,-1.1253204563343695,0.5125940867092474,2.1108734605176585
1784804898993970944,1.6444640159606934,-9.010507583618164,-2.493663787841797,7.647441864013672,0.2721199095249176,0.9129939079284668,-0.30396220088005066,0.5404564142227173,-2.975707530975342,1.761359691619873,0.47271796468909494,-0.46759172500683793,-0.35968998411026676,0.6546135433546962,-1.1505632772189962,0.7301805104730203,2.3766527055666185
1784804899003889920,1.6543829441070557,-10.275508880615234,-2.3510639667510986,7.481626033782959,0.3339526951313019,0.9156259298324585,-0.22384075820446014,0.48069876432418823,-3.2659220695495605,1.6146336793899536,0.4207211904253562,-0.494719952931603,-0.3785918542528487,0.6594801073240972,-1.1570620853766962,0.9802985581281694,2.6764794112343684
1784804899013808640,1.664301872253418,-11.790933609008789,-2.353566884994507,7.447581768035889,0.39751970767974854,0.9080069065093994,-0.13229288160800934,0.540636420249939,-3.0827505588531494,1.8116904497146606,0.36389452359350255,-0.5230247552403257,-0.4003731605277133,0.6585796481407302,-1.1385019960562304,1.2495296687562742,2.9966865241981013
1784804899023728896,1.6742219924926758,-12.235747337341309,-2.5500991344451904,7.1853485107421875,0.4608311355113983,0.8867947459220886,-0.03506369888782501,0.4531397521495819,-2.598876953125,1.921401023864746,0.30274444975393466,-0.5499250605586988,-0.42432367236957536,0.6525929167854475,-1.090363059580709,1.4948546983163893,-2.986141713272886
1784804899033647872,1.684140920639038,-10.318466186523438,-1.7033865451812744,7.917800426483154,0.524061381816864,0.8500309586524963,0.05298139527440071,1.2215135097503662,-1.690774917602539,2.300412178039551,0.2412871889015375,-0.5731908056425521,-0.444907853983003,0.6444298287124722,-1.0160441076985176,1.671551686367971,-2.7540726526058386
1784804899043566848,1.6940600872039795,-5.630438327789307,-12.500975608825684,9.938427925109863,0.6030583381652832,0.7943733334541321,0.07274232059717178,6.056869029998779,0.9105215668678284,1.480495572090149,0.17555026092959392,-0.5782586223002929,-0.4494308893758859,0.6578836353658759,-0.9179752550576694,1.6908387260274789,-2.6461380082248893
1784804899053486848,1.7039799690246582,2.2746827602386475,-13.76943588256836,2.3060224056243896,0.6534004211425781,0.7569394707679749,0.0105034951120615,4.045513153076172,2.2953217029571533,5.099420547485352,0.1195850559689741,-0.5491872341898696,-0.4512705723933038,0.6931432396435735,-0.858616920241615,1.5868700707820027,-2.61243203630437
1784804899063405824,1.7138988971710205,1.171856164932251,-6.791792869567871,5.231130123138428,0.6817261576652527,0.7280265092849731,-0.0722985491156578,-3.6689393520355225,2.9082956314086914,5.052980899810791,0.08688247968818716,-0.521217924836232,-0.4383863584301646,0.7270493969530838,-0.8154387985599945,1.4651390699941123,-2.6382917454017205
1784804899073325824,1.7238190174102783,3.9306983947753906,11.862059593200684,-3.0639801025390625,0.6860945820808411,0.7232958674430847,-0.07821580022573471,-3.7532942295074463,1.254167079925537,6.951918601989746,0.09602528776437212,-0.5276176939400615,-0.4272138437220086,0.7279335324566263,-0.8085633314549487,1.4572848891176593,-2.6743915513136134
1784804899083244800,1.7337379455566406,0.8285170793533325,11.275025367736816,-0.01645672507584095,0.6802976131439209,0.7328882217407227,-0.008357202634215355,1.4194796085357666,-1.0230188369750977,3.7023727893829346,0.13516994513014494,-0.5685288084592561,-0.41544722008388824,0.6970707351248003,-0.8225574948340694,1.5585123178780234,-2.711068974784929
1784804899093163776,1.743656873703003,-3.0392658710479736,7.149662971496582,-0.15879938006401062,0.6782879829406738,0.7325013875961304,0.05802670121192932,2.623042583465576,-0.5184664130210876,1.430742859840393,0.15063033160283248,-0.5992575680797836,-0.412193786399319,0.6695499382763646,-0.8219890885922864,1.6561373096712084,-2.697779407356296
1784804899103083776,1.7535769939422607,-8.508570671081543,7.252315998077393,-1.2482413053512573,0.66482013463974,0.7323177456855774,0.14739352464675903,3.6370444297790527,0.39686310291290283,2.0034091472625732,0.1500938092745085,-0.6243971148504102,-0.42874818303294787,0.6354329771624003,-0.821719388537573,1.7889717256237638,-2.6108782924775062
1784804899113002752,1.763495922088623,-10.426248550415039,6.495798110961914,-1.5580594539642334,0.6400548815727234,0.7221270799636841,0.2624158561229706,3.6633965969085693,0.9735820889472961,1.5903825759887695,0.13931264000731444,-0.6493221239046617,-0.457808597820812,0.5910871407860651,-0.8068723258050625,1.9598846904986922,-2.471103384341737
1784804899122921984,1.7734150886535645,-9.47335433959961,2.0679755210876465,-1.4699690341949463,0.6134047508239746,0.7009639143943787,0.36384621262550354,3.844770908355713,1.0757694244384766,1.2035671472549438,0.12227393718755368,-0.665611319873092,-0.488758305321227,0.5505687182616602,-0.776748122196366,2.106170108849922,-2.3327174807747713
1784804899132841728,1.7833349704742432,-7.310121536254883,0.1769321858882904,1.943015217781067,0.6143440008163452,0.664997935295105,0.42468738555908203,2.9274957180023193,0.9465133547782898,1.2553815841674805,0.09426209873108944,-0.6727648453095282,-0.5096382524555424,0.527987715073776,-0.727491040178889,2.1756499536975094,-2.2390664608744633
1784804899142760704,1.7932538986206055,-6.166769981384277,-0.09119433909654617,1.5152692794799805,0.6263970136642456,0.6239897608757019,0.4671868085861206,-0.10019773244857788,1.8509705066680908,0.1599036157131195,0.06767608088074868,-0.6808206447236241,-0.5196889916020958,0.5116898757249974,-0.6738380300979175,2.2116244145773707,-2.185533790259519
1784804899152680960,1.8031740188598633,-5.733343124389648,-0.7146043181419373,-1.0494340658187866,0.6302170753479004,0.594965934753418,0.4988405406475067,-1.2264389991760254,1.8803911209106445,-0.4377138912677765,0.045429890049020275,-0.6808233559844435,-0.5346960132567272,0.498513623650891,-0.6372232899511803,2.240355952754649,-2.126589103324167
1784804899162599680,1.8130929470062256,-6.028497695922852,0.735795259475708,-1.6906923055648804,0.6223048567771912,0.5741785168647766,0.5320298075675964,-0.8762568831443787,1.7198584079742432,0.5287458896636963,0.029274410217517522,-0.6779882976410382,-0.5534860290629633,0.48283342566736037,-0.6116004432953746,2.2781480900130022,-2.0611796550041723
1784804899172518656,1.823011875152588,-6.064187526702881,1.2092112302780151,-3.3624560832977295,0.6022014617919922,0.5569077730178833,0.5720202922821045,-0.7293834686279297,1.0925673246383667,0.2099621295928955,0.018122870236608527,-0.6739840283535538,-0.5759823477963718,0.4622352740117982,-0.5906581270157063,2.330496990798588,-1.9870499911575723
1784804899182438912,1.8329319953918457,-5.695132255554199,2.422686815261841,-2.799201488494873,0.5737015604972839,0.5405662655830383,0.6153488755226135,0.8214094042778015,0.5858832001686096,0.29686713218688965,0.01082908203238312,-0.6691093671522527,-0.5999725851639305,0.4384155319399825,-0.5711100646794908,2.391205875627697,-1.9098734796812935
1784804899192357888,1.842850923538208,-6.2006378173828125,2.079097032546997,-2.3078386783599854,0.5453435778617859,0.5195040702819824,0.6578113436698914,0.6138665676116943,0.4493831992149353,0.04079693555831909,0.004987581537867564,-0.6667321021260174,-0.6199790215209747,0.4136053636278209,-0.5462704387858197,2.4494010536767203,-1.8447920924818768
1784804899202276864,1.8527700901031494,-8.991541862487793,1.8021060228347778,-3.202829360961914,0.5181922912597656,0.4809970557689667,0.7071905732154846,0.2572135329246521,1.2855587005615234,0.4848260283470154,-0.00869006903078334,-0.6626979649510456,-0.6437598104468576,0.38252995808797435,-0.501791599144716,2.509224738979531,-1.7670941290781084
1784804899212196864,1.8626899719238281,-7.915771961212158,0.6431617140769958,-3.4450318813323975,0.4940510392189026,0.43751662969589233,0.7513269782066345,0.8074014782905579,1.2488540410995483,-0.08515900373458862,-0.02677089681970222,-0.6514329814137436,-0.671787588148574,0.35159590807383695,-0.4528351041411437,2.5599133109444927,-1.6777261188165355
1784804899222115840,1.8726089000701904,-7.319211959838867,0.8177766799926758,-1.1230655908584595,0.4789351522922516,0.39010894298553467,0.7864072322845459,1.3114701509475708,1.5556004047393799,0.22042882442474365,-0.04471457735531645,-0.6442120655890619,-0.6915160293782281,0.32372371953070733,-0.4007499058887897,2.594569570588431,-1.6138306859965594
1784804899232035840,1.8825290203094482,-7.1559319496154785,0.07431739568710327,-1.5511218309402466,0.47142666578292847,0.3385518789291382,0.8143338561058044,0.4425443410873413,1.6385294198989868,0.18032562732696533,-0.06468403406141712,-0.6380463965627997,-0.7071518496710677,0.2977399497919643,-0.345377471955412,2.616824278298751,-1.5617676092293575
1784804899241954816,1.8924479484558105,-6.407060146331787,0.41584035754203796,-1.6900975704193115,0.4652906656265259,0.29021409153938293,0.8362296223640442,0.039668381214141846,0.9322742223739624,-0.14224481582641602,-0.08344458256438814,-0.6297978485275898,-0.722128448455547,0.2737189926170714,-0.2944505650848176,2.633837682553411,-1.511338683072544
1784804899251873792,1.9023668766021729,-4.372594833374023,1.5739526748657227,-1.5331263542175293,0.4511392414569855,0.25233572721481323,0.8560374975204468,-0.287305623292923,-0.020173251628875732,-0.21858632564544678,-0.09405260217604082,-0.6225495217892715,-0.735153617613383,0.2512675772435189,-0.25509334264162764,2.6565722447386304,-1.4687286012742453
1784804899261793792,1.9122869968414307,-2.570683717727661,1.0021544694900513,-0.3902071416378021,0.4370766580104828,0.22815066576004028,0.8700063824653625,0.15926730632781982,-0.3927167057991028,-0.3698539137840271,-0.09796983699746843,-0.6194348020188507,-0.7424982981127182,0.2353692373771008,-0.23017782606409845,2.6760402361107416,-1.4453644870821547
1784804899271712768,1.922205924987793,-2.1611568927764893,0.7456479072570801,-0.3189053237438202,0.42949584126472473,0.20897561311721802,0.8785571455955505,-0.25043395161628723,0.18283958733081818,-0.14183223247528076,-0.10211567152660958,-0.6174118518039513,-0.7470483162385165,0.22426291176023314,-0.21052732351588394,2.6868926662459756,-1.4302227771187068
1784804899281632000,1.9321250915527344,-1.0176798105239868,0.35024887323379517,0.1311209499835968,0.42176228761672974,0.1951323002576828,0.8854604959487915,-0.15065932273864746,0.5648927688598633,-0.35227251052856445,-0.10375214123828212,-0.6173235837124084,-0.749427670797872,0.21565095232712586,-0.19639233582700455,2.6970680950491106,-1.4226037001358212
1784804899291551744,1.942044973373413,0.5466686487197876,-0.0013763010501861572,0.2165132761001587,0.4209222197532654,0.19249123334884644,0.8864375948905945,-0.23336121439933777,0.6333144307136536,-0.329049289226532,-0.10397873701213273,-0.6184524932307368,-0.7488226186262663,0.2144052830978048,-0.19370022741128287,2.6982691694450263,-1.4244537207114873
1784804899301470720,1.9519639015197754,1.5972076654434204,0.02292584255337715,0.300769567489624,0.4210743308067322,0.20077300071716309,0.8845260739326477,-0.42139488458633423,0.9794180393218994,-0.053196847438812256,-0.10117929543687597,-0.6188123765446043,-0.7478865478121111,0.21794415172787568,-0.20214692215805877,2.6972919241892988,-1.4282790292046805
1784804899311389952,1.9618830680847168,1.8521380424499512,-0.7719964981079102,-1.5226166248321533,0.42180654406547546,0.2197428047657013,0.8796548247337341,-1.0424730777740479,1.1409902572631836,-0.11850059032440186,-0.09517216807184116,-0.6186463482913128,-0.7463940615870208,0.22608609372047053,-0.2215508258598699,2.6944679654107078,-1.434738086873355
1784804899321309696,1.9718029499053955,3.5979652404785156,-1.1210576295852661,-1.3671274185180664,0.4276600480079651,0.24769559502601624,0.8693410754203796,-0.8971119523048401,0.25215181708335876,0.04174602031707764,-0.09032757772689622,-0.6113717513261036,-0.7489293231919986,0.23910337154035813,-0.25030100307986003,2.684417165325732,-1.4277585871261864
1784804899331228672,1.9817218780517578,4.7326979637146,-0.029006483033299446,-0.08578476309776306,0.4318113327026367,0.28835925459861755,0.8546276688575745,-0.5322750806808472,-0.7999405860900879,0.24264734983444214,-0.07808367088353085,-0.6116165539559071,-0.7438003883384178,0.2580489292019624,-0.29251286379203234,2.6737438956618984,-1.4465404306337255
1784804899341148928,1.9916419982910156,2.0793116092681885,-1.0496834516525269,-0.8224745392799377,0.4353347718715668,0.31724563241004944,0.8425191640853882,-0.7139908075332642,0.009994328022003174,0.8929390907287598,-0.07020343021467845,-0.609607860638639,-0.7413756439817296,0.27168329266724667,-0.322823665491366,2.664669690422749,-1.4554634049757862
1784804899351067904,2.001560926437378,1.3091436624526978,1.8937082290649414,-1.235230803489685,0.4287160038948059,0.33571359515190125,0.8387488722801208,-0.7724659442901611,0.004206568002700806,0.8425257802009583,-0.061920662891694137,-0.6078401988302644,-0.7415556066368665,0.27711294645569884,-0.34236267499708134,2.6690747800669334,-1.4564480487963303
1784804899360986880,2.0114800930023193,1.82283353805542,0.9751427173614502,-1.4979453086853027,0.4088152050971985,0.3517926037311554,0.8420879244804382,-0.4788530766963959,0.17687863111495972,0.5942371487617493,-0.04988051714360568,-0.6047759951377251,-0.7451778002838986,0.27652841287897506,-0.35948541700267705,2.6896299503726118,-1.4470335661323788
1784804899370906880,2.021399974822998,1.2822766304016113,-0.3268071413040161,-0.9540846943855286,0.403059184551239,0.3711853325366974,0.8365195393562317,0.671708881855011,-0.4617767632007599,0.5626046657562256,-0.04237038199912858,-0.6009027075868842,-0.7464420269560252,0.28274553215914305,-0.3802852347500085,2.6925874133265113,-1.4434363297569306
1784804899380825856,2.0313189029693604,1.0477299690246582,1.1090329885482788,1.623472809791565,0.40093526244163513,0.37762123346328735,0.8346577286720276,1.040776252746582,-0.8481564521789551,0.8720532655715942,-0.038502464366599966,-0.6030013020404769,-0.7441224918576651,0.2849364900524712,-0.38722596956150873,2.693781034493856,-1.4512830867920623
1784804899390744832,2.0412380695343018,-0.7119856476783752,3.1385104656219482,-0.9292588233947754,0.3833700120449066,0.37776389718055725,0.8428062200546265,0.38875532150268555,0.1695842146873474,1.114072561264038,-0.02970017745723738,-0.6085085946706684,-0.742374846894376,0.278773938899295,-0.3873800460613463,2.7146935390780786,-1.458230722097737
1784804899400664832,2.0511579513549805,-0.9520397782325745,4.022401332855225,-2.126356840133667,0.3461070656776428,0.3763273060321808,0.8594112396240234,0.38028764724731445,0.4272616505622864,0.6534060835838318,-0.016802575357894176,-0.6064207127722335,-0.749639615117913,0.2645979119219568,-0.3858289684270706,2.7587386888786205,-1.4360277015339433
1784804899410583808,2.0610768795013428,0.9765456318855286,0.5357267260551453,-0.843389093875885,0.31913337111473083,0.3821169435977936,0.8672605156898499,1.4108166694641113,-0.036276429891586304,-0.16837739944458008,-0.005291415346516486,-0.6040166051771609,-0.754184465633423,0.2575690481428811,-0.39208599735791405,2.7889918418881634,-1.4212927593125866
1784804899420503808,2.0709969997406006,1.8153598308563232,1.3840739727020264,-0.4851139783859253,0.3074128031730652,0.3963928818702698,0.8650841116905212,1.561376929283142,-0.3037872016429901,0.5322090983390808,0.0038792133159295528,-0.6031314448535892,-0.7541714112324618,0.2596979455281593,-0.4075845231894992,2.800154353726638,-1.4203748972233659
1784804899430422784,2.080915927886963,2.2519707679748535,1.4135935306549072,0.35050085186958313,0.2925820052623749,0.4143548905849457,0.8618041276931763,1.3452202081680298,-0.052172183990478516,0.14463526010513306,0.016420792977579122,-0.604672578486553,-0.7518464789360773,0.2623517601584686,-0.4272338780512805,2.8143029200202347,-1.4262621850447355
1784804899440342016,2.0908350944519043,1.1848257780075073,0.332192987203598,0.06401155143976212,0.2841050624847412,0.42994943261146545,0.8569878339767456,0.9219038486480713,0.22108212113380432,0.052863359451293945,0.025983538045925098,-0.6068259811171971,-0.7485026087478414,0.26614099727732204,-0.4444367686740029,2.8214787304365387,-1.4354083148618393
1784804899450261760,2.100754976272583,0.762239396572113,-0.5200859308242798,-2.0624918937683105,0.28115662932395935,0.4394686222076416,0.8531228303909302,0.7163867354393005,0.09143048524856567,-0.18825149536132812,0.029132558966597215,-0.6029081378163986,-0.7503753709314618,0.26942522877343084,-0.45500702681722527,2.823240398081965,-1.4280099296338322
1784804899460180736,2.1106739044189453,3.004190683364868,0.10663896799087524,-1.45424222946167,0.27273687720298767,0.4611987769603729,0.8443402051925659,0.29933038353919983,-0.14564701914787292,-0.7716015577316284,0.03721168820610673,-0.5946958412566129,-0.7539940066161661,0.2764872710245294,-0.4793457529718988,2.829154669370269,-1.4125989443553042
1784804899470099968,2.1205930709838867,3.560943126678467,-0.16234217584133148,0.3752075135707855,0.2706510126590729,0.4910869598388672,0.8279982209205627,0.011148244142532349,0.22786125540733337,-0.49320536851882935,0.04809763070712398,-0.592530514963708,-0.7502710858110881,0.2892876650208792,-0.5133371113982146,2.825666804793084,-1.4204905591976233
1784804899480019712,2.1305129528045654,3.265850305557251,-0.18114915490150452,-0.9161449074745178,0.2701551914215088,0.519664466381073,0.810533881187439,-0.2157880961894989,0.012119650840759277,0.029783010482788086,0.05815292970081562,-0.5904628583926619,-0.7460700789631113,0.3022438277457338,-0.5464581503086288,2.8198673931343166,-1.429870696205681
1784804899489938688,2.1404318809509277,2.494180917739868,0.14741568267345428,-0.618766725063324,0.26560550928115845,0.5448218584060669,0.7953763008117676,0.25629088282585144,-0.09555715322494507,0.25572556257247925,0.06759906784584077,-0.585795173904532,-0.7446691662767964,0.31263777201021864,-0.5761766307532737,2.8192989704864586,-1.429364109832229
1784804899499857920,2.150351047515869,2.493415355682373,0.41788285970687866,-0.1786804497241974,0.2596314549446106,0.5661289691925049,0.7823612689971924,0.03483262658119202,-0.13081109523773193,0.054186463356018066,0.07748944762637526,-0.5840837173455588,-0.7416379383174452,0.3206472603742664,-0.6018022242557334,2.821172072301666,-1.4344273853133573
1784804899509777664,2.160270929336548,0.9172033667564392,0.07761795818805695,-0.7283073663711548,0.2559494376182556,0.5805374383926392,0.7729595899581909,0.10041961073875427,-0.2831283211708069,0.16531872749328613,0.0834880566498062,-0.5814597110846866,-0.7405298121346628,0.3264200526032756,-0.6193885955519838,2.8218272034276946,-1.4344066192560616
1784804899519696896,2.1701900959014893,0.6716403961181641,-0.6130446791648865,-0.10613787174224854,0.25651392340660095,0.5874915719032288,0.7674987316131592,0.37803807854652405,-0.7105842232704163,-0.04262995719909668,0.08493763111946721,-0.5789330040194778,-0.7406658822568952,0.3302063679372828,-0.6279555766168587,2.8190437400002417,-1.432445746097254
1784804899529616896,2.180109977722168,-0.32604432106018066,0.27499398589134216,-0.06647801399230957,0.2590675950050354,0.5898241400718689,0.7648473978042603,0.1579703688621521,-0.3202928900718689,0.06483399868011475,0.0847499335813786,-0.5786208143302265,-0.7400146380840306,0.332255569459777,-0.6308410253683161,2.8150037480015015,-1.4346434667356682
1784804899539535872,2.1900289058685303,-0.44520559906959534,0.17388439178466797,-0.48604094982147217,0.25270792841911316,0.5866430401802063,0.769408106803894,0.08310753107070923,0.06383919715881348,-0.03143191337585449,0.08535955592279248,-0.5773298130723713,-0.742559326725791,0.3286483618588729,-0.6269074084444324,2.8242484174445566,-1.4253663999413584
1784804899549454848,2.1999480724334717,-0.18322020769119263,-0.04333173856139183,-0.35503679513931274,0.2516583800315857,0.5855582356452942,0.770577609539032,0.4978380799293518,-0.036409616470336914,-0.25853824615478516,0.08507896605329399,-0.5767523577015072,-0.7434013272020341,0.32783049569649175,-0.6255685355533387,2.825928672087504,-1.4225070002320328
1784804899559374848,2.2098679542541504,-0.5608918070793152,-0.5044849514961243,-0.11505746096372604,0.2518332004547119,0.5838896632194519,0.7717860341072083,0.25419408082962036,0.2162967324256897,-0.1781730055809021,0.08378433755931793,-0.575473003214297,-0.7447978497216504,0.3272421019590066,-0.6235117092392263,2.826186077500535,-1.4180949295941485
1784804899569293824,2.2197868824005127,-0.5354967713356018,-0.47539058327674866,-0.5765541195869446,0.2519156336784363,0.5800744891166687,0.7746305465698242,0.007605880498886108,0.23576724529266357,-0.16295135021209717,0.0813756310391954,-0.5734845649822153,-0.7472822200044563,0.3256729050951299,-0.6188201228857311,2.8271731037230574,-1.410385421628746
1784804899579212800,2.229706048965454,-0.4978569746017456,-0.7692989110946655,-0.3047124743461609,0.2524670362472534,0.5778396129608154,0.7761197090148926,0.17381775379180908,0.02912449836730957,-0.20611238479614258,0.0792573275519048,-0.5711212063824581,-0.7495868426159467,0.3250514287102122,-0.6160791770719299,2.8270949395569933,-1.4029764197016326
1784804899589132800,2.239625930786133,-0.925273060798645,-0.432158499956131,-0.39569956064224243,0.25559478998184204,0.5734571814537048,0.7783430814743042,0.10402435064315796,-0.2298750877380371,-0.12911224365234375,0.07548662191657074,-0.5691765226738973,-0.7518042453809692,0.32423782126663414,-0.610719644655641,2.824303820044967,-1.3968123466291091
1784804899599052032,2.249545097351074,-1.2122104167938232,-0.311563104391098,-0.2620794475078583,0.2547902464866638,0.5659364461898804,0.7840904593467712,0.1516428291797638,-0.40878623723983765,-0.03705066442489624,0.072138541297403,-0.5673591178128541,-0.7550820188711869,0.320547651528544,-0.6015686659422897,2.8274059278950014,-1.3869670555766858
1784804899608971776,2.259464979171753,-1.234723448753357,-0.1227044016122818,0.09832888096570969,0.25574934482574463,0.5563329458236694,0.7906238436698914,0.24191609025001526,-0.27702075242996216,0.026926875114440918,0.06802124056573747,-0.5671238412031516,-0.7574182951971563,0.3163245704272586,-0.5899662377756478,2.8287380527200368,-1.3811829093979167
1784804899618890752,2.2693839073181152,-1.4978171586990356,-0.35368382930755615,0.02554841712117195,0.26028892397880554,0.5457518100738525,0.796495258808136,0.22866371273994446,0.10338759422302246,0.02099442481994629,0.062491095500202674,-0.5676742664450471,-0.7589423918942082,0.31280545263423765,-0.5772860582405701,2.8257400672709685,-1.3789200728473239
1784804899628809984,2.2793030738830566,-1.0249851942062378,-0.35753437876701355,-0.47864970564842224,0.26063910126686096,0.5359892249107361,0.8029837608337402,0.18841180205345154,0.15527969598770142,0.029947757720947266,0.05826189682118107,-0.5665022626972837,-0.7619495212938323,0.30840508175151987,-0.5656790395206244,2.8277332057613123,-1.3705529132710221
1784804899638729728,2.2892229557037354,-1.0674190521240234,-0.42632222175598145,-0.10253677517175674,0.26318198442459106,0.5289609432220459,0.8068059086799622,0.24389806389808655,-0.0065915584564208984,-0.08459210395812988,0.05400821007720939,-0.5648250737637175,-0.7644446279376236,0.30607225355667855,-0.5573757503225417,2.8262736416456824,-1.3635953466100874
1784804899648648704,2.2991418838500977,-0.9723223447799683,-0.31573790311813354,-0.2017098367214203,0.26425960659980774,0.521210789680481,0.8114838004112244,0.14536252617835999,-0.141495943069458,-0.05412912368774414,0.05048086016739888,-0.5640819598312768,-0.7665203402512062,0.30283614405093884,-0.5482691016965091,2.8267730683056307,-1.3580422047327156
1784804899658567936,2.309061050415039,-1.246691346168518,-0.4187926650047302,0.07781661301851273,0.2667209804058075,0.5124914050102234,0.8162184357643127,0.2306545078754425,-0.1766759753227234,-0.17864525318145752,0.04616282067298991,-0.5635356863885417,-0.7684638956076815,0.2995993977501904,-0.5380837148995374,2.8257548422883354,-1.3532499050487639
1784804899668487680,2.3189809322357178,-1.156450867652893,0.1136942058801651,-0.060249213129282,0.26731550693511963,0.5024508237838745,0.8222442865371704,0.011676192283630371,-0.1912935972213745,-0.1687713861465454,0.042445192614623775,-0.5637394235962925,-0.7702726813592624,0.29508690275100447,-0.5264310541755854,2.8272660428905465,-1.3489464213686027
1784804899678406912,2.328900098800659,-1.293143391609192,-0.6089204549789429,0.37522849440574646,0.2700267732143402,0.49286845326423645,0.8271436095237732,0.1682819426059723,-0.09166902303695679,-0.29336047172546387,0.038111970991908266,-0.564043491792749,-0.771638996841834,0.29150601801828807,-0.5153833516969064,2.8260435577111847,-1.3462294236231662
1784804899688326912,2.338819980621338,-0.982378363609314,-0.5066928863525391,-0.31881245970726013,0.2750709354877472,0.4825764298439026,0.8315386176109314,0.23997429013252258,0.08790403604507446,-0.16672831773757935,0.03242730871745047,-0.5638159516873936,-0.7732275686879175,0.28840821223767527,-0.5035939567419678,2.8221260471154426,-1.3429187981875848
1784804899698245888,2.3487389087677,-0.9787500500679016,-0.6465652585029602,-0.49210304021835327,0.27695581316947937,0.4766504168510437,0.8343260884284973,0.1532810628414154,0.007144808769226074,-0.23039841651916504,0.028592360665783762,-0.5610177352612065,-0.776158585238331,0.2863904216401623,-0.4968404813767851,2.8210862647951767,-1.333703675919717
1784804899708164864,2.3586580753326416,-1.0570746660232544,-0.7628718614578247,0.17551910877227783,0.28267428278923035,0.4681958258152008,0.8371902704238892,0.10090109705924988,-0.26343822479248047,-0.09633046388626099,0.022883667355444698,-0.5595832370193733,-0.778114213472462,0.2843960353532907,-0.487247885661479,2.8159653553299377,-1.3285457941786822
1784804899718084864,2.3685779571533203,-1.2192156314849854,-0.38542312383651733,0.3655018210411072,0.287982314825058,0.45834746956825256,0.8408231139183044,-0.002200514078140259,-0.4405405819416046,-0.014315664768218994,0.017594504203545126,-0.5600699687105392,-0.7789307913235441,0.2815649194451727,-0.476134975514968,2.811614485357582,-1.3275261864564747
1784804899728003840,2.3784968852996826,-2.1271605491638184,-0.3318374454975128,-0.32241541147232056,0.2900427281856537,0.4438174366950989,0.8478806018829346,0.1792718768119812,-0.2183840274810791,0.07780921459197998,0.011871257969383188,-0.5599887949412928,-0.7812508233844144,0.27553372122873915,-0.4598541757358459,2.811991139641915,-1.3216203330756866
1784804899737922816,2.388416051864624,-1.913753628730774,-0.5841194987297058,-0.007024439983069897,0.2925269603729248,0.42702716588974,0.855614423751831,0.3436882495880127,-0.2789100408554077,-0.1805349588394165,0.00494720494432034,-0.5589025183623828,-0.7844967663390734,0.26864174929058265,-0.44120256317517564,2.812159963871583,-1.3125617256101827
1784804899747842816,2.3983359336853027,-1.9413329362869263,-0.46856388449668884,-0.02595388889312744,0.29662570357322693,0.41073715686798096,0.8621532320976257,0.13808193802833557,-0.16865646839141846,-0.11300778388977051,-0.002218615790392866,-0.55830018106064,-0.7870054215279112,0.2625232619967071,-0.42326241596372344,2.8102263667399336,-1.3058325605899592
1784804899757762048,2.408255100250244,-1.7281688451766968,-0.4922577738761902,0.08568449318408966,0.30061158537864685,0.395301878452301,0.8679685592651367,0.14586064219474792,-0.057640016078948975,-0.10214513540267944,-0.0089621433555965,-0.5578058845834,-0.789200153772964,0.25677905422631453,-0.40639646006376084,2.808182797147069,-1.2998612339569684
1784804899767681792,2.418174982070923,-1.6892690658569336,-0.6242824792861938,0.3083285987377167,0.3056321442127228,0.37982016801834106,0.8731127381324768,0.1903700828552246,0.04614424705505371,-0.11806201934814453,-0.0159713856131531,-0.557672083957335,-0.7909223856478413,0.25137343651763994,-0.38960188453243305,2.804874278885135,-1.295314246905544
1784804899777600768,2.428093910217285,-1.5913881063461304,-0.5186034440994263,0.27168694138526917,0.31167253851890564,0.36474576592445374,0.8773943185806274,0.17833292484283447,0.026932060718536377,-0.14518606662750244,-0.023076585208560946,-0.5580107100348078,-0.7920361079211421,0.24651636980078073,-0.37335974659189025,2.8002705115006448,-1.2925942358494467
1784804899787520000,2.4380130767822266,-1.4171392917633057,-0.7043198943138123,0.32399362325668335,0.31787264347076416,0.35065796971321106,0.8809062838554382,0.21380457282066345,-0.07595402002334595,-0.1307079792022705,-0.02991284069674771,-0.5583320705755725,-0.7929176674434338,0.24218186709796288,-0.3582735881628529,2.7952871850395646,-1.2903313866150934
1784804899797439744,2.4479329586029053,-1.5689045190811157,-0.7005390524864197,0.19452695548534393,0.3248834013938904,0.33641642332077026,0.8838973641395569,0.13591673970222473,-0.08389878273010254,-0.016984641551971436,-0.03722330803991801,-0.5582524350707487,-0.793916177790791,0.2380455489812302,-0.34310891516854064,2.789362542414592,-1.2873369715167282
1784804899807358720,2.4578518867492676,-1.3188557624816895,-0.6595776081085205,0.34099313616752625,0.33176663517951965,0.3234781324863434,0.8861671686172485,0.09483850002288818,-0.08356431126594543,-0.013563036918640137,-0.04406172228115313,-0.558147661589148,-0.7947042076616192,0.2344671361468096,-0.3294029591977315,2.7833623193419257,-1.2847483031741063
1784804899817277952,2.467771053314209,-1.2925658226013184,-0.5372322201728821,0.3459194600582123,0.3385052978992462,0.3108905851840973,0.8881220817565918,0.009379774332046509,-0.06769606471061707,0.03260833024978638,-0.050584694658975526,-0.5584880741712853,-0.7950799491017829,0.23104122014566178,-0.3161299080405799,2.7774435494775616,-1.2833865684952916
1784804899827197696,2.4776909351348877,-1.213477373123169,-0.5945051908493042,0.2773713171482086,0.3441714942455292,0.29886651039123535,0.8900699615478516,0.05882835388183594,-0.09662654995918274,0.0018061399459838867,-0.05654389683779407,-0.5586162557285981,-0.795602191537837,0.22752525194560677,-0.30350464300293734,2.772622229584287,-1.2813676229492923
1784804899837116928,2.487610101699829,-1.3862887620925903,-0.6820446252822876,0.04316922277212143,0.34954139590263367,0.28682857751846313,0.8919360637664795,0.10433125495910645,-0.018457025289535522,0.07466232776641846,-0.0625078210057857,-0.5582645125750282,-0.7964350382146062,0.22388540307132793,-0.2909146494968671,2.768096602146197,-1.2780772207233826
1784804899847036928,2.497529983520508,-1.3951983451843262,-0.6012303829193115,0.10355953127145767,0.3554711639881134,0.2742435336112976,0.8935492634773254,0.08442440629005432,-0.0025151073932647705,0.02205413579940796,-0.06897075487239077,-0.5574799369562606,-0.7974902809300352,0.22015513903717882,-0.27780299864265673,2.76296758375419,-1.2737277543424501
1784804899856955648,2.50744891166687,-1.310049295425415,-0.5110171437263489,0.0893305242061615,0.3606604039669037,0.2620394825935364,0.8951306343078613,0.06594473123550415,-0.030014395713806152,0.02437901496887207,-0.0749959715516942,-0.5566876895509688,-0.7985387566569424,0.21635653421268716,-0.26513493175743347,2.758576980828097,-1.2692953924381964
1784804899866874880,2.5173680782318115,-1.4995074272155762,-0.49845606088638306,0.24031302332878113,0.3660477101802826,0.2488371580839157,0.8967105150222778,0.14922642707824707,-0.11101971566677094,0.0022307634353637695,-0.08128388567818152,-0.5562661888187532,-0.7993267009933208,0.21222118517256688,-0.2514794702304539,2.7540273455790745,-1.2655661878602762
1784804899876794880,2.5272879600524902,-1.564874291419983,-0.4625028371810913,0.25106099247932434,0.3703538775444031,0.23443888127803802,0.8988192081451416,0.12157413363456726,-0.1304197907447815,-0.009094715118408203,-0.08742287299774477,-0.5559963010481546,-0.8001735561416776,0.2072378330181795,-0.23664132123027679,2.7507460529771666,-1.2615693005281994
1784804899886713856,2.5372068881988525,-1.7368249893188477,-0.5785439014434814,0.04053296148777008,0.3751552700996399,0.2192337065935135,0.9006639719009399,0.11381271481513977,-0.01832115650177002,0.03253328800201416,-0.094138037425651,-0.5551360076250555,-0.8013463620180077,0.20200536910326553,-0.22102900093264435,2.7469163831207144,-1.2560590291748777
1784804899896632832,2.547126054763794,-1.6121126413345337,-0.5365272164344788,0.31417062878608704,0.3802421987056732,0.20364543795585632,0.9021883606910706,0.11012941598892212,-0.0501420795917511,-0.09060418605804443,-0.10103987490802109,-0.5543617364840654,-0.802357306101834,0.19671455771459515,-0.2050799591943707,2.742718678014361,-1.2507982607316896
1784804899906552832,2.5570459365844727,-1.648969054222107,-0.36159631609916687,0.24131043255329132,0.3847275972366333,0.18797853589057922,0.9036861658096313,0.10816177725791931,-0.10330753028392792,-0.031112372875213623,-0.10750545418926023,-0.5543699852532169,-0.8028181543597267,0.19130990859425487,-0.18910359056051732,2.739102631397012,-1.247372720631006
1784804899916472064,2.566965103149414,-1.8297710418701172,-0.1783578097820282,0.12335211038589478,0.3873063921928406,0.1715499609708786,0.9058504104614258,0.1987837851047516,-0.022883519530296326,0.08084416389465332,-0.11351524408753721,-0.5538051803825205,-0.8038812229923087,0.18490332002747345,-0.17240273111707408,2.7375547447334068,-1.2418884748239665
1784804899926391808,2.5768849849700928,-1.7284996509552002,0.17647427320480347,0.24614207446575165,0.38815295696258545,0.15474162995815277,0.9085109829902649,0.23417669534683228,-0.003847479820251465,0.15205109119415283,-0.11880679289435325,-0.5535896203584253,-0.8048565160621158,0.17784663808485202,-0.15536593434177506,2.737825560542476,-1.2368581658767461
1784804899936310784,2.586803913116455,-1.5499680042266846,0.045110661536455154,0.2566293478012085,0.3875937759876251,0.1391296684741974,0.9112706184387207,0.2230934500694275,-0.01571659743785858,0.2994228005409241,-0.12310431141816525,-0.5535478050903411,-0.8057419737963109,0.17090950146219036,-0.1395824878981006,2.7394396870264806,-1.232396285912438
1784804899946230016,2.5967230796813965,-1.2806426286697388,0.1689067929983139,0.40837740898132324,0.3868279755115509,0.12539684772491455,0.9135863184928894,0.2781500816345215,-0.22163401544094086,0.38232743740081787,-0.12663463747554177,-0.5541151755516717,-0.8060704336253199,0.16483496895117272,-0.12572781943619663,2.7410635841568847,-1.2300298182465876
1784804899956149760,2.606642961502075,-1.573454737663269,0.35868045687675476,0.48094162344932556,0.3849068582057953,0.11070118099451065,0.9162924289703369,0.26900848746299744,-0.26843130588531494,0.579450249671936,-0.12983368045838253,-0.5552989035116614,-0.8060951256533662,0.15810428355411046,-0.11092854248110927,2.7439052564402293,-1.2288158889609038
1784804899966068736,2.6165618896484375,-1.5846526622772217,0.49875763058662415,0.5384845733642578,0.3816676437854767,0.0943729355931282,0.9194690585136414,0.2860569357872009,-0.33515664935112,0.5490061640739441,-0.13297359073153847,-0.5563967965644727,-0.8063232267928933,0.15027788536003167,-0.09451358834226616,2.748140859806632,-1.2268730428503698
1784804899975987712,2.6264808177948,-1.5816606283187866,0.6262778043746948,0.853550374507904,0.3768298625946045,0.0771225243806839,0.9230660796165466,0.29774588346481323,-0.4301041066646576,0.5366352200508118,-0.13550124566616864,-0.5587015922974191,-0.8058446311018324,0.14179659195948274,-0.07719917923656615,2.7540055146715665,-1.2276042373407936
1784804899985907456,2.6364006996154785,-1.6402689218521118,0.7465981245040894,0.786389172077179,0.370970755815506,0.05930887162685394,0.9267487525939941,0.2781228721141815,-0.42532142996788025,0.5606932640075684,-0.13773772208202664,-0.561371093972302,-0.8051315899041899,0.13286823305593326,-0.05934369740073553,2.760833985616673,-1.2291839139984828
1784804899995826432,2.646319627761841,-1.3039788007736206,0.9879513382911682,0.6905286908149719,0.3630657196044922,0.04273288697004318,0.9307831525802612,0.3097553253173828,-0.21389073133468628,0.6081572771072388,-0.13882793758832693,-0.563849838268979,-0.8046520634149243,0.12383557736066375,-0.042745901831179094,2.7696803696964865,-1.2304844378024824
1784804900005746688,2.6562397480010986,-0.5510969161987305,1.2109835147857666,0.6796299815177917,0.3527112901210785,0.031900256872177124,0.9351879358291626,0.36674049496650696,0.08630956709384918,0.6579513549804688,-0.13720964766405883,-0.566635572082952,-0.804063492787176,0.11653059341243188,-0.031905670415975085,2.7809335522026917,-1.2335837730687234
1784804900015665408,2.666158676147461,-0.07243335992097855,1.2933831214904785,0.7289839386940002,0.34033283591270447,0.027076907455921173,0.9399152398109436,0.4383842349052429,0.3510969281196594,0.8338885307312012,-0.13294298369562135,-0.5700297487646888,-0.8031336711947993,0.11121425034868372,-0.027080216855985488,2.7941890962258835,-1.2392407377876908
1784804900025584640,2.6760778427124023,-0.035739000886678696,1.454304575920105,0.673889696598053,0.32747724652290344,0.02419893443584442,0.9445493221282959,0.30278706550598145,0.16165311634540558,0.9884799718856812,-0.12793581375290267,-0.573560156146057,-0.8020619738925673,0.1065732518379757,-0.024201297233082907,2.807858836165403,-1.2456628200221807
1784804900035504640,2.685997724533081,-0.05039304494857788,1.9661561250686646,0.9689987897872925,0.31177014112472534,0.021163417026400566,0.9499220252037048,0.13784539699554443,-0.4366297125816345,0.9504382610321045,-0.12176212362459633,-0.5777068653211526,-0.8007595108828963,0.10105970914281463,-0.021164997151392768,2.824463754582049,-1.2533375606663355
1784804900045423616,2.6959166526794434,-0.6400001049041748,2.5086183547973633,0.981060266494751,0.2908205986022949,0.015629267320036888,0.9566498398780823,0.0873836874961853,-0.7054638862609863,0.8801420331001282,-0.11416250215307674,-0.5824909637319756,-0.7993930100815009,0.09296210862703123,-0.015629904249328704,2.8464710999547465,-1.2617378975822682
1784804900055342592,2.7058358192443848,-1.4401310682296753,2.721328020095825,0.8522844910621643,0.2652665376663208,0.003158371662721038,0.9641698598861694,0.1971205472946167,-0.5514829754829407,0.7942681312561035,-0.10692012229067614,-0.5866856933195309,-0.7986769171834569,0.080517779472779,-0.0031583768747046564,2.8731109115565916,-1.2675341872713666
1784804900065262592,2.7157557010650635,-1.753220796585083,2.983247756958008,1.1011005640029907,0.2382422387599945,-0.015100768767297268,0.971088171005249,0.4310234785079956,-0.23265619575977325,0.6414299607276917,-0.1009491432362571,-0.590884959405965,-0.7977462405511507,0.06530766708135895,0.01510134299154822,2.901009071860841,-1.2732102946385444
1784804900075181568,2.725674629211426,-1.316121220588684,2.7946627140045166,0.7748655080795288,0.21004775166511536,-0.03250107169151306,0.9771506190299988,0.39308637380599976,0.21891769766807556,0.5433570146560669,-0.09443695068053683,-0.5945438046209303,-0.7969271990956022,0.05006275032901813,0.032506797753871164,2.9298552607428827,-1.2784758546973232
1784804900085101568,2.7355947494506836,-0.6932460069656372,2.9551193714141846,0.842689037322998,0.18157438933849335,-0.04386233165860176,0.9823984503746033,0.519185483455658,0.5491876602172852,0.6189656257629395,-0.08614439655056998,-0.5978703231541627,-0.7960843547812682,0.037146832849512305,0.04387640816199775,2.9588275445391,-1.284277821406543
1784804900095020544,2.745513677597046,0.2261277735233307,2.920477867126465,1.1262518167495728,0.1523543894290924,-0.0478874109685421,0.9871651530265808,0.3901871144771576,0.4129844605922699,0.7075523138046265,-0.07541053154747375,-0.6022314824993769,-0.7942920261253241,0.027031483210406496,0.04790573079560427,2.988465566791009,-1.2937801165639342
1784804900104939776,2.7554328441619873,0.28485071659088135,3.025547981262207,0.8028413653373718,0.1231311783194542,-0.04594897851347923,0.9913262128829956,0.2492901086807251,0.13733386993408203,0.782019853591919,-0.06298637479555594,-0.6065994701454925,-0.7922753230586272,0.019226918406335888,0.045965161296580896,3.018017021695038,-1.3040303019419497
1784804900114859520,2.765352725982666,-0.2078566998243332,3.2426040172576904,0.6064985394477844,0.09141239523887634,-0.04611014947295189,0.9947453141212463,0.27281492948532104,-0.081087127327919,0.7463743686676025,-0.050342500709705335,-0.6096032886157414,-0.7910477075994037,0.009650340444636618,0.04612650374302308,3.0499547469776935,-1.3110301543764253
1784804900124778496,2.7752716541290283,-0.30074402689933777,2.9003005027770996,0.6071785688400269,0.060999028384685516,-0.050017960369586945,0.9968839287757874,0.4917200803756714,-0.23728978633880615,0.5422396659851074,-0.039468968709945845,-0.6228393637751238,-0.7813533789307999,-0.0005454026023680785,0.0500388383576617,3.0804791531164595,-1.3444458944420392
1784804900134698752,2.785191774368286,-0.3735005259513855,2.7109274864196777,0.6534661650657654,0.03351577743887901,-0.05337870866060257,0.9980117678642273,0.6075212359428406,-0.20118367671966553,0.18591773509979248,-0.029922380509441633,-0.6357765709739075,-0.771228917472407,-0.0099392084943278,0.05340408806007505,3.1080227218428433,-1.3779513013354572
1784804900144617472,2.7951107025146484,-0.05150943994522095,2.597069025039673,0.45832303166389465,0.007235873956233263,-0.05710778385400772,0.9983416199684143,0.43322432041168213,0.1732271909713745,-0.08264660835266113,-0.021267934330906384,-0.6477558596169343,-0.7613035867043163,-0.019410735592368382,0.05713886999294879,3.1343448867266996,-1.4097685089600442
1784804900154536448,2.8050296306610107,1.2242443561553955,2.321657419204712,0.4514390528202057,-0.01715988852083683,-0.050766024738550186,0.9985629320144653,0.16130967438220978,0.4613952934741974,-0.48020684719085693,-0.01029288102649834,-0.6592226133265856,-0.7514699046953034,-0.02474844490367122,0.050787853858404994,-3.1244097612571733,-1.4406356202363382
1784804900164456704,2.8149497509002686,2.1441290378570557,2.3937337398529053,0.13738809525966644,-0.040261413902044296,-0.034649427980184555,0.9985881447792053,-0.04268535599112511,0.6980252861976624,-0.5268933176994324,0.0033440056078474583,-0.6695908047270479,-0.7422548195562372,-0.026357295216597656,0.03465636499804899,-3.1012961410389863,-1.4686506648477486
1784804900174375424,2.824868679046631,2.908160448074341,2.5298187732696533,0.3938595652580261,-0.0653541162610054,-0.00854597706347704,0.9978254437446594,-0.1834099143743515,0.38192853331565857,-0.6303481459617615,0.02107605448888056,-0.679311818745035,-0.7331085717119178,-0.025358046565700777,0.00854608081224563,-3.0761895295087993,-1.4949359721550532
1784804900184294656,2.8347878456115723,2.558805227279663,2.1074283123016357,0.2533402144908905,-0.08823581784963608,0.019394883885979652,0.99591064453125,-0.12376978993415833,-0.0566873624920845,-0.44367992877960205,0.03867894929635887,-0.6888247520850517,-0.723516256773984,-0.02342114026050802,-0.01939609999932931,-3.0532252582622683,-1.5208223065697573
1784804900194214656,2.844707727432251,1.7586296796798706,2.4415721893310547,-0.35802116990089417,-0.11087143421173096,0.040606096386909485,0.9930050373077393,-0.10237015783786774,-0.18481691181659698,-0.2769557237625122,0.05396567361175781,-0.6967102979259872,-0.7149106837620907,-0.024192380707648023,-0.04061726542991222,-3.030400738887328,-1.5427505455758193
1784804900204133632,2.8546266555786133,1.933145523071289,2.0820555686950684,0.002360040321946144,-0.13364100456237793,0.05805572122335434,0.9893277883529663,-0.057994112372398376,-0.30303558707237244,-0.5043882727622986,0.06804093046941026,-0.7029852518799508,-0.7074430200526954,-0.026580104425436468,-0.05808838463756184,-3.0073227687873314,-1.5605684300614457
1784804900214053632,2.864546775817871,0.8877083659172058,1.8505245447158813,0.1801028698682785,-0.15186886489391327,0.07315290719270706,0.985689640045166,-0.21029846370220184,-0.11346663534641266,-0.6414821147918701,0.07957228850864186,-0.7112862040482952,-0.6977942038579099,-0.028693587823104726,-0.07321830558971114,-2.98872102662458,-1.5843357888001317
1784804900223972608,2.8744657039642334,0.7915783524513245,1.7622014284133911,0.01939934305846691,-0.16963011026382446,0.08033865690231323,0.9822280406951904,-0.3331317901611328,0.27157479524612427,-0.6219830513000488,0.08808004001559655,-0.7187309604688535,-0.6888685121491358,-0.03358626830578203,-0.08042533177230357,-2.9705801719665845,-1.6063230675504325
1784804900233891584,2.8843846321105957,1.149186611175537,0.9871467351913452,0.20354627072811127,-0.18253175914287567,0.09088127315044403,0.9789906144142151,-0.19701533019542694,0.3750916123390198,-0.9694539904594421,0.09603994923360495,-0.7264018250062185,-0.6795849363135824,-0.035790900420924955,-0.0910068467329805,-2.9572602623810043,-1.628950826102677
1784804900243811584,2.8943047523498535,1.3494330644607544,0.3839881420135498,-0.19412535429000854,-0.18945561349391937,0.10221020132303238,0.9765552878379822,-0.3433661162853241,0.4962242841720581,-0.9733201265335083,0.10228873081157247,-0.7327221741101141,-0.671859999850542,-0.035489713450619444,-0.10238901031518,-2.9499690883122605,-1.6475558877232945
1784804900253730560,2.904223680496216,1.0684642791748047,-0.130317822098732,0.2674209773540497,-0.19051693379878998,0.11495531350374222,0.9749300479888916,-0.21109437942504883,0.16571484506130219,-1.004974603652954,0.10708243905823699,-0.739403261861271,-0.6638884162563361,-0.032685383885987275,-0.11521001530463301,-2.948608631830839,-1.6671542059408786
1784804900263650560,2.9141438007354736,0.7408543229103088,-0.634566068649292,0.02344285510480404,-0.18815262615680695,0.1225050762295723,0.9744698405265808,-0.18048448860645294,-0.0564497634768486,-0.9958930015563965,0.10882841775721323,-0.7459275904753316,-0.6563740921112853,-0.030357052170285982,-0.12281357744098642,-2.9508577321442,-1.686584085928675
1784804900273569536,2.924062728881836,0.13862007856369019,-0.4988929331302643,-0.05428735911846161,-0.1825966238975525,0.1278487890958786,0.9748400449752808,-0.034383341670036316,-0.1836349368095398,-1.0770435333251953,0.10870980637443599,-0.7527585429856816,-0.6486714079591994,-0.027606948827979316,-0.12819966929652576,-2.9564289193394537,-1.7071490766590045
1784804900283488512,2.9339816570281982,-0.10890056192874908,-1.0617988109588623,0.24064438045024872,-0.17545782029628754,0.12797503173351288,0.9761335253715515,-0.0017882585525512695,-0.12864643335342407,-1.0074599981307983,0.1061211998313293,-0.7595390453740141,-0.6412232113294962,-0.025912468190099625,-0.1283269582244826,-2.963744050828662,-1.7278697136039263
1784804900293408512,2.943901777267456,-0.7518366575241089,-0.8740248680114746,0.07505141943693161,-0.16573192179203033,0.12468399107456207,0.9782569408416748,0.03378918766975403,-0.13982072472572327,-0.7727669477462769,0.10138287387680515,-0.7669901416177451,-0.6331307865816247,-0.024351474278021538,-0.12500933289519384,-2.9737706037839877,-1.7509000362911016
1784804900303327488,2.9538207054138184,-0.6789348125457764,-0.6347191333770752,-0.21360011398792267,-0.1591484397649765,0.11711344867944717,0.9802840352058411,-0.07753069698810577,-0.13714821636676788,-0.7310161590576172,0.09606172474335546,-0.7732491332012457,-0.626280913010895,-0.0251052232862207,-0.11738282513888601,-2.98064756443267,-1.7705772477235124
1784804900313246464,2.9637396335601807,-1.0301399230957031,-1.1074070930480957,0.2267218679189682,-0.15142206847667694,0.10899897664785385,0.9824413657188416,0.29032278060913086,-0.21671074628829956,-0.6820414066314697,0.09016794951945543,-0.7794512825908783,-0.6194161695174175,-0.02547888687493029,-0.10921597302077587,-2.9886676614059398,-1.7902371692420909
1784804900323166720,2.9736597537994385,-1.3841527700424194,-1.1109992265701294,0.2809939682483673,-0.14027062058448792,0.09723877161741257,0.9853269457817078,0.3022273778915405,-0.28800415992736816,-0.6094570159912109,0.0817235048580224,-0.7867762471013476,-0.6112663943565518,-0.025649579639655053,-0.09739266672870892,-3.0001833483863427,-1.8136660926395858
1784804900333085440,2.983578681945801,-1.5922452211380005,-1.4876536130905151,0.2705985903739929,-0.12736691534519196,0.08283129334449768,0.9883907437324524,0.5178088545799255,-0.19254201650619507,-0.681582510471344,0.07171321139169659,-0.7939091250478097,-0.6032442792161582,-0.025724447804081993,-0.08292630541622037,-3.013435991722156,-1.8367298115278832
1784804900343005696,2.9934988021850586,-1.7799277305603027,-1.5834650993347168,0.2504444718360901,-0.11181963980197906,0.06632334738969803,0.9915128946304321,0.6404756307601929,-0.11306101083755493,-0.7620205879211426,0.060094836845942516,-0.8008847876421407,-0.5952646475503689,-0.025144053018652114,-0.0663720697877219,-3.0292903667358972,-1.8595150582439075
1784804900352924672,3.003417730331421,-1.783618688583374,-1.9165493249893188,0.13082563877105713,-0.0944022610783577,0.04901944845914841,0.9943264722824097,0.7246512770652771,-0.171394944190979,-0.7648191452026367,0.04766311302411408,-0.8073112515474469,-0.5877174400802594,-0.023768638011794203,-0.04903910146553022,-3.046935468101617,-1.880734216674165
1784804900362843392,3.013336658477783,-1.6549150943756104,-2.2065823078155518,-0.032378900796175,-0.07396357506513596,0.03209839388728142,0.9967445135116577,0.7282909750938416,-0.07743225246667862,-0.6438695192337036,0.034586106666512136,-0.8129883788586879,-0.5808805045307429,-0.020776917406058613,-0.0321039074715442,-3.067523258881596,-1.899619956982426
1784804900372763648,3.023256778717041,-1.3567970991134644,-2.5041003227233887,-0.061456624418497086,-0.050646230578422546,0.017313582822680473,0.9985665082931519,0.5418571829795837,0.030843153595924377,-0.4524850845336914,0.021640812155940135,-0.8182366366041721,-0.5742578272869022,-0.015760366307077518,-0.01731444838202233,-3.090917140753108,-1.9172561096737222
1784804900382682624,3.0331757068634033,-1.4468858242034912,-2.525568962097168,-0.26232486963272095,-0.02556435577571392,0.0034368447959423065,0.9996674060821533,0.2572080194950104,0.2243005782365799,-0.24971306324005127,0.008678837577907177,-0.8227500538478911,-0.5682570293403306,-0.009541618307108988,-0.003436851586508175,-3.116025365763688,-1.9326617316030952
1784804900392602624,3.043095827102661,-1.0772936344146729,-2.452393054962158,-0.25221285223960876,-0.0008805450052022934,-0.008977370336651802,0.9999594688415527,0.15623027086257935,0.18587251007556915,-0.14040124416351318,-0.003463391677032369,-0.8267455519832219,-0.5625580222486225,-0.002889197605719886,0.008977490499600345,-3.1407120731349867,-1.946629700052344
1784804900402521600,3.0530147552490234,-0.8770681619644165,-2.260340452194214,-0.32763415575027466,0.02226521261036396,-0.01899641565978527,0.9995718598365784,0.1398899406194687,0.20143049955368042,0.05102646350860596,-0.014091185613707268,-0.8303622003060609,-0.5570319091789925,0.003954136904731417,0.018997557629097515,3.119321588139453,-1.9596224012820544
1784804900412440576,3.0629336833953857,-0.4553198218345642,-2.0199055671691895,-0.43789806962013245,0.04350990802049637,-0.025361530482769012,0.9987309575080872,0.17495016753673553,0.2085433006286621,0.1691766381263733,-0.02259135676775904,-0.8334966424478146,-0.5519500108621802,0.011140601702313246,0.02536424914089278,3.0980549889001345,-1.9712182694992677
1784804900422360576,3.0728538036346436,-0.2947235405445099,-1.793428897857666,-0.3882899582386017,0.06237538158893585,-0.028882814571261406,0.9976351261138916,0.12022657692432404,0.24921971559524536,0.25126659870147705,-0.02917325305255202,-0.8364284320263219,-0.5469963766786354,0.018208403568062696,0.02888683232621267,3.0791506935228345,-1.9823731121209205
1784804900432279552,3.082772731781006,-0.3035311698913574,-1.538267731666565,-0.32100972533226013,0.07886078953742981,-0.031674303114414215,0.9963822960853577,0.08710905909538269,0.10400095582008362,0.34909188747406006,-0.034725479156755674,-0.8393182640647632,-0.541974175400145,0.02455574107667965,0.03167960138693774,3.0626101818884015,-1.9936036167322624
1784804900442198528,3.092691659927368,-0.45883941650390625,-1.3347870111465454,-0.19200730323791504,0.09325971454381943,-0.03511189669370651,0.9950227737426758,0.14367878437042236,-0.15589763224124908,0.4082520008087158,-0.03991088446621667,-0.8423332610715275,-0.5366433252520121,0.029931084169693003,0.03511911645048642,3.048139452635332,-2.0054562418952213
1784804900452118528,3.102611780166626,-0.7067024111747742,-1.049013376235962,-0.17859137058258057,0.10515724867582321,-0.04072561487555504,0.9936213493347168,0.1460329294204712,-0.32240304350852966,0.4440007209777832,-0.045286254726037,-0.8453920741408796,-0.5311524428702001,0.03374141037040227,0.04073688270217423,3.036152825114247,-2.017517610698087
1784804900462037504,3.1125307083129883,-1.0461392402648926,-0.9216700196266174,-0.1020621731877327,0.11489228904247284,-0.04908670112490654,0.992164671421051,0.14131808280944824,-0.35263144969940186,0.4521714448928833,-0.05121802137258268,-0.8484195386130676,-0.5256107232651136,0.035979136349803986,0.04910643420382303,3.0263065227608856,-2.0294642147093547
1784804900471957760,3.122450828552246,-1.3021165132522583,-0.8133965134620667,-0.17555822432041168,0.1233074739575386,-0.060535646975040436,0.9905205368995667,0.0794665738940239,-0.27517297863960266,0.4449195861816406,-0.05811115322727558,-0.85130036011948,-0.5201422437779571,0.036917252811913916,0.06057267981448256,3.017742256487377,-2.0409026684586187
1784804900481876736,3.1323697566986084,-1.4764314889907837,-0.5306752324104309,-0.17051364481449127,0.13022175431251526,-0.07391159981489182,0.988726019859314,0.06228311359882355,-0.2931995987892151,0.4849677085876465,-0.06546481451770375,-0.853793119245064,-0.5151701880279481,0.03675990486177292,0.07397906373957842,3.010639773397091,-2.0509228143116016
1784804900491795456,3.1422886848449707,-1.7216761112213135,-0.2333602011203766,0.007433728314936161,0.13399465382099152,-0.08940347284078598,0.9869412183761597,0.08867688477039337,-0.3525826334953308,0.5181859731674194,-0.07291718343366409,-0.8565005268314466,-0.5097817705854379,0.03482248447509862,0.08952300695867206,3.006650127049285,-2.061786762817973
1784804900501715712,3.1522088050842285,-1.6556628942489624,-0.0015510423108935356,0.08897136151790619,0.13533000648021698,-0.10641530156135559,0.9850693345069885,0.16055317223072052,-0.3114618957042694,0.4423140287399292,-0.08043518622015833,-0.859267551271649,-0.5041765100467984,0.031551836620920835,0.1066171766729082,3.005066097018226,-2.0730544552205186
1784804900511634688,3.162127733230591,-0.9854450821876526,0.17023669183254242,0.22084525227546692,0.1339815855026245,-0.11976100504398346,0.9837209582328796,0.19089332222938538,-0.21411657333374023,0.31765568256378174,-0.08571052031040186,-0.8623596247574438,-0.498193085218547,0.028167372855184992,0.12004914980467327,3.00622679529892,-2.085709492091631
1784804900521554688,3.1720478534698486,0.3221544027328491,0.46150848269462585,0.256187379360199,0.1306968480348587,-0.12372278422117233,0.9836719632148743,0.1450141817331314,0.020497091114521027,0.26152127981185913,-0.08641611385717009,-0.8660104358498316,-0.4917945879902006,0.026384724802755728,0.12404062157938249,3.0095000334710615,-2.100435812896159
1784804900531473664,3.181966781616211,1.6256804466247559,0.5247441530227661,0.46272724866867065,0.12538911402225494,-0.11406136304140091,0.9855290651321411,0.15715786814689636,0.3235950469970703,0.4470880627632141,-0.08062544754789232,-0.8704111504524628,-0.48492159874759044,0.027110792585920734,0.11431014153592833,3.015042320659026,-2.11775901421479
1784804900541392640,3.1918857097625732,2.1730387210845947,0.8347862362861633,0.494902640581131,0.11821380257606506,-0.09587927907705307,0.9883484244346619,0.11433014273643494,0.40721961855888367,1.0826659202575684,-0.07059216688667296,-0.8753878347254077,-0.47735768897216985,0.02902620714405638,0.09602679338589283,3.0225507561050895,-2.1373953650095037
1784804900551312640,3.201805830001831,2.4534544944763184,1.235512137413025,0.8660171031951904,0.10743919759988785,-0.07315196096897125,0.991517186164856,0.21363627910614014,-0.15615715086460114,1.2014610767364502,-0.05765966249880653,-0.8807203428278029,-0.4691377982876064,0.03028120471139987,0.07321735954621385,3.0336554051846494,-2.158746319044487
1784804900561231616,3.2117247581481934,2.078552484512329,1.756528615951538,1.2766315937042236,0.09217124432325363,-0.051546964794397354,0.994408369064331,0.33231303095817566,-0.8884707689285278,1.1841503381729126,-0.044136470532620695,-0.8868256162345077,-0.4590691652816627,0.029119512881961053,0.05156981923392982,3.0491672031056396,-2.1838650519195184
1784804900571151616,3.221644639968872,1.2692241668701172,2.298658847808838,1.1183894872665405,0.07129188627004623,-0.035881783813238144,0.9968100786209106,0.44096094369888306,-1.2475197315216064,1.1109933853149414,-0.03205468984825565,-0.8929445499878929,-0.4483916496531578,0.023823301619589808,0.03588948628686425,3.070194196814804,-2.2095793770173806
1784804900581070592,3.2315638065338135,0.5254376530647278,2.201098918914795,0.7554832100868225,0.04841316491365433,-0.027799760922789574,0.9984402060508728,0.6122618913650513,-0.9230058789253235,0.8941529393196106,-0.02313039776012634,-0.897973181183638,-0.439163136625674,0.015644748302497645,0.027803342223458677,3.0931418035597598,-2.2312034200589363
1784804900590989568,3.241482734680176,0.2514048218727112,2.1937267780303955,0.6020147800445557,0.02657151035964489,-0.02449244074523449,0.9993470907211304,0.68137526512146,-0.35478001832962036,0.7125061750411987,-0.0167809138036268,-0.9021009358350889,-0.4311466791872517,0.006707364161127501,0.024494889938512433,3.1150100477870093,-2.2495846186913355
1784804900600909824,3.2514028549194336,0.4547930359840393,2.3507862091064453,0.761620283126831,0.004159615840762854,-0.021170122548937798,0.9997672438621521,0.5446684956550598,-0.16127921640872955,0.6740151047706604,-0.01047181062864305,-0.9060775982737853,-0.4229739985961221,-0.002593040201983921,0.021171704849346558,3.137432093207619,-2.2680445560155458
1784804900610828544,3.261321783065796,0.5215230584144592,2.6622142791748047,0.9121461510658264,-0.021101433783769608,-0.015907902270555496,0.9996505975723267,0.390013188123703,-0.2607491910457611,0.7569257616996765,-0.0028727517939025017,-0.9102037945174106,-0.4139497097813314,-0.012898091739661005,0.015908572854009564,-3.1204869784366154,-2.288103606636181
1784804900620747520,3.271240711212158,0.3322148621082306,2.716451644897461,0.8634772300720215,-0.04795265942811966,-0.011220878921449184,0.9987868666648865,0.38030433654785156,-0.41381269693374634,0.7723926305770874,0.004573888492620103,-0.9141764017195935,-0.4045675837254986,-0.024203077413230845,0.01122111472748188,-3.0936185887157057,-2.3085816132750105
1784804900630667776,3.281160831451416,0.05597447603940964,2.795496940612793,0.7609947919845581,-0.07532260566949844,-0.008802872151136398,0.9971205592155457,0.37697359919548035,-0.414094477891922,0.7212634086608887,0.010874805365186093,-0.9176467889322786,-0.3955814196859176,-0.036353239677774415,0.008802985570446457,-3.066195727636064,-2.3279022896564
1784804900640586496,3.2910797595977783,-0.17003941535949707,2.8066647052764893,0.768124520778656,-0.10312970727682114,-0.008878928609192371,0.9946283102035522,0.35950788855552673,-0.3082292377948761,0.5999456644058228,0.01589329627643273,-0.920763065639726,-0.38666460639726546,-0.04932808465923094,0.008879045139376443,-3.038275168150358,-2.346898942203256
1784804900650506496,3.300999641418457,-0.0551072396337986,2.706751823425293,0.7333601713180542,-0.13030850887298584,-0.009255689568817616,0.9914302229881287,0.34010159969329834,-0.20246000587940216,0.41045570373535156,0.020774728343420274,-0.9214518576622498,-0.38293810206687334,-0.062074671731857774,0.0092558220674174,-3.010906876050649,-2.354466502082349
1784804900660425728,3.3109188079833984,0.16581282019615173,2.5142621994018555,0.6521105170249939,-0.15597543120384216,-0.007853968068957329,0.9877299666404724,0.3475189805030823,0.0027117524296045303,0.23959565162658691,0.02572550460662186,-0.9239663615108072,-0.3743676747513717,-0.0739820415769574,0.007854048725562305,-2.984972933125963,-2.372290582225805
1784804900670344704,3.3208377361297607,0.3660796284675598,2.3214681148529053,0.6365422010421753,-0.17953330278396606,-0.0041278451681137085,0.9837434887886047,0.29795676469802856,0.07765994220972061,-0.01435244083404541,0.03120687936377467,-0.9261924284277309,-0.36611380158499385,-0.08458434997994478,0.00412785681088921,-2.9610791091395243,-2.3890889141785667
1784804900680264704,3.3307578563690186,0.42067480087280273,2.1684765815734863,0.6392452120780945,-0.20133252441883087,0.0011025983840227127,0.9795219898223877,0.16196492314338684,-0.08188262581825256,-0.25961267948150635,0.03690557890150958,-0.9283090311817405,-0.3577755561143707,-0.0942168418137291,-0.0011025986634392625,-2.938874358089254,-2.405756227199293
1784804900690183680,3.340676784515381,0.06458141654729843,2.106708526611328,0.6335135698318481,-0.22202523052692413,0.005046296399086714,0.9750277996063232,0.07992014288902283,-0.2318529337644577,-0.400412380695343,0.041667234083624625,-0.9302461419806838,-0.3495082434235954,-0.10368177633128751,-0.0050463178830824395,-2.9176986877187168,-2.4222290598649554
1784804900700103424,3.3505966663360596,-0.572485625743866,1.9797394275665283,0.5796868205070496,-0.24166443943977356,0.004115454852581024,0.9703510403633118,0.03089483082294464,-0.2767289876937866,-0.4529561400413513,0.04376574035078003,-0.9321601980754846,-0.3409587559355857,-0.11361771176819203,-0.004115466692457311,-2.897509742386948,-2.4397747470517874
1784804900710022656,3.360515832901001,-1.1274863481521606,1.8472031354904175,0.41833731532096863,-0.26013126969337463,-0.003044942393898964,0.965568482875824,-0.09220939874649048,-0.08679880946874619,-0.5934829115867615,0.042582444676743686,-0.9338648979452467,-0.33268692847487463,-0.1241068344897103,0.0030449471389354336,-2.8784332513213076,-2.457536559403228
1784804900719941632,3.3704347610473633,-1.2292932271957397,1.785043716430664,0.35518187284469604,-0.27733057737350464,-0.013650982640683651,0.9606777429580688,-0.24876198172569275,0.22153672575950623,-0.7594599723815918,0.03942209726336874,-0.9353490376655474,-0.32474767904301716,-0.13456266221483687,0.01365140701496574,-2.860551216059283,-2.4751778530108974
1784804900729861376,3.380354642868042,-0.8188380599021912,1.592071533203125,0.3689914345741272,-0.29360201954841614,-0.02271011471748352,0.9556580781936646,-0.43596649169921875,0.450581818819046,-0.8907318115234375,0.036740936723402035,-0.9366051871132245,-0.3171746705738248,-0.14429528570026942,0.022712068160030015,-2.8435207115666774,-2.4919600360148606
1784804900739780608,3.3902738094329834,-0.3150585889816284,1.4167959690093994,0.429082453250885,-0.3080815374851227,-0.026423925533890724,0.9509927034378052,-0.5324792861938477,0.5209155082702637,-0.9470866918563843,0.03619531092430709,-0.937875182135582,-0.3096554544966171,-0.15229393018902337,0.026427000623731496,-2.8283036411910665,-2.5079703276365404
1784804900749699584,3.4001927375793457,-0.18807826936244965,1.227046251296997,0.35048776865005493,-0.3205530643463135,-0.02757098153233528,0.9468295574188232,-0.5317572355270386,0.4430525302886963,-0.8325257301330566,0.0365115398314976,-0.9390936462324943,-0.3025192651187637,-0.15890970109857358,0.027574476103918028,-2.815150754711644,-2.5228489480868577
1784804900759619840,3.4101128578186035,-0.24979722499847412,0.9684898257255554,0.3036089539527893,-0.3309527635574341,-0.028352050110697746,0.9432212710380554,-0.46134456992149353,0.3058331310749054,-0.7172539234161377,0.036623026744510075,-0.9403380735911907,-0.2955925141340058,-0.16446306679941156,0.0283558497461504,-2.804138542252698,-2.5372898402973947
1784804900769538560,3.420031785964966,-0.34640607237815857,0.5566598773002625,0.14014147222042084,-0.33818164467811584,-0.030278462916612625,0.9405934810638428,-0.3900592625141144,0.289815217256546,-0.6341666579246521,0.035729972232903986,-0.9415854508981296,-0.28933299326011375,-0.16860176480885253,0.030283090915741467,-2.7964437204091728,-2.5506220440941427
1784804900779458560,3.4299516677856445,-0.6563253998756409,-0.05244104564189911,0.05869422107934952,-0.3403317928314209,-0.03470388054847717,0.9396648406982422,-0.2916719913482666,0.4006554186344147,-0.5809307098388672,0.032852328909198765,-0.9431393073334643,-0.28340901791927375,-0.17055301817771845,0.03471085107522958,-2.794104776299004,-2.563863044490678
1784804900789377792,3.439870834350586,-0.6090441942214966,-0.6542366147041321,0.18375971913337708,-0.3367592692375183,-0.040232256054878235,0.9407306909561157,-0.22476410865783691,0.555918276309967,-0.6520193219184875,0.028603504900964007,-0.9451029410448445,-0.2777512864086557,-0.16975397323576996,0.040243117131584426,-2.7978297589518797,-2.576905461143762
1784804900799296512,3.4497897624969482,-0.5616775751113892,-1.0753763914108276,-0.09488499164581299,-0.32950910925865173,-0.04518093168735504,0.9430708885192871,-0.28807514905929565,0.6102138757705688,-0.6968091726303101,0.024131601263200606,-0.9473357448084343,-0.27219557479316536,-0.16697991964315,0.04519631907018022,-2.805452309096851,-2.5896815556959014
1784804900809216512,3.459709644317627,-0.43091341853141785,-1.2971857786178589,-0.549898624420166,-0.31781280040740967,-0.05150701105594635,0.9467535018920898,-0.11855804920196533,0.6740503311157227,-0.7304601669311523,0.018762475304273836,-0.9492818292163416,-0.26877639846223567,-0.16208410351871505,0.05152981110301733,-2.8177253238616866,-2.5981828725143585
1784804900819135744,3.4696288108825684,0.24496236443519592,-1.2172330617904663,-0.37886255979537964,-0.3055917024612427,-0.053763553500175476,0.9506436586380005,-0.2669485807418823,0.4829780161380768,-0.813818097114563,0.015520995096812543,-0.9509798613784722,-0.2663815312000008,-0.15632439225904696,0.05378948893420415,-2.8305679774396015,-2.6038012726253505
1784804900829055488,3.479548692703247,0.287952184677124,-1.2973345518112183,-0.6508901119232178,-0.2942483425140381,-0.05205503851175308,0.9543105363845825,-0.2353079915046692,0.4261089861392975,-0.6689099073410034,0.014375114260702515,-0.9526067058923077,-0.2639995014725028,-0.15045994456493045,0.05207857810072242,-2.8425057552674327,-2.608743255213049
1784804900838974720,3.4894678592681885,0.24715746939182281,-1.5414693355560303,-0.5910434722900391,-0.2812003195285797,-0.05115969479084015,0.9582844972610474,0.10847082734107971,0.13168032467365265,-0.5886861085891724,0.012772801422008165,-0.9540561254385383,-0.26252458466755774,-0.14385630757901166,0.051182039087777645,-2.8561637434883362,-2.611906075865835
1784804900848893696,3.499386787414551,0.018114710226655006,-1.5438859462738037,-0.5976347923278809,-0.2660004496574402,-0.051674697548151016,0.9625872373580933,0.278695672750473,-0.08592908829450607,-0.4516310691833496,0.010200829593264528,-0.955625738375679,-0.26090817342710654,-0.13639098738867989,0.05169772143876712,-2.8719819763556647,-2.615550653088783
1784804900858813440,3.5093066692352295,-0.6203795075416565,-1.5856176614761353,-0.5688952207565308,-0.25060907006263733,-0.05643743276596069,0.9664417505264282,0.3200518488883972,0.03525824472308159,-0.3105733394622803,0.005513671033863599,-0.957199001562,-0.2588260997696664,-0.1294166150041062,0.05646743822431358,-2.8878699841276485,-2.620628476618733
1784804900868732672,3.519225835800171,-0.813852071762085,-1.6134828329086304,-0.525768518447876,-0.23482297360897064,-0.06448040157556534,0.9698970317840576,0.32491087913513184,0.040569886565208435,-0.30308806896209717,-0.0008086592348971264,-0.9587327527742886,-0.2564761546929315,-0.12268162428307826,0.06452516441681407,-2.904052366713658,-2.6265052058317613
1784804900878652672,3.5291457176208496,-1.104892611503601,-1.555551528930664,-0.5237814784049988,-0.21893949806690216,-0.07488325238227844,0.9728609919548035,0.42420071363449097,0.11176373809576035,-0.19814157485961914,-0.008291583651585221,-0.9602397343202849,-0.2537127134996502,-0.11619330246235127,0.07495341412899459,-2.9202334302668853,-2.6332964419091107
1784804900888571392,3.539064645767212,-1.1279587745666504,-1.6259303092956543,-0.6220105886459351,-0.20318013429641724,-0.08678759634494781,0.9752873182296753,0.535364031791687,0.263179212808609,-0.2106696367263794,-0.016436435419872417,-0.9615965748254495,-0.25094958778098064,-0.10993672780406098,0.0868969125986787,-2.936201915837887,-2.63999738858151
1784804900898490624,3.5489838123321533,-0.6365284323692322,-1.7408050298690796,-0.6666269302368164,-0.18641912937164307,-0.0971783772110939,0.9776524901390076,0.6713739633560181,0.4545239508152008,-0.2793949842453003,-0.02383982062597287,-0.9627297508584314,-0.24895316813739202,-0.1029827585157466,0.09733198369318205,-2.9531741330319394,-2.6447011834803082
1784804900908410624,3.558903694152832,0.15134672820568085,-2.028769016265869,-0.8903351426124573,-0.16772186756134033,-0.10095767676830292,0.980651319026947,0.6607638597488403,0.5826013684272766,-0.26484620571136475,-0.028138983729430234,-0.9637940248754521,-0.2478441723951769,-0.09424733601456368,0.10112996721576756,-2.972200529581851,-2.6467836067044193
1784804900918329600,3.5688226222991943,0.9107972979545593,-2.3400001525878906,-0.7494248747825623,-0.1452680081129074,-0.09634115546941757,0.9846904277801514,0.5841565728187561,0.45864585041999817,-0.4154614806175232,-0.02874284521348777,-0.9649854127660932,-0.24728195884597118,-0.0826350248219445,0.09649081388544764,-2.995122570248897,-2.64696397939458
1784804900928249600,3.578742742538452,0.7426649928092957,-2.3597261905670166,-0.5995916724205017,-0.12139634042978287,-0.0885525569319725,0.9886461496353149,0.42860156297683716,-0.019800089299678802,-0.4653765559196472,-0.028013624697514627,-0.9663388477933773,-0.24599250757854813,-0.06994369622798532,0.08866870000664902,-3.0194137738566273,-2.6484855382465535
1784804900938168576,3.5886616706848145,0.2973991632461548,-2.152116060256958,-0.46262502670288086,-0.09870848804712296,-0.08379217982292175,0.9915823340415955,0.24375854432582855,-0.5801329612731934,-0.27283233404159546,-0.028616513078899324,-0.9676016664800872,-0.244004468933728,-0.05822313469292996,0.08389054533697364,-3.04237309146584,-2.6517118944861076
1784804900948087808,3.598580837249756,-0.7802308797836304,-1.8843066692352295,-0.3326433300971985,-0.07856385409832001,-0.08653587847948074,0.9931463003158569,0.1560479700565338,-0.7068906426429749,-0.05770611763000488,-0.0325548844185359,-0.9687287245714811,-0.24111781243050573,-0.04865292799032116,0.08664424742011076,-3.062651022648085,-2.6571279214613646
1784804900958007552,3.6085007190704346,-1.2707264423370361,-1.8191382884979248,-0.227366104722023,-0.06013947352766991,-0.097559355199337,0.9934110045433044,0.1580246090888977,-0.3128257691860199,-0.020434319972991943,-0.04029438373427865,-0.9697020333038404,-0.23745200438277528,-0.040876183777723264,0.09771478068720212,-3.081128085511044,-2.664258702461948
1784804900967926528,3.618419647216797,-0.9057220816612244,-1.7068101167678833,-0.36336973309516907,-0.04216820374131203,-0.10856007784605026,0.993195116519928,0.06285912543535233,0.10839223861694336,-0.06846672296524048,-0.04791658591190705,-0.970550505851679,-0.23372903654022398,-0.03326318313252643,0.10877445108477822,-3.0991610169713972,-2.6712605844332
1784804900977846528,3.6283397674560547,-0.19449494779109955,-1.3348016738891602,-0.41807249188423157,-0.026812102645635605,-0.11445817351341248,0.9930662512779236,0.015108607709407806,0.2791004776954651,-0.1333860158920288,-0.052671985503544363,-0.971231880369323,-0.2307417694913611,-0.02631676178075941,0.1147095735199757,-3.114599903232185,-2.6766383966335483
1784804900987766784,3.6382598876953125,0.3708571195602417,-1.1395642757415771,-0.4153025150299072,-0.014237520284950733,-0.11320309340953827,0.9934701323509216,0.16304123401641846,0.02232171595096588,-0.1708838939666748,-0.05356633873671308,-0.9719690648307633,-0.22805966479364942,-0.0198926921263562,0.11344627654227497,-3.1272625343931075,-2.6814710638576917
1784804900997685760,3.648178815841675,0.2123071551322937,-1.079016089439392,-0.41200777888298035,-0.002767953323200345,-0.11002163589000702,0.9939253926277161,0.3159545958042145,-0.19037815928459167,0.04892134666442871,-0.053360537037727584,-0.9727234479529643,-0.2253259862294817,-0.013783457535056364,0.11024481556571435,-3.138807790441709,-2.6864870274468
1784804901007605760,3.6580989360809326,-0.06331430375576019,-1.07999587059021,-0.48896166682243347,0.008383951149880886,-0.10936403274536133,0.9939661026000977,0.27202680706977844,-0.21960017085075378,0.23865383863449097,-0.05432046285911049,-0.9733087177185173,-0.22282993292727343,-0.008129229203867399,0.10958322101301636,3.133158007528706,-2.6910059043532755
1784804901017524736,3.668017864227295,-0.20223911106586456,-1.0433530807495117,-0.45497745275497437,0.01944882422685623,-0.11042724549770355,0.9936938881874084,0.13486330211162567,-0.22325195372104645,0.3860667943954468,-0.056086707732072104,-0.9737937610794236,-0.2203920600772286,-0.0027076089287888495,0.11065291190076894,3.12202290286933,-2.695361853665072
1784804901027443712,3.6779367923736572,-0.4554697573184967,-0.8070002794265747,-0.3334803283214569,0.02887054905295372,-0.11359046399593353,0.9931082129478455,0.03784088045358658,-0.3503377437591553,0.5309854745864868,-0.05867730992228903,-0.9742660972205027,-0.21762277154965073,0.0017097543635700768,0.11383616618490852,3.112529938939626,-2.7004098228226874
1784804901037363712,3.687856912612915,-0.8599379658699036,-0.6142813563346863,-0.2911965548992157,0.036501746624708176,-0.11972320824861526,0.9921358823776245,-0.022448409348726273,-0.49010953307151794,0.5930690169334412,-0.06250805552292392,-0.9747171045437014,-0.21446332823162045,0.004970864836199342,0.12001107772840602,3.1048181663701495,-2.7062324013539274
1784804901047282688,3.6977758407592773,-1.2739827632904053,-0.21695451438426971,-0.13645809888839722,0.040818437933921814,-0.1303982436656952,0.9906208515167236,-0.0021069012582302094,-0.4624056816101074,0.6615548133850098,-0.06820164716154965,-0.9750560849834892,-0.2111304035390442,0.006163519398784608,0.13077064822813161,3.100411045225855,-2.7124165455745737
