time,seconds_elapsed,rotationRateX,rotationRateY,rotationRateZ,gravityX,gravityY,gravityZ,accelerationX,accelerationY,accelerationZ,quaternionW,quaternionX,quaternionY,quaternionZ,pitch,roll,yaw
1784547049383463936,0.24343299865722656,-0.3163895606994629,0.19358348846435547,-0.2378704845905304,-0.15752950310707092,0.8323410153388977,-0.5314065217971802,-0.03468546271324158,0.05523216724395752,-0.10903537273406982,0.8703511231989879,-0.4637375825031499,-0.1387234137211692,0.09051094395762094,-0.9833180531540354,-0.2881864252588411,0.05214696641129559
1784547049393383680,0.2533528804779053,-0.11454911530017853,0.1859351545572281,-0.22642342746257782,-0.1588616669178009,0.8314677476882935,-0.5323761701583862,-0.0463232547044754,0.10067641735076904,-0.092166006565094,0.8708028850932386,-0.4632890364027107,-0.13847444553237276,0.08882815717221228,-0.9817442958380438,-0.2899893189492085,0.0475296383454899
1784547049403302656,0.2632718086242676,-0.07112813740968704,0.19299200177192688,-0.20734986662864685,-0.16003674268722534,0.830427885055542,-0.533645749092102,-0.05689746141433716,0.1350109577178955,-0.04835498332977295,0.8713210265054862,-0.46268625921804946,-0.138197457624109,0.0873074906228667,-0.9798752565835044,-0.2913588258080656,0.04356149696691555
1784547049413222912,0.2731919288635254,-0.15649044513702393,0.22002920508384705,-0.19696274399757385,-0.16098660230636597,0.8300352692604065,-0.533970832824707,-0.05268223583698273,0.119870126247406,0.02708911895751953,0.8715655181403766,-0.4626032206901344,-0.1378871057507046,0.08578484718331267,-0.9791709400791078,-0.2928227595313957,0.03938575982258014
1784547049423141632,0.2831108570098877,-0.3095877766609192,0.23071007430553436,-0.17964988946914673,-0.1617424041032791,0.8305047750473022,-0.5330115556716919,-0.03524857759475708,-0.027633070945739746,0.059302449226379395,0.8714456251669965,-0.46322037925837417,-0.1375540091158658,0.08419241005140474,-0.9800132537654458,-0.29461899451537915,0.034660750420397124
1784547049433061888,0.2930309772491455,-0.5411093831062317,0.1883772760629654,-0.201858788728714,-0.16269336640834808,0.8320857882499695,-0.5302490592002869,0.0025523751974105835,-0.14132046699523926,0.09581607580184937,0.8708167066952853,-0.4647448837384586,-0.13743238785690634,0.0824790973200945,-0.9828577653657312,-0.2977059118261229,0.02868227394800606
1784547049442981632,0.3029508590698242,-0.686013400554657,0.16881434619426727,-0.22099842131137848,-0.16429993510246277,0.8345834016799927,-0.5258100032806396,0.026635155081748962,-0.13919460773468018,0.12430554628372192,0.8697241471892313,-0.46704783886511236,-0.13770006035287052,0.08052943144846475,-0.9873760761773763,-0.3028576837238322,0.020789537964215066
1784547049452900864,0.3128700256347656,-0.6820541024208069,0.19801722466945648,-0.2139919102191925,-0.16628549993038177,0.8372776508331299,-0.520879328250885,0.025477394461631775,-0.03883099555969238,0.157659113407135,0.868497941609233,-0.46955228542680877,-0.13813393859562959,0.07842852231940516,-0.9922852136380915,-0.3090133540819333,0.011902383298354186
1784547049462820864,0.32278990745544434,-0.5345098972320557,0.31426432728767395,-0.23429226875305176,-0.16831834614276886,0.840035617351532,-0.5157607793807983,-0.004167020320892334,0.06557351350784302,0.15426480770111084,0.8672310973798499,-0.4721697986898401,-0.13847488264731328,0.07609667750513004,-0.9973488784962288,-0.3154521166445916,0.0022477898055331277
1784547049472739584,0.33270883560180664,-0.31503403186798096,0.5110689997673035,-0.27073973417282104,-0.16959190368652344,0.8424866199493408,-0.5113267302513123,-0.03219035267829895,0.06496882438659668,0.12744611501693726,0.8661788373591374,-0.4746056273239632,-0.1381525653306176,0.073469166416982,-1.0018824931174375,-0.32025308862880675,-0.007167261817778361
1784547049482659840,0.34262895584106445,-0.04281654208898544,0.7136139869689941,-0.2732055187225342,-0.17000143229961395,0.8440279960632324,-0.5086414217948914,-0.007488757371902466,0.0033535361289978027,0.14543652534484863,0.8656572091214703,-0.4763680296724725,-0.13694083781838207,0.07041426574015455,-1.0047501808102113,-0.322554183901241,-0.015960508139053437
1784547049492578816,0.35254788398742676,0.10354466736316681,0.8319118618965149,-0.21434727311134338,-0.1692047119140625,0.8445757627487183,-0.5079975724220276,0.0663604587316513,-0.09808528423309326,0.13455402851104736,0.8657188036248668,-0.4773064390947953,-0.13483235018319586,0.06730381760588763,-1.0057723873789002,-0.32152407824942564,-0.022750405210489655
1784547049502498816,0.36246800422668457,-0.08548211306333542,0.8576902151107788,-0.13286885619163513,-0.16700777411460876,0.8453701734542847,-0.5074028968811035,0.14801058173179626,-0.17627227306365967,0.15156793594360352,0.8657666774357358,-0.47839572860622254,-0.1320457240436915,0.06441717415526393,-1.0072577844256576,-0.3179739182742528,-0.027709016289362686
1784547049512417792,0.3723869323730469,-0.34344789385795593,0.8458160161972046,-0.05497486889362335,-0.16350701451301575,0.846835196018219,-0.5060985088348389,0.19597770273685455,-0.2958555817604065,0.20763659477233887,0.8655757629919119,-0.4799710700292985,-0.12875760396670594,0.0618703019335683,-1.0100062974671313,-0.3124884564762879,-0.031015243747309826
1784547049522337792,0.3823068141937256,-0.5691810250282288,0.8498805165290833,-0.0124122966080904,-0.15933778882026672,0.8493669629096985,-0.503177285194397,0.20459534227848053,-0.3702104687690735,0.17477762699127197,0.8648990436635057,-0.4824037424132217,-0.12529155054167626,0.05948471674211558,-1.0147847004252661,-0.30667325236414433,-0.034083098415644296
1784547049532256768,0.392225980758667,-0.6852394342422485,0.8709540963172913,-0.029567580670118332,-0.1550494283437729,0.8526769876480103,-0.4989004135131836,0.1790820211172104,-0.21513432264328003,0.1224050521850586,0.8638299622686502,-0.48551021412241807,-0.12177694710884987,0.05699130000608469,-1.0210881020075708,-0.30131925445201063,-0.03788207177850539
1784547049542176768,0.4021458625793457,-0.5869400501251221,0.934152364730835,0.006495581939816475,-0.15047810971736908,0.8560323119163513,-0.4945351779460907,0.14558002352714539,0.07899576425552368,0.06646513938903809,0.8627303343643615,-0.4886687592898205,-0.1180476722283303,0.05444230913753669,-1.0275445612608958,-0.29538049788999865,-0.04147722259273236
1784547049552096000,0.4120650291442871,-0.2851237952709198,1.0390678644180298,0.014771620742976665,-0.14518611133098602,0.8583843111991882,-0.4920338988304138,0.11295956373214722,0.22178536653518677,-0.015030920505523682,0.8621593307671122,-0.49095563010667026,-0.11377884335850137,0.05194447801993759,-1.032111895639906,-0.28693087702409076,-0.04319390777450308
1784547049562015744,0.4219849109649658,0.00380136095918715,1.1104689836502075,-0.054410312324762344,-0.13959857821464539,0.8593009114265442,-0.4920511245727539,0.08169145882129669,0.20129179954528809,-0.053084373474121094,0.8623201065887711,-0.4920148506716558,-0.1090680128398443,0.049291712512109176,-1.033901246153961,-0.2764433117839632,-0.04364431867338548
1784547049571936000,0.43190503120422363,0.11408738791942596,1.1543344259262085,-0.20743420720100403,-0.13455307483673096,0.8591077327728271,-0.49379095435142517,0.07121382653713226,0.16230034828186035,0.06578189134597778,0.8629968284850962,-0.4921667760559731,-0.10428995491608269,0.04617410722524869,-1.033523689198104,-0.2660311605368444,-0.04487655880011448
1784547049581854720,0.44182395935058594,0.2003561556339264,1.2385648488998413,-0.3282485604286194,-0.13034594058990479,0.8583549857139587,-0.4962223172187805,0.07248464226722717,0.20618963241577148,0.1659153401851654,0.8638973838988324,-0.4919136941018767,-0.09954774588278972,0.04233682480653761,-1.032054701511025,-0.2568734499495474,-0.048334098123918603
1784547049591774720,0.45174384117126465,0.19703227281570435,1.2581231594085693,-0.32629886269569397,-0.12615808844566345,0.8574959635734558,-0.49878326058387756,0.08582913875579834,0.23160004615783691,0.10652557015419006,0.8648315332862718,-0.4915803996155329,-0.09464185285668776,0.03818340016815955,-1.0303827182130807,-0.24773599573121655,-0.05251049266759338
1784547049601693952,0.46166300773620605,0.12217873334884644,1.3070893287658691,-0.38350731134414673,-0.12178762257099152,0.8570153713226318,-0.5006920099258423,0.09955556690692902,0.13025879859924316,-0.005823493003845215,0.8655610548610262,-0.4915524826741281,-0.08961116337634,0.033913205508306114,-1.0294493504113738,-0.23860495037421806,-0.05706531502364041
1784547049611613696,0.47158288955688477,0.09244374185800552,1.383835792541504,-0.45709362626075745,-0.11749710887670517,0.8568827509880066,-0.50194251537323,0.08871904760599136,-0.04572558403015137,-0.11910539865493774,0.8660943356188814,-0.49183785633649235,-0.08440535854999989,0.029185330247586364,-1.02919204578466,-0.22994446481784658,-0.06303357251411852
1784547049621532672,0.48150181770324707,0.2538771629333496,1.3992515802383423,-0.44941678643226624,-0.11316785961389542,0.8563265204429626,-0.5038829445838928,0.12023266404867172,-0.12614768743515015,-0.21617931127548218,0.8668087377781051,-0.4917510024556404,-0.07899038968808297,0.024170017271436046,-1.0281140250311291,-0.22092565684952328,-0.06934919435888287
1784547049631452672,0.4914219379425049,0.42626625299453735,1.2454726696014404,-0.4239945113658905,-0.10895631462335587,0.8546893000602722,-0.5075772404670715,0.17069339752197266,-0.08903384208679199,-0.2267976999282837,0.8679905617605547,-0.49067845072256633,-0.07379725496429497,0.019518210590598453,-1.024952071573881,-0.2114507436285343,-0.07430307568174874
1784547049641371648,0.5013408660888672,0.7809448838233948,1.166835904121399,-0.3968523144721985,-0.10504670441150665,0.8516982793807983,-0.5133958458900452,0.17670193314552307,-0.057432472705841064,-0.24139541387557983,0.8697475301190454,-0.4884010462877805,-0.0690397126989797,0.015404894931404114,-1.01921765116309,-0.20182574807706155,-0.07763305599126369
1784547049651291904,0.511260986328125,1.245987892150879,1.198667287826538,-0.28909096121788025,-0.10027918219566345,0.8464081883430481,-0.5230080485343933,0.15284566581249237,-0.17274779081344604,-0.2879202961921692,0.8725625267574083,-0.48414869263081417,-0.06400007218461569,0.011782484739823395,-1.0092039204535979,-0.1894363820546744,-0.07783723036908619
1784547049661210880,0.5211799144744873,1.5028343200683594,1.0920019149780273,-0.16195820271968842,-0.09443848580121994,0.8390831351280212,-0.5357432961463928,0.13794130086898804,-0.19162219762802124,-0.11493724584579468,0.8762380404145663,-0.4782047624368434,-0.05872441414383749,0.008860898596234672,-0.9955955756729412,-0.17448311555453516,-0.07476786896782413
1784547049671130880,0.5311000347137451,1.8176602125167847,0.9582744836807251,-0.042239267379045486,-0.08836770802736282,0.8298851847648621,-0.5508918166160583,0.11845804005861282,-0.12886589765548706,-0.08483517169952393,0.8805676148867122,-0.470804463316595,-0.05382622375638147,0.006826133006040249,-0.9789018519063326,-0.1590535145332396,-0.0693496000716427
1784547049681050880,0.5410199165344238,1.7297896146774292,0.8526300191879272,0.09689129143953323,-0.0818382054567337,0.8199869394302368,-0.5665014386177063,0.0984703078866005,-0.1642863154411316,-0.1249048113822937,0.8849969162770056,-0.4629615507329577,-0.049151748365587576,0.005572910964443944,-0.9613881772589018,-0.1434699387361247,-0.06231816135168738
1784547049690969600,0.5509388446807861,1.7362234592437744,0.8252394199371338,0.24750344455242157,-0.07454068213701248,0.8100757002830505,-0.581567645072937,0.09532317519187927,-0.3063220977783203,-0.12479215860366821,0.8892453221701792,-0.4552271185509573,-0.0445470793715185,0.005146750528898207,-0.9442812415128128,-0.1274769544142469,-0.053587436225353724
1784547049700889856,0.560858964920044,1.6544091701507568,0.9507852792739868,0.3623746335506439,-0.06596732139587402,0.8002238869667053,-0.5960620641708374,0.09366203844547272,-0.4051433801651001,-0.23618274927139282,0.8933115179047548,-0.44767440354207416,-0.039453631962363164,0.0050499259730655156,-0.9276684404604603,-0.11022334499225536,-0.04387331956565947
1784547049710808832,0.5707778930664062,1.9739432334899902,0.9616110324859619,0.5771732330322266,-0.05570177361369133,0.7894113659858704,-0.6113321185112,0.13527637720108032,-0.36784160137176514,-0.25738126039505005,0.8975719917135996,-0.4395408234296074,-0.033731502298554136,0.005518404320129068,-0.9098494849682506,-0.0908645120797665,-0.03217293268662515
1784547049720728832,0.5806980133056641,2.60221529006958,0.8276447653770447,0.7579288482666016,-0.04412965849041939,0.7755113244056702,-0.6297893524169922,0.19107182323932648,-0.27311575412750244,-0.22989076375961304,0.9026873696088569,-0.42933897757096895,-0.027809399795850818,0.0070768427625406425,-0.8875246449418847,-0.06995616342638278,-0.017587434767247945
1784547049730647808,0.5906169414520264,3.050811529159546,0.6502657532691956,0.8202297687530518,-0.032620836049318314,0.7568030953407288,-0.6528285145759583,0.18273678421974182,-0.14184337854385376,-0.24039047956466675,0.9090218634847379,-0.4160352087427851,-0.022370856488228053,0.00967509504687955,-0.8584082436441457,-0.049926934562262916,-0.0015671895245655103
1784547049740567808,0.6005368232727051,2.961583137512207,0.5541632771492004,0.7500720620155334,-0.02193448320031166,0.7367386817932129,-0.6758217811584473,0.08975978940725327,-0.02163553237915039,0.005991458892822266,0.9152896429876894,-0.40222378873791836,-0.017468090153964874,0.01248339915167869,-0.8282343961240295,-0.03244462883007111,0.013014239163638568
1784547049750486784,0.6104559898376465,2.9515843391418457,0.6131752133369446,0.7699509859085083,-0.011713278479874134,0.71595299243927,-0.6980502009391785,-0.046117525547742844,-0.11040794849395752,0.29967373609542847,0.9213006630295028,-0.3883455898262532,-0.012751509881205608,0.015170342143676465,-0.7979881752525597,-0.01677841914839007,0.025855414940924585
1784547049760406784,0.6203758716583252,2.613300085067749,0.7856338024139404,0.8697447776794434,-0.0003901951713487506,0.695935845375061,-0.71810382604599,-0.11299785226583481,-0.1386849284172058,0.28396075963974,0.9266781900320421,-0.3753566520386289,-0.00744879810015551,0.017869780959281236,-0.769722320388789,-0.0005433687137514903,0.03834251080467865
1784547049770326016,0.6302950382232666,2.4953818321228027,0.7614754438400269,0.8154748678207397,0.011657261289656162,0.6771659255027771,-0.7357379794120789,-0.11677505075931549,-0.1643638014793396,0.14783209562301636,0.9313689420214822,-0.36349409073367595,-0.001747517466198072,0.020512614423448743,-0.7439042156184047,0.015842985106074493,0.05022181167041628
1784547049780245760,0.6402149200439453,2.3940303325653076,0.8290002346038818,0.7525972127914429,0.02302434854209423,0.6587697863578796,-0.7519921660423279,-0.08384586870670319,-0.14666956663131714,-0.041098594665527344,0.9356703144591846,-0.3521219736586313,0.00374667184291916,0.022737930753369173,-0.7191823963128805,0.030608243022708623,0.0601003891207812
1784547049790164736,0.6501338481903076,2.2740533351898193,0.8246619701385498,0.6971307992935181,0.03453318402171135,0.6403402090072632,-0.7673147320747375,0.0067418403923511505,0.045694947242736816,-0.32046908140182495,0.9397045833976072,-0.3409610122369887,0.009393187334835079,0.02475288964985167,-0.6949411453091009,0.04497489154778867,0.06896080485213231
1784547049800082688,0.6600518226623535,1.9096920490264893,0.7207093834877014,0.4256020784378052,0.04464804381132126,0.6237735152244568,-0.7803289294242859,0.014754407107830048,0.2337856888771057,-0.3100641369819641,0.9431262115688063,-0.33109569109728065,0.014532186059621815,0.026029747530778413,-0.6735613563632743,0.057154640177208435,0.07520055741881607
1784547049810002688,0.6699717044830322,2.083693742752075,0.5388895273208618,0.12149600684642792,0.051702115684747696,0.6076815128326416,-0.7924960851669312,-0.04388963058590889,0.3106992244720459,-0.11050379276275635,0.9463398360810108,-0.3215796997761199,0.018396800282613392,0.02624989521556224,-0.6531379995427633,0.06514726239393143,0.0775344765047254
1784547049819921664,0.6798908710479736,2.1615092754364014,0.4998571276664734,-0.21723993122577667,0.056106533855199814,0.5901628136634827,-0.8053321838378906,-0.1381683051586151,0.41833633184432983,-0.046108245849609375,0.9497558539781638,-0.3112550460920879,0.021312215538115676,0.025097954527670847,-0.6312605122224445,0.0695564175775565,0.07556069182040129
1784547049829841664,0.6898107528686523,2.6292998790740967,0.5198920965194702,-0.44917038083076477,0.05884215235710144,0.5708150267601013,-0.8189675211906433,-0.19853636622428894,0.6633310914039612,-0.07255774736404419,0.953401574692305,-0.2999194658233378,0.023760210495666404,0.022566237935230847,-0.6074981401116805,0.07172593374446057,0.06982064019866883
1784547049839760640,0.6997296810150146,3.306758403778076,0.48834317922592163,-0.6074036955833435,0.06107832118868828,0.5458319187164307,-0.8356655836105347,-0.19460798799991608,0.8320519924163818,-0.27555572986602783,0.9578453116196055,-0.2854494795337573,0.02618782247519158,0.019111186412848823,-0.5773816761136885,0.07295969739123746,0.06157613748753789
1784547049849680640,0.7096498012542725,3.112522602081299,0.5378566384315491,-0.9977495670318604,0.06342782080173492,0.5177817940711975,-0.8531582355499268,-0.21271981298923492,0.890619695186615,-0.21735262870788574,0.962479115921563,-0.26942112465232976,0.028864311670856034,0.014596531068683541,-0.5442560487548974,0.0742082166083257,0.05104539515807937
1784547049859599616,0.7195687294006348,2.7452070713043213,0.6113650798797607,-1.367727518081665,0.06266564875841141,0.49355435371398926,-0.8674543499946594,-0.2695595622062683,0.6676089763641357,0.0878523588180542,0.9662643983151856,-0.25563699157553826,0.03037332351428645,0.007761639645606836,-0.5161718396205348,0.07211557907756531,0.035109152951889024
1784547049869519616,0.7294888496398926,2.1449739933013916,0.7571089863777161,-1.7097352743148804,0.06133463978767395,0.4733937084674835,-0.8787129521369934,-0.23931315541267395,0.3806407153606415,0.3032430410385132,0.9692036618396843,-0.24419015587074375,0.03185418704067693,-0.0008430955453789072,-0.4931395573050316,0.06968751064609482,0.015806618556310745
1784547049879438592,0.7394077777862549,1.6917964220046997,0.8837525844573975,-1.9726276397705078,0.059974849224090576,0.45828959345817566,-0.8867771029472351,-0.19190232455730438,0.34142351150512695,0.3940555453300476,0.9712192374215448,-0.23555424112160067,0.0335506831793545,-0.011027794736850338,-0.47606985661126405,0.06752954691349691,-0.006317304594325799
1784547049889358848,0.7493278980255127,1.8747025728225708,1.1954015493392944,-2.08414363861084,0.059899430721998215,0.44498211145401,-0.8935339450836182,-0.12178906798362732,0.2895759642124176,0.20269232988357544,0.9727631124467414,-0.22789368717007277,0.036020587937605514,-0.022334029191083,-0.4611542890885433,0.06693639621216432,-0.0301916548129563
1784547049899277568,0.759246826171875,2.8199431896209717,1.5507797002792358,-2.1432929039001465,0.06287148594856262,0.4262336194515228,-0.9024256467819214,-0.014958888292312622,0.09151238203048706,-0.1255437135696411,0.9746897046809312,-0.21723538379597362,0.0399494261607138,-0.03453650589947474,-0.4403251376110994,0.06955704148444981,-0.0552648849043129
1784547049909197568,0.7691667079925537,3.557128429412842,1.56355619430542,-2.152061939239502,0.06815789639949799,0.39928489923477173,-0.9142898917198181,0.1814759075641632,-0.11113792657852173,-0.1755690574645996,0.9771934587020915,-0.2021399049458898,0.04465981715890873,-0.04730551697291663,-0.4107367376552286,0.07440972139710667,-0.08123683485417688
1784547049919117568,0.7790868282318115,3.558074951171875,1.2184793949127197,-2.1079659461975098,0.07287821918725967,0.3682742714881897,-0.9268564581871033,0.41442644596099854,-0.2959476113319397,-0.14012962579727173,0.9797159569183129,-0.18498557683680272,0.04849868198134461,-0.059873972657574014,-0.37715213826915867,0.07846801604701506,-0.10709285447659346
1784547049929036544,0.7890057563781738,3.216982841491699,0.49131131172180176,-2.1017940044403076,0.07354629039764404,0.33901697397232056,-0.9379010796546936,0.524903416633606,-0.5740023255348206,0.0936170220375061,0.981740612911004,-0.16902616213290675,0.04979572457624004,-0.07166547727796153,-0.345871785707891,0.07825568996589652,-0.13206173921497172
1784547049938956800,0.7989258766174316,3.008657217025757,-0.33246156573295593,-2.3074865341186523,0.0679473951458931,0.31226274371147156,-0.9475627541542053,0.477813720703125,-0.8269875049591064,0.22658497095108032,0.9832981139372631,-0.15475784964402048,0.047630236715927206,-0.08310418619220426,-0.3175739530529705,0.07158501248320771,-0.15716275237540017
1784547049948875776,0.808844804763794,3.7249596118927,-0.9265339970588684,-2.316328763961792,0.055763766169548035,0.28143927454948425,-0.95795738697052,0.43144935369491577,-0.7185119986534119,0.31519615650177,0.9848829324342732,-0.1388687569682079,0.041674655156846166,-0.09478570755309683,-0.2852936674153968,0.05814549720649266,-0.18353688792689582
1784547049958795520,0.8187646865844727,0.9954919815063477,-0.8538194298744202,-1.697198510169983,0.044151775538921356,0.25583934783935547,-0.9657105207443237,0.44260358810424805,-0.29246047139167786,1.6200838088989258,0.9858841939042643,-0.12597019999357786,0.035724443364486935,-0.10434433390946826,-0.2587158438688925,0.04568765511897431,-0.20494730204770767
1784547049968714752,0.8286838531494141,2.7687201499938965,-0.9590116739273071,-1.8675252199172974,0.031152402982115746,0.24136069416999817,-0.9699353575706482,0.0842650830745697,-0.7856416702270508,0.4309033751487732,0.9860251678648908,-0.11902622986519742,0.029412434230827844,-0.11279193464191015,-0.24376774800743528,0.03210698386650155,-0.2238577729975809
1784547049978634496,0.8386037349700928,4.112371921539307,-0.5748353004455566,-2.2791926860809326,0.01961865834891796,0.20577305555343628,-0.9784030914306641,-0.09458508342504501,-1.0820090770721436,-0.6472072601318359,0.9869704448182999,-0.10143630644360482,0.0225642244744627,-0.12284451051611446,-0.20725360231118042,0.02004902735417055,-0.24557366444070816
1784547049988553728,0.8485229015350342,4.815093517303467,-0.08186844736337662,-2.515566349029541,0.01207710150629282,0.1640166938304901,-0.9863836169242859,-0.06548286229372025,0.1454620510339737,0.3172551989555359,0.9873826518192667,-0.08070694270705897,0.017163169242792247,-0.13515646238337922,-0.16476112608982232,0.01224320596816373,-0.27106532602287997
1784547049998473728,0.8584427833557129,6.181944370269775,0.238746777176857,-2.0063869953155518,0.010502664372324944,0.10913322120904922,-0.9939716458320618,0.2444716989994049,0.15432503819465637,0.05952340364456177,0.9876563395511911,-0.053283299988854955,0.013231280826367006,-0.14669936332680633,-0.10935101885595633,0.010565968965551455,-0.29433115063615045
1784547050008392448,0.8683617115020752,6.937698841094971,-0.20070862770080566,-2.1140520572662354,0.009635835886001587,0.04450139030814171,-0.9989628791809082,0.4256821572780609,-0.4269934594631195,0.1861882209777832,0.987357449794146,-0.021224631450200405,0.008251646700163458,-0.15686524681596425,-0.04451609049027985,0.009645540618847695,-0.31489927102960635
1784547050018312704,0.878281831741333,6.450950622558594,-0.3282184898853302,-2.6925485134124756,0.006437158677726984,-0.024149732664227486,-0.9996876120567322,0.28885093331336975,-0.38553348183631897,0.13988536596298218,0.9855619741108499,0.012445939877694287,0.0011334012295017293,-0.16885362774922733,0.024152080341239307,0.0064390809278665724,-0.3394375055934788
1784547050028232448,0.8882017135620117,4.212045669555664,0.005423661321401596,-2.716651678085327,0.006833889055997133,-0.07648565620183945,-0.9970472455024719,0.23985496163368225,-0.07854363322257996,0.1684950590133667,0.9824920454439872,0.03825265107313877,-0.003619872475701333,-0.18229953142931335,0.07656042412411157,0.006854020016269581,-0.3671858920320087
1784547050038151680,0.8981208801269531,2.781254291534424,0.024872880429029465,-2.5451931953430176,0.009777911938726902,-0.11041205376386642,-0.9938377737998962,0.23247061669826508,-0.687958300113678,0.3087639808654785,0.9792623244904067,0.05518379229027391,-0.005987443973898554,-0.19484405964321808,0.1106376284924659,0.00983822124859433,-0.3933552223392897
1784547050048071680,0.9080407619476318,2.3673768043518066,0.07523325830698013,-2.8477516174316406,0.01387716643512249,-0.1352432817220688,-0.9907152056694031,0.10871194303035736,-0.8953810930252075,-0.15966010093688965,0.9758059044652144,0.06774158530711757,-0.007311672626096327,-0.20775062197423252,0.1356590012113135,0.014006304106304436,-0.42049064981079015
1784547050057990656,0.9179596900939941,2.658296585083008,0.1465909481048584,-2.9816648960113525,0.01975386217236519,-0.15929605066776276,-0.9870331883430481,-0.04425948113203049,-0.32007405161857605,-0.42841780185699463,0.9717337508967355,0.08010797567259008,-0.008130738669975783,-0.22192351925906295,0.15997755841969902,0.020010699258113225,-0.45066052500380227
1784547050067910656,0.927879810333252,3.4636638164520264,0.2749446630477905,-2.5575530529022217,0.026965947821736336,-0.18892784416675568,-0.9816206693649292,0.08286681771278381,-0.09447363018989563,-0.5329667329788208,0.9672414872098148,0.0954156024690256,-0.00924859468617151,-0.23506216591914453,0.19007021696472218,0.027463936439082952,-0.4794212914323831
1784547050077829632,0.9377987384796143,4.443011283874512,0.26301953196525574,-2.264474391937256,0.03528490662574768,-0.22670644521713257,-0.9733237624168396,0.11907300353050232,-0.04334360361099243,-0.5384407639503479,0.9623091278213165,0.11495803735479775,-0.011079852462622402,-0.24621764547922528,0.22869474595795705,0.03623610580483868,-0.5051371739578234
1784547050087749632,0.9477188587188721,6.008739471435547,0.1657198965549469,-1.9656016826629639,0.04330888018012047,-0.2767094075679779,-0.9599772095680237,0.01166854053735733,0.1473911702632904,-0.6147603392601013,0.9563134343759001,0.14066540781804807,-0.014987937954898825,-0.255838349200824,0.28036812369015157,0.04508391614077144,-0.5291711557049257
1784547050097668608,0.9576377868652344,6.895885467529297,0.1919204145669937,-2.127291679382324,0.052563752979040146,-0.33841899037361145,-0.9395262598991394,-0.056622590869665146,0.38471418619155884,-0.8745911717414856,0.9485026603515248,0.1726756120720722,-0.020493699774967504,-0.2647751205480781,0.3452362517320239,0.0558888190619059,-0.5541886998820839
1784547050107588864,0.9675579071044922,7.563286781311035,0.07696986198425293,-2.234466552734375,0.06697139889001846,-0.4062038064002991,-0.9113250374794006,-0.14915522933006287,0.5419307947158813,-0.7960571646690369,0.9382665979032373,0.20902106479092813,-0.025449546277040117,-0.27444199036819883,0.4182958431825667,0.0733560732696276,-0.5846986186482064
1784547050117507584,0.9774768352508545,7.83065938949585,-0.12093519419431686,-2.179372787475586,0.07746105641126633,-0.4739345908164978,-0.8771464228630066,-0.10117320716381073,0.3922695815563202,-0.7265065312385559,0.9263591367274133,0.2455865818188601,-0.03337709580501004,-0.28360550185199657,0.49375372979497095,0.08808179322643257,-0.6163918010190942
1784547050127427584,0.9873967170715332,7.520742416381836,-0.5335578918457031,-2.024522304534912,0.08603866398334503,-0.5376030802726746,-0.8387969732284546,-0.04250532388687134,0.24649590253829956,-0.5282074213027954,0.9131990430581925,0.2806680569086757,-0.04274295687762237,-0.2923459130045569,0.5675918468338219,0.10221639969693191,-0.6494858706977843
1784547050137347584,0.997316837310791,7.350671768188477,-0.9265791177749634,-1.7549551725387573,0.09081019461154938,-0.5964685082435608,-0.7974827885627747,0.06743869930505753,0.04419189691543579,-0.43429821729660034,0.8993296273971346,0.31358128236388205,-0.054086815165954316,-0.29991258589527114,0.6390940140127563,0.11338266135247688,-0.6813259952467536
1784547050147266560,1.0072357654571533,7.825573921203613,-1.0128810405731201,-1.680260419845581,0.09565994888544083,-0.653975784778595,-0.7504430413246155,0.14127850532531738,-0.19509947299957275,-0.40249574184417725,0.8837593752964218,0.34694978815039884,-0.06636503636824306,-0.30690521118167124,0.7128279974503543,0.12678752765091314,-0.7157448732180406
1784547050157186816,1.0171558856964111,6.6382317543029785,-1.346813440322876,-1.3841570615768433,0.09785457700490952,-0.7048444151878357,-0.7025801539421082,0.2666626572608948,-0.3136644959449768,-0.11596232652664185,0.8679334866774272,0.37730291447898046,-0.07970214146809389,-0.31302023342274604,0.7822038178760126,0.13838861384667725,-0.7494012683563382
1784547050167105792,1.0270748138427734,6.023364067077637,-1.7081279754638672,-0.8680042028427124,0.09628356993198395,-0.7463898658752441,-0.6585070490837097,0.33750852942466736,-0.5028318762779236,0.22804135084152222,0.8532518023992506,0.40246469186267975,-0.0936410675206676,-0.3181426748367444,0.8426208595639298,0.14518613762299853,-0.7789405865386075
1784547050177025536,1.0369946956634521,5.1313347816467285,-2.0131325721740723,-0.37953272461891174,0.08939080685377121,-0.7813503742218018,-0.6176576614379883,0.3485974669456482,-0.8728549480438232,0.22245502471923828,0.8398281138402967,0.423427462826724,-0.10899707074084533,-0.32174155173477326,0.8968265945890735,0.14372756020591104,-0.8009521259835504
1784547050186944768,1.0469138622283936,4.249091148376465,-2.1956300735473633,-0.04059726372361183,0.0790606439113617,-0.8090133666992188,-0.5824490189552307,0.2717084288597107,-0.9861679673194885,0.35884666442871094,0.8282167525959303,0.4396294926211932,-0.12450464235898447,-0.32447130016387254,0.9424716602541239,0.13491375395748118,-0.8156035436496146
1784547050196864512,1.0568337440490723,3.5277109146118164,-2.263833999633789,0.21279405057430267,0.06571456044912338,-0.830827534198761,-0.5526367425918579,0.1756490021944046,-0.9129775166511536,0.42856746912002563,0.818370738525117,0.4517342220493652,-0.14006364643296307,-0.32647796664159157,0.9805929784123657,0.11835520106416009,-0.8224057744161025
1784547050206783744,1.0667529106140137,2.974419116973877,-2.098332643508911,0.03793782740831375,0.052963778376579285,-0.848505437374115,-0.5265294313430786,-0.03187613934278488,-0.7491965293884277,0.3698369860649109,0.8094997042054773,0.46135281945904427,-0.15456023530468868,-0.3285952697803934,1.0131546569952357,0.10025312369271844,-0.8268654352341357
1784547050216703744,1.0766727924346924,2.338411569595337,-1.7827749252319336,0.05839749425649643,0.043067462742328644,-0.8621652126312256,-0.5047934651374817,-0.13974714279174805,-0.5235922932624817,0.2750266194343567,0.8018351998433112,0.46887689534675464,-0.1666064896966791,-0.33084308583433986,1.0395280262150117,0.08511088734315433,-0.831379094508386
1784547050226623744,1.0865929126739502,1.2782182693481445,-1.5341664552688599,0.11504106223583221,0.03392207995057106,-0.8713851571083069,-0.48942551016807556,-0.18409904837608337,-0.5045304894447327,0.059310734272003174,0.7962584820142982,0.4734263983051099,-0.17650690575192168,-0.33269408316435534,1.0580187171145643,0.06919933105972467,-0.8320136792742481
1784547050236542720,1.0965118408203125,0.5066943764686584,-1.0526832342147827,0.17717526853084564,0.02682783454656601,-0.8756007552146912,-0.4822898805141449,-0.2001371681690216,-0.6477756500244141,-0.0011085569858551025,0.7932232863144703,0.4746189826953158,-0.18328088109822838,-0.3345769671714069,1.066678179713891,0.05556868529779244,-0.831118180514146
1784547050246462464,1.1064317226409912,-0.007485581561923027,-0.8678119778633118,0.4812920391559601,0.01950269564986229,-0.8769014477729797,-0.4802742898464203,-0.11766251921653748,-0.840398907661438,0.022373348474502563,0.792284580325407,0.473759981788279,-0.18818695269439004,-0.335294188638136,1.0693774644725542,0.040585112610769074,-0.8247265367882579
1784547050256381696,1.1163508892059326,-0.799180805683136,-0.7365445494651794,0.6709141731262207,0.010808579623699188,-0.8751689791679382,-0.4836965501308441,-0.012731185182929039,-0.8072651028633118,0.2733083963394165,0.793378710816724,0.4704224443714766,-0.191975116756413,-0.33525879157630895,1.0657850038029337,0.02234206660284194,-0.812800687428526
1784547050266301696,1.1262707710266113,-1.4335280656814575,-0.7572311758995056,0.9280956387519836,0.00026496287318877876,-0.8697775602340698,-0.4934438169002533,0.03089345619082451,-0.7661781311035156,0.6286062002182007,0.7965629935625821,0.463975589626817,-0.19494805981312155,-0.3349764406401339,1.0547513983616055,0.0005369666295374075,-0.7964647843822914
1784547050276220672,1.1361896991729736,-1.8371893167495728,-0.6400346755981445,1.3226187229156494,-0.012751881964504719,-0.8616359829902649,-0.5073665380477905,0.07047588378190994,-0.8169833421707153,0.7097591161727905,0.8014043453090398,0.4552721789144787,-0.19759551091747143,-0.3338178069034436,1.0384843912362989,-0.02512818067261247,-0.7750054817289355
1784547050286140672,1.1461098194122314,-2.2285375595092773,-0.5669423341751099,1.7288460731506348,-0.02874618023633957,-0.8510339260101318,-0.5243232846260071,0.040968455374240875,-0.8828832507133484,0.6266792416572571,0.8078136640773872,0.44476147742691197,-0.20006398631338745,-0.3310568464883183,1.0179510859443972,-0.054770466124072506,-0.7473153034125255
1784547050296059648,1.1560287475585938,-2.5322248935699463,-0.5580602288246155,2.000542163848877,-0.047446027398109436,-0.8377269506454468,-0.5440242886543274,0.019903894513845444,-0.9777332544326782,0.5279110074043274,0.815463912523671,0.4323856314456632,-0.20255994442113612,-0.3271554377734325,0.9931073883422386,-0.0869929593238431,-0.7159055050535343
1784547050305979648,1.1659488677978516,-2.9141621589660645,-0.3930414617061615,2.087419033050537,-0.06690659373998642,-0.8216826915740967,-0.5660045742988586,0.010494858026504517,-1.0842164754867554,0.38909417390823364,0.8239961140526953,0.41857033633680824,-0.20444210063803828,-0.3225412541043799,0.9643571277590809,-0.11766254677801462,-0.6845687440497125
1784547050315898624,1.1758677959442139,-3.4082658290863037,-0.46147626638412476,2.375594139099121,-0.08728001266717911,-0.8020250797271729,-0.590878963470459,0.013335905969142914,-1.1350629329681396,0.26849132776260376,0.8334285448212312,0.4027428515794178,-0.20581234366591422,-0.3175472237723787,0.930677943259724,-0.1466517194319634,-0.6543288948582056
1784547050325818880,1.1857879161834717,-3.7915501594543457,-0.44530901312828064,2.643825054168701,-0.1097443550825119,-0.7779548168182373,-0.6186617612838745,0.0576050728559494,-1.1485130786895752,0.2647799849510193,0.8439133373589126,0.3844669725361801,-0.20701269075449652,-0.3116746059090098,0.8914042125968349,-0.17556361343300453,-0.6235195165449211
1784547050335738624,1.1957077980041504,-3.957104444503784,-0.5892369747161865,3.034754514694214,-0.1345265656709671,-0.7501819729804993,-0.6474022269248962,0.0711415559053421,-1.1238415241241455,0.27580493688583374,0.8548875603878368,0.36440713225139015,-0.20858170080912253,-0.30474326274428454,0.8483372568652024,-0.20487882948643113,-0.5920793862184953
1784547050345657600,1.2056267261505127,-4.018430709838867,-0.7789992094039917,3.3933308124542236,-0.16255995631217957,-0.7193729281425476,-0.6753345727920532,0.12047621607780457,-1.0235011577606201,0.3603779673576355,0.8659278146284549,0.34306400119657016,-0.211281364877328,-0.2963716100368737,0.8028991321665401,-0.2362164562536078,-0.5588655485181466
1784547050355577600,1.2155468463897705,-3.9295711517333984,-0.9490636587142944,3.694114923477173,-0.19322334229946136,-0.6859449148178101,-0.7015299797058105,0.11226022243499756,-0.8458696603775024,0.5292887687683105,0.8766756644548569,0.3208590687836703,-0.21513822677490163,-0.28671396371454244,0.755901520941258,-0.26876717513678533,-0.5249091714983141
1784547050365496576,1.2254657745361328,-3.564937114715576,-1.0548337697982788,3.952833890914917,-0.22575318813323975,-0.6515463590621948,-0.7242394089698792,0.12315307557582855,-0.7160072922706604,0.5898705124855042,0.8866704475001533,0.2989710736220691,-0.22021940568458423,-0.27556326564600714,0.7096211099274127,-0.3021656422917399,-0.4899525355357058
1784547050375416832,1.2353858947753906,-3.2766025066375732,-1.0298283100128174,4.12097692489624,-0.2587984502315521,-0.617222785949707,-0.7430070042610168,0.13190636038780212,-0.6750898361206055,0.48101359605789185,0.8957350474136663,0.2781442966292628,-0.2261244185246856,-0.2629870202720777,0.6652079561066804,-0.33517048420616596,-0.454404514156439
1784547050385335808,1.245304822921753,-3.309220790863037,-0.8914792537689209,4.303578853607178,-0.29103705286979675,-0.5815311074256897,-0.7596834897994995,0.12671515345573425,-0.7091640830039978,0.4007357358932495,0.9042856647836922,0.2576252130939429,-0.23192132651976108,-0.24921710942469943,0.6206094851169809,-0.3658556927117595,-0.41933556776307457
1784547050395255552,1.2552247047424316,-3.7539560794830322,-0.6828470230102539,4.549500465393066,-0.3217092752456665,-0.5415242314338684,-0.776694655418396,0.125435471534729,-0.8084208369255066,0.4766916036605835,0.9129309305632376,0.23582686614793943,-0.2367242091581504,-0.23431685985889383,0.5722491305027633,-0.39269008669994954,-0.38557939540464287
1784547050405174784,1.265143871307373,-4.434504985809326,-0.47555533051490784,4.690057277679443,-0.34998369216918945,-0.4943715035915375,-0.7956809401512146,0.11846211552619934,-0.9184092283248901,0.6961784362792969,0.9219507573345043,0.211190513084752,-0.23991267072065095,-0.2187400249148026,0.5171116625707969,-0.4143848120864882,-0.3548249679507521
1784547050415094528,1.2750637531280518,-5.042208194732666,-0.28635451197624207,4.689741134643555,-0.37478870153427124,-0.4397043287754059,-0.8162068128585815,0.12428513169288635,-0.985329270362854,0.899443507194519,0.93102587481319,0.183467789077143,-0.24132172316009803,-0.2032096479069731,0.4552694368158498,-0.4304646249577876,-0.3285886497868609
1784547050425014784,1.2849838733673096,-5.4373273849487305,-0.18011701107025146,4.690722465515137,-0.39568614959716797,-0.37893953919410706,-0.8365627527236938,0.16894054412841797,-0.9465304613113403,1.0834347009658813,0.9396495135138897,0.15337638554442987,-0.24123493564789994,-0.18798989471681435,0.3886501195202827,-0.44180740136364505,-0.30657735583404894
1784547050434933760,1.2949028015136719,-5.6585588455200195,-0.04212426394224167,4.855060577392578,-0.4130626618862152,-0.31349897384643555,-0.8550424575805664,0.2549968957901001,-0.864250659942627,1.2059030532836914,0.947518695091687,0.12173565503827952,-0.2401232888123202,-0.17242257096520075,0.3188755220080251,-0.4500285076590841,-0.2864270703119588
1784547050444853504,1.3048226833343506,-5.895776748657227,0.06325941532850266,5.0726776123046875,-0.42667290568351746,-0.24367691576480865,-0.8709602952003479,0.33045101165771484,-0.826589822769165,1.2916908264160156,0.9545625262672518,0.08878126424082942,-0.2379868784604704,-0.15585391939910548,0.24615524740092815,-0.4555252535885512,-0.2663599445526713
1784547050454772736,1.314741849899292,-6.200098514556885,0.08978511393070221,5.173665523529053,-0.4365432560443878,-0.1692889928817749,-0.8836125731468201,0.3889053165912628,-0.8429485559463501,1.2602300643920898,0.9605235184548504,0.05421265955115985,-0.2350631738428764,-0.13856684467446054,0.17010820531943308,-0.4588712518172397,-0.24672737999697533
1784547050464692480,1.3246617317199707,-6.368553161621094,0.07997056841850281,5.186774730682373,-0.4425681531429291,-0.09161286801099777,-0.892042875289917,0.4391959607601166,-0.9022073149681091,1.1294543743133545,0.9650654629014377,0.018397353980017475,-0.23160331210318105,-0.12111996355036089,0.0917415076289766,-0.4605458332190333,-0.2281818535377723
1784547050474611712,1.334580898284912,-6.464366436004639,0.05293178930878639,5.245926856994629,-0.444770872592926,-0.012167568318545818,-0.895561695098877,0.4912186563014984,-0.9605954885482788,1.084007740020752,0.9680234022274078,-0.01807038287724995,-0.22779947617722332,-0.10349601328886199,0.012167868456666092,-0.46095519233025195,-0.2101651488063427
1784547050484531712,1.3445007801055908,-6.496741771697998,0.015169233083724976,5.376083850860596,-0.4430946111679077,0.06846008449792862,-0.8938570022583008,0.5255988836288452,-0.9726043939590454,1.1453981399536133,0.9693542278858442,-0.05500431194037832,-0.22370966588954883,-0.08532765129866325,-0.06851367329692143,-0.4602103822594331,-0.19165344985400487
1784547050494450688,1.3544197082519531,-6.187292098999023,-0.05492676421999931,5.549692630767822,-0.4375486969947815,0.1479879915714264,-0.8869333267211914,0.5471678376197815,-1.0210806131362915,1.1980905532836914,0.9690694749371502,-0.09133277857375026,-0.21952600122940968,-0.06611431346571453,-0.1485335549253991,-0.45829547062663345,-0.17094295666694412
1784547050504370688,1.364339828491211,-5.719918727874756,-0.11524736881256104,5.739582061767578,-0.4281660318374634,0.22369009256362915,-0.8755778670310974,0.5614973306655884,-1.1217613220214844,1.2154521942138672,0.9673266273381302,-0.12574934045954977,-0.21540236253574865,-0.045476003013321116,-0.2255988666985687,-0.4548167523584533,-0.14637158689829619
1784547050514290688,1.3742597103118896,-5.219660758972168,-0.14318795502185822,6.002260684967041,-0.4144839942455292,0.29468047618865967,-0.8610263466835022,0.5633335113525391,-1.1905087232589722,1.3219486474990845,0.964352892958549,-0.15785761347845065,-0.2111108437472925,-0.023164172333736115,-0.2991211304994759,-0.4486438931637263,-0.11676606292650961
1784547050524209664,1.384178876876831,-4.511539936065674,-0.16550976037979126,6.262866497039795,-0.3964381515979767,0.3596709072589874,-0.8446736335754395,0.5973812341690063,-1.210500955581665,1.4106221199035645,0.9603830491482108,-0.18703034846072603,-0.20659820971477566,0.0010390962497003908,-0.3679151700600262,-0.43881921237265176,-0.08077163288895728
1784547050534129664,1.3940987586975098,-3.7004499435424805,-0.16772852838039398,6.504935264587402,-0.3740943968296051,0.41659775376319885,-0.8285527229309082,0.6572518348693848,-1.221254825592041,1.4375615119934082,0.9557921427835043,-0.2122010857127076,-0.20172835938609768,0.02715902966749788,-0.42969962586153154,-0.42410348425954464,-0.03707539054509684
1784547050544048640,1.404017686843872,-3.0654232501983643,-0.06796970963478088,6.674726486206055,-0.34912559390068054,0.4637480676174164,-0.814278244972229,0.7056471705436707,-1.2167693376541138,1.3818289041519165,0.9508802625491912,-0.232574656964119,-0.19690073882201534,0.05446089121805464,-0.48222103440754077,-0.4050465848155594,0.01352611690472368
1784547050553968640,1.4139378070831299,-2.8471291065216064,0.21228401362895966,6.7584733963012695,-0.3203492760658264,0.5045037865638733,-0.8017807602882385,0.7188324928283691,-1.2558770179748535,1.3004531860351562,0.945580283648043,-0.25013782587382866,-0.19115622481673972,0.08227034905031716,-0.5288071372412103,-0.3801159883047395,0.06949648298792035
1784547050563887616,1.4238567352294922,-3.246138572692871,0.5725263357162476,6.78485631942749,-0.2832236886024475,0.5472158789634705,-0.7876161336898804,0.683171808719635,-1.3537192344665527,1.2710450887680054,0.9389535922242964,-0.2699461857040319,-0.18254039605537029,0.11033722209064842,-0.5790342672504988,-0.3451979869721963,0.1301785912827156
1784547050573807616,1.43377685546875,-3.8425803184509277,0.9028360247612,6.90679407119751,-0.23971113562583923,0.5915957689285278,-0.7697746753692627,0.6427720189094543,-1.5449953079223633,1.3658897876739502,0.930548339606609,-0.2924073328024002,-0.17207734404889075,0.13772130834485785,-0.6330366690900789,-0.3018863248492957,0.19431479868883508
1784547050583726592,1.4436957836151123,-4.29767370223999,1.1569156646728516,7.167001247406006,-0.18962058424949646,0.6368420124053955,-0.7473127245903015,0.6459041833877563,-1.766404390335083,1.4525282382965088,0.9200283482242655,-0.31742295976544893,-0.15995718000030368,0.16493717557641904,-0.6903953099317502,-0.2484923543490441,0.2650201940666768
1784547050593646848,1.4536159038543701,-4.581099987030029,1.285117745399475,7.422049522399902,-0.1335061490535736,0.6804668307304382,-0.7205144166946411,0.6997750997543335,-1.8310253620147705,1.6087895631790161,0.9072868153033303,-0.3438899788150279,-0.14656900110883456,0.19258207764565216,-0.7483994910556383,-0.18321488449561535,0.34619478596609715
1784547050603565568,1.4635348320007324,-5.125344276428223,1.3810157775878906,7.6328444480896,-0.07215376943349838,0.7217968702316284,-0.6883335709571838,0.7331644892692566,-1.6434277296066284,1.872110366821289,0.8919711801222099,-0.3719187558672494,-0.13232403212563065,0.22035010691923293,-0.8063950302461039,-0.10444241828051841,0.439791594638227
1784547050613485568,1.4734547138214111,-5.596395969390869,1.3493061065673828,7.882408142089844,-0.006385480985045433,0.7602545022964478,-0.6495939493179321,0.7296673655509949,-1.3959661722183228,2.0043911933898926,0.8735612299289796,-0.4016399927138045,-0.11784881471278344,0.24837022404214926,-0.8637048281248735,-0.009829641239244766,0.5494886115746141
1784547050623405568,1.483374834060669,-6.169780254364014,1.5884262323379517,7.796332836151123,0.06305292248725891,0.7945142984390259,-0.6039631366729736,0.7062188982963562,-1.3299146890640259,1.8251850605010986,0.8520137096523701,-0.43288130137254166,-0.10311261181386921,0.27577956904216533,-0.9182073358319924,0.10402180124528142,0.6775311991557217
1784547050633324544,1.4932937622070312,-6.788527488708496,1.804324984550476,7.562199592590332,0.13416343927383423,0.8240453600883484,-0.5504083633422852,0.6148294806480408,-1.5239355564117432,1.5002832412719727,0.8274790876696221,-0.4658366945801384,-0.08827221464661948,0.300803117657685,-0.9685150467603119,0.23909010593528152,0.8235363856683833
1784547050643244800,1.503213882446289,-7.524973392486572,1.8470317125320435,7.561843395233154,0.20600228011608124,0.848085880279541,-0.48817336559295654,0.6131200194358826,-1.809877872467041,1.292723536491394,0.7994512166612256,-0.5004419969525657,-0.07396704500744034,0.3239819715894335,-1.012362318186022,0.39931491613103176,0.99347492438485
1784547050653163776,1.5131328105926514,-8.549381256103516,1.684601902961731,7.562911033630371,0.2782765030860901,0.8659671545028687,-0.41552746295928955,0.6702097654342651,-1.8985142707824707,1.4198609590530396,0.7668236527460984,-0.5371421781357306,-0.06094707222872879,0.3460422980386079,-1.0470811234259636,0.5900959559711851,1.1951670597829864
1784547050663083520,1.52305269241333,-8.921307563781738,1.242484211921692,7.512022972106934,0.3487308621406555,0.8752254247665405,-0.3352123200893402,0.6919337511062622,-1.8018155097961426,1.5974345207214355,0.7297106888123076,-0.5743312593121587,-0.0503730924681482,0.3675983416310272,-1.0659016964410353,0.8051612036332518,1.4255102608566315
1784547050673002752,1.5329718589782715,-7.5241899490356445,0.530994713306427,7.346446990966797,0.4165826141834259,0.8720660209655762,-0.256826251745224,0.6826605200767517,-1.6265368461608887,1.7988489866256714,0.6908143909223402,-0.6082109674842296,-0.04082024764393793,0.38882976292023463,-1.05940823562566,1.0183274022191076,1.6571712618137273
1784547050682922496,1.5428917407989502,-4.631763935089111,-0.028924226760864258,6.928714275360107,0.47658225893974304,0.8540382981300354,-0.20853781700134277,0.9085495471954346,-0.9445381760597229,1.3430593013763428,0.6596798871961548,-0.628334416897252,-0.03044586374022355,0.4112072361846334,-1.0236992976033508,1.1583276328441907,1.8189893106037611
1784547050692841728,1.5528109073638916,-3.2201006412506104,0.42793938517570496,7.818089962005615,0.5469744801521301,0.818135142326355,-0.17740905284881592,3.354987859725952,1.9890244007110596,1.5444897413253784,0.6289616782991903,-0.6411881017649941,-0.013163965046105614,0.4394449374514833,-0.9581604510764958,1.2571559388718834,1.9417845927669415
1784547050702761728,1.5627307891845703,-5.646786689758301,0.5175579786300659,2.5080132484436035,0.5861762762069702,0.7981176972389221,-0.13930369913578033,0.6713157892227173,1.9522180557250977,2.282736301422119,0.6047904035468556,-0.6559890873913421,-0.005144600206425201,0.4515312141613388,-0.9241645883216895,1.3374763072315987,2.0325100421280577
1784547050712681728,1.5726509094238281,-5.188995361328125,2.2873685359954834,3.6969048976898193,0.6130396723747253,0.7848706841468811,-0.09033598750829697,-0.9565302133560181,0.07255131006240845,0.6809731721878052,0.5795210909956582,-0.6744032245114875,-0.003506862213813269,0.4575187538238526,-0.9024874289742223,1.424491734171417,2.1291429209359554
1784547050722600704,1.5825698375701904,-6.907352924346924,2.144913911819458,2.9464235305786133,0.6402376890182495,0.7675976157188416,-0.029826058074831963,0.3328763246536255,-0.7270092964172363,0.5985668897628784,0.5517939649678822,-0.6964809470554841,0.0011230159982673596,0.458733538349872,-0.8750844573517856,1.5242440688785155,2.227006147311085
1784547050732520704,1.5924897193908691,-7.170074939727783,-0.4940488934516907,2.020073890686035,0.6598628163337708,0.7510027289390564,0.024001749232411385,1.8341100215911865,0.020344316959381104,0.5809787511825562,0.5215937261494061,-0.715525426616844,-0.004923237222052147,0.46469254432437923,-0.8495793702022498,1.6071541452224174,2.3327565564029253
1784547050742439680,1.6024088859558105,-9.248791694641113,-1.34548020362854,1.0931998491287231,0.6704932451248169,0.7378504872322083,0.07756184786558151,2.9005823135375977,0.4725378155708313,0.9053177833557129,0.4886878273489567,-0.7336868115232789,-0.022013364359216792,0.4715966948452956,-0.8298801582282477,1.6859632413482983,2.453540392053138
1784547050752359680,1.6123287677764893,-8.49558162689209,-0.7190214991569519,1.6291199922561646,0.6823009848594666,0.7189474105834961,0.13258950412273407,2.7486987113952637,0.6580057144165039,0.8977144956588745,0.4525804407525484,-0.7514333797805968,-0.040529385891913614,0.4784100945620227,-0.8022867890434775,1.7627311780223602,2.576627910961222
1784547050762278656,1.6222476959228516,-9.279616355895996,-0.7898650169372559,-0.1698610782623291,0.6877318024635315,0.7009289264678955,0.18900667130947113,2.2459535598754883,0.4406573176383972,1.3460732698440552,0.4169723490220782,-0.7685140617431512,-0.06236563897408033,0.4812802784076585,-0.7766990913321405,1.8390008781182796,2.6989408506996377
1784547050772198656,1.6321678161621094,-7.521124839782715,-2.098632574081421,1.362833023071289,0.6950250864028931,0.6787368059158325,0.23718465864658356,2.204526424407959,0.5225113034248352,1.3762644529342651,0.38218459414794254,-0.7820688834819278,-0.08343013532160944,0.48512126765083124,-0.746041209975582,1.8996643470692867,2.808216470940131
1784547050782118656,1.642087697982788,-6.613270282745361,-1.6267389059066772,2.273268461227417,0.7146351337432861,0.6462367177009583,0.26772207021713257,1.0562846660614014,0.303302526473999,0.4625789225101471,0.34847330273309235,-0.7902869178364089,-0.09647599192521149,0.4946771248703969,-0.7026427439882507,1.9292404995631112,2.8868929544427844
1784547050792037632,1.6520068645477295,-5.81405782699585,-0.14469921588897705,-0.027234185487031937,0.7240965366363525,0.6207490563392639,0.3005906939506531,-0.3259032368659973,0.6609891653060913,0.4926680028438568,0.32073670892471756,-0.799023526009055,-0.10888870747890866,0.49682249714688526,-0.6696977789743039,1.9642732661628253,2.9559783640048627
1784547050801958144,1.6619272232055664,-4.726956844329834,0.6990783214569092,-1.2197068929672241,0.7187851071357727,0.6088758111000061,0.33558687567710876,-0.6251419186592102,1.2532610893249512,0.6267849206924438,0.3015677795384204,-0.8077417422016221,-0.12388184601245174,0.49118587942703484,-0.6546426316782648,2.0075991875789607,3.020120907608329
1784547050811877376,1.6718463897705078,-2.7224535942077637,0.6916584372520447,-1.2509682178497314,0.7083579897880554,0.6056287884712219,0.3625500500202179,0.3526008129119873,1.2784348726272583,0.3267199695110321,0.29013866610942185,-0.8138250411737455,-0.13770919884505273,0.4842978977265061,-0.6505557989549262,2.043853211043451,3.070045724186719
1784547050821797120,1.6817662715911865,-2.2354037761688232,0.3765113651752472,0.24592138826847076,0.7041735649108887,0.5997715592384338,0.38001811504364014,0.9746441841125488,0.6695918440818787,0.43818867206573486,0.2815665607400958,-0.817938576084354,-0.14486388236653666,0.4803240951313838,-0.64321555181707,2.065670506484693,3.09970576077757
1784547050831716096,1.6916851997375488,-1.8134820461273193,0.3534563183784485,-0.23588426411151886,0.7034485936164856,0.591183066368103,0.39454102516174316,0.8774229884147644,0.666965126991272,0.49973082542419434,0.2734639963142663,-0.8217242137353014,-0.14845816378430382,0.4774378877412462,-0.6325249154806898,2.0819443174136305,3.1203387101758846
1784547050841636096,1.7016053199768066,-1.6808702945709229,0.17891673743724823,-0.7158023715019226,0.6987432837486267,0.588037371635437,0.407394140958786,0.5127893090248108,0.7386380434036255,0.3763125538825989,0.26782478636318136,-0.8245264373233746,-0.15444489016476634,0.4738912041517015,-0.6286302177023413,2.0986506467714428,-3.140544021415511
1784547050851555072,1.711524248123169,-2.4088964462280273,0.658035397529602,-0.9597815275192261,0.6918842792510986,0.5855838656425476,0.4223601818084717,0.41684991121292114,0.8195218443870544,0.6727479100227356,0.2616272038089171,-0.8275063591965651,-0.16252173939538275,0.4694371704309827,-0.6256001175241902,2.1188636363048374,-3.112795030426259
1784547050861475328,1.7214443683624268,-2.21207332611084,0.7949373126029968,-0.5468328595161438,0.6839789748191833,0.580548882484436,0.4417422115802765,0.19752132892608643,0.7559685111045837,0.6826933026313782,0.25434247913259983,-0.8318592773820558,-0.16994483272104802,0.46307553785984384,-0.6194026559315277,2.144242815793006,-3.0836145621776114
1784547050871395072,1.7313642501831055,-1.589493989944458,0.7938637137413025,-0.20994487404823303,0.678123414516449,0.5745673179626465,0.4582809805870056,0.2741166353225708,0.6786676049232483,0.5392929911613464,0.247765253029599,-0.8357134551565877,-0.17528122102663588,0.4576811462948982,-0.612075411065799,2.165100628359928,-3.0606512701554474
1784547050881314048,1.7412831783294678,-1.2318259477615356,0.8477538824081421,-0.4779244065284729,0.6727968454360962,0.5698415040969849,0.47183170914649963,0.3020414113998413,0.7756479978561401,0.43243467807769775,0.24351031578875318,-0.8391749348083333,-0.17804855086582927,0.4525338675474003,-0.6063129689501536,2.182393535786603,-3.0459996303697
1784547050891234048,1.7512032985687256,-1.4593453407287598,0.4644279181957245,-1.0139693021774292,0.6649034023284912,0.5691964626312256,0.48365142941474915,0.156538188457489,1.2302420139312744,0.5652682185173035,0.24010788947267517,-0.8413126898472184,-0.18444152131268504,0.44779731363262654,-0.6055282264146257,2.199676543328479,-3.0254150614226174
1784547050901153024,1.761122226715088,-0.36913514137268066,1.0309821367263794,-0.7947360277175903,0.6554803848266602,0.571121096611023,0.49413156509399414,0.07633107900619507,1.3479461669921875,0.28679797053337097,0.23916579458899526,-0.8432809020708575,-0.18958667362035508,0.4424182385090714,-0.6078709584570955,2.216754616955676,-3.009485573360043
1784547050911073280,1.7710423469543457,-0.35299038887023926,1.054201602935791,-1.3597850799560547,0.6440086960792542,0.5763965249061584,0.5030109882354736,-0.16898727416992188,0.6977124214172363,0.16861993074417114,0.24140754446344745,-0.8451363340314318,-0.1930027490101589,0.43613871906851753,-0.614312088209758,2.233882787916707,-2.999587329694949
1784547050920992256,1.780961275100708,-0.46213364601135254,0.6153465509414673,-1.0718934535980225,0.6324262022972107,0.5812963843345642,0.5119879841804504,-0.3176831603050232,0.5865045189857483,0.15498900413513184,0.24254550036837047,-0.8465738022609965,-0.19825938046859434,0.43032280827855585,-0.620321017323183,2.2513403905505363,-2.9849519780350118
1784547050930912256,1.7908813953399658,-0.12493970990180969,1.2904250621795654,-0.7031834721565247,0.6233929991722107,0.5856364369392395,0.518083930015564,-0.28879833221435547,0.5981098413467407,-0.00967639684677124,0.24437259637079234,-0.8476710059644712,-0.2012357285979074,0.4257229390046219,-0.6256650330772635,2.2641980363395597,-2.976649276653066
1784547050940831232,1.8008003234863281,-0.4962370693683624,2.163865327835083,-1.592444896697998,0.6071140766143799,0.5911775231361389,0.5309627056121826,-0.7396214604377747,0.522149384021759,0.1995059847831726,0.24713148237907212,-0.8505540417044157,-0.2050345697427569,0.4164668198253713,-0.6325180637227752,2.289381749989037,-2.9634233342913783
1784547050950750976,1.8107202053070068,-0.5782397389411926,0.8018538951873779,-1.5084614753723145,0.5898733735084534,0.5971725583076477,0.5435391068458557,-0.4861745238304138,0.6332048177719116,0.09322547912597656,0.24943797934667547,-0.8528619682937382,-0.21070363833524772,0.40744480238273467,-0.63997144419804,2.315336931957895,-2.9456837708262955
1784547050960671232,1.8206403255462646,0.9247868657112122,0.5511082410812378,-1.1258682012557983,0.5787384510040283,0.6061771512031555,0.5455374717712402,-0.21957707405090332,0.6643916964530945,0.002283632755279541,0.2535918807082013,-0.8522628864949072,-0.21544540551512906,0.40363653997070653,-0.6512451405395715,2.326672088453794,-2.9358075011360354
1784547050970590208,1.830559253692627,0.9811503887176514,1.3631316423416138,-0.5948190689086914,0.5665709376335144,0.6165345311164856,0.5467017292976379,-0.35221540927886963,0.6288421154022217,0.02171880006790161,0.2605108414457553,-0.8523722291790188,-0.21636184522242416,0.3984762366253434,-0.6643335067189259,2.338348813780665,-2.935356491267363
1784547050980510208,1.8404793739318848,2.3578038215637207,1.369225263595581,-0.6296982169151306,0.5547835230827332,0.6283013224601746,0.5453923940658569,-0.4513288736343384,0.4594062566757202,-0.014142334461212158,0.2704191713366739,-0.8529173543251786,-0.21266920287806604,0.39265419964096726,-0.6793678034935606,2.347658701923741,-2.9470230834245372
1784547050990429184,1.850398302078247,2.350445032119751,0.6076041460037231,-1.5241140127182007,0.5388640761375427,0.6484754681587219,0.5376850962638855,-0.6603546142578125,0.18686693906784058,0.07562673091888428,0.2845356753587584,-0.8508322559350086,-0.21195993603912472,0.3875525515443294,-0.705580044640142,2.355099313634504,-2.9564416605050834
1784547051000348928,1.8603181838989258,2.827768087387085,0.34791502356529236,-0.28272777795791626,0.5302035212516785,0.6665407419204712,0.5240300893783569,0.04340481758117676,0.20527011156082153,0.1854882836341858,0.2974952696181019,-0.8472899139453509,-0.21003536840748047,0.3866283446448951,-0.7295587158030082,2.350338712800674,-2.971917428497045
1784547051010268160,1.8702373504638672,2.063563585281372,0.2581741213798523,-0.6054216623306274,0.5239595770835876,0.6829857230186462,0.5089171528816223,-0.13656949996948242,0.3005499839782715,0.3141114115715027,0.3095987413832213,-0.8433820915683458,-0.20776239506817873,0.38689791938164725,-0.7518425080481808,2.3416318548713755,-2.9892029265043867
1784547051020188160,1.880157232284546,2.1349575519561768,0.4731343686580658,-0.072793148458004,0.5203529000282288,0.6961599588394165,0.49456486105918884,-0.3126959800720215,0.14647626876831055,0.48208922147750854,0.3198760802897423,-0.839836905367288,-0.2048326396061245,0.38781042231575147,-0.7700344074385217,2.3307909906946223,-3.00753607942888
1784547051030108160,1.8900773525238037,1.503899097442627,-0.284957617521286,-0.6959356665611267,0.5153399705886841,0.7074070572853088,0.483735591173172,-0.5207415819168091,0.19125932455062866,0.4596848487854004,0.3290055686510365,-0.8372769470996241,-0.20207697215660866,0.3871531928476473,-0.7858228923779865,2.324571381623632,-3.0229829692322734
1784547051040027136,1.899996280670166,1.2632536888122559,0.1279175877571106,-1.3554052114486694,0.5086663961410522,0.7203794717788696,0.47150009870529175,-0.928328812122345,0.40343040227890015,0.3158535361289978,0.3365010319934621,-0.8326977193966512,-0.20582651381909325,0.38860924027892313,-0.8043492584957426,2.3182942968924993,-3.024180624799538
1784547051049947136,1.9099164009094238,0.6018280982971191,-0.1366766393184662,-0.3395029902458191,0.49944159388542175,0.7296470999717712,0.4670901298522949,-0.42957162857055664,-0.17199945449829102,0.7270627021789551,0.34273129305736294,-0.831010305644453,-0.20728466607994978,0.3859924967481867,-0.8178057761498704,2.322735260705619,-3.0244410059598703
1784547051059866112,1.9198353290557861,-0.2573809027671814,-0.03445093333721161,-1.7276531457901,0.4908433258533478,0.7379583120346069,0.4631314277648926,-0.225614994764328,-0.2552464008331299,0.1896091103553772,0.3472868750295065,-0.8288869393869936,-0.21097905170882478,0.3844817665685607,-0.8300399130689223,2.327153794637608,-3.0187305734272365
1784547051069786112,1.9297552108764648,-1.2568715810775757,0.7473382353782654,-1.3021873235702515,0.4762732982635498,0.7407658696174622,0.47374022006988525,-0.2866981029510498,0.017840087413787842,0.9791711568832397,0.34671032994378487,-0.8301722705480706,-0.21836690390450067,0.37805009969557635,-0.8342097218582929,2.3535281242313326,-2.9915482690159654
1784547051079705344,1.9396743774414062,0.6502135396003723,2.2537412643432617,-1.1080477237701416,0.45997533202171326,0.7454120516777039,0.4824768304824829,-0.15624910593032837,-0.3530017137527466,-0.040277063846588135,0.3496414826755366,-0.8319949233343483,-0.22141108131569323,0.3694760132708328,-0.8411527523451846,2.380065438831704,-2.9757315109033047
1784547051089625088,1.949594259262085,-0.028626352548599243,1.5756571292877197,-1.5632002353668213,0.4405493438243866,0.753210186958313,0.4884577691555023,0.5672632455825806,-0.22461509704589844,0.21373647451400757,0.35586901024770995,-0.8334658315191036,-0.22262882683824245,0.35934450623893155,-0.8529289124407238,2.407718355366763,-2.9653219062575618
1784547051099545344,1.9595143795013428,-0.20281918346881866,2.9311208724975586,-0.34951838850975037,0.41879338026046753,0.7574290037155151,0.5009130835533142,0.36840757727622986,0.3003867268562317,0.14607495069503784,0.3596813277523461,-0.8367512169837698,-0.22428539299614902,0.34665973983601894,-0.8593663739489275,2.445247355277493,-2.9474443101729877
1784547051109464064,1.969433307647705,0.10392530262470245,2.043212413787842,-1.43380606174469,0.40064263343811035,0.761670708656311,0.5092575550079346,1.0973889827728271,0.13847577571868896,-0.16736912727355957,0.36427261025365787,-0.8394237771444787,-0.22359898876262155,0.33567349297594234,-0.8658875865305588,2.4750024579151195,-2.938277373783485
1784547051119384064,1.9793531894683838,-1.6342051029205322,0.5800574421882629,-2.113161563873291,0.37866201996803284,0.7652365565299988,0.5206035375595093,1.119308590888977,0.06975483894348145,0.027690529823303223,0.36573154742336966,-0.8408883825100355,-0.2306696811472038,0.32548218695496367,-0.8714087275852269,2.512744533964026,-2.906649794119868
1784547051129303296,1.9892723560333252,-2.0428199768066406,-1.3829540014266968,-1.514687418937683,0.3668266832828522,0.7613747119903564,0.5345531105995178,1.4885047674179077,-0.0028144121170043945,0.10921531915664673,0.3600096235858637,-0.8419792324267446,-0.2415523206115937,0.3211177768850937,-0.8654309763029695,2.540167821029126,-2.867384496021572
1784547051139223040,1.999192237854004,-3.4739739894866943,-0.4707093834877014,-1.2991037368774414,0.3593326508998871,0.753006100654602,0.5512363314628601,0.8021663427352905,-0.3809816837310791,0.051363587379455566,0.3505408802817163,-0.8432973872030177,-0.25390489139009853,0.318595036948582,-0.8526186519194606,2.5639062684147302,-2.824977634534816
1784547051149142272,2.0091114044189453,-4.670592784881592,-0.5330586433410645,-1.500293254852295,0.351718544960022,0.7335854172706604,0.5815038681030273,0.24346578121185303,-0.3823585510253906,0.31647592782974243,0.3342425062284071,-0.8483622453893506,-0.26652097759553345,0.31229809793229046,-0.8235828602088009,2.597619716249813,-2.775230918142334
1784547051159062272,2.019031286239624,-4.891973972320557,0.14759552478790283,-1.5545485019683838,0.3393520414829254,0.7109464406967163,0.6159506440162659,-0.3014644682407379,-0.3335965871810913,0.14859086275100708,0.31632767559074054,-0.8535390298902221,-0.28186248016966653,0.3032514170807757,-0.7908430941725466,2.6380278232477217,-2.717615295558989
1784547051168982272,2.028951406478882,-5.123483180999756,0.8225550055503845,-0.8568506240844727,0.3275540769100189,0.6830970644950867,0.6527533531188965,0.23982876539230347,0.1980522871017456,0.014666140079498291,0.2978126542116129,-0.8607532628569344,-0.2923705038357959,0.29142925061767266,-0.751994917102084,2.6765030978867723,-2.6731590426210134
1784547051178901248,2.038870334625244,-4.540135860443115,-0.3922216296195984,-1.672062635421753,0.3159545660018921,0.6544725894927979,0.6869047284126282,0.21518859267234802,0.6950756311416626,-0.08934009075164795,0.279005803624293,-0.8663178523387745,-0.3048700274005062,0.280541127970777,-0.713484843185533,2.7104798734558724,-2.627678914950682
1784547051188820992,2.048790216445923,-4.6669511795043945,0.03977368399500847,-1.7234477996826172,0.3065987527370453,0.6279817819595337,0.7152875661849976,0.2137259542942047,0.4672178626060486,-0.3622601628303528,0.2613093631349629,-0.8694485284983138,-0.31890912379505076,0.2721648403300436,-0.6789571416449075,2.7366454106722933,-2.583218199382557
1784547051198740224,2.0587093830108643,-4.747654914855957,0.0949687585234642,-1.550249695777893,0.2946679890155792,0.5993191599845886,0.7443031668663025,0.20110532641410828,0.3026583194732666,-0.23777246475219727,0.2437167241800361,-0.8727456702737589,-0.3323651308651577,0.2616305548256144,-0.6426503535957171,2.7646276524042053,-2.5406676208528536
1784547051208660224,2.068629264831543,-4.314535617828369,0.36102530360221863,-1.1960774660110474,0.2841451168060303,0.5685815215110779,0.7719953656196594,0.3863871395587921,0.2152472734451294,-0.33777594566345215,0.22596580752819112,-0.8761523420951116,-0.34402726584061094,0.2508821214617644,-0.6047805002913489,2.788915069574225,-2.5043331704456895
1784547051218578944,2.0785481929779053,-3.328368902206421,0.22618362307548523,-1.149778127670288,0.27387526631355286,0.5424225330352783,0.7942103743553162,0.41470810770988464,0.17289423942565918,-0.6534786224365234,0.21154601592439382,-0.8785017347237346,-0.3540337457999554,0.2411287846291527,-0.5733180440458364,2.809522377176107,-2.474133919175109
1784547051228499200,2.088468313217163,-1.9798673391342163,-0.11317435652017593,-0.9692894816398621,0.26641514897346497,0.5236417651176453,0.8092107176780701,0.5029176473617554,0.3793885111808777,-0.7603216171264648,0.2013119681737626,-0.8796112117490633,-0.3617864921486244,0.23423931457630673,-0.5511200470118373,2.8235410672691983,-2.451802520557448
1784547051238418176,2.0983872413635254,-1.2863777875900269,-0.4570382535457611,-0.9176302552223206,0.26420870423316956,0.5132063627243042,0.816586434841156,0.5196048021316528,0.4543535113334656,-0.6237304210662842,0.1948626937994497,-0.8791636216889703,-0.36791919497326714,0.2318090394360757,-0.5389165126898477,2.828670389784659,-2.4359875506223942
1784547051248338176,2.108307361602783,-0.39510440826416016,-0.4033750295639038,-1.314427375793457,0.2604483962059021,0.5094203352928162,0.8201568722724915,0.3281135857105255,0.43288612365722656,-0.2983827590942383,0.1920217698635894,-0.8774726809425142,-0.37432625191297975,0.23032396609450723,-0.5345110246153428,2.8341053214340732,-2.4199599594188244
1784547051258258176,2.118227243423462,0.6140397787094116,-0.18939189612865448,-0.3048504889011383,0.25731128454208374,0.5117911100387573,0.8196714520454407,0.46166765689849854,0.3326609134674072,-0.3428187966346741,0.19287414112310744,-0.8757814012509315,-0.37794530241121405,0.23013906636147352,-0.5372683648886427,2.8374146188806857,-2.411116606720421
1784547051268177152,2.1281464099884033,1.2584201097488403,-0.31590962409973145,-0.7654649615287781,0.25678959488868713,0.5212368369102478,0.8138620853424072,0.41011106967926025,0.10123026371002197,-0.5974313020706177,0.19733787322722424,-0.8735575495277988,-0.37924695420379145,0.2326516323094712,-0.5482995795234125,2.8359590194004367,-2.408992776996721
1784547051278097152,2.138066291809082,1.1742581129074097,0.293719083070755,-0.4871140420436859,0.25249525904655457,0.5340828895568848,0.8068469762802124,0.08313709497451782,-0.5443519353866577,-0.2972490191459656,0.20418722639990147,-0.8708417728977496,-0.3808649422313668,0.234273778021059,-0.5634225691871229,2.838306334173779,-2.405414208033758
1784547051288016128,2.1479852199554443,0.28070706129074097,0.43517476320266724,-0.1267702281475067,0.24820178747177124,0.5393858551979065,0.8046483993530273,0.44140392541885376,-0.6129941940307617,-0.08100020885467529,0.20774813170994003,-0.870268681659104,-0.3807317078155085,0.23348788466472828,-0.5697076163198757,2.842392652659607,-2.4050057987926983
1784547051297936128,2.157905340194702,0.7518689632415771,-0.3893931806087494,-0.5453019738197327,0.24545161426067352,0.5440459847450256,0.8023513555526733,0.31091439723968506,-0.46300649642944336,-0.11724686622619629,0.21024657490590926,-0.8689581644114563,-0.3822137885401077,0.2337108414693795,-0.5752516639269429,2.844717788659246,-2.401242723195467
1784547051307855104,2.1678242683410645,0.7192444801330566,-0.28271758556365967,-0.25994426012039185,0.24629436433315277,0.5514881610870361,0.7969943881034851,0.5413338541984558,-0.17979931831359863,-0.27605926990509033,0.21365465328703634,-0.8671487876228282,-0.3828187318966839,0.2363356658870431,-0.584147194027905,2.8418731151928114,-2.400855771228923
1784547051317775360,2.1777443885803223,0.9926678538322449,-0.4316505491733551,-0.29217350482940674,0.24769268929958344,0.5588195323944092,0.7914348244667053,0.34630143642425537,0.18669438362121582,-0.09200239181518555,0.21683498163594483,-0.8651723839996264,-0.3836588994791155,0.23930146414645312,-0.5929616668753371,2.838282715154821,-2.4001145787743323
1784547051327695104,2.187664270401001,1.0564790964126587,-0.36434710025787354,-0.3396831154823303,0.2474183291196823,0.5672328472137451,0.7855132222175598,0.275088369846344,0.06364178657531738,-0.04796445369720459,0.22084448726706113,-0.8629808867240573,-0.38473445605598616,0.2418079599533471,-0.6031419566198365,2.8364530668694306,-2.3984340035086977
1784547051337614080,2.1975831985473633,1.4236834049224854,-0.7164822816848755,0.18995888531208038,0.2508290112018585,0.5777528285980225,0.7767152786254883,0.390482634305954,-0.15274977684020996,-0.10136127471923828,0.22562784290012133,-0.8606602131647442,-0.38421561460253445,0.246443648229032,-0.6159728047796796,2.829229077720424,-2.4019454895693646
1784547051347534080,2.207503318786621,1.4285320043563843,-0.32359716296195984,-0.3362254798412323,0.2543334364891052,0.5892019271850586,0.7669130563735962,0.2514649033546448,-0.0989980697631836,-0.05225241184234619,0.23101141958639304,-0.8582173459098071,-0.3833008071833943,0.2513507626110378,-0.6300707385648894,2.821373451177039,-2.4066659173557143
1784547051357453056,2.2174222469329834,1.6636942625045776,-1.0572007894515991,0.110863596200943,0.257421612739563,0.6004940867424011,0.7570605278015137,0.13741475343704224,0.006164729595184326,0.13412892818450928,0.23614798642475415,-0.8553153204052668,-0.3833613862313674,0.2563274822484895,-0.6441188759359754,2.813829239267694,-2.409107764402636
1784547051367373312,2.227342367172241,1.071912169456482,-0.5782490372657776,-0.19266030192375183,0.262748122215271,0.6116226315498352,0.7462443709373474,0.2938619554042816,-0.22981739044189453,0.0014971494674682617,0.24108342504606864,-0.8525867839232004,-0.38238457206546783,0.2622145241169248,-0.6581099857602811,2.8030536394331493,-2.414967387802156
1784547051377292032,2.2372612953186035,0.3653263449668884,-1.0587799549102783,-0.0480586402118206,0.2684343457221985,0.6168987154960632,0.7398510575294495,0.1601087749004364,-0.3998270630836487,0.24452418088912964,0.2424632863122388,-0.850457248051847,-0.38294646193821547,0.26699476858343224,-0.664796169706489,2.793540949690475,-2.4166430853721472
1784547051387212288,2.2471814155578613,-0.40259674191474915,-0.41529586911201477,0.010169079527258873,0.2717633545398712,0.6165516376495361,0.7389242649078369,0.11939573287963867,-0.35257452726364136,0.19218236207962036,0.24124884648319142,-0.8496937015766342,-0.38403482557068136,0.26895530630466,-0.6643552742791557,2.7891647060900038,-2.4153067089737874
1784547051397132032,2.25710129737854,0.29794272780418396,-0.9279993772506714,-0.160080686211586,0.2770475447177887,0.6163846254348755,0.7370989322662354,-0.0860227644443512,0.09934419393539429,0.013038456439971924,0.23978050794008435,-0.8487586308428355,-0.3849132987332806,0.27194831962252775,-0.6641431045142411,2.78206637730309,-2.4152375092601392
1784547051407051008,2.2670202255249023,-0.28574708104133606,-0.4156551957130432,-0.0158834271132946,0.2791929543018341,0.6177161931991577,0.7351720929145813,0.054959267377853394,0.012166619300842285,0.025997281074523926,0.23955857281360374,-0.8475406807983783,-0.38634292075242804,0.2739080753225735,-0.6658352166958266,2.778650630371456,-2.4129201955544475
1784547051416971264,2.27694034576416,-0.2245018482208252,-0.45083555579185486,-0.003768174909055233,0.28233602643013,0.6144466996192932,0.7367100715637207,0.282941073179245,0.1313418745994568,0.1505732536315918,0.23709371244185987,-0.8478274879264783,-0.386708656752551,0.27464808836097854,-0.6616844955873009,2.7756184051501243,-2.412685150073179
1784547051426890240,2.2868592739105225,-0.25768402218818665,-0.3485051393508911,0.02465747483074665,0.283981591463089,0.6136345863342285,0.7367547154426575,0.026641637086868286,-0.1716178059577942,-0.11176985502243042,0.2359975771918631,-0.8473741215902955,-0.3877298826008378,0.27555020050843765,-0.6606555164722594,2.7736925726511497,-2.410755636589182
1784547051436810240,2.2967793941497803,-0.2605208158493042,-0.39250293374061584,-0.019601065665483475,0.2876855731010437,0.6108654141426086,0.7376177906990051,0.4430882930755615,-0.03971379995346069,0.025413036346435547,0.23361510609150732,-0.8473793565793376,-0.388274546723456,0.27679408210556733,-0.6571532118837582,2.769719348432005,-2.4103688623976693
1784547051446729216,2.3066983222961426,-0.2740226089954376,-0.3321502208709717,0.102735735476017,0.2896793484687805,0.6091627478599548,0.7382455468177795,0.11011618375778198,-0.10986465215682983,-0.032908082008361816,0.23204417843833042,-0.8471777537516628,-0.38911776863377134,0.27754764129976006,-0.655004446316306,2.7676647611793688,-2.408814954156192
1784547051456648960,2.3166182041168213,-0.5707301497459412,-0.37732917070388794,-0.030463600531220436,0.2923765778541565,0.6062235832214355,0.739600658416748,0.232754647731781,-0.04575294256210327,-0.04112952947616577,0.22981076198404768,-0.8473573499130225,-0.38959704931969125,0.2781847449088834,-0.6513035019404777,2.7651300104328698,-2.408147682199583
1784547051466569216,2.326538324356079,-0.9501451253890991,-0.382191002368927,-0.16123627126216888,0.29360923171043396,0.6007132530212402,0.7435973882675171,0.14778172969818115,-0.01761394739151001,0.047036707401275635,0.22596060966631404,-0.847442639038331,-0.39196895545473703,0.27774641289489316,-0.6443929739904303,2.7655340406330895,-2.4020097910961096
1784547051476488192,2.3364572525024414,-1.1306190490722656,-0.5621194839477539,-0.1859663724899292,0.29724326729774475,0.5933317542076111,0.7480666637420654,0.34390050172805786,-0.06255483627319336,-0.035832226276397705,0.22066689866475847,-0.8476701108675883,-0.3943205706474678,0.2779797568856173,-0.6351915831483305,2.7633740210504674,-2.3964458436247464
1784547051486408192,2.346377372741699,-1.1155645847320557,-0.46850326657295227,-0.08641012758016586,0.2998743951320648,0.585586667060852,0.7531024813652039,0.1457584798336029,-0.0302736759185791,-0.004491090774536133,0.21515158941682688,-0.8476690460137599,-0.39750273221087157,0.27777414674842865,-0.6256035826971436,2.7626515701559677,-2.388500312756942
1784547051496327168,2.3562963008880615,-1.363090991973877,0.015667397528886795,-0.09725371748209,0.30123111605644226,0.5762189626693726,0.7597572803497314,0.12865468859672546,0.01775979995727539,-0.04088538885116577,0.20958885256831788,-0.8488030225684977,-0.39926441124380535,0.2760321640135642,-0.6140947991749408,2.764121522069716,-2.3832203589579253
1784547051506247168,2.3662161827087402,-1.0741626024246216,-0.11836417764425278,-0.09687591344118118,0.30033573508262634,0.5675039291381836,0.7666406631469727,0.024417102336883545,0.03744608163833618,-0.044213175773620605,0.20466027693567282,-0.849688146861431,-0.40168444746906384,0.27348471648400313,-0.6034711592858985,2.7682137028665785,-2.3758257126981652
1784547051516167168,2.376136302947998,-1.1355512142181396,-0.12360473722219467,-0.07918959110975266,0.3005141615867615,0.5590471625328064,0.7727594375610352,0.22722625732421875,0.020878255367279053,-0.05768692493438721,0.19979613826697248,-0.85054967160945,-0.40366443110047606,0.2714805327303861,-0.5932361446618517,2.770705176012417,-2.3699092445426206
1784547051526086144,2.3860552310943604,-0.9407392144203186,-0.20728537440299988,-0.11521806567907333,0.30129554867744446,0.5512022376060486,0.7780728936195374,0.24303126335144043,0.11998617649078369,-0.029156088829040527,0.19514289219640082,-0.8511952200656963,-0.4055898568996087,0.2699683273666023,-0.5838044274916564,2.7721404690548677,-2.36443616940179
1784547051536006144,2.395975351333618,-0.7022286057472229,-0.19556427001953125,-0.13764801621437073,0.30208250880241394,0.5453471541404724,0.781884491443634,0.17620429396629333,0.11400049924850464,-0.007073462009429932,0.19152445681834412,-0.8514560874121659,-0.40738774039507986,0.2690285125995081,-0.5768032330659036,2.7729070254609183,-2.359579957443464
1784547051545925120,2.4058942794799805,-0.6410492062568665,-0.11544398218393326,-0.1610574871301651,0.3025927245616913,0.5405535697937012,0.7850089073181152,0.15832948684692383,0.12425649166107178,0.07535773515701294,0.1885754528074659,-0.8516292076071671,-0.40894028151125905,0.26820645981582014,-0.5710949651212699,2.773679735706809,-2.3553854052694434
1784547051555845376,2.4158143997192383,-0.6249067187309265,0.09970454126596451,-0.4476674497127533,0.3011362850666046,0.5365516543388367,0.7883079648017883,0.06254169344902039,0.0915611982345581,0.15930867195129395,0.18625742174468013,-0.8515389018014661,-0.4111392558558444,0.2667475119236551,-0.5663453848838691,2.77669623812304,-2.349248567144806
1784547051565764096,2.4257333278656006,-0.915407121181488,0.2789473533630371,-0.12730292975902557,0.29761672019958496,0.5316129326820374,0.792976438999176,0.12686750292778015,0.09361588954925537,0.22260260581970215,0.18398427306488124,-0.8518833913060981,-0.4132588962499335,0.2639346029343109,-0.560503753642993,2.782544990144841,-2.3426331370047806
1784547051575684096,2.4356532096862793,-1.0702837705612183,0.6009024977684021,-0.20976051688194275,0.2932754158973694,0.5245280861854553,0.7992870211601257,0.14733731746673584,0.010124623775482178,0.2599170207977295,0.18105685355083023,-0.8529935990408556,-0.4147835818646912,0.25995168720323303,-0.5521607012040057,2.789923416070912,-2.336976945687362
1784547051585604096,2.445573329925537,-1.3681613206863403,0.5443543195724487,-0.11115221679210663,0.28791773319244385,0.5150945782661438,0.8073294162750244,0.10723909735679626,-0.14650332927703857,0.30004656314849854,0.17721556090903345,-0.8545578780709808,-0.4164078965839237,0.254813438661914,-0.541117970796285,2.799023783948458,-2.3306363925590627
1784547051595523072,2.4554922580718994,-1.7279037237167358,0.6254574656486511,-0.06387152522802353,0.2824651002883911,0.5031028389930725,0.8167626857757568,0.2507075071334839,-0.11049413681030273,0.3520148992538452,0.1720974683599907,-0.8563567650328087,-0.4183711573934752,0.24900039476605487,-0.5271853352351882,2.808633116806898,-2.3233387842948474
1784547051605443328,2.4654123783111572,-1.5713891983032227,0.5563302636146545,-0.1800815910100937,0.27715376019477844,0.4894387125968933,0.8268228769302368,0.27486348152160645,-0.01807934045791626,0.3843284249305725,0.16620693022003677,-0.8583564914795359,-0.4202803548372867,0.24282496914719334,-0.5114459985403408,2.8181600722972364,-2.3162059093254586
1784547051615362048,2.4753313064575195,-1.3285549879074097,0.7449920177459717,-0.22839371860027313,0.2713257670402527,0.4782952666282654,0.8352340459823608,0.19728690385818481,0.06366640329360962,0.27252352237701416,0.1616227688530511,-0.8597668148023002,-0.422395595470655,0.23719410871603233,-0.49871252952917805,2.82749645124468,-2.3088875584680353
1784547051625282048,2.4852511882781982,-1.1918160915374756,0.766218900680542,-0.27658918499946594,0.26386508345603943,0.46792885661125183,0.8434560894966125,0.18080657720565796,0.31705960631370544,0.2852367162704468,0.15784788276833436,-0.8611733245439691,-0.42439196903596643,0.23098940745947746,-0.4869457938375657,2.838399915966671,-2.3016990964933264
1784547051635201280,2.4951703548431396,-0.8145451545715332,0.926567018032074,-0.45426836609840393,0.2546326220035553,0.46069321036338806,0.8502492904663086,0.13176566362380981,0.32415783405303955,0.21511930227279663,0.15593364527583853,-0.8620539566703436,-0.4266000545290719,0.22485555194047663,-0.47877607334740274,2.8506130083351158,-2.2940245528585748
1784547051645121024,2.5050902366638184,-0.24657759070396423,1.2038213014602661,-0.031017372384667397,0.2445744127035141,0.45586836338043213,0.8557845950126648,0.2177821546792984,0.32792985439300537,0.25891566276550293,0.15572689080533245,-0.8632545411150121,-0.4274153737726053,0.21876198332500404,-0.47334760547473786,2.863223284231605,-2.289671498241692
1784547051655041280,2.515010356903076,0.24167943000793457,1.810741662979126,-0.26489534974098206,0.23003719747066498,0.45635849237442017,0.8595464825630188,0.1622510552406311,0.18383938074111938,0.29601699113845825,0.15936380875578424,-0.8645769975441024,-0.4269424571202055,0.21173102962419849,-0.4738983703701868,2.880094600551604,-2.287704437979667
1784547051664960256,2.5249292850494385,0.43240565061569214,1.7906972169876099,-0.25211837887763977,0.2132526934146881,0.4600478708744049,0.8619043827056885,0.1192820817232132,-0.029948413372039795,0.5769535899162292,0.16507664445608702,-0.8656429941366015,-0.4261624172984506,0.20444434019448016,-0.4780491118282026,2.8990433552619677,-2.2860226684659333
1784547051674880256,2.5348494052886963,-0.4207097887992859,1.5875526666641235,-0.4244483411312103,0.19786040484905243,0.4609886407852173,0.8650670051574707,0.2740023732185364,-0.2121635377407074,0.7124476432800293,0.16897306563281253,-0.8665493332243118,-0.42617572674449805,0.19726796556122478,-0.47910894592765996,2.916737782602604,-2.2825860577650126
1784547051684799232,2.5447683334350586,-0.7121865749359131,1.3774516582489014,-0.262196809053421,0.18325768411159515,0.4562170207500458,0.8707941174507141,0.37878453731536865,-0.24079352617263794,0.7853642106056213,0.16973115525186003,-0.8676503950186403,-0.42729361799244264,0.18919357953260993,-0.4737393823697627,2.934170524153008,-2.2766199609061095
1784547051694718976,2.5546882152557373,-1.01108717918396,1.7770640850067139,-0.3384755849838257,0.16842837631702423,0.44932714104652405,0.8773462772369385,0.3363628387451172,-0.4358384907245636,0.5363955497741699,0.16968095444911618,-0.8692988712266464,-0.42777633917489216,0.18037488869927942,-0.46601202729602564,2.9519253960603646,-2.272126554873306
1784547051704639232,2.564608335494995,-1.2967026233673096,1.8332524299621582,-0.13485345244407654,0.1518363654613495,0.4393608272075653,0.8853856325149536,0.2765998840332031,-0.24699333310127258,0.5429132580757141,0.16850419470130876,-0.8712029998056023,-0.42860021207559756,0.17003972231317283,-0.4548870382857303,2.971752965624302,-2.266595637433695
1784547051714558208,2.5745272636413574,-1.3565298318862915,1.89372718334198,-0.1417241394519806,0.13427606225013733,0.4278263747692108,0.8938311338424683,0.3934338688850403,-0.0039220452308654785,0.43963420391082764,0.16698250210792018,-0.8736636329888955,-0.42851770618346563,0.15874872924579786,-0.4420865670725862,2.9924823546579677,-2.2631478284289703
1784547051724478208,2.5844473838806152,-0.8303225040435791,1.764655590057373,-0.2697512209415436,0.11717656254768372,0.4178113341331482,0.9009459614753723,0.21103999018669128,0.1411333680152893,0.46828627586364746,0.16602325642692958,-0.8756017318376413,-0.4287127040532874,0.14820044030304869,-0.4310349627784212,3.012259154009869,-2.259324265816551
1784547051734397184,2.5943663120269775,-0.5062285661697388,2.0186338424682617,-0.18093693256378174,0.09974469989538193,0.41256028413772583,0.9054532051086426,0.15146075189113617,0.10976341366767883,0.4020726680755615,0.1673893294527901,-0.8767989771079913,-0.4288940962528572,0.13876002243437552,-0.4252629164090928,3.0318750660451084,-2.2554284306048342
1784547051744316928,2.6042861938476562,-0.3931463956832886,2.1973586082458496,-0.2006862312555313,0.07954883575439453,0.4083760678768158,0.9093410968780518,0.17270946502685547,0.2392222285270691,0.4777745008468628,0.1700355134870544,-0.8783577549182442,-0.42796986222530486,0.12813058543520403,-0.4206743280142751,3.0543351412453945,-2.2534599950052336
1784547051754236160,2.6142053604125977,-0.06340817362070084,2.4945881366729736,0.04439409449696541,0.05757824704051018,0.40648511052131653,0.9118412137031555,0.09179003536701202,0.08542770147323608,0.46349436044692993,0.174168889901838,-0.8796339361531409,-0.42680763106766223,0.1172371025783252,-0.4186037027561884,3.078531345500724,-2.251499539590925
1784547051764156160,2.6241252422332764,-0.2913787066936493,2.3734657764434814,-0.03828810155391693,0.03511853888630867,0.40487346053123474,0.9136978983879089,0.3642802834510803,-0.1734434962272644,0.4305402636528015,0.17863865568148446,-0.8811985878913087,-0.42466221315038977,0.10601509884193677,-0.41684045311529394,3.103175952491081,-2.251569022091491
1784547051774076160,2.634045362472534,-0.1377023160457611,2.4195218086242676,0.13375583291053772,0.013512542471289635,0.4027848541736603,0.9151947498321533,0.3730383813381195,-0.024778932332992554,0.37182289361953735,0.182660905814201,-0.882702242352851,-0.4224146485429295,0.09506593457197726,-0.414557409354416,3.1268290630581075,-2.252020378571232
1784547051783995136,2.6439642906188965,0.28421610593795776,2.331580400466919,0.11724886298179626,-0.007889125496149063,0.403450071811676,0.9149675965309143,0.29170262813568115,-0.007514983415603638,0.2778576612472534,0.18794358816179418,-0.8838606549684012,-0.4198501485454468,0.08481379998248442,-0.4152842751306072,-3.1329705672605757,-2.2528492984535995
1784547051793915392,2.6538844108581543,0.3014425039291382,2.369889259338379,0.032344087958335876,-0.028932182118296623,0.40620747208595276,0.9133225083351135,0.3065963685512543,-0.032763928174972534,0.23488587141036987,0.1941577561201855,-0.8848369499242335,-0.4168031156278145,0.07510928071412126,-0.4182998517067423,-3.1099252975840734,-2.25442815319001
1784547051803835392,2.663804531097412,0.40581125020980835,2.1205408573150635,-0.14418940246105194,-0.048693522810935974,0.4087575674057007,0.9113428592681885,0.28093230724334717,0.15990689396858215,0.22893095016479492,0.1998499173138352,-0.885034358226628,-0.4151934720492732,0.06624558640938684,-0.4210922781120985,-3.0882128930281176,-2.252890885826036
1784547051813755392,2.673724412918091,0.6471400260925293,2.216289520263672,0.038781482726335526,-0.06738918274641037,0.4138604700565338,0.9078425765037537,0.34625881910324097,-0.10053646564483643,0.07915687561035156,0.20660671427685187,-0.8852392839145439,-0.4126411405127644,0.05824395673305211,-0.4266906782195419,-3.0674985130578265,-2.253152520590919
1784547051823675392,2.6836445331573486,0.4324074387550354,1.9340652227401733,-0.31408336758613586,-0.0876324400305748,0.4180748164653778,0.9041759967803955,0.1510021686553955,-0.07133403420448303,0.12469375133514404,0.2131910875159951,-0.8847663694493543,-0.41143220704607264,0.049614749120664714,-0.43132500518013717,-3.044974754942625,-2.249866188237766
1784547051833594368,2.693563461303711,0.45502153038978577,1.869096040725708,-0.3307976722717285,-0.10541291534900665,0.42216503620147705,0.9003695845603943,0.22255459427833557,-0.021865874528884888,0.10988461971282959,0.21917757509311903,-0.8841252736596497,-0.4104964003628303,0.042149173566112,-0.43583229108404736,-3.025045848237159,-2.2463993186605684
1784547051843514112,2.7034833431243896,0.44700849056243896,2.1227760314941406,-0.15481701493263245,-0.12495590001344681,0.42546460032463074,0.8963068723678589,0.1403672695159912,0.005809783935546875,0.1808720827102661,0.22519096907733502,-0.8833742604641449,-0.40963806716945395,0.033699015629808426,-0.4394752199344,-3.003073489704193,-2.242199192711991
1784547051853433344,2.713402509689331,0.23217473924160004,2.6225504875183105,-0.114570252597332,-0.14665739238262177,0.4286693036556244,0.8914787173271179,0.06099456548690796,-0.15834462642669678,0.10409623384475708,0.23171915840643562,-0.8831357577256153,-0.4071984631494443,0.023809466436231653,-0.4430193766110683,-2.9785428393774525,-2.240731917428839
1784547051863353344,2.7233223915100098,0.06459992378950119,2.1525955200195312,-0.08843488991260529,-0.1687282919883728,0.4296276867389679,0.8871025443077087,0.10351221263408661,-0.10131952166557312,0.24757158756256104,0.2372206555430778,-0.8829577879641504,-0.4048911311924184,0.013233239653317665,-0.44408043949250714,-2.9536361737940977,-2.239137275571297
1784547051873272064,2.733241319656372,-0.05188300460577011,1.8339745998382568,-0.219284787774086,-0.18698711693286896,0.4291638433933258,0.8836597800254822,0.20339028537273407,-0.11220821738243103,0.18434882164001465,0.2411482738892883,-0.8827965137360752,-0.4031131367801223,0.004209893785566405,-0.44356682313940815,-2.93306343433631,-2.237697743138063
1784547051883192320,2.74316143989563,-0.15258391201496124,1.2794930934906006,-0.1391492784023285,-0.20110629498958588,0.4280543327331543,0.8810938596725464,0.1662093847990036,-0.026091933250427246,0.12725293636322021,0.24381350047368974,-0.8825579453466584,-0.40204278637985513,-0.0028663163661436157,-0.4423387878602551,-2.917190615926594,-2.2360273161463318
1784547051893112064,2.7530813217163086,-0.16513006389141083,1.0685166120529175,-0.12708862125873566,-0.21181802451610565,0.42579421401023865,0.8796774744987488,0.17867590487003326,0.04381030797958374,0.1442636251449585,0.24513059087346556,-0.8824272939054929,-0.40144840564728357,-0.0085012441782423,-0.43983947693970504,-2.9053003129514967,-2.2346352409440615
1784547051903031296,2.76300048828125,-0.23074255883693695,0.9495992660522461,-0.18335837125778198,-0.22118034958839417,0.42416176199913025,0.8781606554985046,0.023914694786071777,-0.011792957782745361,-0.018602490425109863,0.24645575369477185,-0.8822961438965953,-0.4007915358792818,-0.013388696703344265,-0.4380360631270279,-2.894856886347351,-2.2336246014391015
1784547051912951296,2.7729203701019287,-0.22458000481128693,0.8685047030448914,0.000513988547027111,-0.23002409934997559,0.42175471782684326,0.8770471811294556,-0.10249540209770203,0.02046021819114685,-0.04498547315597534,0.24726918994345204,-0.8823946273204741,-0.3998791089883521,-0.018284639256178747,-0.4353797103368016,-2.8850985026630402,-2.233577656266359
1784547051922870272,2.78283953666687,-0.2921738922595978,0.8231524229049683,-0.2196006327867508,-0.23761220276355743,0.41935595870018005,0.8761740326881409,-0.26046520471572876,-0.009092926979064941,-0.22839272022247314,0.24780745161970322,-0.8823370033348987,-0.3994601708663893,-0.02245955483237187,-0.43273578407218705,-2.876769274818705,-2.2328129942873063
1784547051932790272,2.792759418487549,-0.32997429370880127,1.0538634061813354,-0.05242123082280159,-0.24625682830810547,0.4164094626903534,0.8751920461654663,-0.2986193299293518,-0.05852973461151123,-0.27521634101867676,0.24829806517102018,-0.882533146497469,-0.3984109204722531,-0.02742532090941427,-0.4294925023169096,-2.867309715597266,-2.2333074655747693
1784547051942710272,2.8026795387268066,-0.6315284371376038,0.9453291296958923,-0.361320823431015,-0.2555890381336212,0.41154077649116516,0.8748189806938171,-0.387996107339859,-0.02012234926223755,-0.3860343098640442,0.24800378800954812,-0.8825704623782025,-0.39809404020473643,-0.03293300267103505,-0.4241439889283251,-2.857341905610376,-2.2325212054874175
1784547051952629248,2.812598466873169,-0.8208680152893066,0.9911306500434875,-0.20065683126449585,-0.2651037871837616,0.4044155478477478,0.8753103613853455,-0.2909722924232483,0.013095468282699585,-0.3663686513900757,0.24662896434309337,-0.8827744800534528,-0.3979502573242116,-0.03897466011224174,-0.4163397108847784,-2.8475064483814214,-2.2320121079057267
1784547051962549248,2.8225183486938477,-0.4356921315193176,0.8229736089706421,-0.06123732775449753,-0.2737354338169098,0.39865872263908386,0.8752943277359009,-0.1954265534877777,-0.022529542446136475,-0.4513746500015259,0.2457331709988904,-0.8829374216133652,-0.3975785233586012,-0.04436269506132537,-0.41005385093897573,-2.8384934441394396,-2.231906527089176
1784547051972468480,2.832437515258789,-0.5781264901161194,0.8095238208770752,-0.049907438457012177,-0.28085991740226746,0.394194096326828,0.8750590085983276,-0.03719422221183777,-0.016890108585357666,-0.49564945697784424,0.24509635661200313,-0.8833747626955737,-0.3964574913748268,-0.04897091059540898,-0.4051907837375024,-2.8310181290346836,-2.2335916817724524
1784547051982388224,2.8423573970794678,-0.3773089051246643,0.39808693528175354,-0.4672143757343292,-0.2858448028564453,0.3892510235309601,0.8756575584411621,-0.0047740638256073,0.14112916588783264,-0.46779024600982666,0.24378420842694015,-0.8835040314453355,-0.3965468675765718,-0.05234898102492247,-0.3998183368075988,-2.8260638928336186,-2.2333800464851628
1784547051992308480,2.8522775173187256,0.16267868876457214,0.3837096095085144,-0.01128171756863594,-0.2902224361896515,0.38773950934410095,0.8748882412910461,0.0655367374420166,0.11340495944023132,-0.5050607919692993,0.24409248338412803,-0.8829982810447756,-0.3971878113917598,-0.054542189302545646,-0.3981779752212842,-2.821290158274619,-2.2310289900987206
1784547052002227200,2.862196445465088,0.31217584013938904,0.08663021773099899,0.07902690768241882,-0.29179075360298157,0.3899228572845459,0.8733946084976196,0.16051942110061646,-0.003692448139190674,-0.4417235255241394,0.24554748594993706,-0.8826707234309031,-0.3969756926691775,-0.054855099144572865,-0.4005478337675591,-2.8191629632059305,-2.2303101927834086
1784547052012147200,2.8721163272857666,0.1685560792684555,0.13645128905773163,-0.2098001092672348,-0.29245612025260925,0.3922002613544464,0.8721514940261841,0.15827035903930664,-0.0493047833442688,-0.30185431241989136,0.24684766737578948,-0.8823469045097155,-0.3969126951219475,-0.05468493784816176,-0.40302227399478685,-2.81804869551551,-2.2295023547970017
1784547052022066432,2.882035493850708,0.13896363973617554,-0.16338209807872772,0.14227768778800964,-0.293380469083786,0.39281997084617615,0.8715619444847107,0.1916959285736084,-0.05952224135398865,-0.20199114084243774,0.24741319742101284,-0.8819291957844757,-0.3974693387585563,-0.05482420916593434,-0.4036960477797426,-2.816891892807709,-2.227741313421384
1784547052031986176,2.8919553756713867,-0.24007315933704376,-0.1785048544406891,0.04913894832134247,-0.29210972785949707,0.39259612560272217,0.8720893263816833,0.37607890367507935,-0.18524453043937683,-0.2424049973487854,0.2469779055904094,-0.8822373881347733,-0.39711690963432084,-0.05437964539928366,-0.4034526664269676,-2.8183842923583016,-2.229021705676111
1784547052041905152,2.901874303817749,-0.22776681184768677,-0.26214414834976196,0.3595714271068573,-0.2890304625034332,0.39104098081588745,0.8738126754760742,0.36614835262298584,-0.16852200031280518,-0.27540862560272217,0.24543510485545278,-0.8829691190852108,-0.3965751795928295,-0.053435353941465126,-0.40176234773269703,-2.8221514303495545,-2.231736269690533
1784547052051825408,2.911794424057007,-0.4283313453197479,-0.38304632902145386,0.24905532598495483,-0.28447479009628296,0.38939645886421204,0.876039445400238,0.4210866391658783,-0.27333804965019226,-0.37747347354888916,0.24346843987422156,-0.8841275795873444,-0.3953961826822618,-0.05199577277654533,-0.3999762475687711,-2.82760653817117,-2.23636943824792
1784547052061745152,2.9217143058776855,-0.45410624146461487,-0.40954098105430603,0.5439645648002625,-0.2795569896697998,0.3862283527851105,0.8790196776390076,0.4097602367401123,-0.16441133618354797,-0.3346012830734253,0.2406553625500431,-0.8855518051879983,-0.3940911591840932,-0.05074615579631681,-0.39653914581248245,-2.833675289598694,-2.2418408357018293
1784547052071664384,2.931633472442627,-0.41811254620552063,-0.7788292765617371,0.4900622069835663,-0.27233371138572693,0.383802205324173,0.8823438882827759,0.46058133244514465,-0.11013570427894592,-0.4277843236923218,0.23767929360858162,-0.8872142473528487,-0.3924574007344147,-0.0483399166028454,-0.39391032594239117,-2.8422208650255603,-2.248478906434839
1784547052081584128,2.9415533542633057,-0.2642732858657837,-0.8546854853630066,0.6385288238525391,-0.26299920678138733,0.3822411894798279,0.8858460783958435,0.34719717502593994,-0.14882740378379822,-0.43424689769744873,0.21654689404303465,-0.9576054246830474,-0.1609810357591571,-0.10091803189517397,-0.39222044106929077,-2.8529911419950085,-2.7507715378597593
1784547052091503360,2.951472520828247,-0.09525445103645325,-1.0100637674331665,0.46256235241889954,-0.25270044803619385,0.3820553123950958,0.8889188766479492,0.2986903786659241,-0.09638017416000366,-0.4807765483856201,0.20610275542815548,-0.9688745954859773,-0.07577230140932789,-0.1142906908404789,-0.3920193028598327,-2.86462098700971,-2.9301619861327612
1784547052101423360,2.961392402648926,0.06399998068809509,-1.0230966806411743,0.38851770758628845,-0.2417292594909668,0.3827185332775116,0.8916803002357483,0.20330758392810822,-0.01989498734474182,-0.492311954498291,0.20091720791214296,-0.9719684431108461,-0.033429066557924283,-0.11744018578504384,-0.39273708218765024,-2.8768613549090114,-3.019872532471146
1784547052111343360,2.9713125228881836,0.49669814109802246,-1.0872479677200317,0.2939890921115875,-0.23059789836406708,0.38547027111053467,0.8934413194656372,0.16803686320781708,-0.013491511344909668,-0.4952937364578247,0.19918408060736928,-0.97295314005268,-0.009101823354122924,-0.11664077887207867,-0.3957174198944662,-2.889004377173235,-3.0719842108614204
1784547052121262336,2.981231451034546,0.6240332126617432,-1.075826644897461,0.30180588364601135,-0.21915572881698608,0.3910597562789917,0.8938921689987183,0.2084440290927887,0.08655565977096558,-0.5272538661956787,0.20009416880509828,-0.9730849263627128,0.007198427807340898,-0.11408893934102038,-0.40178276838365456,-2.9011648225093576,-3.1071998572031787
1784547052131182080,2.9911513328552246,0.40415969491004944,-1.0019612312316895,0.5733981728553772,-0.20809487998485565,0.3962262272834778,0.8942605257034302,0.25229954719543457,0.08149603009223938,-0.2877234220504761,0.20141747562517978,-0.9730165668773617,0.019209988630724095,-0.11090938045200109,-0.4074029928829552,-2.91296095938543,-3.133647381575633
1784547052141101312,3.001070499420166,0.28298220038414,-1.1378202438354492,0.4809209108352661,-0.1964706927537918,0.40030428767204285,0.8950729370117188,0.3277573585510254,-0.15161660313606262,-0.2002183198928833,0.2025089415234424,-0.9729795756107028,0.029107021039284087,-0.10702154631909454,-0.4118488720246474,-2.9255169904711265,3.1270835322652712
1784547052151021312,3.0109903812408447,-0.07292530685663223,-1.140519618988037,0.5944674611091614,-0.18412022292613983,0.40213632583618164,0.8968755602836609,0.2929459810256958,-0.2269349992275238,-0.14361035823822021,0.20270699601853695,-0.9731695304584943,0.03713273648890999,-0.1023328168226325,-0.4138489723174149,-2.939115077234511,3.1079619964594367
1784547052160941312,3.0209105014801025,-0.36268696188926697,-1.1910794973373413,0.5939501523971558,-0.171266570687294,0.40093794465065,0.8999540209770203,0.34912294149398804,-0.11892494559288025,-0.06615245342254639,0.20147955145212318,-0.9736631541135647,0.04423880015888158,-0.09710391107918886,-0.4125404645863261,-2.953535466805596,3.0902457987209306
1784547052170860288,3.030829429626465,-0.6331602334976196,-1.256191372871399,0.763464093208313,-0.15737369656562805,0.3976835608482361,0.9039252400398254,0.35546332597732544,-0.14576101303100586,-0.08811432123184204,0.19931360969863599,-0.9743579285972144,0.05088477518713289,-0.09116657891587568,-0.40899080730379384,-2.969220041255767,3.0730737065264435
1784547052180780288,3.0407493114471436,-0.8232429623603821,-1.4598124027252197,0.6579445600509644,-0.1423942595720291,0.3919272720813751,0.9089098572731018,0.3315269351005554,-0.11472079157829285,-0.05756092071533203,0.19599224472913843,-0.9752986353519663,0.056986950913132765,-0.08445221656899574,-0.4027255453428177,-2.9861909396861823,3.0566482097977565
1784547052190699264,3.050668478012085,-0.9417823553085327,-1.430999994277954,0.7019202709197998,-0.12659427523612976,0.3848077058792114,0.9142739176750183,0.26003241539001465,-0.1081354022026062,-0.10323882102966309,0.19210314211172935,-0.9763136257811817,0.0628382905480164,-0.07719708728758376,-0.39499946651026285,-3.00400323369579,3.0406188961141716
1784547052200619264,3.0605883598327637,-0.9118122458457947,-1.3573386669158936,0.5754202604293823,-0.11115767061710358,0.3769942820072174,0.9195212125778198,0.20385482907295227,-0.051509082317352295,-0.2138175368309021,0.18802951863758677,-0.9773335351145938,0.06767407067262739,-0.06988766533994537,-0.3865489757415439,-3.0212899379827234,3.0268989018480874
1784547052210539264,3.0705084800720215,-0.9433222413063049,-1.368065595626831,0.48457103967666626,-0.09653814882040024,0.3691982328891754,0.9243228435516357,0.14371833205223083,-0.10461089015007019,-0.29506582021713257,0.1840814039304972,-0.9782604183049055,0.07188853266132887,-0.0628691648192919,-0.37814616975257337,-3.0375279178298524,3.0148152022227093
1784547052220458240,3.080427408218384,-1.020509958267212,-1.3590548038482666,0.5020639300346375,-0.08228714764118195,0.36049526929855347,0.9291244149208069,0.09475357085466385,-0.1630464792251587,-0.2627882957458496,0.17976475282040136,-0.9792142063820217,0.07550995345731557,-0.05587909438275267,-0.3687987950967786,-3.053258937277341,3.0041578623859664
1784547052230378496,3.0903475284576416,-0.8641360402107239,-1.3030498027801514,0.43189945816993713,-0.06822998076677322,0.3519936501979828,0.9335120320320129,0.10480532795190811,-0.09256386756896973,-0.31580597162246704,0.17562725229728882,-0.9800529413538767,0.07907110971711327,-0.04897902027335817,-0.3597002275459916,-3.0686328284562885,2.9938513572704766
1784547052240297216,3.100266456604004,-0.8016021847724915,-1.2985910177230835,0.3588714003562927,-0.05491466075181961,0.3445897698402405,0.9371459484100342,0.07130259275436401,0.017943859100341797,-0.31528913974761963,0.17211807578582403,-0.9807072214846693,0.08237920145842594,-0.042455362143931634,-0.3518017421751115,-3.083061818013904,2.9843925723533995
1784547052250217216,3.1101863384246826,-0.7693957686424255,-1.1860772371292114,0.22447632253170013,-0.042355913668870926,0.3375626802444458,0.9403496980667114,0.02848566696047783,0.1171187162399292,-0.24361813068389893,0.16887154285996375,-0.9813240093481408,0.08472324900675167,-0.03616063801547061,-0.3443264003625371,-3.096580352162946,2.9771766938218427
1784547052260136448,3.120105504989624,-0.7921297550201416,-1.0698091983795166,0.18110187351703644,-0.03106941282749176,0.33034831285476685,0.9433478116989136,0.033342961221933365,0.08145591616630554,-0.16965079307556152,0.16552268380499544,-0.9818972248473679,0.08690078874694013,-0.03047035621850372,-0.3366725934225554,-3.108669286725125,2.970642425762066
1784547052270056192,3.1300253868103027,-0.782232940196991,-0.8522904515266418,0.014816229231655598,-0.021599125117063522,0.32302093505859375,0.9461450576782227,0.01990540884435177,0.0403670072555542,-0.15770840644836426,0.1620909385060553,-0.9824784456768026,0.08836644595755024,-0.02557100652053641,-0.32891982110410656,-3.1187680620942246,2.965978706952279
1784547052279976448,3.1399455070495605,-0.8962331414222717,-0.9141256809234619,-0.0876067504286766,-0.013466830365359783,0.31472012400627136,0.9490892291069031,0.09209536761045456,0.05132308602333069,-0.09624481201171875,0.15812839503117135,-0.9831301841994334,0.08944085540002251,-0.021234780984817625,-0.32016176568718174,-3.1274043917733705,2.962431891676868
1784547052289895424,3.149864435195923,-0.9426437616348267,-0.8594762682914734,-0.2177213430404663,-0.005533943884074688,0.3063105642795563,0.951915442943573,0.10224415361881256,-0.018239915370941162,-0.07973843812942505,0.15413946026920486,-0.9838456679347473,0.08947308786574067,-0.016830185805411936,-0.31131488119377204,-3.135779236625398,2.9611194837598362
1784547052299815168,3.1597843170166016,-1.0897243022918701,-0.8129659295082092,-0.2137879878282547,0.002006750088185072,0.29645171761512756,0.9550458788871765,0.14058662950992584,-0.03175744414329529,0.04277229309082031,0.14939793365340182,-0.9846473460546326,0.08940106110401012,-0.012545566487218265,-0.3009752225456301,3.139491448650639,2.9601805830868217
1784547052309734400,3.169703483581543,-1.1251946687698364,-0.6279555559158325,-0.33284008502960205,0.00788197387009859,0.28598523139953613,0.9582018256187439,0.10430064052343369,-0.030369937419891357,0.11668848991394043,0.14428093336285144,-0.9854627803456669,0.08924144915495039,-0.009066656529380565,-0.29003443558174263,3.1333670420007693,2.959768235003974
1784547052319654144,3.1796233654022217,-1.041284203529358,-0.37294673919677734,-0.2919886112213135,0.012090305797755718,0.2756395637989044,0.9611850380897522,0.0766395553946495,-0.014454841613769531,0.19743001461029053,0.13916347519476818,-0.9862568552693332,0.08882534101078014,-0.0064041025480175715,-0.2792549691827927,3.129014775271024,2.9601833966125293
1784547052329574400,3.1895434856414795,-0.9580426216125488,-0.13091759383678436,-0.29126396775245667,0.013825710862874985,0.2660825848579407,0.9638510942459106,0.11126583814620972,0.016998469829559326,0.22853171825408936,0.13434418209444482,-0.9869178225632776,0.08898743721910715,-0.005108924749418719,-0.26932683096101967,3.127249397706664,2.95980165487424
1784547052339493376,3.199462413787842,-0.8335184454917908,0.10040096938610077,-0.13718795776367188,0.01343214325606823,0.25750720500946045,0.9661828279495239,0.17515122890472412,0.030136168003082275,0.26332443952560425,0.12993803864935954,-0.9874728670290198,0.08937984389513104,-0.0049599035563333916,-0.26044151856129416,3.127691270696456,2.959236568972192
1784547052349413376,3.2093825340270996,-0.5154137015342712,0.1989605575799942,-0.18593977391719818,0.011532939970493317,0.25096553564071655,0.9679274559020996,0.2139461785554886,-0.019901692867279053,0.30337393283843994,0.12650700930894257,-0.9878604957665832,0.08997433379573587,-0.005684925958459868,-0.2536775981510559,3.129678130313171,2.9584144854704673
1784547052359332352,3.219301462173462,-0.09248722344636917,0.2778610289096832,-0.10241599380970001,0.00881561916321516,0.24796083569526672,0.968730092048645,0.18426910042762756,-0.058233022689819336,0.34619617462158203,0.12484462200533347,-0.9880048817800366,0.09061677660388434,-0.0069890421823229805,-0.25057479147929085,3.132492724127373,2.9575244537181877
1784547052369252096,3.2292213439941406,0.4175430238246918,0.575970470905304,-0.06315886229276657,0.004678321070969105,0.24932271242141724,0.9684092402458191,0.15927736461162567,0.06664103269577026,0.4159444570541382,0.12534865749496993,-0.9879322822616734,0.09052301623591201,-0.009117809219191229,-0.25198081999905,3.1367617572343236,2.9582335362233065
1784547052379172352,3.2391414642333984,0.986204981803894,0.9296996593475342,-0.10217303782701492,-0.0026551580522209406,0.25640586018562317,0.9665654897689819,0.07399000227451324,0.18071264028549194,0.4285150170326233,0.12862556311827397,-0.9874620766973429,0.09056158998796109,-0.013140873776476799,-0.2593018955847891,-3.1388456578648296,2.9590395623088233
1784547052389091328,3.2490603923797607,0.9113366007804871,0.962518572807312,-0.39038726687431335,-0.01232955139130354,0.26544275879859924,0.9640478491783142,0.055878132581710815,0.31730568408966064,0.5957514047622681,0.13281301873110787,-0.9868802058420103,0.08995212559195888,-0.018352368422144768,-0.2686631147590382,-3.1288039944142847,2.96152740905495
1784547052399011328,3.2589805126190186,1.0336580276489258,0.9979608654975891,-0.5677074790000916,-0.02268572337925434,0.27443236112594604,0.9613391160964966,0.0696675181388855,0.33823859691619873,0.8642836809158325,0.13699413923788134,-0.9863632533830806,0.08807434460930166,-0.023732160217196163,-0.27799934734515813,-3.1179989877108256,2.9667820002197445
1784547052408930304,3.268899440765381,1.1182399988174438,1.2896997928619385,-0.6321849822998047,-0.0346839539706707,0.28425949811935425,0.9581201076507568,0.0889441967010498,0.14715230464935303,0.8059334754943848,0.1415774120448257,-0.985737863833016,0.08591233786825384,-0.029932119797728588,-0.28823398625048313,-3.1054084475938266,2.972973045634571
1784547052418850304,3.2788193225860596,1.264312744140625,1.6751680374145508,-0.6895585060119629,-0.04977978765964508,0.2954002618789673,0.9540759325027466,0.07272899150848389,-0.0418296754360199,0.7816572189331055,0.14676240259642578,-0.9849147352649197,0.0835520261240928,-0.037721224782205555,-0.2998744641104426,-3.089464005734296,2.9802113074508756
1784547052428770304,3.2887394428253174,1.2320364713668823,1.7735062837600708,-0.6887502670288086,-0.0681285560131073,0.30670562386512756,0.9493632316589355,0.1849498301744461,-0.09070220589637756,0.8173452615737915,0.15196543341739724,-0.9839108964168469,0.08124625473392563,-0.04716982133375621,-0.3117299139352586,-3.069953088683187,2.9880789900147158
1784547052438689280,3.2986583709716797,1.0510226488113403,1.7324436902999878,-0.6545798778533936,-0.08649826794862747,0.3169451951980591,0.9444912672042847,0.3079948425292969,-0.11867251992225647,0.8526125550270081,0.15668726890331705,-0.9828547040604748,0.07900797688246804,-0.05659908660717007,-0.3225068887489508,-3.050265549739876,2.9960310287285523
1784547052448609280,3.3085784912109375,0.9537648558616638,1.783300757408142,-0.6401700377464294,-0.10491600632667542,0.32544785737991333,0.9397216439247131,0.356075644493103,-0.11121439933776855,0.8869386911392212,0.16056375871675949,-0.9818019353671775,0.0769791816954135,-0.06601949670140055,-0.331485347217595,-3.0304072655307803,3.003718216585706
1784547052458528256,3.3184974193573,1.2494678497314453,1.814159631729126,-0.5211748480796814,-0.12345799803733826,0.3348292410373688,0.934156060218811,0.32992467284202576,0.06618699431419373,0.882433295249939,0.16494931319262002,-0.9805292014832943,0.07510344182812276,-0.07558903762523209,-0.34142399391677064,-3.010194213175936,3.011385011860999
1784547052468448512,3.3284175395965576,1.2218828201293945,2.032524347305298,-0.3506893515586853,-0.14272284507751465,0.34601831436157227,0.9273087978363037,0.25827765464782715,0.14311742782592773,0.8314192295074463,0.17024563287510908,-0.978853270592273,0.07416651181711287,-0.08580239014637059,-0.35332393048948113,-2.98888016100927,3.017658209726145
1784547052478368256,3.3383374214172363,0.8941668272018433,2.0292155742645264,-0.4240235984325409,-0.1627228856086731,0.35523682832717896,0.9205042719841003,0.1823609322309494,-0.08684995770454407,0.8320440053939819,0.17452059306637163,-0.9771653873348497,0.07348435216562393,-0.09638693195055913,-0.3631674080331558,-2.966624476140168,3.023676778262209
1784547052488287232,3.3482563495635986,0.4240776002407074,1.8122609853744507,-0.3806406855583191,-0.1814664602279663,0.3605528771877289,0.9149162173271179,0.2766507863998413,-0.2657652795314789,0.8040474653244019,0.1768173791163649,-0.9757783713833809,0.0729017915577799,-0.10619577014267854,-0.36886056629772446,-2.9457916692647674,3.0290866637725555
1784547052498207232,3.3581764698028564,-0.023807629942893982,1.9161968231201172,-0.28599798679351807,-0.19930535554885864,0.36164772510528564,0.9107621312141418,0.2811077833175659,-0.2140800654888153,0.741199791431427,0.17688767541758732,-0.9747191421446412,0.07282631690357373,-0.11545352238748283,-0.37003462769597967,-2.9261551738020275,3.0329113543711297
1784547052508126208,3.3680953979492188,-0.2952529788017273,2.1115996837615967,-0.30651605129241943,-0.21861451864242554,0.35945361852645874,0.907193660736084,0.21586798131465912,-0.1291680634021759,0.6575949192047119,0.17513292552673698,-0.9737717140872076,0.07324937660174295,-0.12542532883982127,-0.3676823266850278,-2.9051222996558965,3.0355990999775457
1784547052518046464,3.3780155181884766,-0.340536504983902,1.948017954826355,-0.3317529559135437,-0.23808465898036957,0.355823814868927,0.9037171006202698,0.25790590047836304,-0.044895559549331665,0.5800167322158813,0.17260809192715004,-0.9728397217733441,0.07376603646847597,-0.13545391393859157,-0.36379542426240885,-2.8839953629848987,3.0378661283626207
1784547052527966208,3.3879354000091553,-0.1557307094335556,1.7486470937728882,-0.21344786882400513,-0.2552383542060852,0.3527730405330658,0.9002243876457214,0.37805643677711487,0.12134799361228943,0.5458965301513672,0.17047131963405124,-0.9719112270728789,0.07416716749326528,-0.1443162201481462,-0.36053301412415406,-2.8653159214006423,3.03992848671409
1784547052537885184,3.3978543281555176,-0.029140010476112366,1.8148952722549438,-0.30790767073631287,-0.2720429003238678,0.3513377010822296,0.8958541750907898,0.3279663622379303,0.17229816317558289,0.42400062084198,0.16921263770145756,-0.9707621733268241,0.07448408998051245,-0.1531014505132198,-0.3589995084862871,-2.846773457659334,3.042311470034778
1784547052547805184,3.4077744483947754,-0.06537151336669922,1.5880515575408936,-0.4113781452178955,-0.28860557079315186,0.350188672542572,0.8911084532737732,0.24263089895248413,0.1238865852355957,0.3495376706123352,0.1681953907949644,-0.969551551119755,0.07432376541771368,-0.16172806217975105,-0.35777253235630885,-2.8283808456540505,3.0456629143940317
1784547052557724160,3.4176933765411377,-0.2887659966945648,1.2801364660263062,-0.4889320433139801,-0.30284592509269714,0.3472338616847992,0.8875324130058289,0.2904709279537201,-0.01779651641845703,0.3143875002861023,0.16641143778889816,-0.9686926894038449,0.07348929204594805,-0.16894152914182523,-0.3546198280015848,-2.8127588285473246,3.0495975139224982
1784547052567644416,3.4276134967803955,-0.42677900195121765,1.2576615810394287,-0.3016798496246338,-0.3150698244571686,0.34312745928764343,0.8848701119422913,0.24851086735725403,-0.21672356128692627,0.24611163139343262,0.16404410620677756,-0.968051222314253,0.07288263264746689,-0.17508461531932162,-0.35024447511173135,-2.7995264222954006,3.0524017213710257
1784547052577564160,3.437533378601074,-0.7542084455490112,1.4495675563812256,-0.16725172102451324,-0.32780805230140686,0.33718132972717285,0.8825251460075378,0.13145795464515686,-0.27170583605766296,0.18955731391906738,0.16049152350578855,-0.9674061442434209,0.0734025454230682,-0.1816036760700906,-0.34392127179664844,-2.785943833890664,3.052538394571669
1784547052587483136,3.4474523067474365,-0.9773259162902832,1.6595075130462646,-0.09504595398902893,-0.3418577015399933,0.32894694805145264,0.8802996277809143,0.028762608766555786,-0.16573897004127502,0.14889049530029297,0.15553539454189572,-0.9667286333744093,0.07473662315418754,-0.18883587445728128,-0.3351882507413717,-2.7711761075306467,3.050654769577762
1784547052597403392,3.4573724269866943,-0.8624793887138367,1.4697352647781372,-0.12175233662128448,-0.355893611907959,0.3204262852668762,0.8778762221336365,0.027570277452468872,-0.10825285315513611,0.03754425048828125,0.15035228897459982,-0.9659737929229408,0.07637230382134663,-0.1961021654242195,-0.32617947098118866,-2.7564372515693467,3.047946966821861
1784547052607322112,3.4672913551330566,-0.6754509210586548,1.3429608345031738,-0.1401398628950119,-0.3685835003852844,0.3131948709487915,0.8752455711364746,0.0135878324508667,-0.03550022840499878,-0.08389443159103394,0.14596060370986091,-0.9651988954283698,0.07754921327292183,-0.2026637971371445,-0.31855529009967093,-2.743012918656758,3.0461122246195664
1784547052617242368,3.4772114753723145,-0.5459943413734436,1.3287813663482666,0.03357879817485809,-0.38016173243522644,0.3075878918170929,0.872276782989502,-0.04915955662727356,0.055845946073532104,-0.15830278396606445,0.14242490217293283,-0.9643282099267948,0.07880027442404983,-0.2087504849613712,-0.31265698525146696,-2.730587338668184,3.0442089460110107
1784547052627162112,3.487131357192993,-0.33871790766716003,1.4741101264953613,0.01695428043603897,-0.3923162817955017,0.30368128418922424,0.8682543635368347,-0.1648278534412384,0.08131319284439087,-0.24136227369308472,0.1396905923351192,-0.963158312877276,0.08033207764232989,-0.21531224365980975,-0.30855402788841324,-2.7172055852542223,3.0421494076354145
1784547052637081344,3.4970505237579346,-0.12604238092899323,1.1058430671691895,0.006374208256602287,-0.4036000072956085,0.3017817735671997,0.8637328743934631,-0.16515600681304932,0.0767887532711029,-0.36120009422302246,0.138086036556867,-0.9618796797153981,0.081571545838008,-0.2215078514277342,-0.30656101795003576,-2.704466786470191,3.040990838268989
1784547052647001344,3.5069704055786133,-0.13293011486530304,0.8557192087173462,0.007757454179227352,-0.4119274318218231,0.3008209466934204,0.8601294755935669,-0.12374761700630188,0.02635800838470459,-0.4376593828201294,0.1371399125051921,-0.9608701126898427,0.08242193281642274,-0.22611490675610713,-0.3055533513148561,-2.694956277810888,3.0403642512827904
1784547052656920320,3.5168893337249756,0.023380987346172333,0.7963011264801025,-0.13574840128421783,-0.4189531207084656,0.2999607026576996,0.857030987739563,-0.1751021146774292,-0.005710184574127197,-0.5277156829833984,0.1364112789540961,-0.9600383755206895,0.08271524359787466,-0.22994899173158279,-0.3046514556733542,-2.686910859350257,3.0406991253692133
1784547052666840320,3.5268094539642334,-0.004695121664553881,0.9426953196525574,0.12093716859817505,-0.42610204219818115,0.3001527488231659,0.8534313440322876,-0.2645716965198517,-0.08506488800048828,-0.6465833783149719,0.13620647783694084,-0.9590657003143822,0.08311823974641376,-0.2339487994914955,-0.30485278032492835,-2.678520399773101,3.0410965757515718
1784547052676760320,3.536729335784912,0.0317278653383255,0.8570656180381775,0.11616092175245285,-0.43321260809898376,0.3008010983467102,0.8496149182319641,-0.16398587822914124,-0.0941360592842102,-0.5895136594772339,0.13599751610300648,-0.9579489524479358,0.08450601674956344,-0.2381117566243536,-0.3055325547846745,-2.6700621003694036,3.0395587005717233
1784547052686679296,3.5466485023498535,0.14118032157421112,0.32269543409347534,0.07895230501890182,-0.4380815923213959,0.3018186390399933,0.8467527627944946,-0.1398756206035614,-0.0449216365814209,-0.5737729072570801,0.13622939189991173,-0.9571447364742977,0.08514881123572546,-0.24096727750461205,-0.30659968528917353,-2.664148487259348,3.0393068254642586
1784547052696599296,3.5565683841705322,0.5122113227844238,-0.2868269681930542,-0.035102128982543945,-0.4380885064601898,0.3043000400066376,0.8458608388900757,0.05265137553215027,0.2598937153816223,-0.5317737460136414,0.1375909959897082,-0.9569286189606728,0.08495906030612452,-0.24111919716997304,-0.3092035402126296,-2.663711785836063,3.0403804518930526
1784547052706518272,3.5664873123168945,1.2058249711990356,-0.6839991211891174,-0.16006404161453247,-0.43416106700897217,0.3114103078842163,0.8452976942062378,-0.005414217710494995,0.3434511721134186,-0.6078402400016785,0.14196338285546295,-0.9569524689164504,0.08301104734492216,-0.23916032283692332,-0.3166767862175447,-2.6671092125885076,3.045714421566298
