time,seconds_elapsed,rotationRateX,rotationRateY,rotationRateZ,gravityX,gravityY,gravityZ,accelerationX,accelerationY,accelerationZ,quaternionW,quaternionX,quaternionY,quaternionZ,pitch,roll,yaw
1784286556137728256,0.05236315727233887,-0.13461418449878693,0.037042587995529175,0.10263641923666,0.09678371250629425,0.3622964322566986,-0.9270244240760803,-0.10810574889183044,0.06084504723548889,0.006217539310455322,0.9653688581422943,-0.1904218542860105,0.015077096927835551,0.17769438849871458,-0.3707305262762316,0.1040256846259943,0.383586383420058
1784286556147647488,0.06228232383728027,-0.07438333332538605,0.11925756931304932,0.036108795553445816,0.0979001373052597,0.36302223801612854,-0.9266231060028076,-0.0503995344042778,0.06986957788467407,0.011797726154327393,0.9652771859189694,-0.19090751814165136,0.015580607384583656,0.17762769327944514,-0.3715093728174546,0.1052620878674668,0.3837614526852602
1784286556157567232,0.07220220565795898,-0.15957938134670258,0.11093636602163315,0.0013234153157100081,0.09893204271793365,0.3641900420188904,-0.9260551333427429,0.003011927008628845,0.02387148141860962,0.04655379056930542,0.9651980187609693,-0.1916102920135007,0.01606051379753922,0.177257946376729,-0.3727629701895662,0.10642804111160341,0.38333835784038045
1784286556167486208,0.08212113380432129,-0.1540360152721405,0.19601957499980927,0.011041822843253613,0.10035999864339828,0.3655327260494232,-0.9253721833229065,0.031063951551914215,0.00208204984664917,0.053469717502593994,0.9651207818705471,-0.1924398213411919,0.016757629110083043,0.1767142688408812,-0.374205061734553,0.1080314134206871,0.3826607026159525
1784286556177404160,0.09203910827636719,-0.2916547358036041,0.1319679170846939,0.014489350840449333,0.101748026907444,0.36790895462036133,-0.9242782592773438,0.0737585499882698,-0.020588427782058716,0.08156591653823853,0.9649083408429784,-0.19380736067614657,0.01730801408697807,0.1763264670828708,-0.376759248642679,0.10964228513007192,0.3824119869233207
1784286556187324160,0.1019589900970459,-0.3099466562271118,0.020148709416389465,0.041154250502586365,0.10263490676879883,0.3704735040664673,-0.9231551885604858,0.13653135299682617,0.016840308904647827,0.04084622859954834,0.9646208699974151,-0.19523216145465686,0.01751637995900476,0.1763069579737723,-0.3795187595986947,0.11072368338552613,0.3828435131592158
1784286556197243136,0.1118781566619873,-0.2784019708633423,0.011478446424007416,0.12315221130847931,0.10295769572257996,0.37318968772888184,-0.9220244884490967,0.024605773389339447,0.027414560317993164,0.026531994342803955,0.9642894797656216,-0.19668667350141447,0.017381113512385322,0.1765164046812448,-0.38244471253463025,0.11120414319264593,0.3836468649010734
1784286556207163136,0.12179803848266602,-0.16976392269134521,0.005131866782903671,0.09523003548383713,0.10340052843093872,0.37521088123321533,-0.9211542010307312,-0.06780177354812622,0.07577788829803467,-0.008411169052124023,0.964029693868775,-0.197790261574242,0.01737521459425217,0.17670254191955095,-0.38462426696819846,0.11178311724560643,0.38435487030357174
1784286556217083136,0.13171815872192383,0.05141966789960861,0.00274860393255949,0.060188062489032745,0.1036728098988533,0.37572818994522095,-0.9209127426147461,-0.035115063190460205,0.21225398778915405,-0.029267311096191406,0.9638991621620868,-0.19809423461338077,0.017387044093487434,0.17707252868136747,-0.3851824208095111,0.11210415892438728,0.385240777287628
1784286556227002112,0.14163708686828613,0.2877664268016815,-0.007949047721922398,0.03716344013810158,0.10384165495634079,0.37411069869995117,-0.9215520024299622,-0.032873041927814484,0.22647523880004883,-0.018648743629455566,0.9640921831403565,-0.19726206240076355,0.017654239021194593,0.17692460250019434,-0.3834376401785246,0.11220796374629073,0.38479141754855795
1784286556236922368,0.15155720710754395,0.3879603445529938,-0.0014411183074116707,0.0006342892302200198,0.10385512560606003,0.37090805172920227,-0.9228441715240479,-0.05417252331972122,0.15785476565361023,0.0032579898834228516,0.9644554009625456,-0.1955867259691971,0.017993029019420976,0.1767711341751331,-0.37998662893124063,0.11206657928031868,0.38412154024132383
1784286556246842112,0.16147708892822266,0.388689786195755,0.04781164973974228,-0.048181187361478806,0.10393524169921875,0.36735573410987854,-0.9242549538612366,-0.05226898193359375,0.10217246413230896,0.04840046167373657,0.9648803183582194,-0.19373386578098042,0.018431250962535183,0.17644654506699622,-0.37616436071394027,0.11198255229780152,0.3830760086245014
1784286556256761088,0.17139601707458496,0.21064519882202148,0.09229633212089539,-0.04206576943397522,0.10440639406442642,0.3645801544189453,-0.9253003001213074,-0.004262968897819519,-0.0053424835205078125,0.06804627180099487,0.9652605780349869,-0.19232032583452655,0.01904581254473129,0.17584737258983,-0.3731818751066297,0.11235990501658043,0.3816334970681433
1784286556266681088,0.18131613731384277,-0.037411466240882874,0.03965042904019356,0.013546625152230263,0.10502135753631592,0.36382314562797546,-0.9255286455154419,0.06177246570587158,-0.14644643664360046,0.058737874031066895,0.965373394518256,-0.19197943421574656,0.01948289773615831,0.17555217161480713,-0.372369050994754,0.1129884661293963,0.3810717132649513
1784286556276600064,0.19123506546020508,-0.10294520854949951,0.0045686084777116776,0.06102360039949417,0.10526014119386673,0.36475300788879395,-0.9251354336738586,0.08832810819149017,-0.11812520027160645,0.04888421297073364,0.9652821721494441,-0.19248623240714477,0.019527880969758514,0.17549388274760988,-0.3733675233567447,0.11329090077490502,0.3811038574346186
1784286556286520320,0.2011551856994629,-0.0711827501654625,0.011950358748435974,0.013149548321962357,0.10565540939569473,0.3654315173625946,-0.9248225688934326,0.11159922927618027,0.0626080334186554,0.04493975639343262,0.96523306328532,-0.19287486163025663,0.019698136497426376,0.1753178864013667,-0.3740963384928724,0.1137508143620382,0.38089882955587334
1784286556296440064,0.2110750675201416,0.1537724733352661,-9.04398038983345e-05,0.07717466354370117,0.10596688836812973,0.36501315236091614,-0.9249520897865295,0.17642751336097717,0.07886499166488647,0.036066651344299316,0.9652904523341326,-0.19268411964183357,0.019919169939724,0.17518652485397634,-0.37364691867585986,0.11406741967151751,0.380647957829682
1784286556306359040,0.2209939956665039,0.3302071690559387,-0.08737368136644363,0.06741391867399216,0.10579057782888412,0.3627574145793915,-0.925859272480011,0.16888287663459778,0.13104751706123352,0.030046284198760986,0.9655106574321028,-0.19149260868375148,0.020023340836099815,0.17526806178487714,-0.3712251538566897,0.11376864131440526,0.38053194010602986
1784286556316279296,0.23091411590576172,0.5670608282089233,-0.1504279375076294,0.07815491408109665,0.1049041897058487,0.358615517616272,-0.9275721311569214,0.0828552171587944,0.20437276363372803,-0.0022221803665161133,0.9659570682213807,-0.1892493630677818,0.01996561754378142,0.17525112883855756,-0.36678434648513525,0.11261693481711176,0.379859583887991
1784286556326199040,0.24083399772644043,0.801682710647583,-0.11748463660478592,0.015428414568305016,0.10390413552522659,0.35217738151550293,-0.9301478266716003,-0.031241774559020996,0.25396275520324707,-0.025342285633087158,0.966649395747453,-0.18580262115731344,0.02008646751332901,0.1751078463696219,-0.35989652215752793,0.11124592384337807,0.3786694502757374
1784286556336118272,0.25075316429138184,0.9621253609657288,-0.06366164982318878,-0.0355968177318573,0.10295628011226654,0.3439931273460388,-0.9333106279373169,-0.11082981526851654,0.17033487558364868,-0.028664469718933105,0.9675466423144035,-0.18145689320654373,0.02044701784172394,0.17466790753715103,-0.35116627386745475,0.10986875622323504,0.37671679053425106
1784286556346038016,0.26067304611206055,0.7233564257621765,0.02093419060111046,-0.08642911165952682,0.10255918651819229,0.33609944581985474,-0.9362258315086365,-0.1414843499660492,0.004965037107467651,0.07382959127426147,0.9684355835078888,-0.17731761732070533,0.02110820683297452,0.1739119679738753,-0.3427723369389006,0.10911029482433322,0.374276232647006
1784286556355958272,0.27059316635131836,0.3363930583000183,0.08919960260391235,-0.05582282692193985,0.10284656286239624,0.33118975162506104,-0.937942385673523,-0.06538623571395874,-0.22569048404693604,0.10594165325164795,0.969019203720475,-0.17479092869629592,0.021838782321749035,0.17312729465345347,-0.3375642118634017,0.10921493716462398,0.37222262121967736
1784286556365877248,0.28051209449768066,-0.04373481124639511,0.08751488476991653,0.009395589120686054,0.10359402745962143,0.3299368619918823,-0.9383016228675842,0.08189181238412857,-0.2958792448043823,0.09186607599258423,0.9692184247408177,-0.17420091709245028,0.022432686129781613,0.1725297416870395,-0.33623669515565996,0.10996054368308748,0.37100863153254504
1784286556375797248,0.2904322147369385,-0.24862152338027954,-0.03521566838026047,0.07888485491275787,0.10413925349712372,0.3313882052898407,-0.9377296566963196,0.1692066788673401,-0.1515786349773407,0.10536271333694458,0.9691026432298695,-0.17499742494039697,0.022607115894029167,0.17235118055388618,-0.3377745428202525,0.1106014695796818,0.37088934476951035
1784286556385716224,0.3003511428833008,-0.2170601338148117,-0.14187154173851013,0.10986647009849548,0.10355778783559799,0.3336699903011322,-0.9369845986366272,0.0811803787946701,0.08788454532623291,0.0996585488319397,0.9688682757286621,-0.17612689826509806,0.022068538298914458,0.1725879796663264,-0.34019402048973724,0.11007565053122949,0.37149381779831225
1784286556395635968,0.3102710247039795,-0.06599903851747513,-0.20028744637966156,0.07068122178316116,0.10234139114618301,0.33476272225379944,-0.9367284178733826,-0.10253977030515671,0.32769760489463806,0.04262441396713257,0.9687706926589993,-0.17658090965202397,0.02132982347473114,0.17276493605785154,-0.34135341977867706,0.10882245508950232,0.37173184824759364
1784286556405556224,0.3201911449432373,0.011833708733320236,-0.1273368000984192,-0.022006109356880188,0.10069084167480469,0.33495935797691345,-0.9368370175361633,-0.2874584197998047,0.31910863518714905,0.02364426851272583,0.9688134387326507,-0.17652524091783933,0.020502102202299106,0.17268186513192704,-0.34156210757132294,0.10706855360858025,0.37125870260192245
1784286556415475200,0.3301100730895996,0.04030482843518257,0.125935360789299,-0.15707680583000183,0.10044636577367783,0.33482083678245544,-0.9369127750396729,-0.2645241320133209,0.052370935678482056,-0.0022351741790771484,0.9689956019538328,-0.1764113003804749,0.020558936780518487,0.17176714279577374,-0.34141509875869247,0.10680200130358763,0.36930941053654665
1784286556425395200,0.3400301933288574,-0.02203843742609024,0.14402702450752258,-0.15114115178585052,0.10133203864097595,0.3348867893218994,-0.9367938041687012,0.009874008595943451,-0.0406821072101593,0.017467021942138672,0.9691835497222144,-0.1765014046609981,0.021221309942113714,0.17052937307900332,-0.3414850932252915,0.10775004413617463,0.36693353900346903
1784286556435315200,0.34995007514953613,0.06970546394586563,0.039930328726768494,-0.13652166724205017,0.10171788185834885,0.3350125551223755,-0.9367070198059082,0.08555322885513306,0.0580843985080719,0.028244495391845703,0.9693769062300308,-0.17657502737212688,0.021627303540317576,0.16929875066623593,-0.34161855673289293,0.10816708165331809,0.3644816968784318
1784286556445234176,0.35986900329589844,0.37004345655441284,0.014190875925123692,-0.15671615302562714,0.1014084666967392,0.33315303921699524,-0.9374035596847534,0.018418796360492706,0.24269837141036987,-0.05052673816680908,0.9697538081024195,-0.17555957548683485,0.021841909373454843,0.16816490945943452,-0.3396456947938338,0.1077610957565172,0.36190048880608633
1784286556455154176,0.36978912353515625,0.5603592991828918,0.009971668012440205,-0.05185714736580849,0.10125207155942917,0.3288246989250183,-0.9389474391937256,0.054006099700927734,0.1820853352546692,-0.061189889907836914,0.9703066043677895,-0.17328838350607537,0.02230258667343785,0.1672685136608211,-0.33505878334724,0.10742062100293005,0.35960227033066455
1784286556465074176,0.37970900535583496,0.49923011660575867,-0.1002347320318222,-0.05767136067152023,0.10068991780281067,0.32382360100746155,-0.9407442808151245,0.09022804349660873,-0.08351293206214905,0.02971827983856201,0.9708510980574675,-0.1706453492658446,0.02253929858150239,0.1667942182073102,-0.32976806574459633,0.10662625943452513,0.35804056524607863
1784286556474993152,0.38962817192077637,0.38690072298049927,-0.09245609492063522,-0.07974759489297867,0.09947886317968369,0.31987670063972473,-0.9422222971916199,0.008889056742191315,-0.008017569780349731,0.06626099348068237,0.9713244132548876,-0.1684887992958534,0.022369125663447745,0.1662529063317437,-0.3255993510449823,0.1051892812810957,0.35632996599517414
1784286556484913152,0.3995480537414551,0.4510887563228607,-0.03020390495657921,-0.07860057801008224,0.09872949868440628,0.3161153197288513,-0.9435696005821228,-0.019124388694763184,0.0863199532032013,-0.005633890628814697,0.9717550865891496,-0.1664731891979557,0.022402723157089795,0.16576116732919396,-0.3216320426523133,0.1042546771426304,0.354832761141979
1784286556494832384,0.4094672203063965,0.5063818693161011,-0.04199622943997383,-0.12964364886283875,0.09807498753070831,0.31168705224990845,-0.9451097846031189,0.008599206805229187,0.13759273290634155,0.027965009212493896,0.9722681706335818,-0.16412084887730397,0.02257135750635342,0.16507398488856953,-0.31696803137848284,0.1034009101845855,0.35289757346300177
1784286556504752128,0.4193871021270752,0.5324259996414185,0.009488798677921295,-0.1920902580022812,0.09737531840801239,0.30703839659690857,-0.9467024207115173,-0.04143659025430679,0.11262404918670654,0.042985379695892334,0.9728532693312775,-0.16164583823009485,0.022790677921156337,0.16403560491615776,-0.31207954835997676,0.10249691992357253,0.3502218539698714
1784286556514672128,0.4293069839477539,0.6309096813201904,0.08339866995811462,-0.3056468665599823,0.09711476415395737,0.30186739563941956,-0.9483906030654907,-0.08214589208364487,0.07192713022232056,0.025020301342010498,0.973552115484638,-0.15893137808183314,0.023355981954113772,0.16245448141895055,-0.30665081568283553,0.10204386194739981,0.3464717128744092
1784286556524591104,0.4392261505126953,0.8960625529289246,0.14487507939338684,-0.43520593643188477,0.09712707996368408,0.2952015995979309,-0.9504852890968323,-0.06953918933868408,0.1500650942325592,-0.07095324993133545,0.9744487653365442,-0.15546240830594005,0.024264822323170728,0.16028771653502022,-0.29966651279146034,0.10183335839295833,0.3414476668671732
1784286556534511104,0.449146032333374,1.3168386220932007,0.19972161948680878,-0.5128627419471741,0.0974438339471817,0.28526946902275085,-0.9534810185432434,-0.049897439777851105,0.20060089230537415,-0.09994000196456909,0.975657561178187,-0.15033723108311658,0.025655706915390614,0.15758392512656655,-0.2892875570212183,0.10184439163207135,0.33511266022693503
1784286556544431104,0.45906615257263184,1.7130051851272583,0.2478308230638504,-0.6296240091323853,0.09796307981014252,0.2714344263076782,-0.9574583768844604,-0.051896803081035614,0.2645457684993744,-0.08375555276870728,0.9772032160686471,-0.1432268385389976,0.02751131585636479,0.15428249779884284,-0.2748830977597561,0.10196095204970351,0.32729288374340626
1784286556554350080,0.46898508071899414,1.865631103515625,0.3211722671985626,-0.8180176615715027,0.09883835911750793,0.2548702359199524,-0.9619106650352478,-0.10509446263313293,0.1441470980644226,-0.0508304238319397,0.9789838180813875,-0.13474351548855826,0.02981358265479805,0.1501531655487117,-0.2577135039005984,0.10239277482401286,0.3176600186602878
1784286556564270336,0.47890520095825195,1.6893972158432007,0.33590593934059143,-1.1307913064956665,0.09961828589439392,0.23883113265037537,-0.9659378528594971,-0.11376318335533142,0.018981367349624634,0.03232884407043457,0.9808159540181246,-0.1264916813935047,0.03210826418838598,0.1448067159423887,-0.2411619725223642,0.10276783693281982,0.30562333709778766
1784286556574189312,0.48882412910461426,1.2401460409164429,0.4135340750217438,-1.2596406936645508,0.10045232623815536,0.22574278712272644,-0.9689940810203552,-0.051776789128780365,-0.09462401270866394,0.051803529262542725,0.9825232319357963,-0.11970411803797017,0.034262026971499104,0.13836555422337338,-0.22770543566696097,0.10329762332327058,0.2916355570053272
1784286556584109056,0.49874401092529297,0.6719601154327393,0.35460445284843445,-1.18557608127594,0.10152794420719147,0.21787485480308533,-0.9706815481185913,0.06874489039182663,-0.2698157727718353,0.1354001760482788,0.9838452032415572,-0.11556585364439478,0.03610779004492774,0.13186849933125003,-0.21963649119861994,0.10421555756609674,0.27798064330650296
1784286556594029312,0.5086641311645508,0.27432703971862793,0.27765920758247375,-1.0627306699752808,0.10208723694086075,0.21468229591846466,-0.9713339805603027,0.11268021911382675,-0.24506254494190216,0.12410497665405273,0.9847671210869381,-0.11377323990365465,0.03726471666625313,0.12609775593030345,-0.21636653133615458,0.10471560126985567,0.2660936697228056
1784286556603948032,0.5185830593109131,0.2748700678348541,0.16724377870559692,-0.9917590022087097,0.1021614745259285,0.21335749328136444,-0.9716180562973022,0.086574487388134,-0.001916453242301941,0.060485243797302246,0.985498583684781,-0.11290643682305244,0.03798838347821287,0.12083668564433517,-0.21501029519405407,0.10476078359063071,0.25532768705232023
1784286556613868288,0.5285031795501709,0.3542845845222473,-0.05911331996321678,-1.0818520784378052,0.10048042982816696,0.21129609644412994,-0.97224360704422,0.10125601291656494,0.15813443064689636,0.029418349266052246,0.986277383507903,-0.11155760488950613,0.037856224466117507,0.1156664854444385,-0.21290080159759645,0.10298340614466256,0.24449895689366097
1784286556623788032,0.5384230613708496,0.475943386554718,-0.24995915591716766,-1.4245567321777344,0.09648691862821579,0.20843522250652313,-0.9732651710510254,-0.05231272429227829,0.04176315665245056,-0.02893209457397461,0.9872352993029365,-0.1096374768576787,0.03670221525972649,0.10954043300884575,-0.20997476733872214,0.09881446195334913,0.2314304640768007
1784286556633707008,0.5483419895172119,0.7402069568634033,-0.41472408175468445,-1.9422084093093872,0.08960273116827011,0.2043573558330536,-0.9747868776321411,-0.1907379925251007,0.1590612232685089,-0.04883372783660889,0.98851079326023,-0.10688574030688242,0.03438033730976321,0.10119244658024677,-0.20580716267053176,0.09166274376473947,0.21349889089535135
1784286556643627264,0.5582621097564697,0.7992345690727234,-0.28285738825798035,-2.074974775314331,0.08247439563274384,0.19810234010219574,-0.9767053723335266,-0.11631839722394943,0.16777288913726807,-0.027719616889953613,0.9899589684397663,-0.1030210693295613,0.03215525201712842,0.09129023563562083,-0.19942151316810747,0.08424158019630902,0.19234489256293966
1784286556653547008,0.5681819915771484,0.08296673744916916,-0.3135451078414917,-2.31644344329834,0.07523144781589508,0.19544625282287598,-0.9778246283531189,-0.07832898199558258,-0.4097559452056885,0.1928820013999939,0.9911710137854761,-0.10101118684857618,0.029739366018893067,0.0805745026687564,-0.19671245670638923,0.07678629626651373,0.16980826717206196
1784286556663466240,0.5781011581420898,-0.9682063460350037,-0.19544324278831482,-2.390590190887451,0.06809689849615097,0.20158638060092926,-0.977100670337677,-0.053723111748695374,-0.8092676401138306,0.2269938588142395,0.991859311824743,-0.10350822271362534,0.02712393568665385,0.06903142090254664,-0.20297728293246994,0.06958030677473787,0.14606066615521598
1784286556673385984,0.5880210399627686,-1.7501437664031982,-0.05614054203033447,-2.3521955013275146,0.06207089498639107,0.21642237901687622,-0.974324643611908,-0.037839941680431366,-0.5537789463996887,0.17484045028686523,0.991882631179175,-0.11054315677949748,0.024857137691898373,0.05771578237451898,-0.21814850018133117,0.06362060788455269,0.12321449184218856
1784286556683305216,0.59794020652771,-2.008347749710083,0.12218125909566879,-2.405431032180786,0.05700942128896713,0.23612433671951294,-0.9700490832328796,-0.10916396230459213,-0.26732856035232544,0.09295862913131714,0.9914060163078973,-0.12016526716757828,0.02314667381044117,0.04624429907147391,-0.23837545811308217,0.058702103787750794,0.10025463286000036
1784286556693225216,0.6078600883483887,-1.561303973197937,0.3141675889492035,-2.2539029121398926,0.05335541069507599,0.2551252245903015,-0.9654347896575928,-0.011180117726325989,0.227952778339386,-0.04013466835021973,0.9907134601209222,-0.12954259615114203,0.022390261264895763,0.034701881020530415,-0.2579772055229311,0.05520951709433938,0.07718864215503085
1784286556703145216,0.6177802085876465,-0.5216277837753296,0.5163768529891968,-2.0684800148010254,0.05170001834630966,0.2663264572620392,-0.9624953866004944,-0.041659727692604065,0.5745854377746582,-0.22363132238388062,0.9902872049805153,-0.13502378469195578,0.02282314026626145,0.024059062790484174,-0.26957980969569945,0.05366299337656783,0.05585958066134706
1784286556713064192,0.6276991367340088,0.6821779012680054,0.708705484867096,-2.1706502437591553,0.05195464938879013,0.2666560113430023,-0.9623904228210449,-0.16129913926124573,0.6599339246749878,-0.3100094795227051,0.9904637893562837,-0.13493936123835928,0.024416534867904446,0.013292130899526333,-0.269921735241738,0.05393265209618978,0.03416366241354273
1784286556722984192,0.6376190185546875,1.99878990650177,0.8227577805519104,-2.593015432357788,0.053273096680641174,0.2550073564052582,-0.9654704928398132,-0.12953652441501617,0.6802190542221069,-0.33705025911331177,0.9913293463590188,-0.1286508994829399,0.026715367205874734,0.0011878775701589352,-0.2578553096917084,0.055122484003120864,0.009544766389874384
1784286556732904192,0.6475391387939453,2.5513834953308105,1.0036956071853638,-3.140004873275757,0.054838020354509354,0.2341972291469574,-0.9706412553787231,-0.12243445217609406,0.4415687322616577,-0.12294089794158936,0.9925365904508262,-0.11757094955132827,0.02926508441767275,-0.013844047472896383,-0.23639275478185756,0.05643669534129254,-0.021190879019845576
1784286556742823168,0.6574580669403076,2.5318360328674316,1.3502790927886963,-3.3240103721618652,0.05893509462475777,0.21107274293899536,-0.9756920337677002,-0.017949990928173065,0.02697962522506714,-0.011887311935424805,0.9934196123223943,-0.10520593354469707,0.03294986398698566,-0.03103905734460948,-0.21267229636191493,0.06033007782773767,-0.05602750153098674
1784286556752743168,0.6673781871795654,1.5487509965896606,1.7030836343765259,-3.2854816913604736,0.06723538786172867,0.193059504032135,-0.9788807034492493,0.03954561799764633,-0.30673748254776,0.23545724153518677,0.9935215671151887,-0.09527899154081765,0.038491066289814066,-0.048531266574665374,-0.19427936393183484,0.06857827844643459,-0.09093255740228065
1784286556762663168,0.6772980690002441,0.2594835162162781,2.0524444580078125,-3.142026424407959,0.07939022779464722,0.18647369742393494,-0.9792470335960388,0.00010805577039718628,-0.7015799283981323,0.3525685667991638,0.9926363029883447,-0.09089137821977686,0.04599172738649222,-0.06555015918826503,-0.1875716529574977,0.0808957998167293,-0.12426808349777094
1784286556772582144,0.6872169971466064,-1.2182576656341553,2.308465003967285,-2.696559190750122,0.09505482017993927,0.19382014870643616,-0.9764211773872375,-0.005928240716457367,-0.817736804485321,0.3177450895309448,0.9907837055852894,-0.09326759600723525,0.05559283182646913,-0.08098268210031472,-0.1950546429581628,0.09704443207361775,-0.15360738210630784
1784286556782502144,0.6971371173858643,-2.1920320987701416,2.727302312850952,-2.227557897567749,0.1144612729549408,0.21297110617160797,-0.9703308343887329,-0.07430015504360199,-0.4952739477157593,0.2041870355606079,0.9881194014784722,-0.10135974123092162,0.06753358270960827,-0.09373155348290388,-0.21461482839400137,0.1174184687434973,-0.17648826537406095
1784286556792421120,0.7070560455322266,-2.631446123123169,3.1746435165405273,-2.34816837310791,0.13773663341999054,0.23954276740550995,-0.9610660076141357,-0.18581707775592804,-0.11106376349925995,0.11856722831726074,0.9845567681951378,-0.11283617017634084,0.0820669991497011,-0.10574005347411806,-0.24189488037301274,0.14234721231638223,-0.19664726444342723
1784286556802341120,0.7169761657714844,-2.1875298023223877,3.7266509532928467,-2.4905495643615723,0.16430553793907166,0.26655662059783936,-0.9497111439704895,-0.09709057211875916,0.23019325733184814,-0.201518714427948,0.9802021641045092,-0.12401705260622922,0.09881397101284532,-0.1185715953846401,-0.26981862367548076,0.17131007251218963,-0.21745457290909642
1784286556812261120,0.7268960475921631,-0.19807976484298706,4.178330898284912,-3.233042001724243,0.19424933195114136,0.28319454193115234,-0.9391847848892212,0.19768793880939484,0.5943536758422852,-0.4877408742904663,0.9754837726332521,-0.12900950287617793,0.11732075714843038,-0.1342523729355809,-0.2871233705480034,0.20395184978485575,-0.24395154530734975
1784286556822180352,0.7368152141571045,2.6241161823272705,4.279677391052246,-3.45377516746521,0.22350412607192993,0.27875545620918274,-0.9339921474456787,0.6481389403343201,0.6967389583587646,-0.8341352939605713,0.9712449500645054,-0.12220664365996708,0.1344227060411074,-0.1538812793885741,-0.28249794448403487,0.2348827964260392,-0.28071151796840044
1784286556832100096,0.7467350959777832,4.708502292633057,4.265574932098389,-3.693678140640259,0.2527358829975128,0.25380489230155945,-0.9336528778076172,0.7130997180938721,0.19823673367500305,-0.7008991241455078,0.9674292303397469,-0.10400323914972007,0.14952222652551594,-0.17580449000930454,-0.25661194966119805,0.26436020794826964,-0.32522044050443205
1784286556842020352,0.756655216217041,6.819335460662842,4.514642238616943,-3.7432429790496826,0.2850659191608429,0.20980606973171234,-0.9352640509605408,0.8968799114227295,-0.10827408730983734,-0.36554771661758423,0.9630019895149384,-0.07484561626977987,0.16360351880397628,-0.20064700059076612,-0.21137660629744542,0.2958521316303535,-0.37922039031863297
1784286556851939328,0.7665741443634033,7.400007724761963,3.530794858932495,-3.4566774368286133,0.3170764446258545,0.1534332036972046,-0.9359064102172852,1.212937593460083,-0.3331817388534546,0.052453041076660156,0.9576089731818694,-0.03893077242612933,0.17473178077091497,-0.22569529794432144,-0.15404167931476,0.32665418736369944,-0.4374902549328492
1784286556861859072,0.776494026184082,5.75544548034668,1.8101742267608643,-2.815260887145996,0.33744344115257263,0.10201279819011688,-0.9358019828796387,1.4384506940841675,-0.6545183062553406,-0.14589357376098633,0.9521899367793086,-0.0070423290046979555,0.17902352037157113,-0.24745778861508202,-0.10219056687780576,0.34608024845376095,-0.4906397944276927
1784286556871779328,0.7864141464233398,4.238507270812988,0.65423583984375,-2.318755626678467,0.34723272919654846,0.06465064734220505,-0.9355478286743164,1.3346062898635864,-0.7728415727615356,-0.3346242904663086,0.9475010149363422,0.01582134953872294,0.1788177015606516,-0.2646050678881718,-0.06469577234267701,0.35539496101076024,-0.5330336620740587
1784286556881698048,0.7963330745697021,4.338423252105713,-0.43250083923339844,-2.0074071884155273,0.34695181250572205,0.033642809838056564,-0.9372793436050415,1.240557312965393,-0.25349146127700806,-0.7086862325668335,0.9436987484956821,0.033652649549416734,0.17386149980035293,-0.27941417854367434,-0.033649159374097015,0.35452860997779717,-0.5696920444413721
1784286556891618304,0.80625319480896,6.044539928436279,-1.452643632888794,-1.4617600440979004,0.33800989389419556,-0.008454431779682636,-0.9411045908927917,1.2187223434448242,0.5152140855789185,-0.8939326405525208,0.9405916234807417,0.05511482595311106,0.16251174886139863,-0.2929839114507515,0.008454532286016881,0.34481436714408376,-0.6053992193728923
1784286556901538048,0.8161730766296387,7.901682376861572,-2.0088956356048584,-1.1751328706741333,0.3218560814857483,-0.07084116339683533,-0.9441345930099487,0.9677251577377319,0.6645301580429077,-0.7324095368385315,0.9372436698548836,0.0848121994064846,0.14401242985094317,-0.30600911631419586,0.07090054783315465,0.32854559202049605,-0.6429318937518977
1784286556911457024,0.826092004776001,7.573006629943848,-2.387005090713501,-0.7381885051727295,0.3015187680721283,-0.1404203325510025,-0.9430633783340454,0.6503397226333618,0.6221555471420288,-0.2859863042831421,0.9327930751112818,0.11683122331241688,0.12173236304242227,-0.3184789002494418,0.14088594220785822,0.30945137732662986,-0.680040490451406
1784286556921377280,0.8360121250152588,6.705510139465332,-2.0969438552856445,-0.5079912543296814,0.28189751505851746,-0.2054261714220047,-0.9371947050094604,0.30933478474617004,-0.2222319096326828,-0.6130677461624146,0.9283599160343119,0.1459897902307057,0.10044719073767672,-0.3267187875074018,0.2068991446073269,0.2921801510718046,-0.7073378507330236
1784286556931296000,0.8459310531616211,5.541151523590088,-1.6538848876953125,-0.43577486276626587,0.2657214403152466,-0.26167333126068115,-0.9278573393821716,0.2601422071456909,-1.0321041345596313,-0.6436148285865784,0.9236061222236215,0.17126002703411117,0.08210568604161202,-0.3329872418382953,0.26475553299609106,0.27891667356580846,-0.7294264197379279
1784286556941216256,0.8558511734008789,3.667374849319458,-1.2964303493499756,-0.21684972941875458,0.2527233064174652,-0.3029581308364868,-0.918883740901947,0.3049244284629822,-0.9285176992416382,-0.491730272769928,0.9196066422503862,0.18961217291845298,0.06786277302334481,-0.3372915855313345,0.30779514867627833,0.2683968338553804,-0.744966597575756
1784286556951136000,0.8657710552215576,2.328892946243286,-0.7926467657089233,0.01005132682621479,0.24372664093971252,-0.3290625512599945,-0.9123131036758423,0.2572804391384125,-1.2053154706954956,-0.3656409978866577,0.9168120008178043,0.20109675250586342,0.058339928739284584,-0.34001829266690986,0.3353106617006814,0.2610558314514136,-0.7547178735803776
1784286556961055232,0.875690221786499,1.5700143575668335,-0.36519187688827515,0.38500258326530457,0.23758777976036072,-0.346897691488266,-0.9073114395141602,0.2871161699295044,-1.5902056694030762,-0.32096004486083984,0.9154336699876703,0.20885659168081772,0.05218439265820526,-0.34005411070647473,0.35426135007911397,0.2561086839584234,-0.7574298640913129
1784286556970975232,0.8856101036071777,0.4262668490409851,-0.3075353801250458,0.7845059633255005,0.23295384645462036,-0.3577564060688019,-0.9042913913726807,0.38046473264694214,-1.283707857131958,-0.023504018783569336,0.9152627656217928,0.21333234390854813,0.048411038393979186,-0.33828954944660106,0.36586417279227035,0.25212741651768045,-0.7549560651735934
1784286556980894976,0.8955299854278564,-0.799322783946991,-0.5016893744468689,2.2945268154144287,0.22388051450252533,-0.3588804602622986,-0.9061359167098999,0.6282618045806885,-1.1455597877502441,0.0748981237411499,0.9181500403513887,0.21183273155230034,0.04537537559974422,-0.33176579064727507,0.367068181653126,0.24222068797427365,-0.7386606886949278
1784286556990814208,0.9054491519927979,-1.4219436645507812,-0.9953675866127014,3.3193345069885254,0.20737290382385254,-0.35475918650627136,-0.9116701483726501,0.9121034145355225,-1.4985122680664062,-0.14837324619293213,0.9240838549894064,0.2061159415745191,0.04100193559060239,-0.3192243551524113,0.3626564973973399,0.22365928356869594,-0.7064026670945207
1784286557000734208,0.9153690338134766,-1.4682714939117432,-1.7778377532958984,4.102434158325195,0.18172694742679596,-0.3483588397502899,-0.9195767641067505,1.1243491172790527,-1.3966820240020752,-0.209924578666687,0.9315646384030062,0.19776860016494627,0.03315408687502037,-0.3032751308691022,0.35581971250990724,0.19510624688246506,-0.6646572081763712
1784286557010653184,0.925288200378418,-0.7395080924034119,-2.508469343185425,4.833280086517334,0.14677472412586212,-0.34516507387161255,-0.9269942045211792,1.2107081413269043,-1.0246164798736572,-0.3023911714553833,0.9394751118940886,0.18994181263120644,0.020615517831969542,-0.2844007707178564,0.3524146618223408,0.15703045304313612,-0.6159220128094626
1784286557020573184,0.9352080821990967,0.17838740348815918,-3.128948450088501,5.380709171295166,0.10289163142442703,-0.3490634858608246,-0.9314333200454712,1.2365705966949463,-0.8095210790634155,-0.4937223196029663,0.9468382847183585,0.18513502055171205,0.0028932691417024817,-0.2630855957357768,0.35657155212851616,0.11001984601663675,-0.5618856028308201
1784286557030493184,0.9451282024383545,1.104825735092163,-3.4924819469451904,5.791867256164551,0.05251811444759369,-0.35931238532066345,-0.9317384362220764,1.2917659282684326,-0.8478256464004517,-0.6532072424888611,0.9531110832003694,0.18379939634493495,-0.018670181169841513,-0.2396842093689948,0.3675309601567219,0.05630614722682785,-0.5032019053187363
1784286557040412160,0.9550471305847168,1.8493361473083496,-3.7807106971740723,6.080089092254639,-0.0026056000497192144,-0.37456369400024414,-0.9271975159645081,1.3535271883010864,-0.9937529563903809,-0.6938199400901794,0.9578686590898061,0.18587790581973437,-0.043019078615524585,-0.21467762379420163,0.3839261824102122,-0.002810181316299778,-0.4404074380260972
1784286557050332160,0.9649670124053955,2.145888328552246,-3.7731869220733643,6.357939720153809,-0.06103259697556496,-0.39128610491752625,-0.9182429909706116,1.3168004751205444,-1.1731975078582764,-0.5431979894638062,0.9611291496044196,0.19007027886913536,-0.0689332025542963,-0.18802209350278076,0.4020287054172033,-0.06636909537440376,-0.3728445114769702
1784286557060252160,0.9748871326446533,1.8027806282043457,-3.6266865730285645,6.562546253204346,-0.12005358189344406,-0.4036334753036499,-0.907010018825531,1.2622501850128174,-1.404563546180725,-0.230929434299469,0.9633013929278635,0.19382638801542035,-0.0944792436412926,-0.1598605726547237,0.4154847341237768,-0.13159695828742118,-0.30112724971790505
1784286557070171136,0.9848060607910156,0.9247776865959167,-3.40948486328125,6.591769695281982,-0.17817480862140656,-0.40641018748283386,-0.8961498141288757,1.2405831813812256,-1.6340866088867188,0.022980868816375732,0.9648370122183169,0.19448696610888455,-0.11874306233277912,-0.13101287680957366,0.4185216982156721,-0.19626316045538186,-0.22811563114767117
1784286557080091136,0.9947261810302734,-0.300239622592926,-3.0829522609710693,6.546363830566406,-0.2328771948814392,-0.3957115709781647,-0.8883583545684814,1.2434821128845215,-1.8318427801132202,0.11392903327941895,0.9662681284174521,0.18984463833090115,-0.14064078330118016,-0.10249492225932551,0.40684254602820646,-0.2563745915949924,-0.1581930735184344
1784286557090011136,1.0046460628509521,-1.8504716157913208,-2.985179901123047,6.619899272918701,-0.2844911813735962,-0.3697614371776581,-0.8845005631446838,1.3608766794204712,-2.0152482986450195,0.13904768228530884,0.967834408511931,0.17865727813048132,-0.16072117267835562,-0.07447721143477136,0.37875226297502723,-0.3111903181909908,-0.09348743362470759
1784286557099930112,1.0145649909973145,-3.790408134460449,-3.1303417682647705,6.701570510864258,-0.3342909812927246,-0.32460445165634155,-0.8848059177398682,1.496690273284912,-2.0729479789733887,0.14512085914611816,0.9696145315142448,0.15857429648473167,-0.18014225151114274,-0.04744184026878577,0.3305934966318348,-0.3612343769929866,-0.03687333255771801
1784286557109850112,1.0244851112365723,-5.426943778991699,-3.2807631492614746,6.923748970031738,-0.3822365701198578,-0.2594394087791443,-0.886897087097168,1.6364938020706177,-2.0142269134521484,0.29209423065185547,0.9710771268590891,0.12918359870085572,-0.19965734713654743,-0.021398971509294713,0.26244168123767964,-0.40692642501602766,0.01038041748963668
1784286557119769088,1.0344040393829346,-5.916859149932861,-3.4164111614227295,7.212141990661621,-0.4271194338798523,-0.18040990829467773,-0.8860142827033997,1.728068470954895,-1.8782448768615723,0.6509831547737122,0.9710736634675002,0.09397995225492056,-0.21945531498997908,0.004814203650903238,0.18140318140439193,-0.4491996524193646,0.05146550748285197
1784286557129689344,1.0443241596221924,-5.4232401847839355,-3.5067684650421143,7.46915340423584,-0.46754008531570435,-0.09781624376773834,-0.8785432577133179,1.780604600906372,-1.8040392398834229,0.9162935018539429,0.9686207841395106,0.058483766100419624,-0.2393909340888047,0.03233401471519734,0.09797290283145944,-0.48905626396961877,0.09120290681325532
1784286557139609088,1.054244041442871,-5.022805213928223,-3.445056676864624,7.671019077301025,-0.5019791126251221,-0.01646120473742485,-0.8647230863571167,1.7819015979766846,-1.8428679704666138,1.1265944242477417,0.9636254580130588,0.02507394411193781,-0.25886241638327767,0.06154345723937169,0.016461949160681204,-0.5259642073851776,0.13199184333380243
1784286557149528320,1.0641632080078125,-5.234713077545166,-3.333272933959961,7.692873954772949,-0.5288824439048767,0.06611856818199158,-0.8461156487464905,1.7404913902282715,-2.0162222385406494,1.3393559455871582,0.9564149520153606,-0.00810949140550722,-0.2772659500085332,0.09125984026018943,-0.06616684001098573,-0.5586504533133612,0.17127673572646823
1784286557159448064,1.0740830898284912,-5.959046840667725,-3.132561206817627,7.663719177246094,-0.5473380088806152,0.15327487885951996,-0.822756290435791,1.7559256553649902,-2.335907220840454,1.510958194732666,0.9470877645545909,-0.04360292193792866,-0.2944836706355059,0.12001225167311694,-0.1538814721346893,-0.5870206541186369,0.20549806202358006
1784286557169368320,1.084003210067749,-6.5811285972595215,-3.0998356342315674,7.730592250823975,-0.5570666790008545,0.24602116644382477,-0.7931899428367615,1.8383166790008545,-2.7155189514160156,1.6411361694335938,0.9353440866583652,-0.08253643180855434,-0.31079376973807177,0.1473987660517865,-0.24857309632445124,-0.6122758558500486,0.23367102846141805
1784286557179289088,1.0939240455627441,-6.68153190612793,-3.130284070968628,7.876120567321777,-0.558276355266571,0.34040120244026184,-0.7566072940826416,2.006411552429199,-2.8606038093566895,1.810119867324829,0.920808916566346,-0.12301113993088955,-0.3264423695033696,0.1743978294043575,-0.3473435355625452,-0.6356913405708868,0.25904739458902454
1784286557189209344,1.103844165802002,-6.297216415405273,-3.2610924243927,8.084769248962402,-0.5510385632514954,0.43179574608802795,-0.7140791416168213,2.2238900661468506,-2.796358823776245,1.9897444248199463,0.9034738930488645,-0.1626800403638019,-0.34131458574521084,0.201927192982987,-0.4464827263200666,-0.6572307996318135,0.28526082981784734
1784286557199129088,1.1137640476226807,-5.778517723083496,-3.3897132873535156,8.576454162597656,-0.5346429347991943,0.5179764032363892,-0.6677256226539612,2.373464345932007,-2.7997145652770996,2.2031259536743164,0.883376434092931,-0.2002094319995046,-0.355039959930574,0.2313201664328956,-0.544483553001527,-0.6751630675374848,0.31685155672901766
1784286557209048320,1.123683214187622,-5.144557476043701,-3.3509714603424072,9.199424743652344,-0.5068882703781128,0.5988948345184326,-0.6199914216995239,2.3940649032592773,-2.955599546432495,2.415508270263672,0.8605231476655093,-0.23564122559153602,-0.36671175586313415,0.2636203529920288,-0.6421203525192791,-0.685364745254941,0.3583554574730991
1784286557218968064,1.1336030960083008,-4.871249198913574,-3.030141830444336,9.706647872924805,-0.466049462556839,0.674003541469574,-0.5731641054153442,2.3490755558013916,-3.1361160278320312,2.627180337905884,0.8352100226300466,-0.26945293139612086,-0.3752506534266825,0.298339218245014,-0.739614999688345,-0.6826880545125975,0.4124560905328763
1784286557228887296,1.1435222625732422,-5.464323997497559,-2.5256714820861816,10.043259620666504,-0.4116635024547577,0.7448499202728271,-0.5251016616821289,2.26572847366333,-3.389716863632202,2.6172189712524414,0.8093926400205603,-0.30682831856363557,-0.3785572175240096,0.3277718105604644,-0.8403099057363524,-0.6648893395284942,0.4634679948046787
1784286557238807296,1.153442144393921,-6.965743064880371,-2.085496664047241,10.235957145690918,-0.3445010483264923,0.8135014772415161,-0.4685448408126831,2.288989543914795,-3.636209726333618,2.5484399795532227,0.7800711713212858,-0.3489299424374509,-0.37944100353140675,0.354628410660694,-0.9501478501940043,-0.63399884980893,0.5190237618749682
1784286557248727040,1.1633620262145996,-8.374521255493164,-2.1020796298980713,10.42190170288086,-0.26672443747520447,0.8779693841934204,-0.39752697944641113,2.4973154067993164,-3.7105958461761475,2.482274293899536,0.7455301881498791,-0.3962058075555256,-0.3798124080483023,0.3780848087090777,-1.0716037681721384,-0.5909685594847469,0.5810775525942793
1784286557258646272,1.173281192779541,-9.050224304199219,-2.327793836593628,10.617176055908203,-0.17992015182971954,0.9322689771652222,-0.3138523995876312,2.720935821533203,-3.525820732116699,2.465433120727539,0.7053384205443601,-0.4458086253381445,-0.37990587639790385,0.39927925103469614,-1.200634932803657,-0.5205283571859114,0.6695479343183952
1784286557268566016,1.1832010746002197,-8.998867988586426,-2.644411087036133,10.80225944519043,-0.085304394364357,0.9706563353538513,-0.2248319536447525,2.7654192447662354,-3.227644920349121,2.396768093109131,0.6604043725871833,-0.49411663665980393,-0.3787251967811492,0.41985953312397506,-1.3279453495518037,-0.36263485909358834,0.8476355654849846
1784286557278486272,1.1931211948394775,-8.517894744873047,-2.779507637023926,10.967288970947266,0.01593451201915741,0.9902290105819702,-0.13853701949119568,2.6389880180358887,-3.1062874794006348,2.3085200786590576,0.61241353975038,-0.5388073090438077,-0.3747241284299748,0.4407018654454605,-1.43088974387906,0.1145166534089019,1.3470847467594522
1784286557288405248,1.2030401229858398,-8.147883415222168,-2.814635753631592,10.907400131225586,0.12099437415599823,0.99092036485672,-0.058629464358091354,2.413872003555298,-3.1103508472442627,2.2917990684509277,0.5596183127797686,-0.5769616948436334,-0.37121485875732646,0.46491096661126285,-1.4359379176175375,1.1195739635161497,2.3880819490226375
1784286557298325248,1.2129602432250977,-8.094412803649902,-2.7191240787506104,10.60845947265625,0.22554568946361542,0.9741073846817017,0.01562440488487482,2.241007089614868,-2.996934413909912,2.264694929122925,0.5052443858500785,-0.6114986391485826,-0.36589836915126295,0.48674015871965537,-1.3427386729829194,1.6399596199587203,2.944135816093888
1784286557308245248,1.2228801250457764,-8.843354225158691,-2.5023179054260254,10.020030975341797,0.3251150846481323,0.9415149092674255,0.08860021829605103,2.1206092834472656,-2.689332962036133,2.2813796997070312,0.44896646426787795,-0.6436286410492672,-0.3606137555855285,0.5041121703882608,-1.2270981180187952,1.8368550144985711,-3.107328566025698
1784286557318164224,1.2327990531921387,-10.544723510742188,-2.330155611038208,12.437874794006348,0.43729710578918457,0.8853734135627747,0.15775106847286224,4.6943254470825195,-1.5816471576690674,2.655984878540039,0.3844088029773753,-0.6755468283924511,-0.3500171685365791,0.522833089120766,-1.0872966368341221,1.917007888481554,-2.9883900265256154
1784286557328084224,1.2427191734313965,2.39538836479187,-11.732595443725586,13.495241165161133,0.5320073366165161,0.8264654874801636,0.1841818392276764,5.033834457397461,-0.09331125020980835,0.0482553094625473,0.32892185437820703,-0.690225789116448,-0.3401165722102708,0.5474664069230044,-0.9728003055662168,1.9040833730088726,-2.946087438043715
1784286557338003200,1.2526381015777588,-9.308676719665527,-8.737385749816895,2.9923274517059326,0.6173430681228638,0.770315945148468,0.15969005227088928,6.212918281555176,4.97780704498291,8.535622596740723,0.2745108317060453,-0.6830351725068069,-0.33661251046793644,0.5871956992244188,-0.8793364748906363,1.8239211215604918,-2.9243294787807947
1784286557347923200,1.2625582218170166,-1.652112603187561,-4.394679546356201,9.356310844421387,0.6693128943443298,0.7279199361801147,0.1488368809223175,-2.0369582176208496,2.284485340118408,2.5648319721221924,0.23150489431617796,-0.6775858159843494,-0.33955250371136,0.6099072791051664,-0.8152834120573541,1.789608611469436,-2.8793454622622012
1784286557357843200,1.2724781036376953,-3.0688328742980957,8.083860397338867,0.8822603821754456,0.6933550238609314,0.6947801113128662,0.1911531388759613,-3.2474169731140137,2.2488081455230713,5.690942287445068,0.21239115007767745,-0.6962767136704177,-0.3328292447858658,0.5994276244560356,-0.768114124089758,1.8398067143285923,-2.8469564045748905
1784286557367762176,1.2823970317840576,-4.760020732879639,9.501880645751953,0.25238314270973206,0.6676111817359924,0.6931025981903076,0.27185243368148804,2.0406711101531982,-1.1822689771652222,2.4521617889404297,0.21728370499621857,-0.7229323283775406,-0.33659332075422477,0.5629044651952121,-0.7657843419903576,1.9574956345052046,-2.799151724855581
1784286557377682176,1.2923171520233154,-9.70878791809082,9.654457092285156,2.0912632942199707,0.644135057926178,0.6619883179664612,0.38322553038597107,4.833449840545654,-0.019806861877441406,2.9145193099975586,0.20376074659448584,-0.7582075890924462,-0.3416636100025201,0.5165935643151333,-0.7234684926255727,2.107491323504851,-2.7187289813685935
1784286557387602176,1.3022370338439941,-7.277746677398682,1.7352296113967896,-0.5695517063140869,0.6221608519554138,0.6208380460739136,0.4769441485404968,4.480652809143066,0.7338066697120667,0.9786831736564636,0.17815285117443502,-0.78164776195116,-0.357069815180706,0.4793635386194367,-0.6698112824689205,2.224832644299231,-2.6247029534260644
1784286557397521152,1.3121562004089355,-5.471346855163574,-0.43260622024536133,1.3759765625,0.6198334097862244,0.5913314819335938,0.5158811211585999,5.385735988616943,1.4027937650680542,1.6545442342758179,0.15577923318386744,-0.7877868020837443,-0.370584010369287,0.4666821013763539,-0.6327089470004206,2.264918507296808,-2.5667111424924896
1784286557407441152,1.3220760822296143,-5.197539329528809,-0.3203035593032837,1.5966309309005737,0.6325905919075012,0.5509604811668396,0.5443081855773926,3.148582935333252,1.7773475646972656,1.28499174118042,0.12895912906907325,-0.7939106832079253,-0.37664295808354686,0.45958173124995777,-0.5835147537930993,2.2813219626322097,-2.529498382114436
1784286557417361152,1.331996202468872,-3.070401906967163,-1.5838581323623657,2.2171823978424072,0.6479278802871704,0.5185604691505432,0.5579288601875305,-0.2170959711074829,1.2289371490478516,0.5663692951202393,0.10762746419283882,-0.7970243026944035,-0.3790998441288244,0.45765919570696145,-0.54516650783527,2.2816976831396087,-2.508626286451279
1784286557427280128,1.3419151306152344,-2.89473557472229,1.6693161725997925,0.36358100175857544,0.6550837159156799,0.4935884475708008,0.5720451474189758,-1.7448816299438477,1.2270994186401367,0.4787818193435669,0.09311620765910658,-0.8009834301229796,-0.3800633136383326,0.45310788760676163,-0.516211042672109,2.288628517203928,-2.494279960537034
1784286557437200384,1.3518352508544922,-4.10036563873291,1.6361020803451538,-1.841244101524353,0.6409066319465637,0.47893938422203064,0.5998799800872803,-1.2466652393341064,1.3664586544036865,0.8905985951423645,0.08469116101642493,-0.8048618328384487,-0.39004797641278083,0.4391895795178616,-0.49944610861644934,2.3231415074664548,-2.459402380143437
1784286557447120128,1.361755132675171,-4.173971176147461,1.9796411991119385,-2.65273118019104,0.6181166172027588,0.46542778611183167,0.6334896087646484,-0.168836772441864,1.2403064966201782,0.5540104508399963,0.07538553230871367,-0.80640710049095,-0.40798577923193863,0.4213932832694262,-0.48411788275061995,2.368476485066414,-2.405153925581187
1784286557457039104,1.3716740608215332,-2.5748441219329834,1.8002214431762695,-2.3125412464141846,0.5948417782783508,0.45947930216789246,0.6595770120620728,0.9861212968826294,1.2371301651000977,0.1476433277130127,0.07159178581441851,-0.8065962560007757,-0.423309554480064,0.406307814344041,-0.47740885171836855,2.4077545243018865,-2.3614998128705342
1784286557466959360,1.381594181060791,-1.8353596925735474,1.3187198638916016,-1.9695963859558105,0.5757721066474915,0.45624640583992004,0.678473174571991,1.4131653308868408,1.8717718124389648,0.1647123098373413,0.06961235654108316,-0.8058798529141835,-0.43565381016696686,0.3948639885801407,-0.47377238476467615,2.4378949864935224,-2.3272065041104084
1784286557476878080,1.3915131092071533,-1.9424680471420288,1.2488360404968262,-2.1615073680877686,0.5579773783683777,0.45538151264190674,0.6937496066093445,0.6152707934379578,1.6722733974456787,0.19219082593917847,0.06942552570721883,-0.8048795331758877,-0.4461431768531168,0.3851041216517088,-0.47280070082074305,2.464239977690308,-2.2986293826215647
1784286557486798336,1.4014332294464111,-1.77277410030365,1.4462883472442627,-2.438605785369873,0.5373569130897522,0.45400920510292053,0.7107198238372803,0.09759169816970825,1.1645209789276123,0.3643837571144104,0.06916083702678569,-0.8032266209885209,-0.45846146936473503,0.3739742206179357,-0.4712598772315953,2.4942153764583033,-2.265033920983812
1784286557496718080,1.4113531112670898,-0.9967934489250183,1.5165464878082275,-1.0378119945526123,0.5200662016868591,0.4549213945865631,0.7228955030441284,0.5971518754959106,0.5527843236923218,0.20309942960739136,0.07081375097210342,-0.8020851717170202,-0.46701941806220504,0.36542814568565596,-0.47228394924014316,2.5179510430748833,-2.2418697938777674
1784286557506637056,1.4212720394134521,-0.1122506856918335,1.3047596216201782,-1.7953439950942993,0.5053531527519226,0.45714014768600464,0.7318753004074097,-0.04360687732696533,0.9711588621139526,0.1962863802909851,0.07385074088444095,-0.8018279137609078,-0.47223898062538744,0.35862029214778074,-0.47477701106915227,2.5372772986078105,-2.2276264441832136
1784286557516557312,1.43119215965271,-0.18611133098602295,1.2082432508468628,-1.5183507204055786,0.48859283328056335,0.46218645572662354,0.7400414943695068,0.14048144221305847,1.266131043434143,0.25669336318969727,0.07838821579222195,-0.800767241897179,-0.4783226685053354,0.3519015988244832,-0.4804592218848847,2.5580639467122976,-2.211559936292822
1784286557526477056,1.4411120414733887,0.6823018789291382,1.361224889755249,-1.7712879180908203,0.4715518355369568,0.47304868698120117,0.7442204356193542,-0.0422762930393219,0.7307477593421936,0.10978347063064575,0.08561414963964774,-0.7984635174295929,-0.48432038220159424,0.34721761911127336,-0.4927479219859122,2.576819750402941,-2.1967989733753237
1784286557536396288,1.45103120803833,-0.2821485698223114,1.0071702003479004,-1.6817301511764526,0.4544547200202942,0.48325470089912415,0.7482885718345642,0.06146016716957092,0.37645596265792847,0.4399285912513733,0.0926977626733916,-0.7962235648168351,-0.4900737881052566,0.3424366198080046,-0.504368543167728,2.5958041622233776,-2.1821009053871223
1784286557546316032,1.4609510898590088,-0.15660357475280762,0.8615511059761047,-1.342371940612793,0.44048890471458435,0.48641350865364075,0.7545668482780457,0.1591203808784485,0.1855071783065796,0.44814610481262207,0.09610840914537884,-0.7950634446356745,-0.49513385571283863,0.33686743327372654,-0.5079802285279772,2.6131969812735525,-2.167841173631597
1784286557556236288,1.4708712100982666,0.5494486093521118,0.8073917031288147,-1.1454131603240967,0.4270878732204437,0.4948107898235321,0.7568079233169556,-0.13193711638450623,0.576401948928833,0.13120782375335693,0.10210607221565655,-0.7932979675855495,-0.4990814522521092,0.33342223464785203,-0.5176170798772856,2.6278156818101035,-2.157346383730011
1784286557566155264,1.480790138244629,1.032261848449707,0.9826003909111023,-0.7117108106613159,0.4167424738407135,0.5038658380508423,0.7566006779670715,-0.055612772703170776,0.35054999589920044,0.33740854263305664,0.10792566244119778,-0.7914174868497754,-0.5019548867118595,0.3317402712906243,-0.5280684146410992,2.6381285367073106,-2.1499846672411547
1784286557576075264,1.4907102584838867,1.6570290327072144,0.5536565184593201,-1.6845479011535645,0.4054601490497589,0.5188594460487366,0.7525867223739624,-0.4117010235786438,0.4029696583747864,0.23186451196670532,0.11684171358853422,-0.7886956938796585,-0.5042345185878734,0.3317448039877193,-0.5455162440870143,2.6474235018262102,-2.1448051509285504
1784286557585994240,1.500629186630249,1.3546805381774902,0.4728160500526428,-0.46557697653770447,0.39482441544532776,0.5346338152885437,0.7471812963485718,0.21398591995239258,0.26555222272872925,0.5266985297203064,0.1267537139430707,-0.7868061656400194,-0.5045064109808503,0.3321787310387634,-0.5640743651371809,2.6554695697335524,-2.1447073363477447
1784286557595914240,1.5105490684509277,1.6101197004318237,1.4425313472747803,-0.4530092775821686,0.38442206382751465,0.5469712615013123,0.7436684370040894,0.07068672776222229,-0.24055933952331543,0.5888208150863647,0.1360904825563753,-0.7869884072562758,-0.5024773348024479,0.3311273785620908,-0.5787420431524729,2.664495592226746,-2.1496728736736745
1784286557605834240,1.5204691886901855,-0.7248995900154114,1.5277912616729736,-1.6007027626037598,0.3683644235134125,0.553199291229248,0.7471804618835449,-0.024095535278320312,0.0784841775894165,0.6691252589225769,0.14222737952605194,-0.7859881271881198,-0.5057794927663953,0.32585466744606173,-0.5861998093272778,2.683555920839376,-2.138484158824268
1784286557615753216,1.5303881168365479,-0.1244945079088211,1.3901814222335815,-0.8279743790626526,0.35042959451675415,0.553989052772522,0.755178689956665,0.9847906827926636,-0.304980993270874,-0.02167356014251709,0.14644495268721475,-0.7861967782028004,-0.509395693268086,0.3177489843273605,-0.5871481293298504,2.707128434916563,-2.125014616918887
1784286557625673216,1.5403082370758057,-1.078540325164795,1.4776686429977417,-0.8459116220474243,0.3333253264427185,0.5518036484718323,0.7644650936126709,1.0689573287963867,-0.38771069049835205,0.16622942686080933,0.14887674267201428,-0.7863554264471938,-0.5136902686434902,0.3091975822265466,-0.5845254080345241,2.7304215402690093,-2.1095943960098094
1784286557635593216,1.5502281188964844,-0.7652149200439453,1.3550654649734497,-1.252261996269226,0.3171692490577698,0.5491843819618225,0.7731754183769226,1.2078094482421875,-0.1859031319618225,-0.14634430408477783,0.1508839780104495,-0.7863121556959796,-0.5179776967944153,0.30107529667849126,-0.5813879650689331,2.752310144547749,-2.0944167533672573
1784286557645512192,1.5601470470428467,-1.564402461051941,0.8440595865249634,-1.5304045677185059,0.30181437730789185,0.5431161522865295,0.783538818359375,1.194554090499878,-0.19373559951782227,0.18539440631866455,0.15035641121402848,-0.7852510064801601,-0.5245476779121023,0.2926150826754654,-0.5741439140545122,2.7739149640640575,-2.0734203082445197
1784286557655432192,1.5700671672821045,-1.2730125188827515,0.8096826672554016,-1.1177351474761963,0.2880410850048065,0.5363315939903259,0.7933349609375,0.8301076889038086,-0.24169975519180298,-0.038086116313934326,0.1491823871549475,-0.7840140580890492,-0.5310267628388782,0.28474028730136,-0.566084673246884,2.793316411317293,-2.0531557109199676
1784286557665352192,1.5799870491027832,-0.7731303572654724,0.622128963470459,-0.664493978023529,0.2778218984603882,0.5295965075492859,0.8014627695083618,0.6479288339614868,0.2124231457710266,-0.15693151950836182,0.14774203666814767,-0.7835130296613446,-0.5355732664632962,0.2782820761094957,-0.5581248122293416,2.807911124343268,-2.038822496469227
1784286557675271168,1.5899062156677246,-1.4017250537872314,0.8236434459686279,-1.7563271522521973,0.26570090651512146,0.5254284739494324,0.8082872629165649,-0.07208213210105896,0.1926349401473999,-0.02201700210571289,0.14746147725820813,-0.7814464426577815,-0.5417426376691293,0.27223442603963427,-0.5532186393216368,2.823999024126856,-2.020085187699528
1784286557685191168,1.5998260974884033,-0.8662161827087402,0.7792379260063171,-1.3518891334533691,0.2517879605293274,0.520687460899353,0.8157740831375122,0.01539340615272522,-0.10604512691497803,-0.09645956754684448,0.14748014010363616,-0.7793702874429748,-0.548150515432437,0.2652594038225847,-0.5476559518063756,2.8422198753450165,-2.000356762904941
1784286557695110144,1.6097450256347656,-1.6990824937820435,0.5559521317481995,-1.1246956586837769,0.23928973078727722,0.5117223858833313,0.8251546621322632,0.4072708785533905,0.10119253396987915,0.1764320731163025,0.1456129857135417,-0.7783470223494084,-0.5538530884719911,0.2573313249572537,-0.5371883265682705,2.859340949030624,-1.9828551560693812
1784286557705030144,1.6196651458740234,-1.5399152040481567,0.5215713977813721,-1.3215699195861816,0.22874900698661804,0.5024129152297974,0.8338198065757751,0.45687419176101685,-0.09744453430175781,-0.020175278186798096,0.14275075959940867,-0.7762900952065019,-0.5606100303285889,0.2504244375629942,-0.526387205993595,2.8738414012536486,-1.9632433244646175
1784286557714950144,1.6295850276947021,-1.6307793855667114,0.625415027141571,-0.8809549808502197,0.21931704878807068,0.4916955828666687,0.8426955938339233,0.3437017798423767,-0.15958797931671143,0.07095503807067871,0.1394716177892896,-0.7751820400275933,-0.5660747362274915,0.2433104415028853,-0.51403590384518,2.886984305122366,-1.947371850577267
1784286557724869376,1.6395041942596436,-1.8179199695587158,0.7398710250854492,-0.8203203678131104,0.20979203283786774,0.4784359037876129,0.8526938557624817,0.15182602405548096,0.05629318952560425,0.06429851055145264,0.13521379874629752,-0.7742851237211036,-0.5716900263666307,0.23530918071607881,-0.49887264747250953,2.900349778169784,-1.9313265825598087
1784286557734789120,1.6494240760803223,-2.074326753616333,0.4408465325832367,-0.9110348224639893,0.20196275413036346,0.46433091163635254,0.8623270988464355,0.23242445290088654,0.02868056297302246,-0.05979108810424805,0.1302727424668365,-0.7734607576504666,-0.5769939447698476,0.2277400084318721,-0.4828790036542139,2.9115326475903505,-1.916619761330835
1784286557744709376,1.65934419631958,-0.7698756456375122,0.0130148995667696,-0.8917758464813232,0.19491390883922577,0.4533247649669647,0.8697728514671326,0.48951902985572815,-0.03340300917625427,-0.4954290986061096,0.1266954684008564,-0.7725544506338643,-0.5814172708918932,0.22149880621925694,-0.4704918616323594,2.9211374002911223,-1.9043205284944704
1784286557754628096,1.6692631244659424,0.26948660612106323,-0.21159398555755615,-0.5234593749046326,0.1925717443227768,0.4518643617630005,0.87105393409729,0.4588259756565094,0.2676333785057068,-0.518560528755188,0.1258175694098793,-0.7702786091688524,-0.5849767749715713,0.22055166545324525,-0.4688541319803595,2.924013375632507,-1.8947238898065224
1784286557764548352,1.6791832447052002,1.2407149076461792,-0.23401136696338654,-0.45546531677246094,0.19311295449733734,0.4605845510959625,0.8663542866706848,0.24489061534404755,0.09456083178520203,-0.5874235033988953,0.12905450098770996,-0.7684056926182894,-0.585431329139922,0.22398197859034139,-0.4786536607353805,2.9222750751552753,-1.8931901715703359
1784286557774468096,1.689103126525879,1.3931726217269897,0.03701454773545265,-0.08678397536277771,0.19207191467285156,0.4719719886779785,0.860436201095581,0.050771698355674744,-0.4440027177333832,-0.3635033965110779,0.13391080509674697,-0.7662308517641988,-0.5857545318507866,0.22770529310781668,-0.49152624455693894,2.9219671566091145,-1.8915047092371078
1784286557784387072,1.6990220546722412,0.636918842792511,-0.059913747012615204,-0.05203085020184517,0.1920996606349945,0.480486661195755,0.8557043075561523,0.3201378583908081,-0.49835482239723206,-0.09943312406539917,0.13757183479151958,-0.7652250726367453,-0.5850493610132447,0.23069832724149805,-0.5012095326573496,2.9207608029265786,-1.8928472733722348
1784286557794307328,1.708942174911499,-0.15627753734588623,-0.5336283445358276,-0.28713950514793396,0.19424347579479218,0.4838734567165375,0.853309154510498,0.10900972783565521,-0.18463319540023804,-0.07111293077468872,0.1383240314592719,-0.7645857703709187,-0.5848616661510219,0.23283478384328984,-0.5050754279238115,2.9177710957831833,-1.893587593436419
1784286557804226048,1.7188611030578613,0.15145239233970642,-0.06530304253101349,-0.1955227255821228,0.19425217807292938,0.48319387435913086,0.8536916971206665,0.11284619569778442,-0.262979120016098,-0.041054487228393555,0.13756148322691078,-0.7634939965040667,-0.5864492883685907,0.23287534054587378,-0.5042990736429815,2.9178583897732815,-1.8894739960857725
1784286557814146304,1.7287812232971191,0.7094584107398987,-0.4848417341709137,0.47884291410446167,0.19791625440120697,0.486611932516098,0.8509042859077454,0.2780359089374542,-0.18087157607078552,-0.23689055442810059,0.1380713068897463,-0.7633112568593474,-0.5854981348097298,0.23555085106289703,-0.5082073449853244,2.91306086061651,-1.8925398817064847
1784286557824066048,1.7387011051177979,0.6224799752235413,-0.41016948223114014,-0.22588802874088287,0.20210649073123932,0.49241915345191956,0.8465673923492432,0.07032392919063568,0.18529996275901794,-0.20427918434143066,0.13941645630426722,-0.7626911464183599,-0.5844535274982127,0.2393310623524361,-0.5148670750173496,2.9072427657141313,-1.895846353625777
1784286557833985024,1.7486200332641602,0.710679292678833,-0.5179973840713501,-0.35107657313346863,0.20471340417861938,0.49731847643852234,0.8430700898170471,0.1399521380662918,-0.19038787484169006,-0.11702620983123779,0.1403006999571752,-0.7608887702536287,-0.585306184398308,0.24244748398643273,-0.5205051780816918,2.903383956278944,-1.8939029334219029
1784286557843905280,1.758540153503418,0.4198828637599945,-0.35835331678390503,0.16197538375854492,0.20822958648204803,0.5026128888130188,0.8390594124794006,0.25382182002067566,-0.1402624249458313,-0.1632324457168579,0.1412559630122179,-0.7594230866750343,-0.585496617965333,0.24600210641208423,-0.5266185082469133,2.898336856437756,-1.893886395231669
1784286557853825024,1.7684600353240967,0.4158164858818054,-0.5488103032112122,-0.17062442004680634,0.21249498426914215,0.5061120390892029,0.8358805179595947,0.18327219784259796,-0.13721561431884766,-0.14941823482513428,0.14140740209038496,-0.7586305830607948,-0.5851665509972155,0.24912570286641558,-0.5306708208817265,2.8926490539236256,-1.8955203878741416
1784286557863744256,1.778379201889038,0.3745712339878082,-0.547706127166748,0.09521881490945816,0.216758593916893,0.5096877217292786,0.832607090473175,0.17264574766159058,-0.2543012499809265,-0.1496235728263855,0.14148641691310515,-0.7575693178709391,-0.5851429548449961,0.2523453242176666,-0.5348217797074456,2.886908784093338,-1.8963587006897058
1784286557873664256,1.7882990837097168,-0.0382312573492527,-0.42130422592163086,0.24229055643081665,0.2214467078447342,0.5105708837509155,0.8308300971984863,0.15272928774356842,-0.1966518759727478,0.017253339290618896,0.1405406970668195,-0.7574728268296497,-0.5845083214534854,0.2546237398234499,-0.5358486325532281,2.8811116095791345,-1.8990424746908237
1784286557883584256,1.7982192039489746,-0.26846110820770264,-0.30695295333862305,0.21362422406673431,0.22569306194782257,0.5089407563209534,0.830687940120697,0.11918611824512482,-0.23689168691635132,0.058380842208862305,0.14019893335203248,-0.7612783244068846,-0.5794819176584054,0.254951797030785,-0.5339537803738494,2.876302454198856,-1.9132914164616905
1784286557893503232,1.808138132095337,-0.7694759964942932,-0.38503551483154297,0.3456414043903351,0.22968842089176178,0.5038947463035583,0.8326665759086609,0.09688019752502441,-0.16824710369110107,0.16364097595214844,0.13837770159502435,-0.7653558467445273,-0.5749467021687362,0.25400473846299987,-0.5281019022626252,2.8724393393349668,-1.9262155468065356
1784286557903423232,1.8180582523345947,-0.7172818779945374,-0.19272711873054504,0.17090481519699097,0.23322266340255737,0.4969829320907593,0.8358318209648132,0.11038999259471893,-0.09517326951026917,0.06460440158843994,0.13595446256355698,-0.7698439474328795,-0.5703123806878413,0.252191164024887,-0.520118448858459,2.8694831019990388,-1.9392204855439958
1784286557913343232,1.8279781341552734,-0.8095398545265198,-0.19331514835357666,0.17803995311260223,0.2362675666809082,0.48988813161849976,0.8391589522361755,0.14704850316047668,-0.03345188498497009,0.07504105567932129,0.13343594892847244,-0.7739935314110805,-0.5661391142080282,0.2502308947627823,-0.5119614103713661,2.8671446083888,-1.9507961787576193
1784286557923262208,1.8378970623016357,-0.5828376412391663,-0.21681872010231018,0.3025442659854889,0.238589346408844,0.4838630259037018,0.8419925570487976,0.138821542263031,0.05420759320259094,0.06877392530441284,0.131634176187437,-0.7781019078966281,-0.5617416749065981,0.2483467413913317,-0.505063526598583,2.865468393486923,-1.9626723069136152
1784286557933182208,1.8478171825408936,-0.772712230682373,-0.09355883300304413,0.314008891582489,0.24203205108642578,0.47693049907684326,0.8449603915214539,0.1753568947315216,-0.026613056659698486,0.19533812999725342,0.1293128377601902,-0.78271356261259,-0.5566324518434731,0.24657263469833457,-0.4971591014595561,2.8626204457214715,-1.9764870027090837
1784286557943101184,1.8577361106872559,-1.3249214887619019,0.03625410050153732,0.39462900161743164,0.24356520175933838,0.46765732765197754,0.8496898412704468,0.126460462808609,-0.22804850339889526,0.21070456504821777,0.126377043349405,-0.7874052995251165,-0.5521212062983367,0.24327756922670374,-0.4866385502575476,2.8624263701756463,-1.9882684601869778
1784286557953021184,1.8676562309265137,-1.7713059186935425,-0.09070757776498795,0.4831647276878357,0.24556082487106323,0.4534051716327667,0.8568100929260254,0.32650643587112427,-0.22575929760932922,0.13540786504745483,0.12116138489325122,-0.7927812719948422,-0.547633914057783,0.23856831881405566,-0.47058206358940985,2.86247534353174,-1.9999018275285612
1784286557962941184,1.8775761127471924,-1.7233679294586182,-0.010633437894284725,0.38663649559020996,0.24807322025299072,0.43767043948173523,0.8642359375953674,0.2317698746919632,0.01072421669960022,0.012793242931365967,0.11500013967198572,-0.7979205867761532,-0.5435445857477351,0.2337880673883065,-0.4530061395691788,2.8620646342462726,-2.0104165789864386
1784286557972860160,1.8874950408935547,-1.4112880229949951,-0.1834464967250824,0.39881885051727295,0.25088828802108765,0.422442764043808,0.8709750771522522,0.13637980818748474,0.2116973102092743,-0.11346757411956787,0.10896545387252506,-0.8028939079254104,-0.5393041013412451,0.22943213277050772,-0.4361386974514125,2.8611307411140032,-2.0211726989942074
1784286557982780160,1.8974151611328125,-0.9894158244132996,-0.17294956743717194,0.3180595338344574,0.2535695433616638,0.41187378764152527,0.8752498626708984,0.0693521797657013,0.22121334075927734,-0.2337856888771057,0.10492791509015495,-0.8070999255819319,-0.5349903225117039,0.22663883979509183,-0.42450942235875283,2.8596018031920907,-2.032030304040864
1784286557992700160,1.9073350429534912,-0.6862139105796814,-0.15079686045646667,0.1859302669763565,0.25602275133132935,0.4040086269378662,0.8781968951225281,0.10228413343429565,-0.030732810497283936,-0.22199249267578125,0.10216550588765538,-0.8110543881572004,-0.5303670705012173,0.2246416569276505,-0.4158948259981913,2.857922380146962,-2.0435767761904042
1784286558002619392,1.9172542095184326,-0.8234043717384338,-0.16274291276931763,0.2667459547519684,0.2584388554096222,0.3971439301967621,0.8806169629096985,0.1836845576763153,-0.14659461379051208,-0.1486680507659912,0.099695437241781,-0.8145108131314402,-0.5261944653372195,0.2230524352602064,-0.408402737173967,2.8561330006714214,-2.0539433388441046
1784286558012539136,1.9271740913391113,-0.8846956491470337,-0.3200364112854004,0.13628382980823517,0.2615939676761627,0.38919690251350403,0.8832297325134277,0.21576201915740967,-0.11534732580184937,-0.056294798851013184,0.0965823194852134,-0.8180968490603551,-0.5218547741094014,0.22148835457078553,-0.39975958369570774,2.8536451793747766,-2.064688122054463
1784286558022459392,1.9370942115783691,-0.9122523665428162,-0.2231624871492386,0.16693928837776184,0.2647587060928345,0.38057613372802734,0.8860385417938232,0.13583022356033325,-0.10257631540298462,0.005227148532867432,0.0930622679485361,-0.8214726148597984,-0.5178822360260091,0.2198182287486006,-0.3904192186595772,2.851226358760553,-2.074405511015298
1784286558032378112,1.9470131397247314,-0.8667929768562317,-0.2676982581615448,0.16603566706180573,0.26736584305763245,0.3721580505371094,0.8888272643089294,0.12634140253067017,0.07562634348869324,-0.0022763609886169434,0.08977354358211954,-0.8248207943334689,-0.5138913153565553,0.21800707168628847,-0.3813330034944746,2.849395260877161,-2.084010960971724
1784286558042298368,1.9569332599639893,-0.38540512323379517,-0.33915042877197266,0.16873422265052795,0.27069517970085144,0.3663065433502197,0.8902494311332703,0.16965821385383606,0.12734583020210266,-0.07420921325683594,0.08747345607930833,-0.8279390477111845,-0.5095504323471003,0.21731036181392863,-0.37503656997780566,2.846409140373054,-2.094601759838668
1784286558052218112,1.966853141784668,-0.27904751896858215,-0.3600572943687439,0.0808136835694313,0.2746013104915619,0.36310967803001404,0.8903627991676331,0.126262366771698,0.13914865255355835,-0.01847541332244873,0.0861753879580504,-0.8306591597226701,-0.5051601233093096,0.2176982169652828,-0.37160319264676545,2.842433605391616,-2.1054615942326533
1784286558062137088,1.9767720699310303,-0.19044135510921478,-0.3234763741493225,0.13613373041152954,0.27804046869277954,0.3611748218536377,0.8900821805000305,0.07083648443222046,-0.008651018142700195,-0.03348433971405029,0.0855585582271356,-0.8332358930078928,-0.5007584657736337,0.21826281087882535,-0.3695274539043036,2.838820595721371,-2.116319992743136
1784286558072057344,1.986692190170288,-0.43808630108833313,-0.34260427951812744,0.19138313829898834,0.2816106379032135,0.3576600253582001,0.890379011631012,0.10266667604446411,-0.12018749117851257,0.012422502040863037,0.08427065331656475,-0.8360689078941209,-0.4961635740034561,0.2184238064275528,-0.3657609569832657,2.8352661941906647,-2.1275023981023
1784286558081976064,1.9966111183166504,-0.6197062730789185,-0.35528960824012756,0.12861782312393188,0.28522196412086487,0.35250401496887207,0.8912853598594666,0.07377156615257263,-0.21389314532279968,-0.0015453100204467773,0.0821773734075744,-0.8388807537426535,-0.49185541199980254,0.21818400589342093,-0.36024551793446785,2.8318788708623956,-2.1378253805606593
1784286558091896320,2.006531238555908,-0.8759937286376953,-0.33671432733535767,0.091932512819767,0.28866681456565857,0.34572508931159973,0.8928301334381104,0.08416640758514404,-0.17423155903816223,0.02536749839782715,0.07817427257498523,-0.8390686044077521,-0.492319966234803,0.21788465085279576,-0.3530114086355032,2.8288840617520683,-2.136578626436952
1784286558101816064,2.016451120376587,-1.0459606647491455,-0.1974862962961197,0.1607561856508255,0.29136237502098083,0.33691146969795227,0.8953201174736023,0.1519511640071869,-0.062375426292419434,0.04535341262817383,0.07344660825550359,-0.8394582510422609,-0.4929197778340151,0.21666887659078374,-0.3436346570094592,2.8269735474045956,-2.134737571823496
1784286558111735040,2.026370048522949,-1.0418612957000732,-0.26175129413604736,0.09373080730438232,0.29404282569885254,0.327214777469635,0.8980364203453064,0.12865617871284485,0.021555393934249878,0.006046891212463379,0.0682881013936437,-0.8397898120108221,-0.4937319940393026,0.21521745725778008,-0.33335459947641705,2.8251657322908246,-2.1322790654101613
1784286558121655296,2.036290168762207,-0.8159837126731873,-0.21878138184547424,-0.043412696570158005,0.2960750460624695,0.31877923011779785,0.9003996849060059,0.1113193929195404,-0.022468775510787964,-0.01905190944671631,0.06492467815429721,-0.8424719367973168,-0.49034771718515,0.21350644907514207,-0.32444125244872696,2.82390395168884,-2.139805360152336
1784286558131575040,2.0462100505828857,-0.8122523427009583,-0.09600433707237244,0.12254325300455093,0.2974624037742615,0.3116636276245117,0.9024308323860168,0.16220855712890625,-0.026248067617416382,-0.005244791507720947,0.062310289495395854,-0.845067621589177,-0.48690465674815697,0.2119006492881237,-0.3169433783328407,2.8231846601429877,-2.147471067261012
1784286558141494272,2.056129217147827,-0.7552476525306702,-0.1485925167798996,0.0030688177794218063,0.29901546239852905,0.3045523464679718,0.9043440222740173,0.19643744826316833,-0.043169260025024414,-0.007737398147583008,0.05970099531159986,-0.8477430802943867,-0.483222177609274,0.2103898907210159,-0.3094684008079759,2.8222649088074214,-2.1556664806777697
1784286558151414272,2.066049098968506,-0.8873904943466187,-0.18280188739299774,0.004702666774392128,0.30030322074890137,0.29649943113327026,0.906590461730957,0.18600967526435852,0.053628772497177124,0.07786095142364502,0.05660023070986407,-0.8501908795190384,-0.4800736256666379,0.20856949556886142,-0.3010251639608452,2.8217231121210817,-2.16244590796761
1784286558161334272,2.0759692192077637,-0.7024030089378357,-0.18550944328308105,0.14988213777542114,0.30200138688087463,0.2897355854511261,0.9082117080688477,0.20880183577537537,-0.0386522114276886,0.012457847595214844,0.05410004276672078,-0.8527802253091598,-0.4763105384277517,0.2072856651057506,-0.29395056319831947,2.8205714596182223,-2.170770762629098
1784286558171253248,2.085888147354126,-0.7470442652702332,-0.10212268680334091,0.1549229621887207,0.3036620616912842,0.28227919340133667,0.9100042581558228,0.18509221076965332,0.00566941499710083,0.13189637660980225,0.05035725054546212,-0.8532445648385188,-0.4764198279676845,0.20606310708289713,-0.28616910143277463,2.8195184253902275,-2.169908493707082
1784286558181172992,2.0958080291748047,-0.7738332748413086,-0.009463738650083542,0.1456300914287567,0.3050990700721741,0.27524691820144653,0.9116764068603516,0.12582442164421082,0.08887359499931335,0.145422101020813,0.04687140474035816,-0.8536984045215574,-0.4764842476683119,0.2048534013355983,-0.27884653850401886,2.818651095145245,-2.1691580508082478
1784286558191091968,2.105726957321167,-0.36871618032455444,-0.024610469117760658,0.13652953505516052,0.3055475354194641,0.26999613642692566,0.9130953550338745,0.14502927660942078,-0.01787513494491577,0.10640549659729004,0.04444735330970253,-0.8541299595647962,-0.47645533878157875,0.20365864625664803,-0.27338901299111046,2.8186770837711252,-2.1687304689594975
1784286558201012224,2.115647077560425,-0.6941618919372559,0.04874904453754425,0.0928138792514801,0.3060078024864197,0.2645052969455719,0.9145470857620239,0.1933055818080902,-0.04250514507293701,0.23990249633789062,0.0418894487008117,-0.8545106271773028,-0.4765345139690432,0.2024148789773589,-0.26769092687561546,2.8187022070039065,-2.1680199041507455
1784286558210931968,2.1255669593811035,-0.886913001537323,0.18478943407535553,0.1645549088716507,0.305495023727417,0.25711506605148315,0.9168233275413513,0.20169192552566528,-0.21411573886871338,0.2269604206085205,0.03871386937964796,-0.8550618736772124,-0.47673983105806006,0.2002240578868997,-0.26003572337493575,2.8199527880889312,-2.1667662328291124
1784286558220850944,2.135485887527466,-1.3101518154144287,0.3169841468334198,0.02983468398451805,0.3035019636154175,0.24714972078800201,0.9202193021774292,0.21784508228302002,-0.2862732410430908,0.3092728853225708,0.03471443522787516,-0.8557728569836397,-0.47724466091764794,0.1966856792836981,-0.24973761583178325,2.8230120854912855,-2.164481724624204
1784286558230770944,2.1454060077667236,-1.6124054193496704,0.45912423729896545,0.19886498153209686,0.3000585734844208,0.23297946155071259,0.9250324964523315,0.28903743624687195,-0.20667336881160736,0.37593168020248413,0.029121225470499494,-0.8566018237664097,-0.47827770885172827,0.19140435900713418,-0.23514034040653065,2.8279250128599123,-2.160491687566052
1784286558240690944,2.1553258895874023,-1.684921145439148,0.6292762160301208,0.2289198338985443,0.29554376006126404,0.21724821627140045,0.9302994012832642,0.21472537517547607,-0.18100860714912415,0.34266501665115356,0.02326429113541129,-0.857910323432434,-0.4786852463525094,0.185226996692168,-0.218994463229504,2.833989517538574,-2.1577975261484634
1784286558250610176,2.1652450561523438,-1.8113007545471191,0.6544952988624573,0.16074156761169434,0.29011234641075134,0.1999908983707428,0.9358623623847961,0.20491328835487366,-0.0833221971988678,0.4757434129714966,0.016890976542035262,-0.8590758679096582,-0.4794995796522612,0.1782792327767311,-0.2013486280675608,2.84099185697539,-2.15401736076259
1784286558260529920,2.1751649379730225,-1.37548828125,0.8079657554626465,0.273712158203125,0.28395217657089233,0.18467362225055695,0.9408861994743347,0.21224838495254517,-0.08735306560993195,0.475419282913208,0.011670909192501983,-0.8603758685822792,-0.47978793789509144,0.17152462219169534,-0.1857397668944571,2.8484924003043957,-2.151692839115137
1784286558270450176,2.1850850582122803,-1.192060112953186,0.8300572037696838,0.17555628716945648,0.2769635021686554,0.17220847308635712,0.9453231692314148,0.1313769817352295,0.06032024323940277,0.620244026184082,0.00794698319173198,-0.8616004215265094,-0.47990238260261336,0.16515256583867513,-0.17307119335574847,2.8565859668567843,-2.150098001777586
1784286558280369152,2.1950039863586426,-1.4139835834503174,1.1227139234542847,0.13404890894889832,0.2681608498096466,0.15943478047847748,0.950089693069458,0.0765809714794159,0.03152896463871002,0.762953519821167,0.00448469561881771,-0.8627440890405996,-0.4803305889071548,0.15790842415532322,-0.160118084768495,2.8665006628135035,-2.1477850876109743
1784286558290288896,2.2049238681793213,-1.4374524354934692,1.5519696474075317,0.23694412410259247,0.2557200491428375,0.14602096378803253,0.955659806728363,0.07342737913131714,-0.12320901453495026,0.7310622930526733,0.001703687934009605,-0.864270521569127,-0.4804855595064895,0.14888696478500207,-0.14654492358203375,2.8801332852454355,-2.1461046139471947
1784286558300208128,2.2148430347442627,-1.999677300453186,1.7544081211090088,0.20890863239765167,0.24003976583480835,0.12884387373924255,0.9621750712394714,0.14182674884796143,-0.15045027434825897,0.7651354074478149,-0.0019692380302898348,-0.8659270778756999,-0.4808927555541581,0.13750914243320309,-0.1292030414142714,2.8971070605348843,-2.143604783540598
1784286558310127872,2.2247629165649414,-2.2649471759796143,1.860272765159607,0.31391414999961853,0.22300881147384644,0.10774512588977814,0.9688436985015869,0.30567771196365356,-0.30498021841049194,0.6030251979827881,-0.00701241131260798,-0.8677136670104522,-0.48113910324741765,0.12461537268962793,-0.10795469278985703,2.915352949103671,-2.141299852273791
1784286558320048128,2.234683036804199,-2.283864974975586,1.9867112636566162,0.37428563833236694,0.20476315915584564,0.08474622666835785,0.9751359820365906,0.33327698707580566,-0.044569842517375946,0.5222395062446594,-0.012565472371563581,-0.8695513052213756,-0.4810909663714251,0.11078868541471455,-0.08484799504597858,2.9346155786006376,-2.139719584923899
1784286558329967104,2.2446019649505615,-1.6542551517486572,1.9865113496780396,0.3743343651294708,0.18572399020195007,0.06458038836717606,0.9804776906967163,0.3041899800300598,0.32007843255996704,0.3836582899093628,-0.016658313224263473,-0.8713441644339379,-0.48062271709843774,0.09738474329583852,-0.06462536639877901,2.954388689848991,-2.139538950227517
1784286558339887104,2.2545220851898193,-0.6623913049697876,2.0509746074676514,0.35459455847740173,0.16629871726036072,0.052609432488679886,0.9846707582473755,0.3092108964920044,0.3821287155151367,0.2994323968887329,-0.017070063555987242,-0.872953112527759,-0.479883567395112,0.08586683009599562,-0.05263372985809231,2.974283810450642,-2.140743820451047
1784286558349807104,2.264441967010498,0.037873297929763794,2.2391600608825684,0.4143495261669159,0.14545655250549316,0.049133144319057465,0.9881443381309509,0.2919366955757141,0.2779085040092468,0.4003753662109375,-0.013381081481746366,-0.8747703673198524,-0.47838160877942115,0.07582220018656485,-0.049152935035058236,2.9954405161706967,-2.1443250893208496
1784286558359726080,2.2743608951568604,0.47361236810684204,2.336167097091675,0.4184196889400482,0.12342319637537003,0.05145461857318878,0.991019070148468,0.2565358877182007,0.08424177765846252,0.5003137588500977,-0.006894804763516642,-0.8765360630553902,-0.47664877457089344,0.06665464338864441,-0.05147735024593397,3.0176889328243806,-2.1486654437929085
1784286558369646080,2.284281015396118,0.28854691982269287,2.3339638710021973,0.4109348654747009,0.10075434297323227,0.05491143837571144,0.9933949112892151,0.28225651383399963,-0.07390862703323364,0.6161632537841797,0.00019979172114335393,-0.8782666552690371,-0.47470530678631484,0.05746775456836619,-0.054939069880110734,3.040514043458211,-2.153327884042945
1784286558379566080,2.294200897216797,0.22187422215938568,2.3421216011047363,0.4595009684562683,0.07781445235013962,0.05709715187549591,0.9953315258026123,0.3023430109024048,-0.2239977866411209,0.5203239917755127,0.006745226624039079,-0.8799087959062554,-0.4726798723270238,0.047840819558276675,-0.05712822263162769,3.0635719194991413,-2.157909814706872
1784286558389485056,2.3041200637817383,0.009875152260065079,2.3462400436401367,0.37769263982772827,0.05492141842842102,0.05765226483345032,0.9968246817588806,0.2548624873161316,-0.153431698679924,0.4301007390022278,0.012690536555014162,-0.8837391212738149,-0.46628049401639077,0.0377691306297163,-0.057684250163919155,3.086551935998128,-2.172179887638571
1784286558399405056,2.314039945602417,0.18926315009593964,2.3779258728027344,0.3104560375213623,0.031836118549108505,0.058395661413669586,0.9977858066558838,0.2705930769443512,0.002059660851955414,0.2874467372894287,0.018598102082746,-0.887173748293806,-0.46023432569260736,0.027590474279890347,-0.05842890227706673,3.1096967070955412,-2.1854321495073497
1784286558409324032,2.3239588737487793,0.32880425453186035,2.34191632270813,0.24650926887989044,0.008626217022538185,0.06080660969018936,0.9981123805046082,0.31037402153015137,0.05331387370824814,0.22779405117034912,0.025133909544618395,-0.8903445240646511,-0.4542497270200758,0.017667520200579143,-0.06084414390766572,3.1329503382482904,-2.1983143584548204
1784286558419244032,2.333878993988037,0.5183143615722656,2.376112222671509,0.18097636103630066,-0.014472841285169125,0.06513722985982895,0.9977712035179138,0.2664107084274292,0.009813934564590454,0.16786277294158936,0.03236981378128581,-0.89311785346974,-0.44858233539657366,0.008155817359146918,-0.06518337790700404,-3.1270885008386267,-2.2102028880366866
1784286558429164032,2.343798875808716,0.5971721410751343,2.3358585834503174,0.22815053164958954,-0.03788343444466591,0.07074463367462158,0.9967749714851379,0.2742573320865631,0.022868052124977112,0.1704157590866089,0.040135899241916725,-0.8956965776705904,-0.4428488703175108,-0.0013035427513227117,-0.07080377410052098,-3.103604933453207,-2.221902412263533
1784286558439083008,2.3537180423736572,0.47825369238853455,2.236741542816162,0.1260630041360855,-0.060363687574863434,0.07619604468345642,0.9952643513679504,0.24314871430397034,-0.03135044127702713,0.18517112731933594,0.04752129848430066,-0.8980694579377341,-0.437153776822251,-0.010475502901239659,-0.0762699658221946,-3.0810159486435094,-2.233264566028421
1784286558449003008,2.363637924194336,0.4796379804611206,2.0562357902526855,0.13278216123580933,-0.08128609508275986,0.0810210257768631,0.9933921098709106,0.22438302636146545,-0.053021155297756195,0.1637122631072998,0.05419257791806528,-0.9001611046821454,-0.4317476703921084,-0.019158270188123903,-0.08110992992878381,-3.059947751930685,-2.243833271484809
1784286558458923008,2.3735580444335938,0.4969674348831177,1.989643931388855,0.09754389524459839,-0.10088259726762772,0.08614017814397812,0.9911622405052185,0.08388430625200272,-0.02008488029241562,0.13511943817138672,0.06062757741936912,-0.9021130360801981,-0.4263486842552106,-0.02726134221934491,-0.08624706695212767,-3.040159835025129,-2.254217160419552
1784286558468841984,2.383476972579956,0.330881267786026,2.0994956493377686,0.14097444713115692,-0.12061616778373718,0.09005420655012131,0.9886062145233154,0.03885955363512039,0.07609875500202179,0.11603868007659912,0.06646417842270709,-0.9039720809896739,-0.42087714568385576,-0.0357697204414275,-0.09017637370984195,-3.020186398720726,-2.264628775908517
1784286558478762240,2.393397092819214,0.5511863231658936,2.098261594772339,0.07179025560617447,-0.14133410155773163,0.09445074200630188,0.9854458570480347,0.06827503442764282,0.08908195793628693,-0.03166484832763672,0.0726576861184331,-0.9055818684217349,-0.41550499362128196,-0.04469768785361459,-0.09459173965737143,-2.999142598992231,-2.274499310143053
1784286558488681984,2.4033169746398926,0.6147804856300354,1.6378110647201538,0.1380387842655182,-0.15947988629341125,0.1008712500333786,0.9820342659950256,0.13886524736881256,0.1947983205318451,-0.10569143295288086,0.07915876077141122,-0.907133945153377,-0.41003065866259614,-0.05212286720863672,-0.10104309976580363,-2.980600641999518,-2.284391646190146
1784286558498600960,2.413235902786255,0.8359520435333252,1.4526352882385254,0.06261806190013885,-0.17421768605709076,0.10755586624145508,0.9788156747817993,0.10887953639030457,0.19757415354251862,-0.23768091201782227,0.08504313678847066,-0.9084655902483979,-0.4050902409199764,-0.05796443992880375,-0.10776432852774448,-2.9654490107767852,-2.2931796695926923
1784286558508520960,2.4231560230255127,1.13418447971344,1.6274703741073608,0.15724311769008636,-0.18868480622768402,0.11706238985061646,0.9750356078147888,-0.05911792814731598,0.21394652128219604,-0.3757619857788086,0.09212204312839332,-0.9097407072350082,-0.39986204838172146,-0.06321174495163205,-0.11733141475294846,-2.9504395907858463,-2.3020985300530206
1784286558518440960,2.4330759048461914,1.5325512886047363,1.4532405138015747,0.19309763610363007,-0.20322982966899872,0.13077722489833832,0.97035813331604,-0.1363392472267151,0.1528531312942505,-0.4735320210456848,0.10114957335787912,-0.910750253659583,-0.39460491063406833,-0.06774721588289527,-0.13115290315496603,-2.935138821427634,-2.3102698536430912
1784286558528360192,2.442995071411133,1.3021420240402222,1.1939666271209717,0.12588131427764893,-0.21563386917114258,0.14487461745738983,0.9656675457954407,-0.09917023777961731,0.07544705271720886,-0.39137232303619385,0.10991743631731528,-0.9116725809842742,-0.38946998758812473,-0.07130563878216052,-0.14538624761831193,-2.921896571278579,-2.3180582271391326
1784286558538279936,2.4529149532318115,1.2436989545822144,1.0428746938705444,0.17876113951206207,-0.2261584997177124,0.15726757049560547,0.9613111615180969,-0.1269756257534027,-0.058787375688552856,-0.4402998685836792,0.11751734377267432,-0.9125614349745294,-0.38456105217775105,-0.07439132768912715,-0.15792318617653855,-2.9105338819196223,-2.3255793912660545
1784286558548198912,2.462833881378174,0.7229095697402954,0.6394224762916565,0.002382388338446617,-0.23400776088237762,0.1668710857629776,0.957807183265686,-0.15916545689105988,0.0147695392370224,-0.38163530826568604,0.12327193507595857,-0.9135595734380187,-0.3798848539431523,-0.07681462815288437,-0.16765540114311406,-2.901970614771785,-2.3332074851764095
1784286558558119168,2.4727540016174316,0.8681482672691345,0.438697874546051,0.2573684751987457,-0.23881371319293976,0.17441807687282562,0.9552730917930603,-0.20013591647148132,0.06653346121311188,-0.4902918338775635,0.12742269580953602,-0.9148372057256937,-0.37511254713097836,-0.07827512994536077,-0.175314757694821,-2.8966184848612415,-2.3417069872398475
1784286558568038912,2.4826738834381104,0.6478545069694519,0.48058274388313293,0.1914089024066925,-0.24296338856220245,0.181902214884758,0.9528278708457947,-0.362154483795166,0.1584603637456894,-0.4661942720413208,0.13139307220912064,-0.916193438556411,-0.3701398550478226,-0.079511461668763,-0.18292059978453729,-2.8919212796126974,-2.350679695814187
1784286558577958144,2.4925930500030518,0.5596859455108643,0.18394240736961365,0.10413534939289093,-0.2458840310573578,0.18846064805984497,0.9508017897605896,-0.223934143781662,0.2449500411748886,-0.4985311031341553,0.13468929761127374,-0.9175760214934907,-0.3653151355707134,-0.08036170930686544,-0.18959446484660833,-2.888529803179981,-2.3596152416887692
1784286558587877888,2.5025129318237305,0.6251387000083923,0.2580331265926361,-0.08992759883403778,-0.24783308804035187,0.1937536597251892,0.949230432510376,-0.18908707797527313,0.1705956906080246,-0.5351221561431885,0.13726482476623642,-0.9187139289559153,-0.36135845401501515,-0.08088996865230574,-0.1949868813266469,-2.886205346026184,-2.366991873189125
1784286558597798144,2.5124330520629883,0.3619849979877472,-0.08553849160671234,-0.16494078934192657,-0.248851478099823,0.1986549347639084,0.9479501843452454,-0.05778922140598297,0.0984032154083252,-0.45232927799224854,0.13950898844097154,-0.9197506966070272,-0.35781805858497845,-0.08100771375663347,-0.19998530925907385,-2.8848699716924684,-2.3736537286924277
1784286558607717120,2.5223519802093506,0.35477182269096375,-0.16499631106853485,-0.1860138475894928,-0.24767664074897766,0.20091791450977325,0.947780430316925,-0.0065957605838775635,0.038492441177368164,-0.4428063631057739,0.14015387175150762,-0.9206614265685709,-0.35534878908680906,-0.08041480686266805,-0.20229485719422713,-2.885985955607053,-2.3788006015601706
1784286558617636864,2.5322718620300293,0.07370833307504654,-0.2939628064632416,-0.27173253893852234,-0.24590006470680237,0.20287157595157623,0.9478273391723633,-0.05852806568145752,0.008676290512084961,-0.40441596508026123,0.14054036310266804,-0.9216141558804981,-0.35290367783522925,-0.0795916856091611,-0.2042895952920036,-2.8877534073435878,-2.384044045744525
1784286558627557120,2.542191982269287,0.054955143481492996,-0.4416060447692871,-0.06182299554347992,-0.24273759126663208,0.2029297798871994,0.9486293792724609,0.05902180075645447,-0.12199719250202179,-0.398748517036438,0.13972092384604048,-0.9229048632167989,-0.3500875721727589,-0.07850671996706729,-0.2043490389334581,-2.8910853023775114,-2.390647202810485
1784286558637475840,2.5521109104156494,-0.902516782283783,-0.40761372447013855,-0.22641967236995697,-0.23926089704036713,0.1986895650625229,0.9504085183143616,0.05595710873603821,-0.11990846693515778,-0.2976529598236084,0.13675982038290743,-0.9245165653061974,-0.34709275985475385,-0.07805388168955048,-0.200020645174856,-2.894972010677573,-2.3984224485545766
1784286558647396096,2.5620310306549072,-0.8563389182090759,-0.41607779264450073,-0.0020467485301196575,-0.23564590513706207,0.18966995179653168,0.9531509280204773,0.1947522908449173,-0.1703065037727356,-0.47631359100341797,0.13145651438870318,-0.926457797592616,-0.34387704124073903,-0.07838249542701756,-0.1908259780199906,-2.89922432996187,-2.4074597394979462
1784286558657315072,2.5719499588012695,-1.0159239768981934,-0.6744437217712402,-0.13868269324302673,-0.23089347779750824,0.1810295581817627,0.9559900164604187,0.23968248069286346,-0.08370897173881531,-0.4909782409667969,0.12610375203271643,-0.9285623702693916,-0.3402454111429626,-0.0781213205543829,-0.1820332031663851,-2.9046082143877174,-2.417404807608067
1784286558667235072,2.5818700790405273,-0.8615580201148987,-0.5914041996002197,0.10905280709266663,-0.22541259229183197,0.17168496549129486,0.9590168595314026,0.38248658180236816,-0.05255959928035736,-0.5081654787063599,0.12028364792662156,-0.9307564871958178,-0.3364532646907097,-0.07761048941569228,-0.1725397768986072,-2.910737590628421,-2.4278019719471264
1784286558677155072,2.591789960861206,-0.8494367599487305,-0.7025405168533325,0.05935323238372803,-0.21887721121311188,0.16350270807743073,0.9619559049606323,0.32240813970565796,0.06045050919055939,-0.4853173494338989,0.11484379232294065,-0.9329646894330399,-0.3324978624877011,-0.07637297852341644,-0.16424009748946986,-2.917868075144284,-2.4383927485752372
1784286558687074048,2.6017088890075684,-0.6275514960289001,-0.8761365413665771,-0.019316282123327255,-0.21143415570259094,0.15680094063282013,0.9647329449653625,0.42369911074638367,0.10647425055503845,-0.5076708793640137,0.10999106963543669,-0.935080186846425,-0.328620620002992,-0.07440189879854735,-0.1574506904205734,-2.9258404667923563,-2.448599842204993
1784286558696994048,2.611629009246826,-0.46155649423599243,-1.2038830518722534,-0.03104913793504238,-0.20122039318084717,0.15148499608039856,0.9677616953849792,0.5195492506027222,0.08369870483875275,-0.48051804304122925,0.10541999879655278,-0.9369657883950032,-0.3255394791854978,-0.07075159294206751,-0.1520704291066577,-2.936590090807789,-2.457135610486737
1784286558706914048,2.621548891067505,-0.47016090154647827,-1.3073298931121826,0.014013145118951797,-0.18886998295783997,0.14674770832061768,0.9709758162498474,0.5105709433555603,0.038707658648490906,-0.489377498626709,0.10079655573092498,-0.9389231155233083,-0.322352748900163,-0.06597232706611018,-0.1472795801172183,-2.9494760397131166,-2.465950106760832
1784286558716833024,2.6314680576324463,-0.37458768486976624,-1.4872651100158691,-0.04972119256854057,-0.17535068094730377,0.14249011874198914,0.9741402268409729,0.4307980537414551,-0.0002629309892654419,-0.4878882169723511,0.09628094874307803,-0.9407348613885358,-0.3195121778534782,-0.06049781691075161,-0.14297674389534157,-2.963494304213352,-2.4739719521997166
1784286558726753024,2.641387939453125,-0.4734463691711426,-1.6127514839172363,-0.053595561534166336,-0.1603914201259613,0.13862819969654083,0.9772698879241943,0.3960939645767212,-0.02154754102230072,-0.44118303060531616,0.09177976907556362,-0.9424622490339578,-0.3168593738449094,-0.054234990543049456,-0.13907611031007988,-2.978920953925743,-2.4815740671066555
1784286558736673024,2.651308059692383,-0.40758246183395386,-1.706929087638855,-0.09399494528770447,-0.1442989557981491,0.13433612883090973,0.9803733229637146,0.3332332968711853,-0.023877739906311035,-0.4091147184371948,0.08694788547259848,-0.9441280247940738,-0.314338881193876,-0.0474706585389334,-0.13474348280617218,-2.995454183674783,-2.4889199212247335
1784286558746592000,2.661226987838745,-0.33190661668777466,-1.7650837898254395,-0.09838143736124039,-0.12746049463748932,0.1300191581249237,0.9832849502563477,0.2713050842285156,0.08296304941177368,-0.37030863761901855,0.08219057322902427,-0.9445556018950811,-0.31536834629644656,-0.04002934605145301,-0.13038829906940372,-3.0126842508390097,-2.4886799217559643
1784286558756512000,2.671146869659424,-0.18139401078224182,-1.796504020690918,-0.199273943901062,-0.11036144196987152,0.12752914428710938,0.9856754541397095,0.1900581270456314,0.12668223679065704,-0.34381479024887085,0.07815392903818019,-0.9459467367309105,-0.31308546109832336,-0.03246679812566088,-0.12787738029290174,-3.0300917481124943,-2.4951917236295653
1784286558766430976,2.6810660362243652,-0.14592736959457397,-1.731496810913086,-0.036489278078079224,-0.09353121370077133,0.12579871714115143,0.9876370429992676,0.21358735859394073,0.08050012588500977,-0.22010457515716553,0.0745702625339401,-0.9472788120731909,-0.31061451399908824,-0.024916636836150207,-0.12613290752099152,-3.047172238184102,-2.5019169867196234
1784286558776350976,2.690985918045044,-0.15444540977478027,-1.625704288482666,-0.14037290215492249,-0.07666194438934326,0.12468060851097107,0.9892308115959167,0.16142451763153076,0.01753130555152893,-0.10019278526306152,0.07132377244843732,-0.9485388317360756,-0.3080413926722217,-0.01724789352752149,-0.12500591809262468,-3.064250722363801,-2.508731805055774
1784286558786270976,2.7009060382843018,-0.44061434268951416,-1.5285968780517578,-0.015110052190721035,-0.06133555620908737,0.12145436555147171,0.9907001852989197,0.14742565155029297,-0.11031545698642731,0.06792408227920532,0.06735483200413854,-0.9498292941449182,-0.3052448093696259,-0.010641981040583075,-0.12175496467772857,-3.079760252871035,-2.5159357112540066
1784286558796189952,2.710824966430664,-0.8517323732376099,-1.472663164138794,-0.02040201984345913,-0.046635910868644714,0.114947110414505,0.9922765493392944,0.14824417233467102,-0.16015887260437012,0.14450347423553467,0.06195600841741205,-0.9512009114513091,-0.3022500642372508,-0.004827316880036881,-0.11520175626564755,-3.0946283078982555,-2.5235514127778345
1784286558806110208,2.720745086669922,-0.9408267736434937,-1.3615792989730835,-0.08408006280660629,-0.032617125660181046,0.10625967383384705,0.9938033819198608,0.08301690220832825,-0.001111358404159546,0.09895479679107666,0.05566152522573782,-0.9524811253659421,-0.29946851020854104,0.0003782873520875892,-0.10646066267326827,-3.1087839289715777,-2.5305985249665417
1784286558816029952,2.7306649684906006,-0.9298816919326782,-1.323462963104248,-0.11369438469409943,-0.01941840909421444,0.0967807024717331,0.9951164722442627,0.11065070331096649,0.0107327401638031,0.08932578563690186,0.04915061913874806,-0.9537159632041029,-0.29662111982405176,0.005106244960245947,-0.0969324235226492,-3.122081425079948,-2.537581268407578
1784286558825948928,2.740583896636963,-0.9197584986686707,-1.211665153503418,-0.12059489637613297,-0.007039031479507685,0.08747611194849014,0.9961415529251099,0.11566635221242905,-0.032330870628356934,0.04011315107345581,0.04287856470643082,-0.9548017713910738,-0.29398020537194547,0.009516041677881852,-0.08758806299770674,-3.1345264747563233,-2.543911884041478
1784286558835869184,2.7505040168762207,-0.9567855596542358,-1.148913025856018,-0.19953279197216034,0.004584845155477524,0.07846341282129288,0.9969064593315125,0.10424083471298218,-0.09779631346464157,-0.02830904722213745,0.036883579828131105,-0.9557319392882603,-0.2915984862233797,0.01365196452201113,-0.07854414889972644,3.136993613513583,-2.5495062103134734
1784286558845787904,2.760422945022583,-0.9273967742919922,-0.9933031797409058,-0.27029404044151306,0.015025914646685123,0.06912002712488174,0.9974952936172485,0.04292696714401245,-0.19198378920555115,-0.0032172203063964844,0.030919268464543098,-0.956491252723107,-0.2896068700971562,0.017216456339601265,-0.06917518411028767,3.1265301484264394,-2.5541024275510384
1784286558855708160,2.770343065261841,-1.0911966562271118,-0.9006867408752441,-0.26637378334999084,0.024023987352848053,0.05914832279086113,0.9979603290557861,0.034630801528692245,-0.14967870712280273,0.09034252166748047,0.024878545340768415,-0.9572022498300039,-0.2876525827790699,0.020025414560082496,-0.05918286663433731,3.1175242124880387,-2.558448784485702
1784286558865627904,2.7802629470825195,-1.1474168300628662,-0.7729109525680542,-0.25763222575187683,0.032208170741796494,0.04803241044282913,0.9983264803886414,0.036074914038181305,-0.15731585025787354,0.12386596202850342,0.018421654726407926,-0.9579141792034759,-0.28559354599827236,0.022303868390925425,-0.04805089882323205,3.109341676915337,-2.5628668095459304
1784286558875546880,2.790181875228882,-1.282912254333496,-0.5824590921401978,-0.22066856920719147,0.038880571722984314,0.03605794161558151,0.9985930323600769,-0.021394003182649612,-0.2131972312927246,0.18005681037902832,0.011781397371562832,-0.9586263980414103,-0.2834288853986876,0.02376261935899051,-0.03606576067285125,3.1026769570684944,-2.567351062946858
1784286558885467136,2.8001019954681396,-1.2895296812057495,-0.3708551824092865,-0.23625577986240387,0.04357177019119263,0.023519903421401978,0.9987735152244568,-0.03453856334090233,-0.16255798935890198,0.2567044496536255,0.0051573375342128264,-0.959314477473957,-0.28125166553006065,0.024221875245247448,-0.023522071652977053,3.0979950207460054,-2.5717293812949116
1784286558895386880,2.8100218772888184,-1.3564457893371582,-0.18470756709575653,-0.1828908622264862,0.0463186576962471,0.010284711606800556,0.9988735914230347,0.0370858758687973,-0.09329252690076828,0.362729012966156,-0.0015266341278902418,-0.9599863444215946,-0.2790394264444975,0.023680896427219204,-0.010284893002112121,3.0952549568981604,-2.5760798864265095
1784286558905306112,2.8199410438537598,-1.2314937114715576,0.01998884417116642,-0.11314001679420471,0.04716522619128227,-0.0023549278266727924,0.9988842010498047,0.09790007770061493,-0.073862724006176,0.35778987407684326,-0.007657529061806573,-0.9607056840383804,-0.27656224765012105,0.02234277388717006,0.0023549300374051613,3.094409784491167,-2.5809464631781145
1784286558915225856,2.8298609256744385,-1.2015577554702759,0.13124194741249084,-0.10967094451189041,0.04640019312500954,-0.014488732442259789,0.9988180994987488,0.17776668071746826,-0.07738443464040756,0.37935590744018555,-0.013326146160149935,-0.961468930019232,-0.27383670014129197,0.02033441540470857,0.014489239520792127,3.095170929194066,-2.5863280848550807
1784286558925146112,2.8397810459136963,-1.1878387928009033,0.26439547538757324,-0.08195808529853821,0.044628072530031204,-0.02618705853819847,0.9986602663993835,0.2166481614112854,-0.13581550121307373,0.3843657374382019,-0.0186595655538037,-0.9622168447703113,-0.2710514260404923,0.01793393581557571,0.026190052768462747,3.09693442142597,-2.591848600435177
1784286558935065088,2.8496999740600586,-1.1061722040176392,0.37637224793434143,-0.009013711474835873,0.041467491537332535,-0.03753462806344032,0.9984345436096191,0.23807352781295776,-0.17122086882591248,0.3940214514732361,-0.023648850162595856,-0.9630029856820655,-0.26803455492960093,0.014948069788971872,0.03754344718833106,3.100084002438725,-2.597890642220146
1784286558944985088,2.8596200942993164,-0.9526270627975464,0.5273258090019226,0.12115734070539474,0.03705534711480141,-0.04792242497205734,0.9981638789176941,0.21782748401165009,-0.15219661593437195,0.39442992210388184,-0.02802386990558042,-0.9638836233873701,-0.264594592040696,0.011529098760417519,0.047940785924951435,3.1044861822600645,-2.6048839399717094
1784286558954904064,2.8695390224456787,-0.6955599188804626,0.5680539011955261,0.15002436935901642,0.0317930243909359,-0.056196440011262894,0.997913658618927,0.2101961076259613,-0.0758073478937149,0.4029654264450073,-0.03128873106464903,-0.9648639541195397,-0.26075732161089143,0.008019521138111047,0.056226060390068694,3.1097439315891404,-2.6128018940830158
1784286558964824064,2.8794589042663574,-0.3587195873260498,0.7381247282028198,0.1953210085630417,0.025418119505047798,-0.061460621654987335,0.9977856874465942,0.17981258034706116,0.004652161151170731,0.3968064785003662,-0.03298252413176211,-0.9658815790633716,-0.25683774411890675,0.00438760103241693,0.06149938143948492,3.1161236336422715,-2.621017184856002
1784286558974744064,2.8893790245056152,0.02506602369248867,0.9874780178070068,0.30157414078712463,0.016810981556773186,-0.06314996629953384,0.9978622794151306,0.16959038376808167,-0.01788945496082306,0.46305978298187256,-0.03269173935247369,-0.9670447044942284,-0.25249888694896067,0.00015600430088931046,0.06319201333507433,3.1247472514230097,-2.6302571122003062
1784286558984663040,2.8992979526519775,0.34347328543663025,1.1142797470092773,0.3405021131038666,0.006155210547149181,-0.06134692579507828,0.9980973601341248,0.22977618873119354,-0.06549938023090363,0.6251629590988159,-0.030492916341207713,-0.9682957454555862,-0.24789521823267952,-0.0046281757172297495,0.061385472194660534,3.135425787825045,-2.640145572192327
1784286558994583040,2.9092180728912354,0.5393907427787781,1.2610859870910645,0.39354074001312256,-0.005715793464332819,-0.05688657984137535,0.9983640313148499,0.2706083655357361,-0.08106812089681625,0.752490222454071,-0.026905297553660515,-0.969579842491632,-0.24309865853162,-0.009693413730562529,0.0569173064592083,-3.135867556477764,-2.6504323131383702
1784286559004503040,2.919137954711914,0.5533731579780579,1.386773943901062,0.3941229283809662,-0.018988855183124542,-0.051428113132715225,0.9984962940216064,0.22217488288879395,-0.17872020602226257,0.7700279951095581,-0.022720439232291213,-0.9708441606918079,-0.23813810402470442,-0.015352649002668039,0.05145080993613323,-3.1225774942170124,-2.6610008178909434
1784286559014422016,2.9290568828582764,0.5229673981666565,1.5088083744049072,0.4262496531009674,-0.03356867656111717,-0.04577813670039177,0.9983874559402466,0.22433406114578247,-0.24441350996494293,0.7181500196456909,-0.018349910349687,-0.9720219555817367,-0.23316742676133156,-0.021669201993833355,0.04579413978504985,-3.1079824195850927,-2.671501746739065
1784286559024342016,2.938977003097534,0.14978425204753876,1.5831561088562012,0.41103288531303406,-0.049026552587747574,-0.04220864176750183,0.9979052543640137,0.23530584573745728,-0.26438620686531067,0.7688946723937988,-0.014963147707042247,-0.973118360426854,-0.22802038155029988,-0.0286965911917349,0.042221185869568335,-3.0925026575135313,-2.6822958343344627
1784286559034260992,2.9488959312438965,-0.3321361243724823,1.728591799736023,0.4089241623878479,-0.06555283069610596,-0.04277579486370087,0.9969320893287659,0.21820174157619476,-0.4151557385921478,0.802170991897583,-0.013547668971403191,-0.9740528790629704,-0.2229058845178433,-0.036749821951858726,0.04278885078945366,-3.0759326167215986,-2.693058338909147
1784286559044180992,2.9588160514831543,-0.6744625568389893,1.8003045320510864,0.4202319383621216,-0.08323914557695389,-0.047715846449136734,0.99538654088974,0.2605767846107483,-0.39173728227615356,0.7546286582946777,-0.014229317242144657,-0.9748312960604538,-0.21770902866887157,-0.045871961638298465,0.047733973128581214,-3.058161828006775,-2.7041368215669475
1784286559054100992,2.968735933303833,-0.8117281794548035,1.81192147731781,0.46157610416412354,-0.10131283104419708,-0.05482946336269379,0.9933428764343262,0.277322918176651,-0.2995559275150299,0.6206711530685425,-0.016044201533896702,-0.9755079665915283,-0.21226317498737643,-0.055419341217495345,0.05485697273341157,-3.039952311926716,-2.7158781632384823
1784286559064019968,2.9786548614501953,-0.7014245390892029,1.8435959815979004,0.5119838714599609,-0.11953115463256836,-0.06179242953658104,0.9909059405326843,0.25370165705680847,-0.16803547739982605,0.48693859577178955,-0.017886635169211906,-0.9760834560873637,-0.20667380119310874,-0.06501726460446877,0.06183181922058491,-3.0215445368914953,-2.7279976584285297
1784286559073939968,2.988574981689453,-0.38624703884124756,1.8800619840621948,0.5132889151573181,-0.13811686635017395,-0.06655137240886688,0.9881774187088013,0.19362835586071014,-0.04537183791399002,0.38607484102249146,-0.018731888069963766,-0.9765853162877904,-0.20092242686135361,-0.07456807847183894,0.06660059737919971,-3.0027229802502133,-2.7404093651144668
1784286559083859968,2.998494863510132,0.07420580834150314,1.9630931615829468,0.566650927066803,-0.1572827696800232,-0.06739722192287445,0.9852514266967773,0.1730755716562271,0.022597402334213257,0.31946682929992676,-0.01769312099110987,-0.9769733779947832,-0.19531700002088706,-0.08403212895595387,0.06744835163978258,-2.983291162900659,-2.7523062728307295
1784286559093779200,3.0084140300750732,0.5010607242584229,1.9414504766464233,0.5716449022293091,-0.17675544321537018,-0.06371860206127167,0.9821902513504028,0.23562383651733398,0.057096272706985474,0.2954587936401367,-0.014505853934166126,-0.9773089920856078,-0.18963714568973442,-0.09324438208206605,0.0637617957709304,-2.963537971558746,-2.7639694028128456
1784286559103698944,3.018333911895752,0.8739179372787476,1.9716755151748657,0.6197157502174377,-0.19607681035995483,-0.0557243674993515,0.9790041446685791,0.27885568141937256,-0.01692274957895279,0.23626708984375,-0.00927532721906171,-0.9775345849362488,-0.18419610782543208,-0.10203924019575994,0.05575324770469674,-2.9439260461740324,-2.7746314239311682
1784286559113619200,3.0282540321350098,0.9653064012527466,1.9388389587402344,0.5358740091323853,-0.21537920832633972,-0.04555666074156761,0.9754675030708313,0.27868789434432983,-0.09209288656711578,0.23559224605560303,-0.003050235502240629,-0.9776301855467455,-0.17880985929681098,-0.11071161409007829,0.04557243373121768,-2.924283333670275,-2.7847612083012083
1784286559123537920,3.038172960281372,1.0070053339004517,1.9283225536346436,0.5180736780166626,-0.23424789309501648,-0.03481967747211456,0.9715534448623657,0.2883554995059967,-0.18966764211654663,0.19324171543121338,0.003385208745861291,-0.9775333429381904,-0.17379671434448313,-0.11921394900578862,0.0348267162333971,-2.905001660173258,-2.793827238645282
1784286559133458176,3.04809308052063,0.9250784516334534,1.904410719871521,0.47022950649261475,-0.2528744637966156,-0.02427024208009243,0.9671947956085205,0.2705593705177307,-0.264914333820343,0.12731826305389404,0.009653313183262248,-0.9772781375987215,-0.16889298256371557,-0.12770863760780898,0.024272624891699995,-2.885865540206492,-2.8024545575726174
1784286559143377152,3.058012008666992,0.7183865308761597,1.8365211486816406,0.4743283987045288,-0.2708362638950348,-0.015140455216169357,0.9625065922737122,0.21984133124351501,-0.26865777373313904,0.09018218517303467,0.015100695393036408,-0.9769066267751602,-0.16403277584921253,-0.13608375958498467,0.015141033377972467,-2.8672988066468696,-2.810965308847331
1784286559153296896,3.067931890487671,0.6863807439804077,1.797733187675476,0.5105939507484436,-0.2882216274738312,-0.007166193798184395,0.9575368165969849,0.10676413774490356,-0.15862055122852325,0.008130788803100586,0.019842592401669273,-0.9764595363343298,-0.15904462895010676,-0.14435310146367794,0.007166255105033201,-2.8492157583989943,-2.8197257818167225
1784286559163217152,3.0778520107269287,0.7985344529151917,1.7000072002410889,0.48779672384262085,-0.3048112988471985,0.0012792202178388834,0.9524117112159729,0.05430781841278076,-0.02024589292705059,-0.06729531288146973,0.024674881270341956,-0.9759630493580598,-0.15395444058428873,-0.15226687938461736,-0.0012792206128409815,-2.8318520205437925,-2.8284790527290653
1784286559173135104,3.0877699851989746,0.9517377614974976,1.5098172426223755,0.5023624300956726,-0.31989943981170654,0.010831876657903194,0.9473896026611328,0.004637598991394043,0.08343692123889923,-0.1490802764892578,0.029914526155519,-0.9754337700470209,-0.14907640918237183,-0.15940617911909785,-0.010832088312695384,-2.815949511197659,-2.8364984219556715
1784286559183055104,3.0976901054382324,1.1226245164871216,1.405923843383789,0.4768573045730591,-0.33337220549583435,0.02215062640607357,0.9425352215766907,-0.09463685750961304,0.15759789943695068,-0.24626123905181885,0.03588533231986328,-0.9749041136767531,-0.1443245217870071,-0.16566446894726664,-0.02215243745103267,-2.801627776617358,-2.843845819291324
1784286559192975104,3.107609987258911,1.3433802127838135,1.3711764812469482,0.5275998115539551,-0.34615468978881836,0.03554201498627663,0.937504231929779,-0.2076631486415863,0.21081113815307617,-0.2852823734283447,0.04282345654069448,-0.974293887713218,-0.13965508718275638,-0.17150557037229278,-0.035549500392352884,-2.7878901917735472,-2.850498650245996
1784286559202894080,3.1175289154052734,1.3897898197174072,1.2784974575042725,0.5135428309440613,-0.35820668935775757,0.05001237243413925,0.9323019981384277,-0.23182019591331482,0.24646589159965515,-0.2769368886947632,0.05024146433420371,-0.9736026814960906,-0.13508821287364045,-0.17698833538653677,-0.05003324524729604,-2.7747655269893445,-2.856568507366284
1784286559212814080,3.1274490356445312,1.3142831325531006,1.057045340538025,0.45328137278556824,-0.3688099682331085,0.0641452819108963,0.9272887110710144,-0.2338816523551941,0.1965663880109787,-0.30685120820999146,0.05740850239050788,-0.972902383007199,-0.1307873188409512,-0.18182366182921827,-0.06418934961923968,-2.763045256860325,-2.862034144116366
1784286559222734080,3.13736891746521,1.2177318334579468,0.7307865619659424,0.34047946333885193,-0.3768763244152069,0.07740174978971481,0.92302405834198,-0.17471370100975037,0.1754821538925171,-0.39798426628112793,0.06399934438307536,-0.9723256713332085,-0.12686540758743722,-0.1854511010121375,-0.0774792471077951,-2.75394644121136,-2.866890540830862
1784286559232653056,3.1472880840301514,1.0610886812210083,0.45796576142311096,0.31864699721336365,-0.3818078339099884,0.0888693779706955,0.919959545135498,-0.17056041955947876,0.1169869601726532,-0.42345356941223145,0.0695119444810358,-0.9719954754021287,-0.12330675607473039,-0.18758587508235583,-0.08898677553537414,-2.7481996553276473,-2.871478053494445
1784286559242573056,3.15720796585083,0.8101800084114075,0.42071133852005005,0.19654026627540588,-0.38584810495376587,0.09818069636821747,0.9173232913017273,-0.3495340347290039,0.14542588591575623,-0.4342299699783325,0.07388510535973186,-0.9717462600395776,-0.1198785492657144,-0.1894186015691751,-0.0983391180903096,-2.743434432494616,-2.8762494886856103
1784286559252492288,3.1671271324157715,0.6919887065887451,0.3830189108848572,0.2552242577075958,-0.38914361596107483,0.10569610446691513,0.9150934815406799,-0.35727062821388245,0.18827974796295166,-0.4511955976486206,0.07731969843334859,-0.9715686347673241,-0.11662386598870023,-0.1909844349288402,-0.1058938976528608,-2.7395101647889875,-2.881062610127641
1784286559262412032,3.17704701423645,0.6433780193328857,0.1533321738243103,0.15461403131484985,-0.39160826802253723,0.11288651078939438,0.9131811857223511,-0.31452277302742004,0.2536143660545349,-0.4645421504974365,0.08049418388971209,-0.9714806745308209,-0.11320724481783977,-0.19217223056463162,-0.11312765502600809,-2.736474310846747,-2.8863204207370083
1784286559272332288,3.186967134475708,0.4767228364944458,-0.3454515337944031,-0.22748921811580658,-0.390712708234787,0.11748265475034714,0.9129850268363953,-0.1577187478542328,0.31255578994750977,-0.414556622505188,0.08241095383970157,-0.9716467704230448,-0.11133315218771532,-0.19161416410097087,-0.11775460164914901,-2.737225277709124,-2.889259285312002
1784286559282251008,3.1968860626220703,0.591906726360321,-0.2643612027168274,-0.18509329855442047,-0.38830381631851196,0.12150120735168457,0.9134864211082458,-0.20332515239715576,0.23279261589050293,-0.4672279357910156,0.08403711659703726,-0.9719275451765406,-0.11000022781692353,-0.19024854940837713,-0.1218021573705659,-2.7396551620237504,-2.8913541266387264
1784286559292171008,3.206805944442749,0.8533856272697449,-0.40903571248054504,-0.18921218812465668,-0.3854995369911194,0.12714733183383942,0.9139057993888855,-0.16074985265731812,0.3043102025985718,-0.4625812768936157,0.08656990948693623,-0.9721295941061682,-0.10916477323929713,-0.1885544798024233,-0.12749243108565791,-2.742422468951103,-2.8921181960426705
1784286559302091008,3.216726064682007,1.0986571311950684,-0.5259979963302612,-0.11248596757650375,-0.38125401735305786,0.1359833925962448,0.9144145846366882,-0.037676095962524414,0.19610890746116638,-0.45120346546173096,0.09062884718084897,-0.9723611097357432,-0.1082643635445033,-0.18595472210857267,-0.13640600885706167,-2.7465705153576425,-2.8924843399069773
1784286559312009984,3.226644992828369,0.6047379970550537,-0.478450208902359,-0.15946121513843536,-0.37686264514923096,0.14319749176502228,0.9151334762573242,-0.13619893789291382,0.15592056512832642,-0.26634490489959717,0.09387310023566921,-0.9726342307598251,-0.10746815617150314,-0.183360763486458,-0.1436914565897387,-2.7509454621409493,-2.893025852966148
1784286559321930240,3.236565113067627,0.6191137433052063,-0.5097703337669373,-0.01908758468925953,-0.3723818063735962,0.14792154729366302,0.9162158370018005,-0.032357603311538696,0.08727744221687317,-0.2873094081878662,0.09572390266887551,-0.9730683362894051,-0.10604677501697254,-0.18091194585825993,-0.14846636216038825,-2.7555515560474197,-2.895416120112722
1784286559331849216,3.2464840412139893,0.24856603145599365,-0.6770035028457642,-0.21136727929115295,-0.3671712279319763,0.15198561549186707,0.9176525473594666,-0.029236942529678345,-0.04543347656726837,-0.2662698030471802,0.0971878920571165,-0.973595681246451,-0.10458353463964733,-0.17812462365474394,-0.15257692102119805,-2.7609827349144926,-2.8981267458008997
1784286559341768960,3.256403923034668,-0.4702637493610382,-0.5690136551856995,-0.023544916883111,-0.3616127669811249,0.15042869746685028,0.9201129078865051,0.10969012975692749,-0.15012352168560028,-0.1556779146194458,0.09571200633816895,-0.9744098041096203,-0.10286876575732477,-0.175450423341208,-0.15100189053714344,-2.7671273712102145,-2.902571126231644
1784286559351689216,3.266324043273926,-0.5663439631462097,-0.7686378359794617,-0.09151996672153473,-0.355399489402771,0.14566637575626373,0.923294186592102,0.19432780146598816,-0.11711719632148743,-0.3139346241950989,0.09240006321794014,-0.9755024535900588,-0.10021004366243645,-0.172670336741237,-0.14618649626861097,-2.7741486681374212,-2.9096468092514725
1784286559361607936,3.276242971420288,-1.060351014137268,-0.7923319935798645,-0.11612438410520554,-0.34823745489120483,0.13681712746620178,0.9273680448532104,0.2727980315685272,0.07268604636192322,-0.2997283935546875,0.08699398777586057,-0.9767991656283552,-0.09771085784915415,-0.1695522257856433,-0.13724760350875406,-2.782373530929987,-2.9172351885368077
1784286559371528192,3.286163091659546,-0.8560588359832764,-0.9880995750427246,-0.14455096423625946,-0.3404505252838135,0.12837804853916168,0.9314570426940918,0.28277236223220825,0.07453331351280212,-0.5553891062736511,0.08178894055412181,-0.9780941778719751,-0.09518567411426788,-0.16607820467399356,-0.12873331401747348,-2.7911738444001037,-2.92474913208901
1784286559381447936,3.2960829734802246,-0.9409282803535461,-1.0400115251541138,-0.1498618870973587,-0.3312608301639557,0.11902149766683578,0.936002254486084,0.2871171534061432,0.047116197645664215,-0.528989315032959,0.0761675426593619,-0.9794426788155453,-0.0932370949112262,-0.16185609872475953,-0.11930431788536877,-2.801438535237364,-2.9312641006291855
1784286559391366912,3.306001901626587,-0.8484864830970764,-1.1718162298202515,-0.11262542009353638,-0.3208284080028534,0.11071570962667465,0.9406443238258362,0.33060917258262634,-0.030057720839977264,-0.6560370922088623,0.07140494776997304,-0.9805999341202856,-0.09351975368761195,-0.1567779334892374,-0.11094315517655536,-2.8128926298503085,-2.933010119998053
1784286559401287168,3.3159220218658447,-0.7342624664306641,-1.3139619827270508,-0.1788547784090042,-0.30934977531433105,0.10251592844724655,0.9454064965248108,0.33507606387138367,-0.0009228959679603577,-0.584261417388916,0.06629526020138761,-0.9820052109553514,-0.09148237784177275,-0.15133324452320446,-0.10269635189018447,-2.8253600341402807,-2.939422672306907
1784286559411205888,3.325840950012207,-0.5599040389060974,-1.452022671699524,-0.2356758713722229,-0.2965902090072632,0.09563948214054108,0.9502039551734924,0.3500417470932007,0.039126135408878326,-0.5700006484985352,0.06190719318767455,-0.9833656842988263,-0.08996610842840394,-0.1451398605238044,-0.095785886310039,-2.8390419686556116,-2.9445122151330536
1784286559421126144,3.335761070251465,-0.23860882222652435,-1.5809792280197144,-0.2734890580177307,-0.28252264857292175,0.09154912084341049,0.9548817873001099,0.33702710270881653,0.07715203613042831,-0.560411810874939,0.05896182989676624,-0.9846499940785679,-0.08891168004084127,-0.13813936747812497,-0.09167749173348784,-2.8539274404522534,-2.948198565566004
1784286559431045888,3.3456809520721436,0.028997648507356644,-1.71111261844635,-0.29343900084495544,-0.2669777274131775,0.08943647891283035,0.9595439434051514,0.3071388006210327,0.03457172214984894,-0.43425989151000977,0.05700214632047954,-0.9859053367782002,-0.0881058967871306,-0.13030321356517904,-0.08955614078378717,-2.8702223479311186,-2.9511006740850263
1784286559440965120,3.355600118637085,0.12247646600008011,-1.7475403547286987,-0.2593686580657959,-0.25061067938804626,0.08996143192052841,0.9638992547988892,0.2590029537677765,0.05814039707183838,-0.35656869411468506,0.05639749693652557,-0.9870509568778627,-0.08763587744674343,-0.12194192332896514,-0.09008321966197583,-2.887227645927617,-2.9529590922830136
1784286559450885120,3.3655200004577637,0.12435219436883926,-1.7904454469680786,-0.3057214617729187,-0.2339095175266266,0.08999470621347427,0.9680840969085693,0.21910855174064636,-0.07436972856521606,-0.22214317321777344,0.05552391263193317,-0.9881681238817526,-0.08698160916039847,-0.11346773594028717,-0.09011663208715608,-2.9045154500024344,-2.955259243324643
1784286559460805120,3.3754401206970215,-0.2834770977497101,-1.8335719108581543,-0.2815200090408325,-0.2167699635028839,0.08881539106369019,0.9721744656562805,0.17467091977596283,-0.10523383319377899,-0.13985300064086914,0.054044265685433815,-0.9892555324171849,-0.0863754561288131,-0.10484336745727785,-0.0889325719146521,-2.922207096829581,-2.9576062797369356
