time,seconds_elapsed,rotationRateX,rotationRateY,rotationRateZ,gravityX,gravityY,gravityZ,accelerationX,accelerationY,accelerationZ,quaternionW,quaternionX,quaternionY,quaternionZ,pitch,roll,yaw
1783116083485501184,0.17411231994628906,-0.05042367801070213,0.047375958412885666,-0.5846056342124939,-0.01661251299083233,0.8338574767112732,-0.5517298579216003,0.11126276850700378,-0.04845708608627319,-0.018964111804962158,0.879717817197563,-0.47321054523485184,0.014382126625685509,-0.04428994641050731,-0.9860596485518403,-0.030100773302697573,-0.1167799294529037
1783116083495421184,0.18403220176696777,0.08077754825353622,0.05354809761047363,-0.6312792301177979,-0.018165990710258484,0.8328174948692322,-0.5532495975494385,0.1313403993844986,-0.018120229244232178,-0.03943228721618652,0.8800448447597052,-0.47240194418133125,0.01454620297155215,-0.04632560563330695,-0.9841782874271349,-0.03282327804065399,-0.12277990238443746
1783116083505341184,0.19395232200622559,0.18783342838287354,0.06697122752666473,-0.662650465965271,-0.016764817759394646,0.8302746415138245,-0.5571023225784302,0.1705733984708786,-0.004530012607574463,-0.048366427421569824,0.8810572691330298,-0.47031052570752035,0.016026671127738028,-0.047846737794870524,-0.9796003008348947,-0.030083811198470516,-0.12454501552922938
1783116083515261184,0.2038722038269043,0.2635789215564728,0.008437194861471653,-0.7379885911941528,-0.012630578130483627,0.8267734050750732,-0.5623932480812073,0.21639646589756012,0.003228425979614258,-0.035674989223480225,0.8825040807791096,-0.4673903641347881,0.01869837997309242,-0.04881719333161313,-0.9733474714450044,-0.02245484925043256,-0.1224024481535012
1783116083525180416,0.2137913703918457,0.20283222198486328,-0.05723875015974045,-0.7711451649665833,-0.006106724496930838,0.822957456111908,-0.5680702924728394,0.267291396856308,-0.03154510259628296,-0.033522725105285645,0.8840912825871878,-0.46418180891090544,0.022363294196878148,-0.04917158577010766,-0.9665974090283911,-0.010749531430093207,-0.11676348882670498
1783116083535100160,0.22371125221252441,0.03819706663489342,-0.1384141892194748,-0.8368734121322632,0.002482522511854768,0.8197198510169983,-0.5727593302726746,0.2769211530685425,-0.08549743890762329,-0.0054267048835754395,0.8854311447587715,-0.4614081890296429,0.026885355908369334,-0.04890218849180873,-0.960921759149438,0.004334293334913197,-0.10808849260688838
1783116083545020416,0.23363137245178223,-0.13508391380310059,-0.19491368532180786,-0.8565837144851685,0.01231434941291809,0.8172104358673096,-0.57620769739151,0.2410883754491806,-0.19572001695632935,-0.011743903160095215,0.8864404341880756,-0.4592126078207142,0.03193625831774433,-0.048239999625973695,-0.9565541712034491,0.021368119112870707,-0.09765449136422244
1783116083554939392,0.24355030059814453,-0.3055456578731537,-0.25662267208099365,-0.9059029817581177,0.022106966003775597,0.8150081038475037,-0.5790277719497681,0.20967403054237366,-0.19139665365219116,-0.004239439964294434,0.8872798796936401,-0.4573016491668552,0.03689612684774792,-0.04741664077207477,-0.9527431482137214,0.038160923321130163,-0.087086265785771
1783116083564859392,0.25347042083740234,-0.24672947824001312,-0.2721555531024933,-0.9811058044433594,0.027630912140011787,0.8135518431663513,-0.5808354616165161,0.19150055944919586,-0.0641164779663086,-0.004628956317901611,0.8877799363738869,-0.4560501511289615,0.040006646572823816,-0.04758608694327383,-0.9502344668469344,0.047535144580304535,-0.08264349745315225
1783116083574779392,0.26339030265808105,-0.014611953869462013,-0.21154054999351501,-1.0610703229904175,0.03059886209666729,0.8119551539421082,-0.5829172134399414,0.16590382158756256,0.07467198371887207,-0.04016011953353882,0.888308317227644,-0.4547160436445434,0.04212723926098252,-0.04865134147125142,-0.9474938734713448,0.052444503185671246,-0.08253549126814529
1783116083584699136,0.27331018447875977,0.3128649592399597,-0.12513749301433563,-1.1678380966186523,0.036479730159044266,0.8085837960243225,-0.5872490406036377,0.14038491249084473,0.16883313655853271,-0.0647742748260498,0.8894717331506611,-0.45197788977720377,0.04573263123767664,-0.04964406211932733,-0.9417412110071849,0.062039972787251825,-0.0799205743908553
1783116083594619392,0.2832303047180176,0.6792818903923035,-0.07054953277111053,-1.2466782331466675,0.039730675518512726,0.8042857646942139,-0.592913031578064,0.15556657314300537,0.21092724800109863,-0.05477672815322876,0.8909362098433141,-0.44855369358920716,0.048405259354872075,-0.05185702710237342,-0.9344725573561498,0.06690925217753387,-0.08251428799572003
1783116083604539136,0.2931501865386963,1.092962384223938,-0.03901371359825134,-1.301396369934082,0.035961877554655075,0.7990595698356628,-0.6001755595207214,0.20819398760795593,0.2198767066001892,-0.05561673641204834,0.8927166957414442,-0.44452434689150455,0.04806592315187853,-0.05607862180406095,-0.9257294413315568,0.05984737936816962,-0.09559920340215608
1783116083614459392,0.3030703067779541,1.5843335390090942,0.029813513159751892,-1.3537200689315796,0.029293492436408997,0.7914053201675415,-0.6105893850326538,0.2661929726600647,0.22821742296218872,-0.07108175754547119,0.8952792017879974,-0.43880226038518316,0.046453031507053044,-0.06139824013163301,-0.9131045619717838,0.04793900758671579,-0.11339628797526671
1783116083624378112,0.3129892349243164,1.981921672821045,0.20489265024662018,-1.4275165796279907,0.022065702825784683,0.7808386087417603,-0.6243430376052856,0.3337082266807556,0.26480042934417725,-0.08517539501190186,0.8986696333283227,-0.43108200142920816,0.044685349871826645,-0.06756142845117098,-0.8960070600690424,0.035327568437820124,-0.13309686955575864
1783116083634298368,0.3229093551635742,2.1204655170440674,0.3482874035835266,-1.5741925239562988,0.01467988733202219,0.7683126330375671,-0.6399064660072327,0.3931875228881836,0.29014378786087036,-0.057969510555267334,0.8962099724098079,-0.4187243863354969,0.06867788321449769,-0.12946430177105056,-0.8762007252197753,0.022936652818802333,-0.2761849344861076
1783116083644218112,0.33282923698425293,2.021430730819702,0.3915206491947174,-1.6688051223754883,0.006767014041543007,0.7552511692047119,-0.6554006338119507,0.47261834144592285,0.24656462669372559,0.0035756826400756836,0.8980121144133473,-0.40910796641760366,0.07021656745491417,-0.14585836989797973,-0.8560372428056685,0.010324637574581413,-0.31732462418920787
1783116083654138368,0.34274935722351074,1.7586535215377808,0.36624324321746826,-1.7205129861831665,-0.001513298018835485,0.7430135607719421,-0.6692747473716736,0.5749691128730774,0.21699315309524536,0.06432479619979858,0.899882706511281,-0.4006910722619145,0.06934908636827988,-0.15763438940509256,-0.8375618516928286,-0.002261097420414085,-0.34783189377702667
1783116083664058112,0.35266923904418945,1.3814198970794678,0.30810990929603577,-1.8138469457626343,-0.010366596281528473,0.7326017022132874,-0.6805787086486816,0.647619366645813,0.26341575384140015,0.13773202896118164,0.9012147383814249,-0.39389360412222435,0.06751656903116687,-0.1676346721914171,-0.8221364310816506,-0.015230854056661657,-0.3744550137239099
1783116083673978368,0.36258935928344727,1.1469093561172485,0.19735419750213623,-1.9111897945404053,-0.02032465860247612,0.7240644693374634,-0.6894328594207764,0.6729125380516052,0.3505205512046814,0.15854907035827637,0.9017200951688502,-0.38860222737274386,0.06535967335202694,-0.17781282506476861,-0.809677032807989,-0.029471721997758122,-0.4020196839933255
1783116083683898112,0.372509241104126,1.077242374420166,0.10818623751401901,-2.0371651649475098,-0.03167187422513962,0.7162982225418091,-0.6970751881599426,0.6627143621444702,0.4262036085128784,0.11942321062088013,0.9016966613937777,-0.3841017053109171,0.06267606343743977,-0.18836348129438624,-0.7984827876590221,-0.04540415157428867,-0.4310335514930015
1783116083693818368,0.3824293613433838,1.1403642892837524,0.15141969919204712,-2.2646989822387695,-0.044396158307790756,0.7081676125526428,-0.7046471834182739,0.6065757274627686,0.4956287741661072,0.07619869709014893,0.9014771082402507,-0.37969063582352464,0.05925738718701238,-0.19915491589340623,-0.7868995617125808,-0.06292163478113312,-0.46098210766730396
1783116083703737344,0.3923482894897461,1.313726544380188,0.2656889855861664,-2.5645534992218018,-0.058359336107969284,0.6987525224685669,-0.7129790186882019,0.5308324694633484,0.5365685224533081,0.03115534782409668,0.9012980239053617,-0.3748130312213864,0.05500612272438805,-0.2101223044014954,-0.7736521606423741,-0.08167073809289893,-0.49136781848066674
1783116083713657344,0.4022684097290039,1.482440710067749,0.31228774785995483,-2.902301788330078,-0.07374929636716843,0.6873630881309509,-0.7225600481033325,0.505359411239624,0.5401607155799866,-0.005787670612335205,0.9008647867109163,-0.3690241401572208,0.05040986338424149,-0.2229857318183212,-0.7578522174463855,-0.1017144322667135,-0.5258228957194571
1783116083723577344,0.4121882915496826,1.6004480123519897,0.2944379150867462,-3.2717161178588867,-0.09128307551145554,0.6740766167640686,-0.732999324798584,0.5184376239776611,0.5394853353500366,-0.0036186575889587402,0.8999914505307691,-0.3625874957819341,0.045062591638131665,-0.2377287859609094,-0.7397139470728717,-0.12389578274327169,-0.5645809045856645
1783116083733497344,0.42210841178894043,1.6110625267028809,0.2631734311580658,-3.6145660877227783,-0.11099421977996826,0.6592196822166443,-0.7437134385108948,0.5162218809127808,0.5282192826271057,0.004135251045227051,0.8983322850610044,-0.3558296738833104,0.039096209262608116,-0.25466818878119635,-0.719780573057819,-0.1481497801321223,-0.6083171629366022
1783116083743417344,0.43202829360961914,1.5325543880462646,0.2029542773962021,-3.9646220207214355,-0.13275878131389618,0.643365740776062,-0.7539600133895874,0.4656292796134949,0.49936503171920776,-0.013114571571350098,0.8959677628058361,-0.3492686813031005,0.032115290439898685,-0.2724368445686018,-0.6988866287021924,-0.1742953236482247,-0.6540255855788402
1783116083753337344,0.44194841384887695,1.5508596897125244,0.1821894645690918,-4.403409004211426,-0.15678147971630096,0.626313328742981,-0.7636433839797974,0.38432055711746216,0.43290603160858154,-0.07404887676239014,0.8928401892490276,-0.3429349362441576,0.02395705609601955,-0.2909606302225207,-0.6768150477730324,-0.20249339169234143,-0.7015398685653119
1783116083763257344,0.45186829566955566,1.9084692001342773,0.17178316414356232,-4.830966949462891,-0.18289433419704437,0.6059840321540833,-0.7741659879684448,0.35016119480133057,0.369907021522522,-0.14380276203155518,0.8889212223933455,-0.3357100960845547,0.014687839816451007,-0.311290899075401,-0.6510023292647078,-0.23199329173628255,-0.7522989531062239
1783116083773176320,0.46178722381591797,2.587695360183716,0.12023285031318665,-5.157642841339111,-0.2103758454322815,0.5793589353561401,-0.7874549031257629,0.421237051486969,0.37520039081573486,-0.21651238203048706,0.884737176398577,-0.32597204774889404,0.0038421473502207467,-0.3331181825322648,-0.6179419841689155,-0.26106219719474416,-0.8039560611124963
1783116083783096320,0.4717073440551758,3.401228666305542,-0.10194268822669983,-5.32667350769043,-0.23880484700202942,0.5444774627685547,-0.80406254529953,0.5758256912231445,0.3953571915626526,-0.23666316270828247,0.8806309881515361,-0.31286379675863174,-0.009218053873870981,-0.3556970090135856,-0.5757659859721559,-0.2887002512435973,-0.8537799867618091
1783116083793016320,0.4816272258758545,4.208654403686523,-0.5062234997749329,-5.388362884521484,-0.26831701397895813,0.5006868839263916,-0.8229936957359314,0.7366702556610107,0.3413693904876709,-0.17161989212036133,0.8766898445163247,-0.29642491994190845,-0.02520725792199983,-0.3780368956536346,-0.52439210602033,-0.3151592230208738,-0.8994727721999085
1783116083802936320,0.4915473461151123,4.914285182952881,-1.0053541660308838,-5.434284210205078,-0.29932013154029846,0.4481009244918823,-0.8423853516578674,0.8559454679489136,0.2410469949245453,-0.07163143157958984,0.8727616811200386,-0.27715078474790134,-0.04466297742215647,-0.39934913883332673,-0.46463992154987194,-0.34141033247774843,-0.9397853480627114
1783116083812856320,0.501467227935791,5.137773036956787,-1.4091392755508423,-5.48889684677124,-0.33150923252105713,0.38855114579200745,-0.8597264885902405,0.9243742227554321,0.10418567061424255,0.09344536066055298,0.868204553661543,-0.2561941260504562,-0.06709185037240258,-0.41962382636367174,-0.39905865721061484,-0.3680299439676642,-0.9756746792299363
1783116083822776320,0.5113873481750488,4.733062267303467,-1.6632351875305176,-5.5090484619140625,-0.363416463136673,0.32747843861579895,-0.8721733689308167,0.9466683864593506,-0.13385966420173645,0.35407644510269165,0.862199341195517,-0.23602643383272615,-0.09058059473317905,-0.4389749794138497,-0.33363362220403103,-0.3948017593851695,-1.0091852302134967
1783116083832696320,0.5213072299957275,4.292415618896484,-2.0081775188446045,-5.426568031311035,-0.39452603459358215,0.2681235074996948,-0.8788964748382568,0.9685463905334473,-0.5160940885543823,0.44577574729919434,0.8542254329194595,-0.21806607527922756,-0.11401293242208187,-0.45798167729571976,-0.2714446890070672,-0.42192874976506445,-1.0427478806075188
1783116083842615296,0.531226396560669,3.6211700439453125,-2.3283092975616455,-5.34779167175293,-0.42511656880378723,0.21209090948104858,-0.8799394369125366,1.0098791122436523,-0.8649229407310486,0.4629167318344116,0.8443910625725977,-0.20299620206402,-0.1371963339988621,-0.4764174382607067,-0.21371404601226696,-0.45005287543322464,-1.076478515027461
1783116083852535296,0.5411462783813477,3.041253089904785,-2.662785053253174,-5.20192813873291,-0.45510074496269226,0.16065238416194916,-0.8758276700973511,1.0437085628509521,-1.0852129459381104,0.4773138761520386,0.8332949343696663,-0.19109375916316282,-0.15990411339890062,-0.49349117965102857,-0.16135158664141083,-0.4792229639205022,-1.1088533821657882
1783116083862455296,0.5510663986206055,2.57271671295166,-3.04740047454834,-4.89908504486084,-0.48444879055023193,0.11349201202392578,-0.8674266338348389,1.0919469594955444,-1.2003755569458008,0.40850329399108887,0.8210502390409046,-0.18207360663687003,-0.18203267720823416,-0.5094995811992421,-0.11373707176937531,-0.5093378145029701,-1.1404182687693767
1783116083872375296,0.5609862804412842,2.3171396255493164,-3.4409122467041016,-4.554035663604736,-0.5131667256355286,0.07000244408845901,-0.855429470539093,1.0970900058746338,-1.1856640577316284,0.4208744168281555,0.8084026594202054,-0.17532612947839754,-0.2038284057858894,-0.5236408876512391,-0.0700597431020213,-0.5403413070855632,-1.1689900982765051
1783116083882295296,0.570906400680542,2.1412129402160645,-3.6821038722991943,-4.148923397064209,-0.5391471982002258,0.02953212894499302,-0.841693639755249,1.0194175243377686,-1.1014620065689087,0.5307652950286865,0.795933456750902,-0.16968567500337045,-0.2244102382471965,-0.5360381174934309,-0.02953642283042648,-0.5697035752471727,-1.1940464335620473
1783116083892215296,0.5808262825012207,1.9051858186721802,-3.738229990005493,-3.737800359725952,-0.5396337509155273,-0.004153422545641661,-0.8418896198272705,0.8430852890014648,-1.0426757335662842,0.6651623249053955,0.7871250363447553,-0.15906427821388758,-0.23184855596393733,-0.548979856282043,0.004153434265862662,-0.5700075893454043,-1.216807187806584
1783116083902135296,0.5907464027404785,1.4384783506393433,-3.6903417110443115,-3.4735405445098877,-0.5621536374092102,-0.03660019487142563,-0.8262225389480591,0.6516006588935852,-1.0942133665084839,0.7798358201980591,0.7739131065114522,-0.15702713741248475,-0.2494618170127192,-0.5605084557386397,0.03660837257327306,-0.5974433348138071,-1.2423617975534622
1783116083912055296,0.6006662845611572,0.7736833691596985,-3.611337661743164,-3.2833468914031982,-0.586808979511261,-0.06443812698125839,-0.8071573376655579,0.460313618183136,-1.2461087703704834,0.9357431530952454,0.7595266416702551,-0.15851573314586231,-0.26700953333309113,-0.5715750479943051,0.0644828064058891,-0.6286224202385845,-1.2692819352477756
1783116083921974272,0.6105852127075195,0.1896124929189682,-3.561230182647705,-3.10502028465271,-0.6107429265975952,-0.08693218231201172,-0.787042498588562,0.2976783514022827,-1.3733339309692383,0.980340838432312,0.7446429724157155,-0.16277087633852316,-0.2828151353454735,-0.5822612025272624,0.08704205133162925,-0.6599329138621676,-1.2974270432994708
1783116083931894272,0.6205053329467773,-0.1570124477148056,-3.4184763431549072,-3.002558708190918,-0.6334167718887329,-0.10566537082195282,-0.7665625214576721,0.19132381677627563,-1.3407763242721558,0.8863440155982971,0.7291918160221293,-0.1689827474195753,-0.29692350881967583,-0.5929255023029937,0.10586299146716142,-0.690577828318737,-1.3272784630074705
1783116083941814272,0.630425214767456,-0.4617963135242462,-2.5202529430389404,-1.7375503778457642,-0.6547810435295105,-0.11893829703330994,-0.7464017271995544,0.0875203013420105,-1.2002907991409302,0.7032498717308044,0.7153084685095958,-0.17672197319132432,-0.3091415282886878,-0.6012775842553341,0.11922051811662168,-0.7201030069014478,-1.3530779057844131
1783116083951734272,0.6403453350067139,0.46512922644615173,-1.7282601594924927,-3.292613983154297,-0.6649613380432129,-0.13459281623363495,-0.7346503734588623,-0.3751997947692871,-1.1105396747589111,0.6712653636932373,0.703477295150266,-0.17936256699643388,-0.3170234648000362,-0.6102825999501804,0.1350025337700601,-0.7356475420108762,-1.3770665961463116
1783116083961654272,0.6502652168273926,0.8635125756263733,-2.5151519775390625,-3.1777641773223877,-0.674740195274353,-0.16173306107521057,-0.7201167345046997,-0.22958719730377197,-0.821634829044342,0.526955783367157,0.6892199922614258,-0.17860076846441864,-0.32869956919905413,-0.6205111508011485,0.16244657743944213,-0.7528783004979739,-1.4016389699930736
1783116083971574272,0.6601853370666504,1.6038486957550049,-2.9108099937438965,-2.0605177879333496,-0.6886633634567261,-0.1880231648683548,-0.7002785205841064,0.5748633146286011,-0.6984666585922241,0.6603463292121887,0.6760146789151208,-0.17920203994422404,-0.3431433639213908,-0.6270113828620356,0.1891490307377384,-0.7770357465052858,-1.4180011855189847
1783116083981494272,0.6701052188873291,2.6795411109924316,-2.619145393371582,-1.6151541471481323,-0.7038602232933044,-0.2145567387342453,-0.677160382270813,0.4729795455932617,-0.6939363479614258,0.637914776802063,0.6661649793615699,-0.17847404057321342,-0.3599539293493504,-0.6283346412383073,0.21623797310871912,-0.8047291935723418,-1.4200432455812046
1783116083991413248,0.6800243854522705,4.18598747253418,-2.8516006469726562,-1.8710473775863647,-0.7168373465538025,-0.24968959391117096,-0.6509987711906433,0.05829852819442749,-0.5825705528259277,0.5422646403312683,0.6575348474304309,-0.17279715396611467,-0.38031798229347274,-0.6270146578187482,0.25235968713440476,-0.8334944395654847,-1.4110938607211259
1783116084001333248,0.6899442672729492,5.521636009216309,-3.062192678451538,-1.9468125104904175,-0.7300689816474915,-0.2935580313205719,-0.6171086430549622,0.17538142204284668,-0.430303692817688,0.5719731450080872,0.6489740999929897,-0.16318410673710276,-0.40597613165944346,-0.6224042775234263,0.2979467539411828,-0.8690520806143985,-1.3899180512200373
1783116084011253248,0.699864387512207,6.822724342346191,-3.49434757232666,-1.4822468757629395,-0.7436359524726868,-0.34314975142478943,-0.5738064646720886,0.29441720247268677,-0.20929467678070068,0.5760800242424011,0.6402440968747292,-0.150520204428518,-0.43639482369547716,-0.6139957212051153,0.3502682313401631,-0.9135996338047494,-1.355455534543136
1783116084021173248,0.7097842693328857,8.010997772216797,-3.3750483989715576,-1.2781147956848145,-0.7573670148849487,-0.39361995458602905,-0.5210167765617371,0.14855659008026123,0.08069270849227905,0.5269525051116943,0.632546684481129,-0.13522878669958485,-0.470324121185299,-0.600327485900172,0.4045661308395091,-0.9682158997397624,-1.3036834379627145
1783116084031093248,0.7197043895721436,8.714214324951172,-2.882716178894043,-1.417953372001648,-0.7670115232467651,-0.44496962428092957,-0.4622719883918762,-0.05217182636260986,-0.08133652806282043,0.4775612950325012,0.6252513771831616,-0.11567769372502082,-0.5054529434316549,-0.5832638827934521,0.46114033496309914,-1.028399509555304,-1.2376685709856325
1783116084041013248,0.7296242713928223,8.570749282836914,-2.4302473068237305,-1.5887209177017212,-0.7709006667137146,-0.49401387572288513,-0.4020727574825287,-0.0682259202003479,-0.31731122732162476,0.6126440763473511,0.6178443113973955,-0.09299777926434702,-0.5388088994302596,-0.5650706273070641,0.5167002686496432,-1.0900480024206354,-1.1639034764045446
1783116084050933248,0.7395443916320801,7.580395698547363,-1.9525502920150757,-1.687936544418335,-0.7703226208686829,-0.537270188331604,-0.3434295058250427,0.04531657695770264,-0.416434645652771,0.8465728163719177,0.6095010408271426,-0.07042670586297844,-0.5686170345606465,-0.5479263209637983,0.5671971126594609,-1.1514193166058722,-1.0905765851151004
1783116084060853248,0.7494642734527588,5.127164363861084,-1.7126280069351196,-1.7920019626617432,-0.7662718892097473,-0.570793092250824,-0.2949962317943573,0.14847403764724731,-0.3707810044288635,0.8571147918701172,0.6007378355786128,-0.051996827194755825,-0.5914374083326357,-0.5353618085103022,0.607471411341387,-1.20330843478393,-1.0319118117362507
1783116084070772224,0.7593832015991211,3.5894930362701416,-1.2082322835922241,-1.6320358514785767,-0.760053277015686,-0.5962794423103333,-0.2583984434604645,0.07572716474533081,-0.555087685585022,1.1305756568908691,0.5919479580996324,-0.0384225888703374,-0.6077207256550846,-0.528012107397526,0.6388584948890149,-1.243081010121213,-0.9915215807621398
1783116084080692224,0.7693033218383789,1.4738388061523438,-0.7737886309623718,-1.326775312423706,-0.7535794973373413,-0.6133429408073425,-0.23649169504642487,0.1367887258529663,-0.45886164903640747,1.0416216850280762,0.5848671525255693,-0.030166428877022856,-0.6171257073841282,-0.5255247260258187,0.6602862091642295,-1.2667052761439035,-0.9710058013369672
1783116084090612224,0.7792232036590576,0.2159442901611328,-0.2707492411136627,-1.466241478919983,-0.746059775352478,-0.625932514667511,-0.22716361284255981,0.012279868125915527,-0.349806010723114,1.0973570346832275,0.5791750413701245,-0.025211382373108524,-0.6211139812839707,-0.5273880184594543,0.6763267082204023,-1.2752304393269998,-0.9675289674422365
1783116084100532224,0.7891433238983154,-1.199455738067627,0.15497569739818573,-1.3618206977844238,-0.7371004819869995,-0.6354047656059265,-0.23009493947029114,-0.197118878364563,-0.2768877148628235,1.1290512084960938,0.5746662876209065,-0.0229449170336994,-0.6200210192854708,-0.5336722932797316,0.688532557256617,-1.2682192062388313,-0.981225815835679
1783116084110452224,0.7990632057189941,-2.0074257850646973,0.456795871257782,-1.4151315689086914,-0.7275452017784119,-0.6417000889778137,-0.24269136786460876,-0.26247549057006836,-0.04593724012374878,0.9921572804450989,0.5712081218826055,-0.023061869552824354,-0.6149166318593386,-0.5432007571235489,0.6967129090996437,-1.2488276915331165,-1.0086313234481983
1783116084120372224,0.808983325958252,-2.0862317085266113,0.6530866026878357,-1.4519798755645752,-0.7168222665786743,-0.6471739411354065,-0.2594837546348572,-0.21014916896820068,-0.1129578948020935,0.6576923727989197,0.56818132333462,-0.023346642668567317,-0.6080403450688985,-0.5539962850828666,0.7038714916064622,-1.2234786217809088,-1.0412575306697547
1783116084130292224,0.8189032077789307,-2.247570276260376,0.7101982831954956,-1.4350475072860718,-0.7057092785835266,-0.6517174243927002,-0.27791911363601685,-0.09482783079147339,-0.19180375337600708,0.41678935289382935,0.5652946797601972,-0.023807177127635023,-0.6003945858082753,-0.5651562915495363,0.7098465780899263,-1.1956329234536662,-1.0761413333792875
1783116084140211456,0.8288223743438721,-2.3501269817352295,0.8594785928726196,-1.4172937870025635,-0.6942281126976013,-0.6551992297172546,-0.2979287803173065,-0.07452493906021118,-0.15752971172332764,0.3358926475048065,0.5627470451548137,-0.024244601714419816,-0.5919863279058823,-0.5764376233283703,0.7144463089487367,-1.165414903125065,-1.1124496823944654
1783116084150131200,0.8387422561645508,-2.4898841381073,0.834863007068634,-1.571291208267212,-0.6817249655723572,-0.6583371758460999,-0.31912893056869507,-0.018104135990142822,-0.19884055852890015,0.28226369619369507,0.5598672040311414,-0.024627497444256772,-0.5829485590249839,-0.588313839203539,0.7186075130505151,-1.1329765913445704,-1.1513347713798645
1783116084160051456,0.8486623764038086,-2.787928342819214,0.7727873921394348,-1.421385407447815,-0.6690094470977783,-0.6601890921592712,-0.34143346548080444,0.003100574016571045,-0.18772655725479126,0.26883208751678467,0.5564689953548796,-0.02580886326888224,-0.5732514080716269,-0.6008818491429526,0.7210704543995891,-1.0988977164669502,-1.1937312401460018
1783116084169971200,0.8585822582244873,-2.281381607055664,0.35870420932769775,-1.290067195892334,-0.6584340333938599,-0.6599304676055908,-0.3618791699409485,0.07890522480010986,-0.06432795524597168,0.17329585552215576,0.553286675902959,-0.027884904043188847,-0.5641656160563621,-0.6122201836517743,0.7207262040420559,-1.068255799966611,-1.2332518322841657
1783116084179891456,0.8685023784637451,-2.3501698970794678,-0.0008768681436777115,-1.5534147024154663,-0.6488569378852844,-0.6606364846229553,-0.37755000591278076,0.1087416410446167,-0.0479511022567749,0.13665953278541565,0.5481573871559812,-0.030629265204444284,-0.5570339698430504,-0.6231359504621264,0.7216662715420177,-1.0438148388287052,-1.2712451273193324
1783116084189811200,0.8784222602844238,-2.47921085357666,0.22030995786190033,-1.516350269317627,-0.6379140019416809,-0.6622048020362854,-0.3931291103363037,-0.027445435523986816,-0.2003745436668396,-0.1826460361480713,0.5423813732068772,-0.032650759408275914,-0.5498812342278814,-0.6343398113890405,0.7237573250022176,-1.0184973273263356,-1.3101644623218611
1783116084199731456,0.8883423805236816,-3.5358574390411377,-0.00557989627122879,-1.5906116962432861,-0.6278856992721558,-0.6597378849983215,-0.41292306780815125,0.34881776571273804,-0.2615419626235962,0.015813082456588745,0.5365408639589326,-0.036983119174925035,-0.5405281851498532,-0.6469817817471305,0.7204698927145583,-0.9890686933756312,-1.3561178251965251
1783116084209651200,0.8982622623443604,-4.305871963500977,-0.23930412530899048,-1.7245439291000366,-0.618083119392395,-0.6534424424171448,-0.43701979517936707,0.3927565813064575,-0.14537042379379272,0.23888444900512695,0.5293507699545514,-0.044046603368207635,-0.5287248830574233,-0.6620405641236793,0.712123171407597,-0.9553500328644525,-1.4122356287106974
1783116084219570176,0.9081811904907227,-4.528919696807861,0.038365039974451065,-1.9409068822860718,-0.6058094501495361,-0.6454593539237976,-0.4651637375354767,-0.16482049226760864,-0.005312800407409668,-0.015335559844970703,0.5211906848009041,-0.05111589237501699,-0.5145923639648459,-0.6789272950059958,0.7016245349742997,-0.9159760739402808,-1.4752197665003643
1783116084229490176,0.9181013107299805,-4.605300426483154,-0.2406962364912033,-2.3711392879486084,-0.5926262140274048,-0.6366889476776123,-0.4933776259422302,0.013280510902404785,0.12570255994796753,-0.16119390726089478,0.5118630255105957,-0.05804619753847674,-0.499941818747031,-0.6961933444992113,0.6901967714753443,-0.8765338018601909,-1.5398092842949487
1783116084239410176,0.9280211925506592,-4.766722202301025,-0.37565377354621887,-2.4708597660064697,-0.5787578821182251,-0.6278006434440613,-0.520486056804657,0.1365581750869751,0.07239598035812378,-0.17407876253128052,0.5008734529634329,-0.06485511897458648,-0.4853357457494703,-0.7137008489975617,0.6787244152352112,-0.8383594207613447,-1.6056840223720714
1783116084249330176,0.937941312789917,-5.088348388671875,-0.5056599974632263,-2.6656367778778076,-0.5654658079147339,-0.6162027716636658,-0.5482177138328552,0.08852183818817139,-0.05185753107070923,-0.08146679401397705,0.48893128959621235,-0.07256282065902304,-0.46970819983300016,-0.7314746172498179,0.6639122313469443,-0.8008843656924224,-1.6733658999629164
1783116084259250176,0.9478611946105957,-5.146077632904053,-0.459818959236145,-2.705721378326416,-0.551577091217041,-0.6031785607337952,-0.5761409997940063,-0.017499446868896484,-0.27984756231307983,-0.05569493770599365,0.4758281442777413,-0.0801729003403644,-0.4533230846432373,-0.7494385659415839,0.6474802570763675,-0.7636196711832942,-1.7423622301387491
1783116084269170176,0.9577813148498535,-4.906534194946289,-0.43381011486053467,-2.6083526611328125,-0.5385487675666809,-0.5880911350250244,-0.60341876745224,0.023320496082305908,-0.3167397975921631,-0.032796502113342285,0.4627116114565853,-0.08775683548310326,-0.43656542051614333,-0.7665555982849926,0.6286966568150215,-0.7286536971744069,-1.8087154530661913
1783116084279090176,0.9677011966705322,-3.774832010269165,-0.5899818539619446,-2.4688374996185303,-0.5268552899360657,-0.5751785039901733,-0.6257740259170532,0.16883838176727295,-0.23324733972549438,-0.1009562611579895,0.4497487558775812,-0.09411398127586754,-0.42220319528348815,-0.7814173259729835,0.6128223289639717,-0.6997878630045149,-1.867211821175922
1783116084289009408,0.9776203632354736,-2.551868200302124,-0.6346211433410645,-2.349863052368164,-0.517025351524353,-0.5678796768188477,-0.6404665112495422,0.3674587607383728,-0.27152150869369507,-0.2231655716896057,0.4375052008350042,-0.09847328660902542,-0.4123951279650504,-0.7929831975421525,0.6039275589983967,-0.6791543237778946,-1.9140735883069628
1783116084298929152,0.9875402450561523,-1.2190494537353516,-0.6427640318870544,-2.2120704650878906,-0.5079962015151978,-0.568103551864624,-0.647455096244812,0.33596867322921753,-0.3962365984916687,-0.2182522416114807,0.42612966782590894,-0.10014863002172189,-0.4077287206376563,-0.8013369377016302,0.6041996005643919,-0.6652827181133569,-1.9496055650400053
1783116084308849408,0.9974603652954102,-0.12296738475561142,-0.7281867265701294,-2.0633013248443604,-0.5001941323280334,-0.5748023390769958,-0.6476172804832458,0.36396366357803345,-0.5946007370948792,-0.16799557209014893,0.41578741848380907,-0.09987879552542606,-0.4076954690359311,-0.8068019568021128,0.6123625406339623,-0.657659029140945,-1.9749825507355696
1783116084318769152,1.0073802471160889,1.419600248336792,-0.9554667472839355,-1.9826399087905884,-0.4936463534832001,-0.5891178846359253,-0.6397292017936707,0.3992249667644501,-0.5747004747390747,-0.12679600715637207,0.406206705290334,-0.0976820417671386,-0.4130297896953251,-0.8092347328140287,0.6299667643682004,-0.65721304014917,-1.989868831916982
1783116084328689408,1.0173003673553467,2.5810728073120117,-1.085719108581543,-1.8973790407180786,-0.48809266090393066,-0.6117066144943237,-0.6225597262382507,0.24633240699768066,-0.5509520769119263,-0.06486397981643677,0.39716758258658097,-0.09345251552323008,-0.4242484667226868,-0.8084168860505747,0.6582161245064012,-0.6649142165717693,-1.9935243826612647
1783116084338609152,1.0272202491760254,3.7627177238464355,-1.309804916381836,-1.774902582168579,-0.48367223143577576,-0.6401207447052002,-0.5969142317771912,0.17016518115997314,-0.4343726634979248,-0.05410200357437134,0.38855852065380325,-0.08796204335810377,-0.4402335366536282,-0.8046610579028848,0.6946554436902814,-0.6809825171055821,-1.9867537641252162
1783116084348529408,1.0371403694152832,4.886009693145752,-1.5216808319091797,-1.7366067171096802,-0.4800446331501007,-0.6737772822380066,-0.5617662072181702,0.2350190281867981,-0.44016003608703613,-0.23632943630218506,0.38014643527007114,-0.08119752693921285,-0.4610031047731361,-0.7977290950111012,0.7393087420390022,-0.7071166134562366,-1.9681162571316906
1783116084358449152,1.047060251235962,5.90382194519043,-1.680955171585083,-1.8636581897735596,-0.4759327471256256,-0.7117245197296143,-0.5166587233543396,0.2328907549381256,-0.49668002128601074,-0.3130531907081604,0.3712431868299477,-0.07297646165676233,-0.4861533447499152,-0.7877232007845746,0.7919501279283986,-0.744391207221683,-1.9372058919917758
1783116084368368384,1.0569794178009033,6.52251672744751,-1.7116752862930298,-1.9404547214508057,-0.46987029910087585,-0.75143963098526,-0.4632064700126648,0.17194244265556335,-0.4798988103866577,-0.3519943356513977,0.3615545919004228,-0.06324518563650022,-0.5141953096899856,-0.7751654071319857,0.8502413324302044,-0.7925398454020647,-1.8943289256708418
1783116084378288384,1.066899299621582,7.161964416503906,-1.7199769020080566,-1.9602675437927246,-0.4618294835090637,-0.790264368057251,-0.4027354419231415,0.22812584042549133,-0.4119910001754761,-0.3841755986213684,0.3513823050680441,-0.052323550174103915,-0.5439618725129894,-0.7601962192187972,0.9112403283049666,-0.8536431919890081,-1.8371205005891158
1783116084388208384,1.0768194198608398,8.011931419372559,-1.8188647031784058,-2.018134117126465,-0.451681911945343,-0.827433705329895,-0.3336716294288635,0.2230442464351654,-0.46716761589050293,-0.4116896688938141,0.34056834639433353,-0.04006756058203664,-0.5758114053605032,-0.7421919634403855,0.9745222743042202,-0.9345461934734451,-1.758715775487704
1783116084398128384,1.0867393016815186,8.776482582092285,-1.9002230167388916,-2.0983190536499023,-0.439104288816452,-0.8616032004356384,-0.2546125650405884,0.15429899096488953,-0.45463526248931885,-0.4228776693344116,0.3287047758158471,-0.026465537761672965,-0.609912531274359,-0.7205966636711953,1.038419704293423,-1.045328289615327,-1.649524821914288
1783116084408048128,1.0966591835021973,9.434037208557129,-1.7529449462890625,-1.9251724481582642,-0.42441585659980774,-0.889835000038147,-0.16752515733242035,0.18799620866775513,-0.3381006717681885,-0.43451040983200073,0.3163991504597388,-0.011663987736963683,-0.6450592022886154,-0.6954524292210217,1.096983482585371,-1.1948505075267357,-1.4996844638663163
1783116084417968384,1.106579303741455,10.443914413452148,-1.6973583698272705,-1.7855725288391113,-0.40898093581199646,-0.909747302532196,-0.07137511670589447,0.28771933913230896,-0.38724976778030396,-0.36694884300231934,0.3043012507060844,0.004293158819048282,-0.6813912321888137,-0.6656487601855894,1.1426749418262614,-1.3980170000499583,-1.293166183236886
1783116084427888128,1.1164991855621338,11.36379337310791,-1.6101024150848389,-1.6159087419509888,-0.39246970415115356,-0.9191204309463501,0.03442217782139778,0.32481229305267334,-0.3832933306694031,-0.2844679355621338,0.2918651682062347,0.021525247006121833,-0.7188516902782415,-0.6305581034100158,1.1658421631551448,-1.6582790527956552,-1.0269185658326658
1783116084437807360,1.1264183521270752,12.29910659790039,-1.5772134065628052,-1.2557932138442993,-0.37651076912879944,-0.9144184589385986,0.14858829975128174,0.3614961504936218,-0.2478587031364441,-0.09849371016025543,0.27933541602551837,0.039255898697376536,-0.7568045486628608,-0.5896418936194738,1.1540688642707737,-1.9466782847302293,-0.7302278860797873
1783116084447727104,1.136338233947754,13.009126663208008,-1.5487686395645142,-0.8622550368309021,-0.3622420132160187,-0.8926227688789368,0.26833832263946533,0.3618147671222687,-0.28700369596481323,0.03206145763397217,0.2666893941663798,0.05658729722589268,-0.7943343351200198,-0.5428698272594794,1.1031300056409403,-2.2083645533049094,-0.45881946939605267
1783116084457647360,1.1462583541870117,13.426711082458496,-1.3717230558395386,-0.5088722109794617,-0.3498055338859558,-0.8524042367935181,0.3886427581310272,0.3537880778312683,-0.43755853176116943,0.09023904800415039,0.25400680687391397,0.07317180396296881,-0.8300405230853798,-0.49107963444875613,1.020566296990699,-2.408739126360355,-0.24731768475950414
1783116084467567104,1.1561782360076904,13.290949821472168,-0.9261700510978699,-0.2726214528083801,-0.33947625756263733,-0.7949095368385315,0.5028665065765381,0.3364245295524597,-0.537777841091156,0.13177704811096191,0.24193641599951823,0.08917168903727452,-0.8622538273332692,-0.4359283684186974,0.918858512853293,-2.5477864685810285,-0.09434461235727107
1783116084477487360,1.1660983562469482,12.206427574157715,-0.508931577205658,-0.1181088387966156,-0.3311106264591217,-0.7262495160102844,0.6024343371391296,0.3108469843864441,-0.5202866792678833,0.2170693278312683,0.23098948129170424,0.10435384077835433,-0.8890036257622227,-0.38134839333308707,0.812850272133743,-2.6390403807058025,0.013626440986484164
1783116084487407104,1.176018238067627,11.14818286895752,-0.36809080839157104,0.3122847080230713,-0.323822945356369,-0.6528382301330566,0.6847924590110779,0.3368082046508789,-0.5871672034263611,0.26315969228744507,0.22045991194618253,0.11742577968202116,-0.910278754663091,-0.3301531951153681,0.7113252701892654,-2.6998774941885584,0.09016772377417764
1783116084497327360,1.1859383583068848,10.671403884887695,-0.3634539842605591,0.7712254524230957,-0.3053264021873474,-0.5783722400665283,0.7564796805381775,0.2930888831615448,-0.5794036388397217,0.18936693668365479,0.2039756832566384,0.1294814169382815,-0.9281564513236381,-0.2831150501880314,0.6167319188185528,-2.7579739296983825,0.15366233442928132
1783116084507247104,1.1958582401275635,10.470843315124512,-0.12392247468233109,1.0236271619796753,-0.3012177646160126,-0.49422767758369446,0.8154795169830322,0.27120375633239746,-0.41801899671554565,0.1285664439201355,0.19361886363924424,0.13655158945701518,-0.9429175078080007,-0.2340341294070949,0.5169462050212823,-2.7877625673325417,0.19317045337004066
1783116084517166336,1.2057774066925049,10.076292991638184,-0.010249445214867592,1.3965288400650024,-0.3023408055305481,-0.4052923321723938,0.8627445697784424,0.2923767864704132,-0.3021814227104187,0.19516253471374512,0.18565520314600398,0.141086072763148,-0.9547078111724672,-0.1848238789808975,0.4172985771816573,-2.8045252988916096,0.22141501161452676
1783116084527085568,1.2156965732574463,9.194604873657227,0.06415722519159317,1.7948116064071655,-0.30552688241004944,-0.31630992889404297,0.898110032081604,0.30329906940460205,-0.2860002815723419,0.25531721115112305,0.17886702310649616,0.14247763879598052,-0.9637194316497627,-0.1376649806134818,0.32183717038410187,-2.813685008263094,0.23986053550610928
1783116084537005312,1.225616455078125,7.997409820556641,0.10798699408769608,2.042858600616455,-0.30963003635406494,-0.23273979127407074,0.9219337701797485,0.22973495721817017,-0.32698318362236023,0.30360662937164307,0.17336228318973582,0.14101982031717716,-0.9700929380292128,-0.09475625769345374,0.2348938881392545,-2.8175802086919775,0.25014892439166064
1783116084546925568,1.2355365753173828,6.583177089691162,0.1780499368906021,2.198512077331543,-0.3134059011936188,-0.15914097428321838,0.9361897110939026,0.215139240026474,-0.546303391456604,0.3269023895263672,0.16898114747506723,0.1371335561367663,-0.9743147574750985,-0.0578842752457193,0.15982048155571243,-2.818551898195169,0.25356519678066886
1783116084556845312,1.2454564571380615,5.117959976196289,0.19089116156101227,2.3016207218170166,-0.31673744320869446,-0.0975954607129097,0.9434791207313538,0.23583531379699707,-0.8090817928314209,0.23581182956695557,0.16581397883208163,0.13119025340982216,-0.9769998280233405,-0.027681224855991327,0.09775105824244175,-2.817702647583371,0.2509779918395854
1783116084566765568,1.2553765773773193,3.399786949157715,0.23551467061042786,2.3943822383880615,-0.31934860348701477,-0.050581660121679306,0.9462863802909851,0.25195053219795227,-0.813035249710083,0.13305926322937012,0.1637983832908207,0.12342077844905444,-0.9787290204496008,-0.005184995245440195,0.050603252352376,-2.8161186746346227,0.2425717547620919
1783116084576685312,1.265296459197998,2.4313347339630127,0.2374771535396576,2.694500684738159,-0.3213271200656891,-0.016155296936631203,0.9468306303024292,0.2489393949508667,-0.6085852980613708,0.08873772621154785,0.1627042644889128,0.11342303667485501,-0.9800768042926642,0.01058770458881916,0.01615599898083516,-2.814417826868649,0.2277655749699218
1783116084586605568,1.2752165794372559,2.1543381214141846,0.09191816300153732,2.850463390350342,-0.32198506593704224,0.013587228022515774,0.946647047996521,0.3258761167526245,-0.47205281257629395,-0.10259205102920532,0.16160247416985402,0.10179001721013631,-0.9813064311876367,0.023685906923349032,-0.013587646428274485,-2.813735714571231,0.20896645482749943
1783116084596524544,1.2851355075836182,2.2880616188049316,-0.06737029552459717,3.061230421066284,-0.32031387090682983,0.04321920871734619,0.9463250041007996,0.34817641973495483,-0.3419100046157837,-0.22139525413513184,0.15970283488485398,0.08924481216499193,-0.9824448449281701,0.03650307143439567,-0.04323267588957734,-2.8152155848042058,0.18830121332001773
1783116084606444544,1.295055627822876,2.4663214683532715,-0.16653016209602356,3.1512906551361084,-0.31599682569503784,0.07463233917951584,0.9458205103874207,0.24487552046775818,-0.26391762495040894,-0.33220338821411133,0.15679447672581137,0.07594690453556975,-0.9834339492621509,0.050053412179447525,-0.07470179706789151,-2.819153981975692,0.16630086016047724
1783116084616364544,1.3049755096435547,3.013542413711548,-0.2451876848936081,3.1612966060638428,-0.3096258044242859,0.10912621021270752,0.9445754885673523,0.12571167945861816,-0.2122146040201187,-0.4199785590171814,0.1531628955639524,0.06276644024314061,-0.9840468111207957,0.06521701558209028,-0.10934397072725589,-2.824836124580641,0.14487635098313248
1783116084626284544,1.3148956298828125,3.5505318641662598,-0.3163086473941803,3.263760566711426,-0.3010433316230774,0.14848549664020538,0.9419792294502258,0.07974514365196228,-0.16368325054645538,-0.5449150800704956,0.1487554568425685,0.049744119133742076,-0.9841316641880805,0.08295887720400821,-0.14903661639698126,-2.832265325175356,0.1242846160235172
1783116084636204544,1.3248155117034912,4.039818286895752,-0.42906850576400757,3.255018949508667,-0.2880084812641144,0.1909606009721756,0.9383947253227234,0.036558955907821655,-0.08500359952449799,-0.5070595145225525,0.14256132346354158,0.03666335758718779,-0.9837952900154495,0.10236589039430438,-0.19214067044681293,-2.8438029382093104,0.10340908747125362
1783116084646124544,1.334735631942749,4.183690071105957,-0.35710737109184265,3.0012855529785156,-0.2657495141029358,0.23122164607048035,0.9359029531478882,-0.07462835311889648,-0.13489285111427307,-0.4903613328933716,0.1321139882343977,0.02429191852657881,-0.9835453095159787,0.12080797947396102,-0.2333331616985285,-2.8649250236962014,0.08201726084692046
1783116084656044544,1.3446555137634277,3.636190176010132,-0.30819204449653625,2.757368803024292,-0.25259146094322205,0.2734374403953552,0.9281321167945862,-0.10943850874900818,-0.22637939453125,-0.416764497756958,0.12677186725975814,0.0130083031777744,-0.9817824837427389,0.14093529871142924,-0.276964859093765,-2.8758776914745416,0.06374683638719575
1783116084665963520,1.35457444190979,2.784837245941162,-0.18892541527748108,2.8099758625030518,-0.24074821174144745,0.30895569920539856,0.9201012253761292,-0.06816592812538147,-0.22561225295066833,-0.35537368059158325,0.12259437554520851,0.0016066797817550743,-0.9798204123476684,0.1578603816921561,-0.31409482652120513,-2.885675915568948,0.04402130599027015
1783116084675883520,1.3644945621490479,1.7379629611968994,-0.05999591946601868,2.8780343532562256,-0.2294292151927948,0.3355359435081482,0.9136618971824646,-0.10003860294818878,-0.007304102182388306,-0.3370321989059448,0.11915147719250745,-0.010749169754556306,-0.9781182952411446,0.1702117137353926,-0.3421740959144694,-2.8955699968353863,0.020737650593123838
1783116084685803520,1.3744144439697266,0.9104461669921875,0.0775676816701889,2.6265149116516113,-0.21936766803264618,0.3528972566127777,0.9095832109451294,-0.1877673715353012,0.2893604636192322,-0.31555843353271484,0.11656599193399492,-0.023527840083001204,-0.9768510826042621,0.17782247342970214,-0.36066576595194033,-2.904938057829813,-0.004820440659336631
1783116084695723520,1.3843345642089844,0.47527340054512024,0.020828504115343094,2.486250400543213,-0.20996829867362976,0.36398130655288696,0.9074309468269348,-0.24642209708690643,0.42817872762680054,-0.3068145513534546,0.11421084892182021,-0.03553338840583173,-0.9759369117819213,0.1823195315713954,-0.3725388659407995,-2.914206746107663,-0.029756127924930542
1783116084705643520,1.394254446029663,0.20719121396541595,-0.10645944625139236,2.354538679122925,-0.20023852586746216,0.3716198801994324,0.9065337777137756,-0.15461990237236023,0.4509662091732025,-0.2702573537826538,0.11159245946250967,-0.04703218746749735,-0.9752204230594648,0.18514942050283442,-0.38075323553902796,-2.9241996157832166,-0.05432632690927886
1783116084715563520,1.404174566268921,-0.4021488130092621,-0.23037898540496826,2.150020122528076,-0.18999984860420227,0.3750520646572113,0.9073235988616943,-0.12359881401062012,0.44185778498649597,-0.25818419456481934,0.10849307756108915,-0.05789119684878615,-0.9748386640072805,0.18592332332711367,-0.3844529510410375,-2.935168556106346,-0.07831744134163127
1783116084725483520,1.4140944480895996,-1.3664435148239136,-0.31340956687927246,1.9852267503738403,-0.17898237705230713,0.37059879302978516,0.911384642124176,-0.27803361415863037,0.5665807723999023,-0.25795745849609375,0.10454100291286206,-0.06819224266588848,-0.9752139006895971,0.1826989094193459,-0.37965364883300906,-2.9476753498505435,-0.10225140703595187
1783116084735402496,1.424013614654541,-2.337109327316284,-0.2824372947216034,1.474349856376648,-0.16955232620239258,0.3566432595252991,0.9187264442443848,-0.4717441201210022,0.7810826897621155,-0.2683659791946411,0.10065442085761897,-0.07731802421646831,-0.9764144297861078,0.1746586561349846,-0.36467241047825444,-2.9590945880366912,-0.12430132343447627
1783116084745322496,1.4339334964752197,-2.870650291442871,-0.312721848487854,1.1252676248550415,-0.1616515815258026,0.3341975808143616,0.9285366535186768,-0.5753326416015625,0.9956516027450562,-0.24938344955444336,0.09668148216162718,-0.08470491788867074,-0.9783115098497142,0.16243229890656213,-0.34075371873202304,-2.9692273271939316,-0.14300872957587593
1783116084755242496,1.4438536167144775,-2.7802844047546387,-0.2962946891784668,0.567979097366333,-0.15564000606536865,0.3090963661670685,0.938208818435669,-0.5965420007705688,1.028153419494629,-0.31522297859191895,0.09306927335930858,-0.08997904366842183,-0.9803102421238907,0.14910984150911866,-0.3142427354678262,-2.977199182196199,-0.1569579341774584
1783116084765162496,1.4537734985351562,-2.8523550033569336,-0.42491719126701355,0.4246179461479187,-0.1502060443162918,0.2835986912250519,0.9471060037612915,-0.6124587059020996,0.8558360934257507,-0.3771750330924988,0.0893582688899861,-0.0932548816181243,-0.982271109793147,0.13587517287690426,-0.2875448188117312,-2.984307860059183,-0.16649225922228766
1783116084775082496,1.463693618774414,-3.3320136070251465,-0.14443469047546387,0.3270573019981384,-0.14601343870162964,0.25517481565475464,0.9558066725730896,-0.6142100095748901,0.6100137829780579,-0.3224294185638428,0.08603711305587283,-0.09627378813519005,-0.9841924019283488,0.12122050090556306,-0.2580285142868616,-2.9900000318312405,-0.17531578711400572
1783116084785002496,1.4736135005950928,-4.066937446594238,0.003444376867264509,-0.03488462045788765,-0.14471442997455597,0.22023020684719086,0.964653491973877,-0.7486876845359802,0.5671385526657104,-0.17708635330200195,0.08370849750220659,-0.0987218560294658,-0.9861950769465687,0.10327697291320911,-0.2220504593578618,-2.992686072132265,-0.1829117938581434
1783116084794922496,1.4835336208343506,-4.670203685760498,-0.03119349479675293,-0.30977344512939453,-0.1442009061574936,0.17784032225608826,0.973436713218689,-0.8737739324569702,0.7103585004806519,-0.11035382747650146,0.08120110863613327,-0.0996865051476705,-0.9883222882320944,0.08178051778979263,-0.1787913562475691,-2.9945263005242517,-0.18784293597422713
1783116084804842496,1.4934535026550293,-4.558758735656738,-0.4282197654247284,-0.5474506616592407,-0.1428934782743454,0.13152138888835907,0.980960488319397,-0.7996571660041809,0.8565157055854797,-0.10698288679122925,0.07802680657521922,-0.09935033311769471,-0.9902574221735989,0.05857941915639914,-0.13190354334757953,-2.9969431229180454,-0.1904159897222086
1783116084814761728,1.5033726692199707,-3.590881586074829,0.24632534384727478,-0.348763644695282,-0.14148429036140442,0.09064910560846329,0.9857815504074097,-0.648463249206543,0.7664065361022949,-0.3107173442840576,0.07514024036589359,-0.09841115489577261,-0.9915674485881126,0.03825248057373535,-0.09077371400460563,-2.999041161793439,-0.1913628619775836
1783116084824681472,1.5132925510406494,-2.458643674850464,0.7761512994766235,-0.35416433215141296,-0.14722493290901184,0.06085952743887901,0.98722904920578,-0.830726146697998,0.4679032862186432,-0.36723387241363525,0.07648901087850113,-0.09786592517446942,-0.9919862839365152,0.023129449322207216,-0.06089716077399124,-2.9935542045775807,-0.1921594308449477
1783116084834601728,1.5232126712799072,-1.4668693542480469,0.5483431816101074,-0.056745707988739014,-0.15372852981090546,0.041561540216207504,0.9872385859489441,-0.6291541457176208,0.1482120156288147,-0.38335686922073364,0.07878281056587709,-0.09770766785894507,-0.9920042893293084,0.013188537895431032,-0.041573516313276514,-2.9871175400698275,-0.19313917070743356
1783116084844521472,1.533132553100586,-0.6372464895248413,-0.561764121055603,-0.788674533367157,-0.15413379669189453,0.03036000020802021,0.9875836968421936,-0.45275402069091797,0.37566110491752625,-0.3662456274032593,0.07841914187352016,-0.09662085002260405,-0.9921976991502234,0.007662863851985993,-0.030364665944779826,-2.986770037819911,-0.19179369829241555
1783116084854441472,1.5430524349212646,1.0194735527038574,-0.410467267036438,-0.9325690865516663,-0.14897745847702026,0.030118031427264214,0.9883817434310913,-0.8420350551605225,0.41256994009017944,-0.4761595129966736,0.07577808492828357,-0.09166022609348881,-0.9928692198080186,0.008171447729102124,-0.03012258584058525,-2.99199015342012,-0.18185759533486107
1783116084864361472,1.5529725551605225,1.5412849187850952,-0.14481407403945923,-0.48942193388938904,-0.1465124636888504,0.04318143054842949,0.988265872001648,-0.694704532623291,0.1504678577184677,-0.5724791884422302,0.07509414205868963,-0.08784121643882463,-0.9931852055467053,0.01509723892410572,-0.04319486114015381,-2.994412607609767,-0.1732438590821815
1783116084874281472,1.5628924369812012,0.9091954231262207,-0.07788296788930893,-0.6774472594261169,-0.14540138840675354,0.054460637271404266,0.9878727197647095,-0.6709743738174438,0.16457927227020264,-0.319583535194397,0.07497762934945947,-0.08463763801021185,-0.9933643946830931,0.021023895786299273,-0.054487595277231834,-2.9954555594221692,-0.16600604089579293
1783116084884201472,1.572812557220459,1.9369357824325562,-0.036188479512929916,0.10293476283550262,-0.14645497500896454,0.06424275785684586,0.9871290326118469,-0.670134425163269,-0.18146076798439026,-0.2513197660446167,0.0758899566200489,-0.0829040516790273,-0.9933234340001869,0.02600340720795823,-0.06428702925158031,-2.9943025393359153,-0.16179197568917078
1783116084894120448,1.5827314853668213,0.198110431432724,-0.029124177992343903,0.31478577852249146,-0.14486998319625854,0.07856288552284241,0.9863268733024597,-0.24764712154865265,-0.09853664040565491,-0.7157274484634399,0.07567858460155025,-0.08193801081731203,-0.9932016851709209,0.03330692223155356,-0.07864392992868306,-2.995757123801989,-0.15887725328664806
1783116084904040448,1.592651605606079,-0.062358833849430084,0.2255660593509674,-0.02690838649868965,-0.1425868570804596,0.0782906785607338,0.9866809844970703,0.08881491422653198,0.1892416626214981,0.36292827129364014,0.07454142359867495,-0.0826122563670599,-0.9932349699129829,0.03321198458813049,-0.0783708803763726,-2.998074591915758,-0.160331482791772
1783116084913960448,1.6025714874267578,-0.5146610736846924,0.4920206367969513,-1.2630201578140259,-0.14648833870887756,0.07465532422065735,0.986391544342041,0.17271818220615387,-0.34858110547065735,0.054273366928100586,0.07624329261664171,-0.07934204682746646,-0.9934287090634504,0.031485261877271215,-0.07472484596086283,-2.9941608943673526,-0.1538744687823372
1783116084923880704,1.6124916076660156,-0.7705399990081787,0.19093270599842072,-0.8999658823013306,-0.15108096599578857,0.06849691271781921,0.9861452579498291,0.5985296964645386,-0.02944967895746231,0.21508747339248657,0.07816898478716161,-0.0747885721001258,-0.993719928770778,0.028581803751283864,-0.06855058549372961,-2.989571114287055,-0.14501651527798542
1783116084933800448,1.6224114894866943,-0.314549058675766,0.3694339990615845,-0.18739929795265198,-0.15392136573791504,0.062062062323093414,0.9861321449279785,0.9198668003082275,-0.2843368351459503,0.36944347620010376,0.07927872568338334,-0.07207136443647105,-0.9939173893947791,0.025472242687255342,-0.062101971717841,-2.986756054759719,-0.13995247909062553
1783116084943720704,1.6323316097259521,-1.1320457458496094,-0.9762488007545471,-0.8817451596260071,-0.14977812767028809,0.053971756249666214,0.9872454404830933,0.9173409938812256,-0.1882185935974121,0.39138615131378174,0.07685047777525043,-0.07026595086614525,-0.9943266216823378,0.021709070467089597,-0.05399799443619855,-2.9910276613195346,-0.13702539627839175
1783116084953640448,1.6422514915466309,0.44092684984207153,0.18989932537078857,0.20072594285011292,-0.14499038457870483,0.05115887522697449,0.9881093502044678,0.8292403221130371,-0.07470319420099258,0.3389472961425781,0.07428229580860968,-0.06752524898394524,-0.994733638103521,0.02067237587170032,-0.05118121844387732,-2.9958972227385963,-0.13182165238004637
1783116084963559680,1.6521706581115723,-0.9450066685676575,-1.471695899963379,-0.6857418417930603,-0.13690069317817688,0.050551969558000565,0.9892939329147339,0.40545541048049927,-0.19505271315574646,0.39385414123535156,0.07020313818466584,-0.06802671759165445,-0.9949971569791698,0.020603371424207192,-0.05057352583175784,-3.0040837514584915,-0.1330416677024741
1783116084973479424,1.662090539932251,1.1039708852767944,-0.8867954015731812,-0.15957605838775635,-0.12600243091583252,0.048432450741529465,0.9908468723297119,0.017466679215431213,0.26875197887420654,0.6433998942375183,0.064554186322837,-0.06308301127379848,-0.9957127954365134,0.020230685768637412,-0.0484514049870132,-3.0151051566389784,-0.12347118598832983
1783116084983399680,1.6720106601715088,2.761875629425049,-0.3959082365036011,1.9393291473388672,-0.12017013877630234,0.07012654840946198,0.9902734756469727,0.586341381072998,-0.17579366266727448,0.09142208099365234,0.06250233138103183,-0.06847491203350017,-0.9952124993401033,0.030931517163429366,-0.07018415313605855,-3.020832655015855,-0.13314748392051945
1783116084993319424,1.6819305419921875,1.8340562582015991,-0.008920564316213131,0.05731311812996864,-0.11485635489225388,0.09287547320127487,0.9890308380126953,0.13243448734283447,-0.13761425018310547,0.3263682723045349,0.06079925491557407,-0.07202984100268026,-0.9946492440758974,0.04228463096589447,-0.09300951644814935,-3.0259803152745235,-0.13919586940546477
1783116085003239680,1.6918506622314453,2.5060713291168213,-0.9269654154777527,0.9537973403930664,-0.11022268980741501,0.1154785081744194,0.9871757626533508,0.13233265280723572,0.1811218559741974,0.4491952657699585,0.05943907366151241,-0.07404586266871231,-0.9940347524430159,0.0536581204070363,-0.11573671682728306,-3.0303986317673726,-0.14225737040689412
1783116085013159424,1.701770544052124,1.7996413707733154,-0.11726807802915573,0.1956147998571396,-0.10380680114030838,0.1378425806760788,0.9849994778633118,0.2905896306037903,-0.5810493230819702,0.16417062282562256,0.057191160389153436,-0.07548409006060967,-0.9933790234437981,0.06503485859815868,-0.13828286382977859,-3.036592563455564,-0.14440481572739944
1783116085023079680,1.7116906642913818,2.213153839111328,-0.009593203663825989,1.4766364097595215,-0.10261736810207367,0.15832746028900146,0.9820395708084106,0.29753315448760986,-0.846086859703064,0.10366886854171753,0.0576760894248181,-0.07883373244061792,-0.9923734385934109,0.0751903506872444,-0.1589965127012055,-3.037476382876659,-0.15024420755157492
1783116085032999424,1.7216105461120605,2.0730247497558594,0.8228081464767456,1.5842137336730957,-0.10373685508966446,0.18216682970523834,0.9777801632881165,0.506523072719574,-0.6372754573822021,-0.03202509880065918,0.05996731566713312,-0.0869434387682526,-0.9906214870471722,0.08668260778722442,-0.18318971356518918,-3.035893802400289,-0.1653668782586337
1783116085042918400,1.7315294742584229,1.6011639833450317,0.3997274339199066,0.9874280095100403,-0.10728155076503754,0.2002112716436386,0.973861575126648,0.10427555441856384,0.11398246884346008,0.2096254825592041,0.06318347875296798,-0.09292434917277617,-0.9890884014874489,0.09527394631656819,-0.20157356005436833,-3.0318740693893447,-0.17624226050476463
1783116085052838656,1.7414495944976807,1.180622935295105,-0.5918960571289062,0.7633534073829651,-0.10470741987228394,0.21494685113430023,0.9709967374801636,0.37619176506996155,0.33475106954574585,0.08443868160247803,0.06302970476493966,-0.09667492233740448,-0.9880042217695056,0.1026109323107661,-0.2166374097667027,-3.034172759215176,-0.18338399805763095
1783116085062758400,1.7513694763183594,0.8655375242233276,-0.5958854556083679,0.13008691370487213,-0.09738796949386597,0.22436058521270752,0.9696277379989624,0.508398711681366,0.02641761302947998,-0.0593189001083374,0.06000789059792161,-0.09815187833048022,-0.9875120589317253,0.10763453798090694,-0.22628684171783361,-3.0414898475332457,-0.18675150028730905
1783116085072678656,1.7612895965576172,1.4865243434906006,-1.111798644065857,0.5590038895606995,-0.08861243724822998,0.2361818552017212,0.9676598310470581,0.42072001099586487,-0.03652065992355347,-0.2717372179031372,0.056276341402342035,-0.09854469461461114,-0.9869745960318814,0.11403048856164814,-0.23843465884685058,-3.050273389086846,-0.18808457187457778
1783116085082598400,1.771209478378296,0.6087538003921509,-0.5339834690093994,0.24910353124141693,-0.07790347933769226,0.24845793843269348,0.965505063533783,0.4969250559806824,-0.1031026542186737,-0.24936413764953613,0.051777140951225306,-0.10036429228480113,-0.986245174330514,0.12069250003407185,-0.2510879528817732,-3.0610803123039063,-0.19266316936213043
1783116085092518656,1.7811295986175537,0.7502139806747437,-1.2097259759902954,-0.6954344511032104,-0.07207419723272324,0.2526841163635254,0.9648607969284058,-0.06969521939754486,0.5332350730895996,0.06748795509338379,0.04880658258032852,-0.09819103546878737,-0.9863006199096384,0.12323797130237929,-0.2554533912314771,-3.0670320655068783,-0.1888759741847273
1783116085102438400,1.7910494804382324,1.5993199348449707,0.02074975147843361,0.15969344973564148,-0.06557417660951614,0.26501351594924927,0.9620120525360107,0.05338243395090103,0.28303632140159607,-0.2247534990310669,0.04593934844265461,-0.09619185284233671,-0.9857754015514482,0.12993606244204234,-0.2682179543634846,-3.0735343551724768,-0.18535800399649047
1783116085112358656,1.8009696006774902,-0.13431718945503235,0.2921610176563263,-0.10461010783910751,-0.0674121305346489,0.27285945415496826,0.9596893191337585,0.027998678386211395,-0.26841914653778076,0.06564033031463623,0.04729347143675866,-0.09626755590126793,-0.9851787783279776,0.13386087596978127,-0.27636401081601436,-3.0714641440190626,-0.1850566104777802
1783116085122277376,1.8108885288238525,0.4277402460575104,0.29357895255088806,0.08438907563686371,-0.06825975328683853,0.2739189565181732,0.9593275189399719,0.27638962864875793,-0.0007255971431732178,0.3765033483505249,0.04773275515777214,-0.09594128544799925,-0.985118787386887,0.13437967588506783,-0.2774655020149241,-3.0705586203407322,-0.184246263918097
1783116085132197632,1.8208086490631104,-1.317060112953186,0.1034068912267685,0.22599945962429047,-0.06978695839643478,0.2706379294395447,0.9601486921310425,0.344811350107193,-0.1453174352645874,0.21764695644378662,0.04849325615913649,-0.09717577394230736,-0.9852061749374188,0.1325677734673564,-0.2740556164047816,-3.0690367501555773,-0.18662474295389803
1783116085142117376,1.830728530883789,-2.548698663711548,-0.03840484097599983,-0.734341025352478,-0.07091911882162094,0.2521926462650299,0.9650745987892151,0.20867547392845154,-0.1956741213798523,0.5908792018890381,0.048027842249684066,-0.09681991581718524,-0.986490350880025,0.12310943702473337,-0.25494547533387896,-3.068238875162053,-0.18625926428798456
1783116085152037632,1.8406486511230469,-3.6635901927948,0.11060194671154022,-0.9020237922668457,-0.07272034883499146,0.22057433426380157,0.9726554751396179,0.025738537311553955,-0.4829949736595154,0.3936622142791748,0.046950890788438275,-0.09393754921672409,-0.9886877524102231,0.10708812188209436,-0.222403266538635,-3.0669667370489617,-0.1811192526390321
1783116085161957376,1.8505685329437256,-4.035785675048828,0.0059758261777460575,-1.1452181339263916,-0.07493459433317184,0.18163911998271942,0.9805061221122742,0.20699942111968994,-0.16831819713115692,0.2844475507736206,0.045742433503684427,-0.08990130942111642,-0.9910453090348148,0.08749070390402765,-0.18265303566634836,-3.065316524490317,-0.17394321631744247
1783116085171877632,1.8604886531829834,-2.5105643272399902,0.064203180372715,-1.0390526056289673,-0.07658610492944717,0.14885388314723969,0.9858889579772949,0.30201947689056396,0.3765367269515991,0.0886654257774353,0.044664344960286255,-0.0850601370885827,-0.9928289159126794,0.07113791934595035,-0.14940913611343776,-3.0640660677968135,-0.16512634696879153
1783116085181797632,1.870408535003662,-2.119330644607544,-0.041434526443481445,-1.3800041675567627,-0.07692747563123703,0.12607784569263458,0.989033043384552,0.2801592946052551,0.5717370510101318,-0.19701045751571655,0.043533839181773684,-0.08029191464890999,-0.9940169617258362,0.05990190267443442,-0.12641427158092197,-3.063968449941627,-0.156284993134809
1783116085191716352,1.8803274631500244,-0.6256603598594666,-0.46440309286117554,-0.9157492518424988,-0.0736749991774559,0.11234720796346664,0.9909340739250183,0.3234918713569641,0.7360109686851501,-0.21128618717193604,0.04102334166666922,-0.07452139104362206,-0.9949440247067692,0.05338640615598172,-0.11258489621898479,-3.067380156260349,-0.14533705457663154
1783116085201636608,1.8902475833892822,-0.9027250409126282,-0.5352384448051453,-0.8943716287612915,-0.06840783357620239,0.10593973100185394,0.9920166730880737,0.5722377896308899,0.44037067890167236,-0.354672372341156,0.037924362281030806,-0.0702685777952728,-0.9955253206229029,0.050531084601100125,-0.10613890222151269,-3.072743299688138,-0.13727642247855715
1783116085211556352,1.900167465209961,-1.5190712213516235,-0.3099192976951599,-1.0376665592193604,-0.06437705457210541,0.09306163340806961,0.9935767650604248,0.2133028507232666,0.2311265766620636,0.01844698190689087,0.03523530563452365,-0.06565338600452274,-0.9962319116324123,0.044384746248727486,-0.09319648788041222,-3.0768898613671793,-0.12859482407040437
1783116085221476608,1.9100875854492188,-1.8471060991287231,0.08238895237445831,-1.1161746978759766,-0.06367945671081543,0.07505343854427338,0.9951440691947937,0.16377711296081543,0.13670802116394043,0.11597031354904175,0.034097205444502156,-0.060539211128596525,-0.9969488581812761,0.03557103219694175,-0.07512407781440314,-3.077689591618093,-0.11889774777096712
1783116085231396352,1.9200074672698975,-1.6492329835891724,0.2366592288017273,-1.1298953294754028,-0.06470519304275513,0.05820244923233986,0.9962056875228882,0.2501452565193176,0.10250312089920044,0.07207739353179932,0.03395066986222997,-0.05546928439581953,-0.9975099064081254,0.02728595016695751,-0.05823536048918426,-3.0767321204399147,-0.1092113023293863
1783116085241316608,1.9299275875091553,-0.7391029596328735,-0.35991933941841125,-1.2572853565216064,-0.06442464143037796,0.04527255892753601,0.9968950152397156,0.43640342354774475,0.365646630525589,0.07314270734786987,0.033325981463033214,-0.049783380862469445,-0.997982520786725,0.021019605854233993,-0.04528803794991738,-3.077057094625558,-0.09822330303788677
1783116085251236352,1.939847469329834,0.5838494300842285,-0.44264617562294006,-1.4837669134140015,-0.059237055480480194,0.04397411644458771,0.9972747564315796,0.3332086205482483,0.625963032245636,-0.2842774987220764,0.030547987972156333,-0.04251689685154556,-0.9984135922230543,0.020721124711459028,-0.04398830106276854,-3.0822634314317576,-0.08381198473587746
1783116085261156608,1.9497675895690918,2.398331880569458,-0.07031198590993881,-0.900954008102417,-0.058213550597429276,0.05848472937941551,0.9965894222259521,0.20037969946861267,0.6738303303718567,-0.4218825101852417,0.03017222693293471,-0.03617684587649263,-0.9984918403197569,0.02819334907502519,-0.058518122251066264,-3.083246181471523,-0.07072315632663122
1783116085271075584,1.959686517715454,3.3202998638153076,-0.2840711176395416,-0.24113911390304565,-0.05646824464201927,0.08782262355089188,0.9945344924926758,0.45609593391418457,0.4908822178840637,-0.28277289867401123,0.029706853882708568,-0.03291808795855504,-0.9980899955185116,0.04301557787466482,-0.08793590838943505,-3.084874979592811,-0.06344223144619349
1783116085280995584,1.969606637954712,2.795347213745117,0.25496959686279297,-0.25502869486808777,-0.05677419900894165,0.11826901137828827,0.9913568496704102,0.33413323760032654,-0.17436036467552185,-0.053277432918548584,0.030296883864232613,-0.03135644335669521,-0.9973440785454207,0.058339448971011905,-0.11854647886176316,-3.0843859554847084,-0.0594634487926844
1783116085290915584,1.9795265197753906,2.199183940887451,0.13253769278526306,-0.11082305759191513,-0.058590054512023926,0.14344041049480438,0.9879231452941895,0.2510491609573364,-0.5734178423881531,0.08077192306518555,0.03155458531633131,-0.03027132499528049,-0.9965165359381972,0.07101237829514084,-0.14393691226726782,-3.0823557490873386,-0.05646380188928216
1783116085300835584,1.9894466400146484,1.5296603441238403,-0.14605727791786194,-0.042962223291397095,-0.05860815569758415,0.16167661547660828,0.9851017594337463,0.42542946338653564,-0.37806153297424316,0.1440179944038391,0.03179769573859,-0.029427143195331837,-0.99583378363617,0.08023687655295532,-0.162389384772518,-3.0821681817847364,-0.054246317851011916
1783116085310755584,1.9993665218353271,1.356920838356018,-0.0141748683527112,0.048021480441093445,-0.05743545666337013,0.17597338557243347,0.9827179312705994,0.35356277227401733,-0.24012133479118347,0.01921987533569336,0.03141456467613458,-0.029117550064582998,-0.9952442610998747,0.0874880460271446,-0.17689449320277806,-3.0832135510505663,-0.05331825148133558
1783116085320675584,2.009286642074585,1.0833313465118408,-0.07035268843173981,-0.21340639889240265,-0.05707278102636337,0.18787133693695068,0.9805338978767395,0.23656192421913147,-0.14479580521583557,0.07291746139526367,0.03138007704613666,-0.02862841374484289,-0.9947096876954733,0.0935321176187891,-0.18899443510114233,-3.0834524310459623,-0.05203341489892076
1783116085330595584,2.0192065238952637,0.47951528429985046,-0.16076408326625824,-0.0544806569814682,-0.056129347532987595,0.19573281705379486,0.9790496230125427,0.1377791315317154,-0.011528730392456055,0.13775640726089478,0.03092145035808145,-0.02749578594534541,-0.9943685441317831,0.09756563332115563,-0.19700466138738684,-3.084324899839544,-0.049628065509260855
1783116085340515584,2.0291266441345215,0.11746173352003098,-0.30901825428009033,-0.29073527455329895,-0.05344473570585251,0.19934724271297455,0.9784702062606812,0.3638848066329956,0.017251238226890564,0.23078864812850952,0.029530724661641975,-0.026527955098092817,-0.994249143281254,0.0994622282484556,-0.20069175577861884,-3.0870261651818796,-0.04785480456710082
1783116085350434560,2.039045572280884,-0.5284256339073181,-0.5137585997581482,-0.23060056567192078,-0.04944038391113281,0.19678203761577606,0.9791998267173767,0.1848926544189453,-0.11298078298568726,0.16919177770614624,0.027309070568859877,-0.02481318844715126,-0.9944768623143264,0.09825607760281324,-0.1980747001809066,-3.091144896745714,-0.04487797496126362
1783116085360354304,2.0489654541015625,-1.1595392227172852,-0.45805081725120544,-0.09615647047758102,-0.04393983632326126,0.18910366296768188,0.980973482131958,0.27237915992736816,-0.23556670546531677,0.08747732639312744,0.02436699629916565,-0.024075887183919474,-0.9949407425326529,0.0944429873598815,-0.19024926261401054,-3.0968304978479186,-0.04411560038965697
1783116085370274560,2.0588855743408203,-1.0590498447418213,-0.6864416599273682,-0.13975560665130615,-0.03836099058389664,0.1772131770849228,0.9834246039390564,0.22087137401103973,-0.09731817245483398,0.0838971734046936,0.021336892897165605,-0.023298927820258837,-0.9955749331566941,0.08850108516543628,-0.17815408473233424,-3.102604862556772,-0.04331385905602485
1783116085380194304,2.068805456161499,-0.7168368697166443,-0.5516156554222107,-0.22554844617843628,-0.03213081881403923,0.1686890423297882,0.9851453304290771,0.20917856693267822,0.2397887110710144,-0.10817712545394897,0.018023928259578586,-0.022389880378890142,-0.9960277962854239,0.08427572824357482,-0.16949950024281063,-3.1089889021868395,-0.042180733481932284
1783116085390114560,2.078725576400757,-0.4121531844139099,-0.5033088326454163,-0.21512402594089508,-0.026663411408662796,0.16339050233364105,0.9862010478973389,0.1536775678396225,0.34053099155426025,-0.10727959871292114,0.015113020655306316,-0.02112851519427633,-0.9963202812436435,0.08167648519378017,-0.16412637508877612,-3.114562750497066,-0.04018345391799906
1783116085400034304,2.0886454582214355,-0.13834993541240692,-0.7106494903564453,-0.21140442788600922,-0.02115611545741558,0.16140274703502655,0.9866619110107422,0.25633981823921204,0.25998395681381226,-0.1339092254638672,0.01220419521048684,-0.019604601798119254,-0.9964670633528241,0.08074739171627679,-0.16211187395203389,-3.12015382548209,-0.037601517632651044
1783116085409954560,2.0985655784606934,-0.04798062890768051,-0.6724054217338562,-0.1603473573923111,-0.014001219533383846,0.16078020632266998,0.9868911504745483,0.3777554929256439,0.2270219624042511,-0.12347233295440674,0.008517838317303598,-0.01847962292047515,-0.9965460741220351,0.08051077296827848,-0.16148108851884077,-3.1274064082477406,-0.03593517691494402
1783116085419874304,2.108485460281372,-0.050077736377716064,-0.6846365928649902,-0.20424778759479523,-0.006867137737572193,0.16020312905311584,0.9870600700378418,0.22432014346122742,0.13377268612384796,-0.15235865116119385,0.004830405129776275,-0.017193402247901442,-0.9966114657845212,0.08029058141352127,-0.16089643772265946,-3.134635602769203,-0.0339394017748397
1783116085429793536,2.1184046268463135,-0.3727031648159027,-0.6569913625717163,0.015396160073578358,-0.0003455507103353739,0.15837331116199493,0.9873794317245483,0.24231941998004913,-0.06321945786476135,-0.1512587070465088,0.001500127048050776,-0.01664997051633517,-0.9967008093974793,0.07942371307982,-0.15904295449944938,-3.1412426860978213,-0.03337917494092268
1783116085439713536,2.128324508666992,-0.4742531180381775,-0.5438682436943054,-0.05732990801334381,0.005862579680979252,0.1542416661977768,0.9880156517028809,0.20951522886753082,-0.09634983539581299,-0.10398256778717041,-0.0016896547658650453,-0.01611215284459457,-0.9968692112233242,0.07739034904694689,-0.15485988695258682,3.1356590319104525,-0.032783055578137245
1783116085449633536,2.13824462890625,-0.6373288631439209,-0.35880807042121887,0.062028441578149796,0.010588547214865685,0.1489211469888687,0.9887926578521729,0.15049849450588226,-0.053340062499046326,-0.08727264404296875,-0.004103747267053245,-0.01608879480938769,-0.9970644329175856,0.07474602026243263,-0.14947716497014435,3.130884500803161,-0.033071344633642814
1783116085459553536,2.1481645107269287,-0.4176372289657593,-0.3501929044723511,-0.09551524370908737,0.014727167785167694,0.14368338882923126,0.9895142912864685,0.1493353396654129,0.09720712900161743,-0.02619624137878418,-0.006229655163488601,-0.015956216158615564,-0.9972474869777627,0.07213965810351801,-0.14418242079978455,3.1267105234644834,-0.03307253977677772
1783116085469473536,2.1580846309661865,-0.4495203495025635,-0.14150947332382202,-0.09426195919513702,0.01764964498579502,0.13973011076450348,0.9900323152542114,0.18571949005126953,0.12218700349330902,-0.057369351387023926,-0.007753959313865814,-0.015550265780385143,-0.9973837469620583,0.0701692130500424,-0.14018884855022146,3.1237671983801762,-0.032431133691511856
1783116085479393536,2.1680045127868652,-0.3107568621635437,-0.09377454966306686,-0.10735872387886047,0.018969107419252396,0.1367536038160324,0.9904235601425171,0.1284307986497879,0.09632441401481628,-0.03203415870666504,-0.00849430655039057,-0.014729474260751071,-0.997494276638361,0.0686739974501933,-0.13718348382587522,3.122442474211661,-0.03084645361019025
1783116085489313536,2.177924633026123,-0.39393511414527893,-0.1859276294708252,-0.10910442471504211,0.020245613530278206,0.13303612172603607,0.9909043908119202,0.23597997426986694,0.13083411753177643,-0.008940339088439941,-0.009190668998978519,-0.01427966707008573,-0.9976213147365918,0.0668082148172471,-0.13343170327467566,3.1211640467320865,-0.029990459893841356
1783116085499233536,2.1878445148468018,-0.4219474494457245,-0.15676674246788025,-0.23422525823116302,0.022161543369293213,0.12949728965759277,0.9913321137428284,0.2528628706932068,0.10120034217834473,-0.08560097217559814,-0.010241589916390249,-0.01325980060146109,-0.9977425758507005,0.06503124646354941,-0.12986197780305708,3.119241060491277,-0.028031452976011745
1783116085509152512,2.197763442993164,-0.3591919243335724,-0.2811789810657501,-0.24330876767635345,0.024699242785573006,0.12575672566890717,0.9917534589767456,0.26009079813957214,0.08798837661743164,-0.10733890533447266,-0.01161515388083881,-0.012022868550713535,-0.9978638127531831,0.06315291605884385,-0.1260905742669942,3.116693182205263,-0.025668004127598183
1783116085519074560,2.2076854705810547,-0.25142809748649597,-0.2730850577354431,-0.20976875722408295,0.02765190787613392,0.12321849167346954,0.9919942021369934,0.27763068675994873,0.16895678639411926,-0.12219750881195068,-0.013191748975378715,-0.010688641163905348,-0.9979393071758272,0.06187775974606089,-0.12353244362512578,3.113724800248539,-0.02314420134017264
1783116085528994560,2.2176055908203125,-0.06015640124678612,-0.20166175067424774,-0.23317153751850128,0.030045663937926292,0.12225386500358582,0.9920438528060913,0.22675974667072296,0.1819911152124405,-0.05544424057006836,-0.014470594484848796,-0.00947562401260841,-0.9979639951307694,0.06138904033808681,-0.12256046925297977,3.1113152803578026,-0.020847211517983376
1783116085538914560,2.227525472640991,-0.07801848649978638,-0.14845791459083557,-0.32552570104599,0.03202133998274803,0.12173105776309967,0.992046594619751,0.23113173246383667,0.10174918174743652,-0.004619717597961426,-0.015548201600898348,-0.00808188853527924,-0.9979769374407702,0.06111482563790059,-0.122033722286946,3.1093257954945814,-0.018167630411620474
1783116085548834560,2.237445592880249,-0.08007178455591202,-0.12281301617622375,-0.31343626976013184,0.0334148034453392,0.12121663242578506,0.9920634627342224,0.1861286461353302,0.01966775208711624,0.013170242309570312,-0.016347641472646442,-0.0064529202357760055,-0.997993024331198,0.06083590401384663,-0.12151546462893344,3.1079232590315278,-0.014980003380752439
1783116085558754560,2.2473654747009277,-0.12050323188304901,-0.13573569059371948,-0.33184531331062317,0.034569449722766876,0.12055878341197968,0.9921040534973145,0.22693568468093872,-0.021224074065685272,0.09204810857772827,-0.017030137842718163,-0.0047689666198140294,-0.9980126648149201,0.060480802211252495,-0.12085274962522945,3.1067621658360984,-0.011664310800314985
1783116085568674560,2.2572855949401855,-0.30098140239715576,0.005158577114343643,-0.21110185980796814,0.0354863665997982,0.11848269402980804,0.9923219084739685,0.2273920476436615,-0.00901612639427185,0.18153679370880127,-0.017568999242126355,-0.0035014801078256815,-0.9980724887900052,0.05941739389343652,-0.11876167634515479,3.1058469430292956,-0.00914179036178589
1783116085578594560,2.2672054767608643,-0.3176611065864563,0.16109414398670197,-0.03438930585980415,0.0353052094578743,0.11599443107843399,0.992622435092926,0.2077520489692688,-0.0320710614323616,0.1838456392288208,-0.01752037698669737,-0.0028311267358450062,-0.9981498922671576,0.058154410736951365,-0.11625613229527913,3.106040028729424,-0.007741887698409812
1783116085588513536,2.2771246433258057,-0.28176888823509216,0.06109059229493141,-0.06581807136535645,0.034473635256290436,0.11287716776132584,0.9930108189582825,0.23612573742866516,-0.0021898970007896423,0.2402656078338623,-0.0171210641984954,-0.0025759627647907787,-0.9982478511665868,0.05658182805366155,-0.11311825441627095,3.10689031553319,-0.007125983251054632
1783116085598433536,2.2870445251464844,-0.19421958923339844,0.22105814516544342,0.11720128357410431,0.03380124270915985,0.11092932522296906,0.9932532906532288,0.26788026094436646,-0.02360329031944275,0.26059186458587646,-0.016778984413646694,-0.0026980567168488844,-0.9983082463662621,0.05560400220372724,-0.11115809903289987,3.107574942035275,-0.007298047677749617
1783116085608353536,2.296964645385742,-0.017306871712207794,0.3746650218963623,0.11461641639471054,0.03150627017021179,0.11023188382387161,0.9934064149856567,0.2167389690876007,-0.07640314847230911,0.30731379985809326,-0.015587917655355719,-0.003456797378733183,-0.9983442571219414,0.05526132354811795,-0.11045635021016499,3.1098878921864737,-0.008677958168282304
1783116085618273536,2.306884527206421,-0.04667980596423149,0.41847795248031616,0.10009893029928207,0.028790809214115143,0.1103910505771637,0.9934712648391724,0.16476693749427795,-0.1514676958322525,0.3046855926513672,-0.01419098804226871,-0.004114540562048565,-0.9983580095341984,0.05534479016942189,-0.11061649641863797,3.1126207503390644,-0.009846702472701006
1783116085628193536,2.3168046474456787,-0.07680309563875198,0.5254435539245605,-0.05337345227599144,0.026144642382860184,0.11036358773708344,0.9935473203659058,0.2651608884334564,-0.09692060202360153,0.34347349405288696,-0.012849077499383675,-0.004412090897860736,-0.9983757722973459,0.05532834992156803,-0.11058886282924342,3.1152842828773872,-0.0102947543187587
1783116085638113536,2.3267245292663574,0.03221753612160683,0.5102006793022156,-0.18948741257190704,0.0252761822193861,0.11168213188648224,0.9934225678443909,0.18094635009765625,-0.061083972454071045,0.2704629898071289,-0.012433060321328314,-0.004029615134173008,-0.9983461536050793,0.0559837536259709,-0.11191560879569402,3.116154606772692,-0.009497559099963108
1783116085648033536,2.3366446495056152,0.16724592447280884,0.6087823510169983,-0.30106320977211,0.022312674671411514,0.11334797739982605,0.9933046698570251,0.19956538081169128,0.05428505688905716,0.2122768759727478,-0.011004035786935625,-0.0030066678996473577,-0.998320231443103,0.05680248958083273,-0.11359210353575536,3.119133356946416,-0.007300461386438302
1783116085657953536,2.346564531326294,0.31879404187202454,0.7110904455184937,-0.4026700556278229,0.01677769422531128,0.11613109707832336,0.9930921792984009,0.13336879014968872,0.17744801938533783,0.18851792812347412,-0.008316031927450155,-0.0014988045566992493,-0.9982704303030349,0.05817863694604248,-0.11639372703254397,3.1246998631255645,-0.003987042588669546
1783116085667872512,2.3564834594726562,0.4220956563949585,0.9317224621772766,-0.4838474690914154,0.009182714857161045,0.12051795423030853,0.9926685094833374,0.08856508880853653,0.15754294395446777,0.20871680974960327,-0.004626031779470703,0.0004337927052428024,-0.9981653477033602,0.06036772472071519,-0.12081162426393133,3.132342382048835,0.00030972521339667826
1783116085677792512,2.366403579711914,0.546531081199646,1.0931400060653687,-0.47050222754478455,-0.0007574169430881739,0.12575048208236694,0.9920613169670105,0.11136838048696518,0.12569907307624817,0.2677040100097656,0.00022239326413004722,0.0024881724652052305,-0.9980102485718692,0.06300114869558238,-0.12608427744075987,-3.140829175750697,0.005034450368004543
1783116085687712512,2.3763234615325928,0.4200122654438019,1.0581939220428467,-0.604388952255249,-0.011469060555100441,0.1301501840353012,0.9914276599884033,0.1653539538383484,0.04456290602684021,0.3115047812461853,0.005430544573477744,0.00483889797968241,-0.9978428788346603,0.06524210541862606,-0.13052045146736482,-3.1300249424636655,0.010454633008649428
1783116085697632512,2.3862435817718506,0.6690067648887634,1.2533423900604248,-0.5046335458755493,-0.023096421733498573,0.13586492836475372,0.9904584288597107,0.23336252570152283,-0.032990142703056335,0.2554830312728882,0.01107595658485548,0.007319106094974254,-0.9975849037892981,0.06817818718049076,-0.13628643394345058,-3.118277958635074,0.016264663415926934
1783116085707552512,2.3961634635925293,0.4260109066963196,1.2578539848327637,-0.4433925151824951,-0.03582228720188141,0.14093665778636932,0.9893702268600464,0.2474616914987564,-0.13680154085159302,0.24511146545410156,0.017309915611671143,0.009150429508876751,-0.9972970318248533,0.07081813983933333,-0.14140744951575482,-3.105401300578796,0.020913357928385484
1783116085717472512,2.406083583831787,0.45633265376091003,1.2167145013809204,-0.44044530391693115,-0.04827256128191948,0.14520519971847534,0.9882234334945679,0.20987838506698608,-0.09198252856731415,0.2628142833709717,0.023400490338543543,0.011031837065964561,-0.9969904771326785,0.07308068863532698,-0.14572036792069357,-3.092783629609475,0.02569261913039237
1783116085727392512,2.416003465652466,0.17242930829524994,1.3179880380630493,-0.31380560994148254,-0.06123283877968788,0.14807212352752686,0.9870793223381042,0.21218803524971008,-0.09501729905605316,0.2895627021789551,0.029787467097288283,0.012425862736297392,-0.9966871379599451,0.07465351486014968,-0.1486186244872096,-3.079637678828727,0.029546832497975697
1783116085737312512,2.4259235858917236,0.17039139568805695,1.1894372701644897,-0.4308367669582367,-0.0735756903886795,0.1496019959449768,0.9860053658485413,0.1736733317375183,-0.06787589192390442,0.3856532573699951,0.03586721679211067,0.013891595997254947,-0.9963983721845994,0.07557142748182939,-0.15016571931105935,-3.0671107248155307,0.03348724412019745
1783116085747231488,2.435842514038086,-0.07102096825838089,1.425581455230713,-0.31672191619873047,-0.08668814599514008,0.1499510109424591,0.9848856925964355,0.21048270165920258,-0.1273374855518341,0.47367143630981445,0.042349671836230555,0.015275390545223259,-0.996097133114826,0.07591871299927445,-0.15051872152091053,-3.053800413689937,0.0372920006137769
1783116085757151488,2.4457626342773438,-0.2835913598537445,1.4739861488342285,-0.37859225273132324,-0.10127580165863037,0.14790327847003937,0.9838025569915771,0.18962422013282776,-0.18090806901454926,0.555641233921051,0.04961496496031028,0.016395208501917634,-0.9958074475332261,0.07507986289216144,-0.14844789632402972,-3.0390107782483633,0.040560196879137186
1783116085767071488,2.4556825160980225,-0.5901390314102173,1.4100165367126465,-0.3450007438659668,-0.11608922481536865,0.1431455761194229,0.9828696846961975,0.20858798921108246,-0.23591899871826172,0.5319466590881348,0.05701366064457517,0.017620092551862695,-0.995552293823879,0.07290161567148488,-0.1436389905937701,-3.0240248134705854,0.04386184575395561
1783116085776991488,2.4656026363372803,-0.7361606359481812,1.3282110691070557,-0.4321165382862091,-0.12998993694782257,0.136247918009758,0.982109546661377,0.24665865302085876,-0.1383994072675705,0.43509626388549805,0.06397917231475371,0.018864704181061974,-0.9953385862040002,0.06965560375689281,-0.13667302443123477,-3.009999654605145,0.04692115668859836
1783116085786911488,2.475522518157959,-0.8343239426612854,1.4900561571121216,-0.33590933680534363,-0.1439352035522461,0.12807923555374146,0.9812635779380798,0.1813192367553711,-0.036785900592803955,0.3487992286682129,0.07099707650617211,0.020038020632050686,-0.9951031492609016,0.0657843921264072,-0.12843201506410645,-2.9959477666697136,0.049649942192678445
1783116085796831488,2.485442638397217,-0.7555747032165527,1.7750416994094849,-0.4209808111190796,-0.16034053266048431,0.11968828737735748,0.9797780513763428,0.08281068503856659,0.05406350642442703,0.32278817892074585,0.07928450210196965,0.021106993785008313,-0.9947077568431884,0.061844900950639096,-0.11997590991259519,-2.979380678656206,0.0521960023420303
1783116085806751488,2.4953625202178955,-0.5678325295448303,1.826086163520813,-0.35456955432891846,-0.17798398435115814,0.11302582174539566,0.9775210022926331,0.08254024386405945,0.06736359000205994,0.31857597827911377,0.08821135796700673,0.022096025115406103,-0.9941188368763418,0.05880789135177571,-0.11326786610176584,-2.961488731465869,0.054684690459788424
1783116085816671488,2.5052826404571533,-0.511859655380249,1.8666553497314453,-0.31028348207473755,-0.19595947861671448,0.10698363929986954,0.9747586846351624,0.1326049566268921,-0.01411864161491394,0.4247927665710449,0.09733491746168538,0.022939209897041568,-0.9934048183182017,0.05609456130094841,-0.10718878128952404,-2.9432032136109703,0.056852497009643246
1783116085826591488,2.515202522277832,-0.4271168112754822,2.1670565605163574,-0.14312566816806793,-0.21559680998325348,0.10194332897663116,0.9711464643478394,0.07777944207191467,-0.08465512841939926,0.45320039987564087,0.10734933002248108,0.023304564945873154,-0.9924868438299368,0.05387818996227669,-0.1021207348237411,-2.923133231767254,0.05816215196289479
1783116085836510464,2.5251214504241943,-0.39163801074028015,1.9089895486831665,-0.11129453778266907,-0.23541037738323212,0.09811422228813171,0.9669309854507446,0.08762902021408081,-0.07987996935844421,0.45325028896331787,0.11750709177054265,0.023080247281701664,-0.9914296670314252,0.05221671757226188,-0.09827232065410782,-2.9027773549235127,0.05835103470946744
1783116085846430464,2.535041570663452,-0.48110902309417725,1.933192253112793,0.01475367322564125,-0.2533382177352905,0.09351553022861481,0.9628471732139587,0.25443679094314575,-0.11116994172334671,0.515546441078186,0.1267536572990427,0.022572741031614066,-0.9904110599522115,0.05009934182352263,-0.09365237000118103,-2.884310349442847,0.05769784410581995
1783116085856350464,2.544961452484131,-0.36228129267692566,2.0787792205810547,0.019113335758447647,-0.27269119024276733,0.08932128548622131,0.9579463005065918,0.16566607356071472,0.01993163675069809,0.4334263205528259,0.13677325780617908,0.021817221004837396,-0.9891901523615164,0.04816531570930326,-0.08944048752882315,-2.864265864977629,0.056594516429969946
1783116085866270464,2.5548815727233887,-0.2062850445508957,1.8628349304199219,0.13359171152114868,-0.29118767380714417,0.08700916171073914,0.9527009725570679,0.23592033982276917,0.12873485684394836,0.38651716709136963,0.14638488217878573,0.020847224799744015,-0.9878845446170247,0.04712726788720917,-0.08711932294364966,-2.844965629593488,0.05522413722455804
1783116085876190464,2.5648014545440674,-0.09864473342895508,1.768844723701477,0.15023866295814514,-0.30798640847206116,0.08608588576316833,0.9474878311157227,0.3189728260040283,0.13008537888526917,0.4122684597969055,0.155161225389855,0.019539586535732713,-0.9865911657373253,0.04670093456171448,-0.08619256997629582,-2.827310284125383,0.053270367366503396
1783116085886110464,2.574721574783325,-0.0540999099612236,1.5731189250946045,0.022822916507720947,-0.3232024013996124,0.08580593019723892,0.9424316883087158,0.22147208452224731,0.13451571762561798,0.4000517725944519,0.1631268279004251,0.018615694269047606,-0.9853270004742565,0.04662379514345506,-0.08591157380340285,-2.8112165228738246,0.05211196791340941
1783116085896030464,2.584641456604004,0.06619933992624283,1.4928247928619385,0.034007929265499115,-0.33684882521629333,0.08587830513715744,0.9376340508460999,0.2415119707584381,0.04958921670913696,0.3539155125617981,0.17027685546481286,0.01821459566571068,-0.9841164851472198,0.04678376593663701,-0.08598421425294965,-2.7966976116982467,0.05199839670445322
1783116085905950464,2.5945615768432617,-0.05179494246840477,1.851825475692749,0.02578382007777691,-0.35210028290748596,0.08590143173933029,0.9320119619369507,0.16618719696998596,0.021474666893482208,0.2911325693130493,0.17831350207794572,0.017521013925427216,-0.982699845857142,0.046886086126932236,-0.08600743011354808,-2.7803824346544657,0.05136902360586811
1783116085915869440,2.604480504989624,-0.0029628206975758076,1.804942011833191,-0.004196115769445896,-0.3690066933631897,0.08580291271209717,0.9254580140113831,0.05514860153198242,0.06756318360567093,0.19778752326965332,0.18724879370157788,0.0171311606101098,-0.9810379845706744,0.0470004695305589,-0.08590854599490673,-2.7621826720968805,0.0514264361299946
1783116085925789696,2.614400625228882,-0.23124180734157562,1.5462584495544434,-0.06489115953445435,-0.3839277923107147,0.08495302498340607,0.9194468855857849,0.23750445246696472,-0.002570830285549164,0.18281757831573486,0.19518249477280028,0.016709752245997744,-0.97951224166284,0.046694633363436336,-0.0850555456043616,-2.7460373022285482,0.05116999219725268
1783116085935709440,2.6243205070495605,-0.10327138006687164,1.354012370109558,-0.11045973747968674,-0.39687350392341614,0.08285385370254517,0.9141261577606201,0.14981845021247864,0.08233779668807983,0.19146466255187988,0.202083800206694,0.016762988231519473,-0.9781523834633877,0.04581541320931063,-0.08294894389038152,-2.731992286088734,0.051510424903462824
1783116085945629696,2.6342406272888184,-0.20665183663368225,1.0944364070892334,-0.11943379789590836,-0.40781450271606445,0.08101830631494522,0.9094634056091309,0.17137950658798218,0.08122839778661728,0.1410738229751587,0.20794691339040078,0.016686719993184822,-0.9769612359610008,0.04501622386516223,-0.08110720398039578,-2.720059921663191,0.051518600208663806
1783116085955549440,2.644160509109497,-0.28693482279777527,1.203916311264038,-0.11545789241790771,-0.41818174719810486,0.07827212661504745,0.9049847722053528,0.06999149918556213,0.10252925753593445,0.10253775119781494,0.21351796834064005,0.016841490101063214,-0.9758118448349291,0.043791253694306295,-0.07835227045901748,-2.708732725372729,0.051750483966494364
1783116085965469696,2.654080629348755,-0.1577235609292984,1.3194067478179932,-0.0860387533903122,-0.42972642183303833,0.0755484476685524,0.8997927904129028,0.03910154104232788,0.1336342692375183,-0.019269347190856934,0.21975441391933878,0.016840736270591097,-0.9744807777576083,0.04256117936059009,-0.07562050160759576,-2.6960383109198447,0.05169867035134705
1783116085975389440,2.6640005111694336,-0.11706236004829407,1.0713332891464233,0.16501109302043915,-0.44006139039993286,0.07499372959136963,0.8948307037353516,0.10978490114212036,0.013186812400817871,-0.11463356018066406,0.22538598534443055,0.016107645245521888,-0.9732193463051092,0.04225902542918043,-0.07506420057809836,-2.6845412512378983,0.05056560552756168
1783116085985309696,2.6739206314086914,-0.16843394935131073,0.7988501191139221,0.23735345900058746,-0.44787198305130005,0.07500391453504562,0.8909462094306946,0.12440085411071777,-0.07935266196727753,-0.0863196849822998,0.2296929476539908,0.014711848665524937,-0.9722431148320245,0.04204829383384599,-0.07507441469797424,-2.6757933612459404,0.048077269255316024
1783116085995228416,2.6838395595550537,-0.1473432332277298,0.9972986578941345,0.29109954833984375,-0.4550400972366333,0.07474268227815628,0.8873286843299866,0.045799314975738525,-0.11028039455413818,-0.1152949333190918,0.23367273756757234,0.013102754205783159,-0.9713355057956751,0.04162629469237135,-0.07481244993559229,-2.6677415528413597,0.04504940442193013
1783116086005148416,2.6937594413757324,-0.021193290129303932,0.9170743823051453,0.3272863030433655,-0.4631759822368622,0.07577113807201385,0.883021354675293,-0.03021693229675293,0.014515109360218048,-0.16091448068618774,0.23820306338828978,0.011279351298548047,-0.970249169709096,0.04181641669609842,-0.07584382674870023,-2.6585099211302103,0.041941993417710315
1783116086015068416,2.7036795616149902,0.05108749866485596,0.7227077484130859,0.29811573028564453,-0.4700825810432434,0.07718785107135773,0.8792405724525452,0.06262722611427307,0.11545436084270477,-0.10754281282424927,0.2420617920443309,0.009773499655246841,-0.9692908537248575,0.04225740364363235,-0.0772647013230866,-2.6506138071155894,0.03953274232382759
1783116086024988416,2.713599443435669,0.12265808135271072,0.5609473586082458,0.3012601435184479,-0.47548457980155945,0.07961075752973557,0.8761141896247864,0.11089116334915161,0.05951887369155884,-0.10168516635894775,0.24511550697355525,0.008065123718895428,-0.9684998971213797,0.04314121857743577,-0.0796950922860332,-2.644355984995094,0.03689676022116514
1783116086034908416,2.7235195636749268,-0.005524715408682823,0.4866694211959839,0.2281751036643982,-0.4796837270259857,0.08124442398548126,0.873672366142273,-0.031043320894241333,0.012963347136974335,-0.08332794904708862,0.24748948112479696,0.006908594227488909,-0.967878323196212,0.0437369196443895,-0.08133406837439854,-2.6394844463250253,0.035145607376995625
1783116086044828416,2.7334394454956055,-0.04587133973836899,0.6802351474761963,0.30499744415283203,-0.48440971970558167,0.08217107504606247,0.8709738850593567,-0.03730359673500061,0.04070795327425003,-0.08595478534698486,0.2501788714462943,0.005337624117631464,-0.967191003593315,0.043859898754904134,-0.0822638305644088,-2.634024573524899,0.03238580686759391
1783116086054748416,2.7433595657348633,0.30198609828948975,0.7428043484687805,0.515652060508728,-0.4899411201477051,0.0856173038482666,0.8675411343574524,-0.0408511757850647,0.1012113094329834,-0.18644976615905762,0.2533530575168609,0.0033731578143683404,-0.9663121616218444,0.04518545260382081,-0.08572225203584875,-2.6274980361841083,0.02952748880647686
1783116086064668416,2.753279447555542,0.0634281188249588,0.8750055432319641,0.47418826818466187,-0.49592843651771545,0.09013859927654266,0.8636721968650818,-0.04008224606513977,0.061167553067207336,-0.1686345338821411,0.25682866143400834,0.0009240385039369401,-0.9653161337329039,0.046934487650864616,-0.09026110781339076,-2.6203529486534776,0.02600098347741513
1783116086074587648,2.7631986141204834,0.555449903011322,0.8173829317092896,0.6930108666419983,-0.5023796558380127,0.09541484713554382,0.8593665957450867,0.0972282886505127,0.11822345107793808,-0.034796833992004395,0.260604609588716,-0.00173323860859255,-0.9641993072502729,0.04901033695854935,-0.09556021819262561,-2.6125788946105524,0.02230587416776437
1783116086084507392,2.773118495941162,0.07857844233512878,0.47229239344596863,0.735170304775238,-0.5071709752082825,0.10157450288534164,0.8558387756347656,0.23315364122390747,-0.06902751326560974,-0.062000393867492676,0.2635060143084446,-0.00472574301999228,-0.9632741276397642,0.051430830983810925,-0.10174998083860361,-2.6066313124047293,0.018094864745568214
1783116086094427648,2.78303861618042,0.3419860899448395,0.5561416745185852,0.480097234249115,-0.5107347369194031,0.1066068559885025,0.8531030416488647,0.28299736976623535,0.036352723836898804,-0.0399165153503418,0.2657244746982326,-0.007592333941118093,-0.9625455259016529,0.0532815947992504,-0.10680983059967517,-2.6021451682886134,0.013779472778450165
1783116086104347392,2.7929584980010986,-0.20647859573364258,0.5065876841545105,0.586194634437561,-0.5140227675437927,0.11076802760362625,0.8505945205688477,0.16717523336410522,-0.13400715589523315,-0.21926212310791016,0.2678034194237653,-0.010606763467526245,-0.9618652491587576,0.054626658805233624,-0.11099579686990245,-2.598010055733473,0.008908796954510778
1783116086114267648,2.8028786182403564,-0.20781643688678741,-0.011481652036309242,0.48223766684532166,-0.5157368779182434,0.11073441803455353,0.849560558795929,0.27548736333847046,-0.02795550972223282,-0.186978280544281,0.268911821691382,-0.013130410847188306,-0.961565318146808,0.053908233552654485,-0.11096198514406974,-2.595995846757529,0.003764789381140655
1783116086124187392,2.812798500061035,-0.33711740374565125,0.01939903199672699,0.39923200011253357,-0.5157026648521423,0.11075662821531296,0.8495783805847168,0.4178329110145569,-0.12299419194459915,-0.4033047556877136,0.2690230758568935,-0.015466412976476197,-0.9615352245089519,0.05326637176272811,-0.11098433115050645,-2.5960346217779775,-0.0010899414208003005
1783116086134107648,2.822718620300293,-0.5235798358917236,-0.3316243886947632,0.525521457195282,-0.513645589351654,0.10918746143579483,0.8510264158248901,0.43982362747192383,0.06509842723608017,-0.34069639444351196,0.26798568995290395,-0.01824300822779886,-0.9618629915394087,0.05167561738486305,-0.10940558407881754,-2.5985595506219146,-0.007442462449986622
1783116086144027392,2.8326385021209717,-0.12439784407615662,-0.6780358552932739,0.30513662099838257,-0.5086788535118103,0.1084630936384201,0.8540970683097839,0.4677700400352478,0.2154962420463562,-0.37884676456451416,0.26529793418532255,-0.020526024508837958,-0.9626147852962325,0.05068074630327514,-0.1086768933830993,-2.6044331756257963,-0.012701587575597986
1783116086153946624,2.842557668685913,0.18257908523082733,-0.8411702513694763,0.19608359038829803,-0.5019288659095764,0.11015406996011734,0.8578655123710632,0.3890749216079712,0.19373998045921326,-0.4468091130256653,0.26159486350052885,-0.021452514324920836,-0.9635728054457534,0.05133516268184734,-0.1103780605377924,-2.612208258168719,-0.014573287171847112
1783116086163866624,2.852477550506592,0.29357218742370605,-1.0717848539352417,0.15884993970394135,-0.49377089738845825,0.11286007612943649,0.862237274646759,0.38424327969551086,0.2357574701309204,-0.41285061836242676,0.25709968743386863,-0.021605217404741656,-0.9647029854705598,0.05273679295772432,-0.11310104687145978,-2.6215168930063637,-0.014662209921068757
1783116086173786624,2.8623976707458496,0.3360465168952942,-1.1477655172348022,0.14663566648960114,-0.48389557003974915,0.1163066029548645,0.8673624396324158,0.3651212453842163,0.1777149885892868,-0.4204021096229553,0.251683559763557,-0.02173656037350297,-0.9660272929993952,0.05453527880471389,-0.1165704320846122,-2.6327096420041913,-0.014644864342884825
1783116086183706624,2.8723175525665283,0.571942150592804,-1.2585875988006592,0.04861430078744888,-0.47347238659858704,0.12084761261940002,0.8724792003631592,0.29512760043144226,0.13415727019309998,-0.46792280673980713,0.2459681235749881,-0.021098710114803375,-0.9673646960352336,0.05709759414702747,-0.12114370997600662,-2.644390875106508,-0.01282627033425375
1783116086193626368,2.882237434387207,0.3705747425556183,-1.2449716329574585,0.17309540510177612,-0.4621623456478119,0.12569524347782135,0.8778420686721802,0.2277720868587494,0.09113214910030365,-0.4607735872268677,0.23981585591468899,-0.020793451759557085,-0.9687562431541197,0.05972712106233783,-0.12602859991943466,-2.656989652639874,-0.01173388078262947
1783116086203546624,2.892157554626465,0.12691202759742737,-1.159692406654358,0.14373379945755005,-0.451545387506485,0.12870831787586212,0.8829164505004883,0.16883042454719543,-0.07321207225322723,-0.3767364025115967,0.23405702678287757,-0.020837307023046224,-0.9700639284497862,0.06131249317301452,-0.12906634772703718,-2.668847015169852,-0.01182442304121468
1783116086213466368,2.9020774364471436,-0.1239427700638771,-1.1438145637512207,0.16794303059577942,-0.44109660387039185,0.12922024726867676,0.8881080150604248,0.18027815222740173,-0.18824124336242676,-0.2865302562713623,0.22838393265259843,-0.021165311580792736,-0.9713938633459333,0.06153663380929729,-0.1295825976717249,-2.6806125834867456,-0.01312214125588773
1783116086223386624,2.9119975566864014,-0.30595704913139343,-1.1304093599319458,0.09221471101045609,-0.43034064769744873,0.127722829580307,0.8935844302177429,0.21728232502937317,-0.1533576250076294,-0.2553553581237793,0.2225406359054452,-0.021671227419275893,-0.9727911300527097,0.060689990672038056,-0.12807266055283736,-2.6927818306284976,-0.015276885972762668
1783116086233305344,2.9219164848327637,-0.4128703773021698,-1.1004090309143066,0.013653354719281197,-0.4200478494167328,0.12505055963993073,0.8988447189331055,0.19458407163619995,-0.09413626790046692,-0.2662917971611023,0.21693220222787887,-0.021881356531400335,-0.974137346074759,0.05931248677817068,-0.12537878964946292,-2.7044293810253777,-0.017031826914498494
1783116086243225600,2.9318366050720215,-0.6510515213012695,-1.0778331756591797,0.14407074451446533,-0.4099561870098114,0.12042717635631561,0.9041202068328857,0.231336772441864,-0.06798271089792252,-0.21158480644226074,0.21144289114529613,-0.022505191980431456,-0.9754761064396916,0.05684918769185516,-0.12072017711752456,-2.71588914391714,-0.020012817020589425
1783116086253145344,2.9417564868927,-0.520587146282196,-1.2011475563049316,-0.021366380155086517,-0.39932024478912354,0.11538654565811157,0.9095216989517212,0.303891658782959,-0.03938249498605728,-0.2363494634628296,0.2056742571881404,-0.023098418099200175,-0.9768455954808825,0.0541974332098597,-0.11564413792991791,-2.7278868285615268,-0.02298870281688638
1783116086263065600,2.951676607131958,-0.5236090421676636,-1.1943764686584473,0.012681334279477596,-0.38804271817207336,0.11076992750167847,0.9149606823921204,0.26789501309394836,-0.049093909561634064,-0.2821023464202881,0.19957646991143138,-0.02334352852840583,-0.9782307590666985,0.051854987860298095,-0.1109977103388833,-2.7404772398390924,-0.025129920638745824
1783116086272985344,2.9615964889526367,-0.49927109479904175,-1.1970502138137817,-0.05954592302441597,-0.3767300248146057,0.10624106973409653,0.9202107191085815,0.26805683970451355,-0.05863364040851593,-0.271986722946167,0.19347952818025785,-0.023419761442322176,-0.979569743387246,0.04960268743127187,-0.10644195448578496,-2.7530131478432853,-0.026843499116784512
1783116086282905600,2.9715166091918945,-0.5683884024620056,-1.2604657411575317,-0.054336778819561005,-0.3647051453590393,0.10131555795669556,0.925594687461853,0.2711382210254669,-0.09794335067272186,-0.3185694217681885,0.18702244489895015,-0.023438518181932166,-0.9809423917317869,0.04717325773407399,-0.10148969141292478,-2.7662498757957863,-0.028489185634981776
1783116086292825344,2.9814364910125732,-0.6426314115524292,-1.2158020734786987,-0.049241453409194946,-0.35040903091430664,0.09594806283712387,0.9316692352294922,0.24651193618774414,-0.13334736227989197,-0.3279247283935547,0.17939712293052812,-0.023597217790865155,-0.9824855132386303,0.04452051189702765,-0.09609589196222244,-2.7818502070573845,-0.030539771006652595
1783116086302745600,2.991356611251831,-0.7252274751663208,-1.2113990783691406,-0.09774774312973022,-0.3353341817855835,0.08977170288562775,0.9378125071525574,0.2104714810848236,-0.11551328003406525,-0.3236919641494751,0.171384084306015,-0.023684344277739584,-0.9840453752591095,0.041488667642668946,-0.08989271947779799,-2.79818941844484,-0.03252899755976779
1783116086312665344,3.0012764930725098,-0.6641782522201538,-1.3724178075790405,-0.13715426623821259,-0.3223353922367096,0.0830056443810463,0.9429792761802673,0.22200888395309448,-0.07673429697751999,-0.28889602422714233,0.1644709360149626,-0.023447852560873478,-0.9853627874054639,0.0382055550382668,-0.08310125895507593,-2.812217721834256,-0.033764788756878536
1783116086322584576,3.011195659637451,-0.81277996301651,-1.274133563041687,-0.09653360396623611,-0.30953121185302734,0.07584408670663834,0.9478594660758972,0.17203432321548462,-0.026085183024406433,-0.2341299057006836,0.157683424820282,-0.0232030508138988,-0.9866059763700791,0.03472846040491496,-0.07591698838800899,-2.825952134223788,-0.03494005857287768
1783116086332504576,3.02111554145813,-0.7608802914619446,-1.2246932983398438,-0.028188899159431458,-0.2973908483982086,0.06808441877365112,0.9523253440856934,0.13593757152557373,0.020309746265411377,-0.1364530324935913,0.1512702777749,-0.02328668727907702,-0.9877349892369498,0.03089859835263244,-0.0681371315126438,-2.8389094899030227,-0.0367475937714494
1783116086342424576,3.0310356616973877,-0.5560147762298584,-1.180090308189392,-0.12486723810434341,-0.28559282422065735,0.06161658838391304,0.9563683271408081,0.12722182273864746,0.04400474950671196,-0.13715434074401855,0.14507175338893114,-0.02322852700065306,-0.988759119585934,0.027750431075692892,-0.06165564560758415,-2.8514003528654297,-0.037964466697297077
1783116086352344576,3.0409555435180664,-0.5128160119056702,-1.1943714618682861,-0.11081419885158539,-0.2740080952644348,0.05631072819232941,0.9600776433944702,0.12125229835510254,0.1038455218076706,-0.12653565406799316,0.1390112534887598,-0.022827535611423654,-0.9897058722991482,0.025241924218227272,-0.05634053174292455,-2.8635817228460554,-0.03823724259643533
1783116086362264576,3.050875663757324,-0.4264790117740631,-1.1377153396606445,-0.16048721969127655,-0.2627125084400177,0.05140957236289978,0.9635035395622253,0.1332874894142151,0.10223116725683212,-0.08177447319030762,0.13312278261652838,-0.022346029536508258,-0.9905818545102265,0.022946130054115776,-0.051432243802202564,-2.8753996960924026,-0.03822167301588951
1783116086372184576,3.060795545578003,-0.4554635286331177,-1.0407580137252808,-0.20155195891857147,-0.252112478017807,0.046840179711580276,0.9665637612342834,0.10689455270767212,0.043232452124357224,-0.08336973190307617,0.12760795847508627,-0.021614094884267004,-0.991370125384766,0.0208418212043691,-0.04685732368914653,-2.886443773556007,-0.03758606537373373
1783116086382104576,3.0707156658172607,-0.45769792795181274,-0.9179788827896118,-0.22207321226596832,-0.2424069046974182,0.04187418147921562,0.9692708253860474,0.10948753356933594,0.050822965800762177,-0.07510554790496826,0.12256049522355682,-0.020778673983590012,-0.9920703908365811,0.018537441494739883,-0.04188642983195513,-2.89652737483823,-0.03672435674399382
1783116086392024576,3.0806355476379395,-0.44340479373931885,-0.8481077551841736,-0.2779100239276886,-0.2338266372680664,0.03697670251131058,0.9715747833251953,0.1381082832813263,0.06183921545743942,-0.09909260272979736,0.11810032474566864,-0.01975675595064616,-0.9926716749283291,0.016274335447419998,-0.03698513365931326,-2.9054164591876024,-0.03541154776851249
1783116086401943552,3.0905544757843018,-0.4086891710758209,-0.723141074180603,-0.2735552191734314,-0.22610001266002655,0.03228262811899185,0.9735690951347351,0.13642407953739166,0.026540003716945648,-0.13331329822540283,0.11408724584260403,-0.018491211800092392,-0.9931981820323952,0.014127798159679867,-0.03228823970269001,-2.913399488501335,-0.03353102945745973
1783116086411863552,3.1004745960235596,-0.2806903123855591,-0.6089839339256287,-0.3043408989906311,-0.21954050660133362,0.028327710926532745,0.975192129611969,0.15649119019508362,-0.036353837698698044,-0.12311077117919922,0.11068837002265107,-0.017263513534782043,-0.9936287150579522,0.012331553196784886,-0.028331501070787544,-2.920158855688278,-0.031595060157169924
1783116086421783552,3.1103944778442383,-0.11996747553348541,-0.38636335730552673,-0.26162591576576233,-0.2146344929933548,0.02564162388443947,0.976357638835907,0.13567030429840088,-0.03382033482193947,-0.05806863307952881,0.10814974060797759,-0.015902332783441525,-0.9939446372483064,0.011168608345371188,-0.025644433767586218,-2.925202754625303,-0.029210069140625926
1783116086431703552,3.120314598083496,0.10119787603616714,-0.17141954600811005,-0.2107422649860382,-0.21165846288204193,0.025021351873874664,0.9770236611366272,0.18735116720199585,0.014971936121582985,0.03789973258972168,0.10661775845335104,-0.014784797154444253,-0.9941293928924164,0.010998924131396538,-0.025023962982527685,-2.928253343018991,-0.027062416494295978
1783116086441623552,3.130234479904175,0.45006799697875977,-0.025775521993637085,-0.20109789073467255,-0.2104528546333313,0.027215709909796715,0.9772254824638367,0.22226309776306152,0.030462510883808136,0.1467372179031372,0.1060081747509709,-0.013613485629813201,-0.9941968637276558,0.012235719686829323,-0.027219070679827248,-2.9294747985497467,-0.02448631286916675
1783116086451543552,3.1401546001434326,0.7089374661445618,0.029410388320684433,-0.18264637887477875,-0.21018831431865692,0.03268444910645485,0.9771146774291992,0.27520596981048584,0.01855456829071045,0.22009015083312988,0.10589703375026956,-0.012375161753363614,-0.9941851944991061,0.01511964968322755,-0.03269027168563017,-2.9297102128140904,-0.021417232294004655
1783116086461463552,3.1500744819641113,0.7055342197418213,0.05086561292409897,-0.17187735438346863,-0.21035119891166687,0.03935615345835686,0.9768334031105042,0.25103116035461426,-0.023410722613334656,0.32106393575668335,0.10600466915289332,-0.011110360151096718,-0.9941294015796953,0.0186095751260071,-0.03936631859366785,-2.9294916450255535,-0.018159934490422393
1783116086471383552,3.159994602203369,0.3686753213405609,0.16419552266597748,-0.2643633186817169,-0.21118846535682678,0.044372107833623886,0.9764374494552612,0.19867631793022156,-0.15371659398078918,0.47581756114959717,0.10643676404381106,-0.009805011133042368,-0.9940435561584905,0.02126912769984349,-0.04438667948559287,-2.928588891686748,-0.014980896903040377
1783116086481302528,3.1699135303497314,-0.10951469093561172,0.24084769189357758,-0.2629252076148987,-0.21284325420856476,0.04518602415919304,0.9760407209396362,0.14083707332611084,-0.29427051544189453,0.6251858472824097,0.10725388851296486,-0.008435062174519418,-0.9939563421144871,0.02182019283316899,-0.045201415316281926,-2.9268858940234272,-0.012100220290789774
1783116086491222528,3.1798336505889893,-0.5327130556106567,0.3335106372833252,-0.31277504563331604,-0.21518559753894806,0.04141288250684738,0.975694477558136,0.13945627212524414,-0.3386693596839905,0.7256602644920349,0.10840210851162473,-0.007271033548048497,-0.9938784521738591,0.02004092818616168,-0.041424730620742686,-2.924521530825578,-0.010116940963521533
1783116086501142528,3.189753532409668,-0.8136776089668274,0.4320840835571289,-0.21963734924793243,-0.21612897515296936,0.034506212919950485,0.9757550954818726,0.11975441873073578,-0.2504028081893921,0.7585591077804565,0.1088338217336611,-0.006328016740254508,-0.9939001544281656,0.016666063796909568,-0.03451306256082947,-2.9236128113699085,-0.008956624296135828
1783116086511062528,3.199673652648926,-0.8306524157524109,0.627919614315033,-0.20946654677391052,-0.22038039565086365,0.025864604860544205,0.975071132183075,0.14016491174697876,-0.0909891128540039,0.7262533903121948,0.11095759446247405,-0.005809251115042759,-0.9937312615847125,0.01236523674615829,-0.025867490358252886,-2.919312629939048,-0.008804694317400037
1783116086520981760,3.209592819213867,-0.7309221029281616,0.821443498134613,-0.05012402683496475,-0.22707724571228027,0.01807708665728569,0.9737090468406677,0.1385457068681717,-0.03071136213839054,0.6161805391311646,0.11434195083549498,-0.005618602592959126,-0.9933896298153934,0.008451972175074794,-0.018078071669767493,-2.9124790989462483,-0.009231732733836373
1783116086530901760,3.219512701034546,-0.5074825286865234,0.9791086316108704,0.09046454727649689,-0.23549219965934753,0.01211908832192421,0.9718009829521179,0.17457905411720276,0.005062303505837917,0.5741435289382935,0.11862039228737346,-0.006113202075869571,-0.992906399960462,0.005372504102840031,-0.012119384951128543,-2.9038499426958477,-0.010866109650818813
1783116086540821760,3.2294328212738037,0.12528477609157562,0.9598108530044556,0.24444745481014252,-0.24463148415088654,0.010291444137692451,0.9695613980293274,0.18945574760437012,0.0003439309075474739,0.5140505433082581,0.12329100009627979,-0.00704676395463171,-0.9923361463939335,0.0043099503515680255,-0.010291625873226328,-2.894439641082927,-0.012923805163018267
1783116086550741760,3.2393527030944824,0.7863461971282959,1.0162729024887085,0.3404334485530853,-0.2539079487323761,0.01564943417906761,0.9671018123626709,0.2113511860370636,0.08745420724153519,0.4757540225982666,0.12807290449313355,-0.008327354340124493,-0.9917063829787821,0.006814727001357007,-0.01565007228572332,-2.88484203388561,-0.014773363603441683
1783116086560660736,3.249271869659424,0.8936942219734192,1.1350713968276978,0.24118301272392273,-0.2639467716217041,0.024944111704826355,0.9642146229743958,0.1558535099029541,0.08864231407642365,0.5325809717178345,0.13328158246939992,-0.009229044242562054,-0.9909702999569654,0.011344431262552954,-0.02494669961011015,-2.8743956530642327,-0.015272755696032547
1783116086570580736,3.2591917514801025,0.628912091255188,1.3515877723693848,0.1873801052570343,-0.27568018436431885,0.0327434204518795,0.9606916308403015,0.11445575952529907,-0.1583995521068573,0.6816881895065308,0.13937243366901753,-0.009841838917465005,-0.9900752238168152,0.01515039319041325,-0.03274927364143753,-2.8621415759698436,-0.015274011035539914
1783116086580500736,3.2691118717193604,0.28595712780952454,1.4299474954605103,0.10962671786546707,-0.28885823488235474,0.037614159286022186,0.956632673740387,0.11103230714797974,-0.3234723210334778,0.7388476133346558,0.1462106013001045,-0.010276588248748832,-0.9890453622614207,0.017496197355656603,-0.03762303322417571,-2.8483449597013575,-0.015223125216862433
1783116086590420736,3.279031753540039,0.10229761898517609,1.480501413345337,0.09863309562206268,-0.3024483323097229,0.03950520232319832,0.9523465037345886,0.1539193093776703,-0.22573871910572052,0.7996216416358948,0.15326784636091698,-0.01079236466003828,-0.9879558576341861,0.018319115929861123,-0.03951548368326213,-2.8340844394142937,-0.015722217403351613
1783116086600340736,3.288951873779297,0.03845951706171036,1.6158405542373657,0.13198412954807281,-0.31690648198127747,0.04045490548014641,0.9475938677787781,0.12801790237426758,-0.1247597187757492,0.7310562133789062,0.1607980773230092,-0.011456157369562896,-0.9867449991797267,0.018632296184828537,-0.0404659492051947,-2.8188528907872574,-0.01663091784170829
1783116086610260736,3.2988717555999756,0.1639670431613922,1.7118898630142212,0.18111848831176758,-0.33243218064308167,0.041877951472997665,0.9421970248222351,0.14351311326026917,-0.045982565730810165,0.6256436109542847,0.16892418252128244,-0.012337121528950803,-0.9853660705933263,0.01913495679636288,-0.04189020105209002,-2.802401915484631,-0.017865069935120218
1783116086620180736,3.3087918758392334,0.275910884141922,1.614867925643921,0.17022748291492462,-0.347798228263855,0.044586580246686935,0.93650883436203,0.2117355763912201,-0.049194734543561935,0.5063624382019043,0.17701392162163032,-0.013152334357057469,-0.9839112932093289,0.020291608924878624,-0.04460136489932007,-2.7860017252551845,-0.01871737184474458
1783116086630100736,3.318711757659912,0.33553582429885864,1.538082480430603,0.20656122267246246,-0.3620747923851013,0.04803723841905594,0.9309107065200806,0.25880321860313416,-0.07028455287218094,0.46899187564849854,0.1845761447763443,-0.01394578144868946,-0.9824768998933674,0.021827038930650654,-0.048055734381242686,-2.770650993329695,-0.01936888497936827
1783116086640019712,3.3286306858062744,0.40767765045166016,1.7059423923492432,0.2392459362745285,-0.3768007755279541,0.052276190370321274,0.9248182773590088,0.22850051522254944,-0.11083942651748657,0.4533405303955078,0.19242587213006287,-0.014851636347431599,-0.9809121111150827,0.023733274338124038,-0.052300030014387384,-2.7546956413038792,-0.020031235033621975
1783116086649939712,3.3385508060455322,0.34625348448753357,1.743049144744873,0.20022334158420563,-0.39249324798583984,0.056736089289188385,0.918003261089325,0.17447572946548462,-0.14244471490383148,0.4290883541107178,0.20083956033843922,-0.01582545945463893,-0.9791584004183658,0.02572583354409912,-0.05676657161749777,-2.7375632376479317,-0.02069253853549398
1783116086659859712,3.348470687866211,0.2092658132314682,1.5598255395889282,0.07321611791849136,-0.407452255487442,0.05978488549590111,0.9112673401832581,0.1961791217327118,-0.2295236587524414,0.4444759488105774,0.20882191864696684,-0.014134225380374956,-0.9774629898920772,0.027562072721432976,-0.05982055572708564,-2.7211304631953794,-0.016149822791789555
1783116086669779712,3.3583908081054688,-0.031957853585481644,1.3675366640090942,-0.01870548352599144,-0.42058566212654114,0.060574162751436234,0.9052284359931946,0.24456027150154114,-0.22947371006011963,0.40942299365997314,0.21583187108991878,-0.012240614783735533,-0.9759428211474136,0.028326625538755902,-0.06061126798149534,-2.706648904460539,-0.011686428378620453
1783116086679699712,3.3683106899261475,-0.07262565940618515,1.3138624429702759,0.02052287943661213,-0.4323226511478424,0.060044560581445694,0.8997179865837097,0.22132405638694763,-0.1149304211139679,0.34260714054107666,0.22210776476640962,-0.010344280704325672,-0.9745522050807857,0.028448692293140978,-0.06008070067614627,-2.69365901938131,-0.007538405058462239
1783116086689619712,3.3782308101654053,-0.09566713124513626,1.3888109922409058,0.06376605480909348,-0.44425079226493835,0.05951174721121788,0.8939236402511597,0.14140963554382324,-0.02548464760184288,0.24845606088638306,0.22852519059166326,-0.008693186435094011,-0.9730808052174749,0.028537466239511252,-0.05954692980612372,-2.68037417593866,-0.003882176372503471
1783116086699539712,3.388150691986084,0.01723652333021164,1.376976490020752,0.1137237623333931,-0.45633742213249207,0.05952136591076851,0.8878135681152344,0.11571559309959412,0.06021435186266899,0.1772344708442688,0.23507220833839146,-0.007237513545069565,-0.9715216975138835,0.02888185167550489,-0.05955656918349004,-2.666806757007501,-0.0004850215285218161
1783116086709459712,3.398070812225342,0.20110675692558289,1.3033908605575562,0.17868639528751373,-0.46802160143852234,0.06119038164615631,0.8815958499908447,0.14174297451972961,0.07343791425228119,0.09933054447174072,0.24144791097428847,-0.00587320263364783,-0.9699296028267749,0.030081685988608463,-0.06122863045919373,-2.653547314330199,0.003139021603262331
1783116086719379712,3.4079906940460205,0.36853888630867004,1.1231648921966553,0.2426198273897171,-0.47834840416908264,0.06471900641918182,0.8757821917533875,0.16809138655662537,0.06995506584644318,0.048763155937194824,0.24712704116922787,-0.004737198805356388,-0.9684361892969786,0.03220533729101219,-0.0647642732609247,-2.641674946566356,0.006756485996027968
1783116086729298944,3.417909860610962,0.5265377759933472,1.0560742616653442,0.22735415399074554,-0.48745274543762207,0.06974946707487106,0.870358943939209,0.14309245347976685,0.11770474910736084,0.00575488805770874,0.25215924719808147,-0.0034653897420064243,-0.9670405660531388,0.035159748640036924,-0.06980614581809969,-2.6310590634139253,0.011056519010858464
1783116086739218688,3.4278297424316406,0.562861442565918,1.0935004949569702,0.3299620449542999,-0.4964660406112671,0.07576830685138702,0.8647432327270508,0.08351737260818481,0.11421887576580048,-0.02013862133026123,0.2571674474826211,-0.0022162689946716,-0.9655913737609705,0.03864388442482938,-0.07584099088110016,-2.6204202586876537,0.015641475942904957
1783116086749138944,3.4377498626708984,0.5479848980903625,1.1177440881729126,0.36399155855178833,-0.5057536363601685,0.08237677067518234,0.8587357997894287,0.07930105924606323,0.05570000410079956,-0.043016254901885986,0.2623764974760483,-0.0015028884219938036,-0.9640361163375878,0.04231590813192535,-0.08247022553206011,-2.6093367319062772,0.019374779989038606
1783116086759058688,3.447669744491577,0.44761592149734497,0.8583309650421143,0.2905186712741852,-0.5137524604797363,0.08829254657030106,0.8533831238746643,0.1022992730140686,-0.024053052067756653,-0.08122742176055908,0.26687919877724614,-0.0007548877917464017,-0.9626479099194418,0.04564992997936011,-0.08840766654109375,-2.59969024177258,0.023004514345896985
1783116086768978944,3.457589864730835,0.37880584597587585,0.5987886786460876,0.38744795322418213,-0.5195203423500061,0.09343580901622772,0.8493342995643616,0.06547975540161133,-0.06725172698497772,-0.17475831508636475,0.27013617156058023,-3.5441710089073155e-05,-0.961596148740342,0.04857374797953383,-0.09357229603758487,-2.5926295382896565,0.02629293102863921
1783116086778898688,3.4675097465515137,0.2753297984600067,0.6396695375442505,0.484214723110199,-0.524096667766571,0.09837096929550171,0.8459588289260864,-0.0884217619895935,0.005999162793159485,-0.3068351149559021,0.27277339718884375,-0.00019612093233927622,-0.9607181610012016,0.05114089572111347,-0.09853031607158434,-2.5869366921666845,0.02766058678506529
