time,seconds_elapsed,rotationRateX,rotationRateY,rotationRateZ,gravityX,gravityY,gravityZ,accelerationX,accelerationY,accelerationZ,quaternionW,quaternionX,quaternionY,quaternionZ,pitch,roll,yaw
1782477373956791296,0.17328238487243652,0.0361606702208519,-0.41273072361946106,0.5731116533279419,-0.07356744259595871,0.42549923062324524,-0.9019635319709778,0.03865533322095871,-0.03859740495681763,0.02224862575531006,0.9702144666093055,-0.22085503279581783,-0.015533157511562586,-0.09831439170848337,-0.43951347439306115,-0.08138350346373521,-0.2201635383813993
1782477373966711296,0.18320226669311523,0.04488971829414368,-0.3941188454627991,0.5463219881057739,-0.0737132802605629,0.42467620968818665,-0.9023394584655762,0.021329857409000397,-0.037591248750686646,0.015269756317138672,0.9706337272462927,-0.22036740048517597,-0.016385606672880318,-0.0950785708168772,-0.4386042268178996,-0.0815103004622361,-0.21346441938084387
1782477373976631296,0.19312238693237305,0.04580051824450493,-0.3589797616004944,0.5137579441070557,-0.07331006973981857,0.42301300168037415,-0.9031531810760498,0.013220958411693573,-0.023797303438186646,0.017624616622924805,0.9711401430397418,-0.21939863327034953,-0.01696058464365222,-0.09199660323401503,-0.4367679113837097,-0.08099367473118557,-0.20688104023315015
1782477373986550272,0.20304131507873535,0.010495655238628387,-0.33101800084114075,0.489284485578537,-0.0726906880736351,0.4213472902774811,-0.9039814472198486,0.0185982808470726,-0.024313628673553467,0.022938966751098633,0.9716229511730832,-0.21842006953865664,-0.01737628898521365,-0.08910418640566961,-0.43493042507945234,-0.08023905453874365,-0.20064012185080812
1782477373996470272,0.21296119689941406,-0.007972034625709057,-0.30781733989715576,0.4896658658981323,-0.071795254945755,0.4199009835720062,-0.9047257304191589,0.026446141302585602,-0.051202863454818726,0.022126853466033936,0.9720702417744875,-0.2175467744021337,-0.017622359571563374,-0.08626860770576478,-0.4333362109360503,-0.07918987724344764,-0.1944710209742171
1782477374006390272,0.22288131713867188,0.01143235620111227,-0.27788808941841125,0.4878474771976471,-0.07062964886426926,0.4182456433773041,-0.9055837988853455,0.02753882110118866,-0.05043253302574158,0.012151181697845459,0.9725348358576533,-0.21655000441905473,-0.017725305310350284,-0.08347423995285078,-0.43151304765636234,-0.07783592619272703,-0.18831089240509097
1782477374016310272,0.23280119895935059,0.09824422001838684,-0.22858577966690063,0.48639896512031555,-0.06929046660661697,0.4160899817943573,-0.906679630279541,0.026047058403491974,-0.0103892982006073,-0.007337093353271484,0.9730473866940857,-0.21527981776223803,-0.017742158314835974,-0.08073804821598436,-0.4291411611641465,-0.07627395702687526,-0.1821992928284046
1782477374026229504,0.242720365524292,0.22381950914859772,-0.18436592817306519,0.4904416799545288,-0.06749565154314041,0.4131692349910736,-0.9081494808197021,0.037023864686489105,0.028008073568344116,-0.009330928325653076,0.9736458102118503,-0.21358240118750824,-0.017544614140829022,-0.07802882891998726,-0.4259315147094226,-0.07418578472022247,-0.1759892321534641
1782477374036149248,0.2526402473449707,0.25270605087280273,-0.1428520381450653,0.49074581265449524,-0.06503138691186905,0.4099573493003845,-0.9097834229469299,0.05889736860990524,0.02214103937149048,-0.011526942253112793,0.9742812277268603,-0.21170442963723718,-0.017015335897757587,-0.07528406699873513,-0.4224072862194421,-0.07135870468338781,-0.16954186105850078
1782477374046069504,0.2625603675842285,0.21174640953540802,-0.11390689760446548,0.48188406229019165,-0.0618172325193882,0.40725627541542053,-0.9112194776535034,0.0829506441950798,-0.0007316172122955322,0.005808711051940918,0.9748551915437195,-0.21007647517910671,-0.016066151327586584,-0.0725756917325719,-0.41944788496831287,-0.06773632500421366,-0.1630443787379799
1782477374055988224,0.2724792957305908,0.16168324649333954,-0.09510418027639389,0.5027312636375427,-0.0580681748688221,0.40517458319664,-0.9123933911323547,0.1084374263882637,-0.03757506608963013,0.012246906757354736,0.9753580473474669,-0.20876666635478705,-0.014825299753065995,-0.06981052927442985,-0.41716977040673126,-0.06355806911242491,-0.15636209203005155
1782477374065908480,0.28239941596984863,0.15575464069843292,-0.07898570597171783,0.4955987334251404,-0.054083451628685,0.4033530354499817,-0.9134447574615479,0.1216035932302475,-0.010484963655471802,0.02159905433654785,0.9758230600877416,-0.207597256150213,-0.013453647262981226,-0.06702086411185751,-0.4151782346247853,-0.059139194842799746,-0.14960693495520028
1782477374075828224,0.29231929779052734,0.17140550911426544,-0.08617305010557175,0.48878422379493713,-0.04998757317662239,0.4015836715698242,-0.9144571423530579,0.123916395008564,0.03571799397468567,0.02242833375930786,0.9762674379471192,-0.20646358487657337,-0.012009452580791476,-0.06426968170878382,-0.41324541660228076,-0.054609309807682097,-0.1429240065839901
1782477374085747200,0.30223822593688965,0.11632554978132248,-0.10711154341697693,0.4624299108982086,-0.04589439183473587,0.4002588093280792,-0.9152522087097168,0.11584068834781647,0.05600947141647339,0.0392451286315918,0.9766469298218535,-0.20557907527836566,-0.010542793878300876,-0.061536459650845754,-0.4117992516004362,-0.05010202015742122,-0.1363157708382209
1782477374095667456,0.31215834617614746,0.03226180374622345,-0.0858621820807457,0.4221847355365753,-0.04194414243102074,0.3999556005001068,-0.9155742526054382,0.06373368203639984,0.0245743989944458,0.06842154264450073,0.9768876096260584,-0.20525709847348325,-0.009077219229542228,-0.05897310361051013,-0.41146841201974277,-0.04577983254241608,-0.13014563167606294
1782477374105587200,0.32207822799682617,-0.055188748985528946,-0.05571013689041138,0.3757219910621643,-0.03851336985826492,0.40057629346847534,-0.9154536128044128,0.02262897789478302,0.0043309032917022705,0.06830090284347534,0.9769913043948061,-0.20545694668521025,-0.007786753702034084,-0.056698467924990274,-0.4121457345402456,-0.04204546371876414,-0.12472788399246199
1782477374115507456,0.331998348236084,-0.03951684385538101,-0.026074744760990143,0.329567015171051,-0.03555721789598465,0.40152934193611145,-0.9151556491851807,0.02455562725663185,0.03787797689437866,0.046533823013305664,0.977025930217969,-0.20585874326363907,-0.00665954177510693,-0.05475630517001192,-0.41318611959934504,-0.038834204559775855,-0.12011057876818133
1782477374125426176,0.3419172763824463,0.04176789149641991,0.024693969637155533,0.2849244475364685,-0.032660823315382004,0.40206465125083923,-0.9150285720825195,0.0450662262737751,0.08342424035072327,0.008732795715332031,0.9770861873948705,-0.20604668095236872,-0.005521285242567681,-0.05307360098733161,-0.4137706883402398,-0.03567862607661726,-0.11601910818991971
1782477374135346432,0.3518373966217041,0.1157236099243164,0.06478812545537949,0.21951694786548615,-0.029475871473550797,0.4020857512950897,-0.9151274561882019,0.0505482479929924,0.10737472772598267,-0.014972031116485596,0.9771846502953226,-0.20595819085048153,-0.004183057700719951,-0.05171105580184965,-0.41379371338998017,-0.03219844791558649,-0.11249723083568239
1782477374145266176,0.3617572784423828,0.21348106861114502,0.10238176584243774,0.16979679465293884,-0.025927118957042694,0.40157726407051086,-0.915458083152771,0.061388544738292694,0.09187671542167664,-0.020439743995666504,0.9773256196829101,-0.20558241900340277,-0.0026135887513458445,-0.05063289014311616,-0.4132384286950614,-0.028313901504078115,-0.10945791252651162
1782477374155185152,0.3716762065887451,0.2927870452404022,0.13689419627189636,0.09842541068792343,-0.021944250911474228,0.40058284997940063,-0.9159977436065674,0.07373257726430893,0.07369083166122437,-0.029436826705932617,0.9775044500470668,-0.20494031331895635,-0.000775336817240643,-0.04984002569885252,-0.41215287686979957,-0.023952084036108327,-0.10689306519999954
1782477374165105408,0.38159632682800293,0.40265005826950073,0.16113291680812836,0.029614591971039772,-0.017490936443209648,0.39897391200065613,-0.9167954325675964,0.0911603644490242,0.07281258702278137,-0.033964455127716064,0.9777312606769158,-0.2039618394405214,0.0013584111182528024,-0.04938977441239535,-0.4103975698384194,-0.019076027111936983,-0.10491392224265642
1782477374175025152,0.39151620864868164,0.5052099823951721,0.16441713273525238,-0.030255399644374847,-0.012450728565454483,0.39677637815475464,-0.9178308844566345,0.12786820530891418,0.08961278200149536,-0.02572685480117798,0.9780059910352374,-0.2026571462972299,0.0038277738981127227,-0.04919120813319884,-0.40800228965607793,-0.013564552075303356,-0.10331646944223116
1782477374184944384,0.40143537521362305,0.6217722296714783,0.15872374176979065,-0.1167055070400238,-0.007851083762943745,0.3934701085090637,-0.9193038940429688,0.16254468262195587,0.10659089684486389,2.288818359375e-05,0.9783735768750321,-0.2007750481788799,0.006118548883405391,-0.049367532239960266,-0.4044031450286094,-0.008540041504574112,-0.10258278466060122
1782477374194864384,0.41135525703430176,0.7594725489616394,0.1178535521030426,-0.17190270125865936,-0.003734929021447897,0.3890078365802765,-0.9212268590927124,0.19825397431850433,0.10731476545333862,0.0427478551864624,0.9788378638373283,-0.19829098948392884,0.008200541648273984,-0.049898713046756166,-0.3995543687336601,-0.004054276628641643,-0.10268773672057883
1782477374204784384,0.42127537727355957,0.8632833361625671,0.029649578034877777,-0.19112686812877655,-0.0002161521842936054,0.383430540561676,-0.9235696792602539,0.23901620507240295,0.09754174947738647,0.0917367935180664,0.9794032254399075,-0.1952328947145999,0.00996376401122577,-0.05053768587446668,-0.3935078858786305,-0.00023403993363234858,-0.10315617062095228
1782477374214704384,0.4311952590942383,0.9218297600746155,-0.047139208763837814,-0.21492168307304382,0.0026260169688612223,0.3771257698535919,-0.9261583089828491,0.2502731382846832,0.05625432729721069,0.1406969428062439,0.9800295808872318,-0.1918118323536704,0.011360207975140587,-0.051197735078820174,-0.386690954629964,0.002835379042783555,-0.10383198657260242
1782477374224623360,0.4411144256591797,0.7796556353569031,-0.06939791142940521,-0.250701367855072,0.005070219282060862,0.37114256620407104,-0.9285620450973511,0.22130917012691498,-0.013995319604873657,0.19206607341766357,0.9806038726352904,-0.18857600088646825,0.012572310085736236,-0.051933153236736376,-0.38023915427714083,0.005460236915274376,-0.10477110247221598
1782477374234543360,0.4510343074798584,0.6044667959213257,-0.03128514438867569,-0.3019035756587982,0.0055063627660274506,0.36570578813552856,-0.9307142496109009,0.19661155343055725,-0.012663185596466064,0.22601759433746338,0.9810909926639431,-0.18568171634175362,0.01285247102349649,-0.05308149028218468,-0.3743909928920892,0.0059162074181380525,-0.1069831025417808
1782477374244463360,0.4609544277191162,0.5523029565811157,0.01723521575331688,-0.32255876064300537,0.0056136115454137325,0.36104893684387207,-0.9325299859046936,0.20721597969532013,0.04683375358581543,0.2067456841468811,0.9814744032039266,-0.18320762194659818,0.013037672729431533,-0.05452467672981039,-0.36939245302920215,0.006019692404905278,-0.10986895960794299
1782477374254382336,0.4708733558654785,0.6254197359085083,0.07998008280992508,-0.3338218033313751,0.005991586018353701,0.35616886615753174,-0.9344024062156677,0.230489119887352,0.11789122223854065,0.16677850484848022,0.981862576695897,-0.18061016899820048,0.013370326583883176,-0.05609889229527283,-0.36416465331715026,0.006412123571689129,-0.11296564085749274
1782477374264302336,0.4807932376861572,0.7698578834533691,0.14546269178390503,-0.3498999774456024,0.006916246842592955,0.3502632975578308,-0.9366257190704346,0.24796657264232635,0.1664145290851593,0.13265544176101685,0.9823296165974548,-0.1774603496472285,0.0139627177828972,-0.05780371632979112,-0.35785220568162834,0.007384082072769853,-0.11621594752995694
1782477374274222336,0.49071335792541504,0.928930401802063,0.1965748816728592,-0.3708595931529999,0.008373216725885868,0.3429412543773651,-0.9393195509910583,0.2690010666847229,0.2020721733570099,0.13226693868637085,0.9829051959855519,-0.17355540491785149,0.014790478239906693,-0.05964106796138137,-0.35004625567343006,0.008913893961494243,-0.1196318069474983
1782477374284140288,0.5006313323974609,1.0293967723846436,0.23994164168834686,-0.45753878355026245,0.010190934874117374,0.3344736397266388,-0.9423499703407288,0.2700672447681427,0.23278707265853882,0.14014971256256104,0.9835422955846779,-0.1690422422958438,0.01580264135349102,-0.06180170349825068,-0.3410466573428585,0.010813963016392533,-0.12364451869401026
1782477374294060288,0.5105512142181396,1.0949121713638306,0.24380429089069366,-0.5510844588279724,0.012054217979311943,0.32534393668174744,-0.9455189108848572,0.2693941593170166,0.22175991535186768,0.15982860326766968,0.9841771358979738,-0.16418198284100569,0.01687677960730255,-0.06445671743677205,-0.331375445243457,0.012748095105287157,-0.12866741371668602
1782477374303980288,0.5204713344573975,1.116658329963684,0.2518899440765381,-0.6178305745124817,0.01375713013112545,0.3157927691936493,-0.9487284421920776,0.2966524064540863,0.17178654670715332,0.1975688338279724,0.9847880190306657,-0.1591090163299659,0.017891231541307902,-0.06750406396103344,-0.3212920609086283,0.014499582476363883,-0.13452989285841033
1782477374313899264,0.5303902626037598,1.0209147930145264,0.23272238671779633,-0.7057276368141174,0.015242226421833038,0.30655142664909363,-0.9517320394515991,0.32501351833343506,0.13117742538452148,0.2492327094078064,0.9853101466784363,-0.15420519060320978,0.018834369319334025,-0.0709222687365133,-0.31156790596392886,0.016013880674733805,-0.1411962945052671
1782477374323819264,0.5403101444244385,0.8280240893363953,0.19550757110118866,-0.817554235458374,0.01610557734966278,0.29869237542152405,-0.954213559627533,0.331367552280426,0.08480677008628845,0.28215545415878296,0.9856526843464439,-0.15003587067033594,0.0195566984012463,-0.07480426995072485,-0.30332217649020166,0.016876775593475977,-0.14891645341733728
1782477374333739264,0.5502302646636963,0.6639842987060547,0.12457692623138428,-0.900490403175354,0.01615108922123909,0.2925053834915161,-0.9561274647712708,0.3231891095638275,0.011510729789733887,0.30465346574783325,0.9858000933414182,-0.14675618473862592,0.019972177803207453,-0.07913145378011642,-0.29684575494320004,0.016890585785363715,-0.15767350525647422
1782477374343659264,0.560150146484375,0.5021569132804871,0.08386487513780594,-0.9680560231208801,0.015379282645881176,0.2877172827720642,-0.9575918912887573,0.31253209710121155,-0.026044338941574097,0.3200644254684448,0.9857899233435142,-0.14422860419563424,0.020053942260206948,-0.08375129839607846,-0.29184249340302,0.016058991953527366,-0.16714992103912907
1782477374353578240,0.5700693130493164,0.43453288078308105,0.05785325542092323,-1.0502067804336548,0.014050961472094059,0.28408920764923096,-0.9586948752403259,0.2936882972717285,-0.006882786750793457,0.2958378195762634,0.9856344522123089,-0.14231998977082252,0.01993928919324084,-0.0887252010760131,-0.28805636018129555,0.014655293904600563,-0.1774272495208857
1782477374363498240,0.5799891948699951,0.5007166266441345,0.019838836044073105,-1.0816755294799805,0.012222384102642536,0.2802577614784241,-0.9598469734191895,0.30554190278053284,-0.005553752183914185,0.25333452224731445,0.9864693429185533,-0.1405506001820137,0.017945585137484055,-0.08247262931080972,-0.2840626151404065,0.012732991724260324,-0.16499897763190743
1782477374373418240,0.5899093151092529,0.5276619791984558,0.01312473975121975,-1.1267266273498535,0.010048304684460163,0.2759312093257904,-0.961124837398529,0.2901378571987152,0.012856602668762207,0.23494386672973633,0.9865144900797258,-0.13836374418332645,0.017118500296750244,-0.08574136441775555,-0.27955838405217887,0.010454353098076985,-0.1719202449790977
1782477374383337216,0.5998282432556152,0.5569887161254883,0.05422210693359375,-1.2170536518096924,0.007871946319937706,0.2712671458721161,-0.9624719023704529,0.22683875262737274,0.04162958264350891,0.22091001272201538,0.9865129612733066,-0.13600359625269728,0.01634229390984876,-0.0895999228067533,-0.27470930938218024,0.008178701658133313,-0.18002223079199872
1782477374393257216,0.609748125076294,0.5822842121124268,0.07137127220630646,-1.3039089441299438,0.005782796069979668,0.2663649916648865,-0.9638549089431763,0.18763761222362518,0.06252294778823853,0.23436272144317627,0.9863270267257497,-0.1334985316960094,0.015833394035253526,-0.09532319367789706,-0.26961980760244314,0.005999582308818543,-0.19187706321548512
1782477374403177216,0.6196682453155518,0.5951956510543823,0.08406621962785721,-1.3718496561050415,0.003616797039285302,0.2611358165740967,-0.9652953147888184,0.171050563454628,0.07245182991027832,0.26754140853881836,0.9859289402914966,-0.13081449241586357,0.015489357295632718,-0.10291678545912228,-0.26419866059297437,0.0037468122282465453,-0.2075200090463383
1782477374413096192,0.6295871734619141,0.6012916564941406,0.12805896997451782,-1.331836462020874,-0.0010071139549836516,0.2555139660835266,-0.9668048620223999,0.12059024721384048,0.05500239133834839,0.2172931432723999,0.9854324564409335,-0.12807756390225775,0.013918264797190152,-0.1110191855978243,-0.2583792782377589,-0.0010416927321974059,-0.22450997334600875
1782477374423016192,0.6395072937011719,0.5231895446777344,0.08880626410245895,-1.646347999572754,-0.00141649239230901,0.250639408826828,-0.9680795073509216,0.14507800340652466,0.01858663558959961,0.02182096242904663,0.9847761285295122,-0.12549943033307884,0.014496684985537737,-0.11939684086445919,-0.25334068413216315,-0.0014631974047243886,-0.24149377143380502
1782477374432936192,0.6494271755218506,0.34960493445396423,0.05861213803291321,-1.7676960229873657,-0.004152786917984486,0.24688449501991272,-0.9690360426902771,0.2517876625061035,-0.00517001748085022,0.0292472243309021,0.9839042770953541,-0.12363578367680773,0.014006517408734709,-0.1282595166533009,-0.24946390129116314,-0.004285456296423751,-0.2597908778618044
1782477374442856192,0.6593472957611084,0.37803366780281067,0.1031268760561943,-1.6966900825500488,-0.0071632880717515945,0.2436363399028778,-0.9698402285575867,0.16544270515441895,-0.030257418751716614,0.06093519926071167,0.9828942257787213,-0.12206673332692275,0.013401895845446444,-0.1372551695880268,-0.24611340881372043,-0.007385915743634466,-0.2784068019256918
1782477374452775168,0.6692662239074707,0.17814584076404572,0.016948316246271133,-1.8929966688156128,-0.010331372730433941,0.24107268452644348,-0.970452070236206,0.06945917755365372,-0.12312224507331848,0.050118207931518555,0.9817433180680041,-0.12087737162361635,0.01275247395348194,-0.14630813273993973,-0.24347098272084855,-0.010645536148855644,-0.29718255962131945
1782477374462695424,0.6791863441467285,0.08013532310724258,-0.003967542201280594,-1.9088945388793945,-0.014429246075451374,0.24004803597927094,-0.970653772354126,0.0938970148563385,-0.14538250863552094,0.023571252822875977,0.9802844254454778,-0.12055279806538266,0.011837935114967535,-0.15610725671844383,-0.24241533348865935,-0.01486439761130175,-0.3176523828285088
1782477374472615168,0.6891062259674072,0.089930959045887,-0.05497133731842041,-1.998602271080017,-0.01882551796734333,0.23931214213371277,-0.97076016664505,0.07967756688594818,-0.11084839701652527,-0.014713466167449951,0.9787339014386782,-0.12043194637353566,0.010773234548986562,-0.16571091994578607,-0.24165734635290156,-0.019390122029586877,-0.3377963188762183
1782477374482534144,0.6990251541137695,0.19140352308750153,-0.09719789028167725,-2.0217912197113037,-0.02388136088848114,0.23786604404449463,-0.9710043668746948,0.03245680034160614,-0.07903732359409332,-0.061359524726867676,0.9770809779349442,-0.12004365275573946,0.009346229219862225,-0.17554200555801786,-0.24016825023273874,-0.02458953801221161,-0.35849371718812995
1782477374492454400,0.7089452743530273,0.3452812433242798,-0.1752660572528839,-2.046980857849121,-0.029565250501036644,0.23514263331890106,-0.9715111255645752,0.002770816907286644,-0.08975690603256226,-0.0732734203338623,0.9754568085397305,-0.11911787631669037,0.00744152263974162,-0.18503947686635933,-0.23736531816321638,-0.030422842248563006,-0.37856350753150786
1782477374502374144,0.718865156173706,0.4984242916107178,-0.20845738053321838,-2.130593776702881,-0.035627078264951706,0.23058517277240753,-0.9723997116088867,-0.05525427311658859,-0.12214095890522003,-0.07482624053955078,0.973768315788193,-0.11735919333078061,0.005192732637915363,-0.1948723206473825,-0.23267901356302878,-0.03662192676181142,-0.399305862866494
1782477374512293376,0.7287843227386475,0.5435451865196228,-0.30472663044929504,-2.2609684467315674,-0.04266141727566719,0.22501803934574127,-0.9734202027320862,-0.11021639406681061,-0.12754490971565247,0.007187902927398682,0.9719039644091807,-0.11525707124002865,0.002388808058700125,-0.20521431864370807,-0.2269615552335985,-0.04379828574082777,-0.42117297260966324
1782477374522213120,0.7387042045593262,0.366393506526947,-0.5935139060020447,-2.3066418170928955,-0.05145047977566719,0.2194063663482666,-0.9742760062217712,-0.1458914428949356,-0.1078035980463028,0.14866870641708374,0.9696971967856095,-0.11340420207602249,-0.0012225514501459005,-0.21639176656364265,-0.22120597658819333,-0.052759929693957985,-0.4449740032117226
1782477374532133376,0.748624324798584,0.14503715932369232,-0.9297789931297302,-2.307643175125122,-0.06330136954784393,0.2160441130399704,-0.9743294715881348,-0.16242189705371857,-0.008417770266532898,0.33628320693969727,0.9673113923536314,-0.11312376535518628,-0.006187687902915457,-0.22687773396210673,-0.21776107498726008,-0.06487798244301853,-0.4678553426559578
1782477374542052352,0.7585432529449463,0.21178123354911804,-1.3002582788467407,-2.4823288917541504,-0.07907544821500778,0.21331721544265747,-0.9737775921821594,-0.17966783046722412,-0.0048974305391311646,0.4616163969039917,0.9645932074639578,-0.11376753971975057,-0.012966855599997896,-0.23758960640791088,-0.2149690715676303,-0.08102704468049653,-0.49175432516645035
1782477374551972096,0.768463134765625,0.39213690161705017,-1.668757438659668,-2.4624438285827637,-0.0988084152340889,0.20866861939430237,-0.9729821681976318,-0.0723036527633667,-0.05759134888648987,0.5598657131195068,0.9616423030297476,-0.11414956928998375,-0.021881267108782673,-0.24846571069978132,-0.21021341364254653,-0.10120517742495815,-0.5163791243294658
1782477374561892352,0.7783832550048828,0.41303750872612,-2.0167903900146484,-2.4286880493164062,-0.12139128893613815,0.2020619809627533,-0.9718205332756042,0.13835906982421875,-0.0926106870174408,0.5753514170646667,0.9585917064130562,-0.11416817638372777,-0.032486467911391176,-0.2588671107354793,-0.20346287190710227,-0.1242675828190496,-0.5402176297904167
1782477374571812096,0.7883031368255615,0.5741840600967407,-2.181750535964966,-2.4379937648773193,-0.14620240032672882,0.19449900090694427,-0.9699458479881287,0.24230225384235382,-0.11655713617801666,0.5968837738037109,0.9552807105456411,-0.1142891174010172,-0.044329000193820974,-0.26909439672923874,-0.1957466778332143,-0.14960628543802618,-0.5638696086104834
1782477374581731328,0.7982223033905029,0.8118239045143127,-2.1927411556243896,-2.545027017593384,-0.17200236022472382,0.1840040385723114,-0.9677591323852539,0.3434653580188751,-0.2496168315410614,0.5151681900024414,0.9517617130570282,-0.11341562784716565,-0.05707308803820397,-0.27933713873045196,-0.18505850334551563,-0.17589584161518482,-0.5873202111699247
1782477374591651328,0.8081421852111816,1.0705691576004028,-1.8609498739242554,-2.6334404945373535,-0.19607602059841156,0.17049816250801086,-0.9656524062156677,0.40210017561912537,-0.35422924160957336,0.4624633193016052,0.94792529931846,-0.11117781552664183,-0.06937785630885696,-0.29028257609235175,-0.17133521193882675,-0.20032681643294015,-0.6115849937643606
1782477374601571328,0.8180623054504395,1.184169888496399,-1.3764842748641968,-2.736342430114746,-0.21541227400302887,0.15436822175979614,-0.9642447829246521,0.33752837777137756,-0.41991692781448364,0.3361777663230896,0.9439979135561348,-0.10726846873341041,-0.07981907370304746,-0.30164596651453485,-0.15498797463682285,-0.21979101413192906,-0.6357081685711891
1782477374611490304,0.8279812335968018,1.0892242193222046,-0.9656423926353455,-2.926581382751465,-0.2304832935333252,0.13708361983299255,-0.9633719325065613,0.2251122146844864,-0.46755847334861755,0.21498936414718628,0.9396996020652051,-0.10248145972203289,-0.08838309769203079,-0.3140869425497837,-0.13751663585718163,-0.23483232934289255,-0.6613825373693404
1782477374621410048,0.8379011154174805,1.2053351402282715,-0.4723055064678192,-3.0484464168548584,-0.24143637716770172,0.11954838037490845,-0.9630247354507446,0.19135704636573792,-0.38637882471084595,0.1549956202507019,0.9350576214449063,-0.09721058031020774,-0.09506697852372685,-0.32738292639712036,-0.1198349843955504,-0.2456433088727483,-0.688374715640506
1782477374631330304,0.8478212356567383,0.45172318816185,-0.35152342915534973,-3.2894184589385986,-0.24871551990509033,0.10528761148452759,-0.9628370404243469,0.24644196033477783,-0.5409565567970276,0.22382336854934692,0.9298709152777549,-0.09317629230135764,-0.09949709381739147,-0.3416996208995468,-0.10548311407409387,-0.2527893699763305,-0.7177216230787159
1782477374641249280,0.8577401638031006,0.5884062647819519,-0.0919579267501831,-3.500291347503662,-0.25370943546295166,0.0913645550608635,-0.962955892086029,0.10078585147857666,-0.4099070429801941,-0.05854374170303345,0.9240786709976153,-0.08917190976448913,-0.10281257852731616,-0.35715068649780024,-0.09149214424432134,-0.2576150511198499,-0.7494769884574289
1782477374651169280,0.8676602840423584,0.48036181926727295,0.11989787220954895,-3.5486252307891846,-0.2565419375896454,0.07775702327489853,-0.9634002447128296,0.16219687461853027,-0.3770886957645416,-0.07642513513565063,0.9176883511340249,-0.08515375927206544,-0.10511281892871599,-0.3735615018367385,-0.07783558999023658,-0.26024885236142714,-0.783359976468696
1782477374661089280,0.8775801658630371,0.571558952331543,0.37770214676856995,-3.7067885398864746,-0.2565605044364929,0.06336672604084015,-0.9644487500190735,0.12283247709274292,-0.11109621822834015,-0.2337629199028015,0.9109249983207794,-0.08037506929833989,-0.10637425413709543,-0.39043562020983136,-0.06340920727084687,-0.2599964906013317,-0.8181488074917468
1782477374671009280,0.8875002861022949,1.2160378694534302,0.726207971572876,-3.8051648139953613,-0.2530684471130371,0.04551460221409798,-0.9663771390914917,0.0628218948841095,0.020830616354942322,-0.3131181001663208,0.9037768696522663,-0.07341402981499766,-0.10687286789628356,-0.40789212772309574,-0.0455303303273642,-0.2561220279110863,-0.8537651438950524
1782477374680928256,0.8974192142486572,1.8346081972122192,0.7920871376991272,-3.8869314193725586,-0.24661609530448914,0.021276649087667465,-0.9688796401023865,0.03422902524471283,0.09443074464797974,-0.44397735595703125,0.8965318368326902,-0.06292930099334398,-0.10770362628349239,-0.4250534416619412,-0.021278255193264112,-0.24924455870722256,-0.8881071470530089
1782477374690848256,0.907339334487915,2.4484729766845703,0.7203251123428345,-3.970472812652588,-0.2392130345106125,-0.00882099661976099,-0.9709270596504211,-0.04630942642688751,0.10019062459468842,-0.49962347745895386,0.8889419130163193,-0.04965115639348176,-0.10986921457108033,-0.44186619779025765,0.008821110695252404,-0.2415648597509949,-0.9215307402661177
1782477374700768256,0.9172592163085938,3.0677194595336914,0.498290091753006,-4.174646854400635,-0.23193393647670746,-0.04512966051697731,-0.9716840982437134,-0.07539334893226624,0.05594814196228981,-0.5644029378890991,0.8805512594393048,-0.033811579039472676,-0.11408213630417127,-0.4587717203063382,0.04514499205868126,-0.23430854507944393,-0.9553061354124633
1782477374710687232,0.927178144454956,3.6061673164367676,0.3066340982913971,-4.205479145050049,-0.2252097725868225,-0.08668230473995209,-0.9704466462135315,-0.1186470240354538,0.04826067388057709,-0.5147522687911987,0.8711071861329724,-0.01606112963107003,-0.12049358536169108,-0.47581053488508807,0.08679122497796532,-0.22803174175490232,-0.9899181846427627
1782477374720607232,0.9370982646942139,4.226405620574951,0.2297510951757431,-4.248509883880615,-0.21779100596904755,-0.13363315165042877,-0.9668036103248596,-0.09808117151260376,0.006588488817214966,-0.4710472822189331,0.8607587483182984,0.00395417401391589,-0.1287732399363125,-0.49243915235048563,0.1340341133321161,-0.2215705813690824,-1.0243705890087083
1782477374730527232,0.9470181465148926,4.6884236335754395,0.09452216327190399,-4.253681659698486,-0.2093179076910019,-0.18531261384487152,-0.9601277112960815,-0.2733786106109619,-0.07474291324615479,-0.4188395142555237,0.8494098461644495,0.026003059369808294,-0.13878032175065846,-0.5084946747780774,0.18638998136899596,-0.2146518445815175,-1.058705423965132
1782477374740446208,0.956937313079834,5.283902645111084,-0.15378934144973755,-4.234072208404541,-0.2000955492258072,-0.24158549308776855,-0.9495252370834351,-0.3070913255214691,-0.12554094195365906,-0.38830429315567017,0.8370002956244741,0.049976367473763335,-0.15079699474294406,-0.5236345451025768,0.24399941656075047,-0.20769337158565404,-1.0925180773750072
1782477374750366208,0.9668571949005127,5.628504276275635,-0.3861061930656433,-4.145986080169678,-0.1911005973815918,-0.30073773860931396,-0.9343646764755249,-0.3320622444152832,-0.20438918471336365,-0.2905650734901428,0.8233377887020933,0.07486834630924256,-0.16496176750736502,-0.537863644459409,0.3054661227381123,-0.20174235356449882,-1.1261863773136243
1782477374760286208,0.9767773151397705,5.541595935821533,-0.6082755923271179,-4.012819766998291,-0.18214580416679382,-0.3597453236579895,-0.915099024772644,-0.3469984829425812,-0.273051917552948,-0.16751205921173096,0.8089392539446996,0.09958833162658207,-0.18036810000126563,-0.5506059754050602,0.367994934197927,-0.19647704446028222,-1.15856581943719
1782477374770206208,0.9866971969604492,5.402562618255615,-0.7468555569648743,-3.8233821392059326,-0.1730535626411438,-0.415291965007782,-0.8930761814117432,-0.4215051531791687,-0.353415310382843,-0.029088735580444336,0.79363384778098,0.12265989105572869,-0.19600119159363302,-0.5627463095731348,0.42826374340308343,-0.1914004235181432,-1.1918374073719629
1782477374780125184,0.9966161251068115,5.664956569671631,-0.6431184411048889,-3.652662992477417,-0.16252855956554413,-0.4696148931980133,-0.8677824139595032,-0.4561848044395447,-0.2412768304347992,-0.07473772764205933,0.7778899514203785,0.14568942418546688,-0.2118569979414587,-0.5733919854221827,0.4888545229055077,-0.18514685126985325,-1.224100798720489
1782477374790045184,1.0065362453460693,5.837001800537109,-0.7450354695320129,-3.566859245300293,-0.15046045184135437,-0.5237918496131897,-0.8384531736373901,-0.512411892414093,-0.0731624960899353,-0.10049641132354736,0.7614078550359638,0.16924718655583712,-0.22831733596329468,-0.5826530527848023,0.5512962332967898,-0.17756017713637315,-1.2560116052136912
1782477374799965184,1.016456127166748,6.259940147399902,-0.6157550811767578,-3.5744006633758545,-0.1366599053144455,-0.5779902338981628,-0.8045193552970886,-0.5050637125968933,-0.024884521961212158,-0.05128508806228638,0.7447826575299528,0.19390783560163172,-0.2452347252742095,-0.589540974874723,0.6162637077458191,-0.1682592247052416,-1.2854827052456488
1782477374809884416,1.0263752937316895,6.8470025062561035,-0.4197232723236084,-3.4507694244384766,-0.11940564215183258,-0.6332744359970093,-0.7646605968475342,-0.5442906618118286,0.014973044395446777,-0.04284977912902832,0.7261276398263328,0.22026159833415246,-0.26297247560394776,-0.5958767295150933,0.6857768481024279,-0.15490408982084633,-1.318983869823946
1782477374819804160,1.0362951755523682,7.479386329650879,-0.42653322219848633,-3.2776529788970947,-0.10039911419153214,-0.6893919706344604,-0.7173972725868225,-0.4987982511520386,0.06570422649383545,0.028264522552490234,0.7063641479925354,0.2484825599069474,-0.28205990563414957,-0.5997903702068315,0.7606493524622815,-0.13904604229526704,-1.3523057223967778
1782477374829724416,1.046215295791626,8.278857231140137,-0.5682237148284912,-2.9927632808685303,-0.08141478896141052,-0.7460998296737671,-0.6608379483222961,-0.4799560606479645,0.08412778377532959,0.06721001863479614,0.6850586657066057,0.27829188415959394,-0.3035369190194065,-0.6009273410564917,0.8421850802867343,-0.1225816345752387,-1.3851820304167035
1782477374839643136,1.0561342239379883,8.737480163574219,-0.8531762361526489,-2.5933849811553955,-0.06443142145872116,-0.8010449409484863,-0.5951265692710876,-0.46610140800476074,0.15956544876098633,0.16380637884140015,0.6623016266407078,0.3083971712583873,-0.3276093753642215,-0.5990992463002062,0.9290388391524385,-0.1078450161671505,-1.416591023844303
1782477374849563392,1.066054344177246,9.15937328338623,-1.2002466917037964,-2.2098965644836426,-0.05062365159392357,-0.8520126938819885,-0.5210678577423096,-0.42566415667533875,0.21891027688980103,0.32725071907043457,0.6381774497935265,0.3376881179581071,-0.35416492469936317,-0.5943598003655806,1.019817840571126,-0.09684970766116612,-1.4455336448483254
1782477374859483136,1.0759742259979248,9.402870178222656,-1.5053399801254272,-1.885634183883667,-0.03941848874092102,-0.897165060043335,-0.4399329721927643,-0.4295603930950165,0.23664265871047974,0.38378065824508667,0.61260765605738,0.3656197000326457,-0.3825646988237357,-0.587093145136914,1.1133088079037057,-0.08936248643131463,-1.4726351487557794
1782477374869403136,1.0858941078186035,9.541152000427246,-1.6087372303009033,-1.441726803779602,-0.030579671263694763,-0.9350327849388123,-0.3532401919364929,-0.42904558777809143,0.16223615407943726,0.3988944888114929,0.5860267923025883,0.39187632242563525,-0.4120835563540183,-0.5772284686579046,1.208351473956172,-0.0863537717732908,-1.4960415201749804
1782477374879322368,1.095813274383545,9.848648071289062,-1.5636929273605347,-1.0263516902923584,-0.024176908656954765,-0.964881181716919,-0.26157212257385254,-0.3877340853214264,0.0742255449295044,0.36182233691215515,0.5589016498753944,0.41664757348138404,-0.44228807830624506,-0.5642828544800793,1.3049907172761912,-0.09216736006840844,-1.5099285301543528
1782477374889242112,1.1057331562042236,10.148255348205566,-1.381941556930542,-0.7962074875831604,-0.018835119903087616,-0.9862202405929565,-0.16436254978179932,-0.3676852583885193,0.06622195243835449,0.19317112863063812,0.530911213535022,0.44081927414076905,-0.47275478878407157,-0.5480097460005053,1.4045945897943393,-0.11409725499344604,-1.5059086933863184
1782477374899162368,1.1156532764434814,10.285492897033691,-1.0862095355987549,-0.559680700302124,-0.013776063919067383,-0.9978906512260437,-0.06343855708837509,-0.3725917339324951,0.1236688494682312,0.1644364595413208,0.5023048361005626,0.46449641525784746,-0.5025174625748711,-0.5285916347753918,1.5058333155030985,-0.21383599317122434,-1.4213129395028365
1782477374909081344,1.1255722045898438,10.118433952331543,-0.8102530837059021,-0.2992746829986572,-0.009903430007398129,-0.999231219291687,0.03793422877788544,-0.3225092887878418,0.08004176616668701,0.12814247608184814,0.47388075957035053,0.4869739981260796,-0.5308704539671774,-0.5064286391500159,1.5315820655358243,-2.8862240693958343,1.2389510400916193
1782477374919001344,1.1354923248291016,10.574963569641113,-0.8837786316871643,0.0809587687253952,-0.008162078447639942,-0.9901832342147827,0.13953708112239838,-0.26626724004745483,-0.06393969058990479,0.10164332389831543,0.4452016740233822,0.5077494906237447,-0.5585328926978608,-0.48169174776634627,1.4305616181117982,-3.083165252730801,1.424852598401062
1782477374928921344,1.1454122066497803,11.339683532714844,-0.765232264995575,0.5956886410713196,-0.010208998806774616,-0.9691579341888428,0.24622870981693268,-0.17846593260765076,-0.19156283140182495,0.16142509877681732,0.4149117487325538,0.5273426416518078,-0.5873875128559106,-0.4524752254763327,1.3217905189523333,-3.1001549379735067,1.4309488996313968
1782477374938840064,1.1553311347961426,12.06675910949707,-0.8690414428710938,0.9708396196365356,-0.015530429780483246,-0.9339310526847839,0.35711556673049927,-0.15433041751384735,-0.08288407325744629,0.35545456409454346,0.3824853370326602,0.5455340923383237,-0.6172117482448417,-0.4185058858180706,1.2052569110806663,-3.0981315125482083,1.4177579629447774
1782477374948760320,1.1652512550354004,12.344223976135254,-1.1604344844818115,1.3995451927185059,-0.02230866439640522,-0.8835340142250061,0.46783554553985596,-0.12254300713539124,-0.03304630517959595,0.5067891478538513,0.3476079400007136,0.5611444849411764,-0.6473288471118557,-0.38111809148454034,1.0833547428070298,-3.0939439048632282,1.3997297714403285
1782477374958680064,1.175171136856079,11.685476303100586,-1.524264931678772,1.8813447952270508,-0.029620854184031487,-0.8207242488861084,0.5705559849739075,-0.08518628776073456,-0.23347491025924683,0.643311083316803,0.31182927291712353,0.5723052832959663,-0.6765683034569286,-0.3427600277989129,0.9626774858560277,-3.08972345038953,1.3771148247090943
1782477374968600320,1.185091257095337,9.930256843566895,-1.6833235025405884,2.273589611053467,-0.036307092756032944,-0.753799319267273,0.6561008095741272,-0.06652189791202545,-0.5514526963233948,0.689815878868103,0.27834898309511985,0.5776689575685747,-0.7030995612042902,-0.30736202647568434,0.8538250106955573,-3.086311363978365,1.3503992527933713
1782477374978519296,1.1950101852416992,8.054116249084473,-1.3754926919937134,2.671966791152954,-0.043779972940683365,-0.6914904713630676,0.7210574746131897,-0.12315118312835693,-0.9080729484558105,0.5710261464118958,0.25057905907143635,0.5777171018105324,-0.7257903962288297,-0.27691388565968894,0.7635503137776511,-3.0809507559867373,1.3202215444392236
1782477374988439296,1.204930305480957,7.118971347808838,-0.7294017672538757,3.085171937942505,-0.05560019612312317,-0.6342893242835999,0.7710937261581421,-0.19880959391593933,-1.1783937215805054,0.37668758630752563,0.22901955837381924,0.5741215136047849,-0.7456080481458748,-0.24900430280660715,0.6870889277273948,-3.0696116035854573,1.2866035176264414
1782477374998359296,1.2148501873016357,7.341183185577393,-0.19409246742725372,3.2292051315307617,-0.07272104173898697,-0.5754871368408203,0.8145712614059448,-0.15501637756824493,-0.9635601043701172,0.20843899250030518,0.21106366899044665,0.5689753842940615,-0.7639061787170796,-0.21946875549835318,0.6131996880298518,-3.052553466600801,1.2521550373222554
1782477375008278016,1.224769115447998,8.087041854858398,0.05214552581310272,3.202634334564209,-0.09521946310997009,-0.5071820020675659,0.8565629124641418,0.03027806431055069,-0.43701666593551636,0.05525672435760498,0.19398134229799557,0.5633336728101214,-0.7816243456029729,-0.18463445620504534,0.5319118987887674,-3.0308826009392074,1.2188095765682796
1782477375018198272,1.2346892356872559,8.32577896118164,0.26481038331985474,3.200422763824463,-0.11715977638959885,-0.4306187927722931,0.8948972225189209,0.18695348501205444,-0.18263188004493713,0.1251528263092041,0.17605655930612119,0.557664783870134,-0.7977835460784776,-0.14681783567743534,0.44517828271309423,-3.011413223324416,1.1906284196893193
1782477375028118016,1.2446091175079346,8.330550193786621,0.40021294355392456,3.2572507858276367,-0.13510671257972717,-0.3504685163497925,0.9267783164978027,0.18402639031410217,-0.51197350025177,0.36553430557250977,0.15725306203722741,0.5515412070664757,-0.8119060553111019,-0.1090061080831593,0.35807131148661187,-2.9968313574156165,1.1671760152014101
1782477375038037248,1.254528284072876,7.764035224914551,0.5862528681755066,3.3411662578582764,-0.15069811046123505,-0.2701226770877838,0.950959324836731,0.08905261754989624,-0.9987371563911438,0.4888293743133545,0.13903162304775504,0.5444170591605835,-0.8240690022611138,-0.0720451234776348,0.2735204465588725,-2.984429975191735,1.1459718696542225
1782477375047957248,1.2644481658935547,6.42432975769043,0.6227394938468933,3.426072120666504,-0.16458606719970703,-0.19692088663578033,0.96650630235672,0.14592450857162476,-0.9402251839637756,0.49359238147735596,0.12346447432071972,0.535339449603524,-0.8346644982332863,-0.03877611099938422,0.19821632345209172,-2.9729209521289643,1.1237761450879848
1782477375057877248,1.2743682861328125,4.839399337768555,0.7420206665992737,3.4857780933380127,-0.17677175998687744,-0.1368115246295929,0.9746967554092407,0.3057238459587097,-0.6892839670181274,0.4028969407081604,0.11188894257791229,0.5246083370289555,-0.8438805942387037,-0.011503870920662225,0.13724195899960304,-2.962181951950658,1.1000265648729821
1782477375067796224,1.2842872142791748,3.1226613521575928,1.0992530584335327,3.716461658477783,-0.18977513909339905,-0.09189705550670624,0.9775172472000122,0.43409883975982666,-0.6559209227561951,0.3413759469985962,0.10559991562145643,0.511690682500402,-0.8526026441048705,0.009483860374828542,0.09202689713142646,-2.94983806314126,1.072204954007827
1782477375077716224,1.2942073345184326,1.5146485567092896,1.2653149366378784,3.817523717880249,-0.2044987678527832,-0.0621374174952507,0.9768927693367004,0.4319920241832733,-0.6881524920463562,0.25702452659606934,0.1046929529871602,0.49705038235919996,-0.8610384959332174,0.02435310823454724,0.062177472924015924,-2.9352365489084495,1.0406346485440496
1782477375087636224,1.3041272163391113,-0.24531853199005127,1.1465874910354614,3.9600839614868164,-0.21824714541435242,-0.04782900586724281,0.9747208952903748,0.47432011365890503,-0.6188580393791199,0.21052086353302002,0.107751410421348,0.4808466410927369,-0.8695671041574412,0.03208194189485468,0.047847259442220846,-2.9213184716424516,1.0049527780984173
1782477375097556480,1.3140473365783691,-1.107857584953308,1.192568302154541,4.178574562072754,-0.23137226700782776,-0.04636337608098984,0.9717599749565125,0.5618928670883179,-0.5781331062316895,0.15664279460906982,0.11396204809856922,0.4628396903586456,-0.8784414660221311,0.03365559623126256,0.046380001773257615,-2.9078486491032893,0.9644045199062301
1782477375107475200,1.3239662647247314,-1.389496088027954,1.3010995388031006,4.261912822723389,-0.24547697603702545,-0.04852856695652008,0.9681870937347412,0.47321438789367676,-0.5786839723587036,-0.02308809757232666,0.12160189953808763,0.4436709207915497,-0.8872709124142593,0.033458714179406206,0.048547633611581764,-2.893282281560998,0.9212994475295642
1782477375117395200,1.3338861465454102,-1.529977560043335,1.337851881980896,4.468830585479736,-0.2602507472038269,-0.05175153538584709,0.9641531705856323,0.468578964471817,-0.4367738664150238,-0.022075533866882324,0.12987014978390626,0.4235456308931751,-0.8959272795486101,0.03251398597052025,0.05177466328272969,-2.8779490951361772,0.8763482560243995
1782477375127315200,1.343806266784668,-1.488747000694275,1.2801148891448975,4.5714569091796875,-0.2751527428627014,-0.05441541597247124,0.9598593711853027,0.4605470299720764,-0.27097827196121216,-0.08022069931030273,0.1381440249038829,0.40257425755399817,-0.9043581402895341,0.03140959150020452,0.05444230720474584,-2.862419403577455,0.8299742769055805
1782477375137234176,1.3537251949310303,-1.0977184772491455,1.1392323970794678,4.627970218658447,-0.2889974117279053,-0.05436590686440468,0.9557849764823914,0.4037129580974579,-0.24961969256401062,-0.09091675281524658,0.14542185303706875,0.38132535615403296,-0.9124053204619861,0.03098413085214501,0.05439272492515345,-2.8479661254195943,0.7836958977170404
1782477375147154432,1.363645315170288,-0.7928923964500427,1.0281755924224854,4.820378303527832,-0.3016818165779114,-0.04970064014196396,0.9521122574806213,0.44255098700523376,-0.32563504576683044,-0.09206598997116089,0.15136425539426787,0.35954136504498396,-0.9202098340028603,0.03213548765406986,0.049721122632565055,-2.8347448924393857,0.7372656323098155
1782477375157074176,1.3735651969909668,-0.38999703526496887,1.0113122463226318,4.831373691558838,-0.31339678168296814,-0.040876857936382294,0.9487419128417969,0.4074673056602478,-0.3330702781677246,-0.0367547869682312,0.1562646201075365,0.3373258798568496,-0.92767570358777,0.03478982026138816,0.04088825117105686,-2.8225485967752584,0.6909421424436909
1782477375166993152,1.383484125137329,0.02160782739520073,0.9803946018218994,4.716122627258301,-0.32437634468078613,-0.02766132354736328,0.9455239176750183,0.31612125039100647,-0.2975340187549591,-0.09576165676116943,0.16028599336775065,0.3155575413471167,-0.9344438921095657,0.03932691170163071,0.027664851808578073,-2.8111091414085814,0.6467291433242893
1782477375176913152,1.393404245376587,0.38014888763427734,0.8227830529212952,4.864611625671387,-0.33380675315856934,-0.010620019398629665,0.9425815343856812,0.3498590886592865,-0.36315926909446716,-0.09709221124649048,0.16324966499285395,0.2939740554911071,-0.9406753008633388,0.045372889538128916,0.010620218755989402,-2.801233527597741,0.6039699049501472
1782477375186833152,1.4033241271972656,0.5507432222366333,0.7832193970680237,4.725821495056152,-0.34100785851478577,0.009835031814873219,0.9400092363357544,0.3690534234046936,-0.35747602581977844,-0.05426681041717529,0.16499841168945684,0.2721752050746077,-0.9465332915289381,0.052640507132599185,-0.009835190451305554,-2.7935863747661576,0.5617200559993285
1782477375196753152,1.4132442474365234,0.2855788767337799,0.8274443745613098,4.731252193450928,-0.3474670350551605,0.029338140040636063,0.9372331500053406,0.35839229822158813,-0.37832191586494446,0.0544661283493042,0.1668958816521959,0.25085822517433093,-0.951675748293232,0.05940707719912199,-0.029342350290945812,-2.7865646128150328,0.5207318620887359
1782477375206672128,1.4231631755828857,0.16873694956302643,0.8022748231887817,4.915616512298584,-0.353270947933197,0.04752536863088608,0.9343132972717285,0.48294010758399963,-0.4258212745189667,0.15211260318756104,0.16906486630880496,0.22872224069467476,-0.9564741443540848,0.06527262632100511,-0.04754327755247313,-2.780100310541657,0.478135256592706
1782477375216592384,1.4330832958221436,0.26484936475753784,0.6830807328224182,4.894782543182373,-0.35722899436950684,0.06592178344726562,0.9316876530647278,0.49120116233825684,-0.4656257629394531,0.191542387008667,0.170685868668487,0.20589019197861103,-0.9609646520306673,0.07086986606207983,-0.06596961927343437,-2.7754593527999254,0.4343432460222368
1782477375226512128,1.4430031776428223,0.3248213529586792,0.579680860042572,4.8366312980651855,-0.35963454842567444,0.08550648391246796,0.9291670322418213,0.5275270342826843,-0.47379690408706665,0.16143947839736938,0.17173834646845473,0.18341208368441145,-0.9648541519012743,0.0769568430458298,-0.08561102218400998,-2.772299268148102,0.39170287487755906
1782477375236431360,1.4529223442077637,0.42997708916664124,0.4860231876373291,4.798161506652832,-0.3598059117794037,0.1055259257555008,0.9270406365394592,0.5116003155708313,-0.5139121413230896,0.1293102502822876,0.17197163789689499,0.16107869932045163,-0.9682840280033725,0.0830995129831191,-0.1057227660052109,-2.7713667007027443,0.3495055995590446
1782477375246351360,1.4628422260284424,0.5757023096084595,0.4595513641834259,4.948950290679932,-0.35821354389190674,0.1265624463558197,0.9250218272209167,0.41862305998802185,-0.6727813482284546,0.028545856475830078,0.17162105074454706,0.1385682643170527,-0.971241348198013,0.08964039196556704,-0.12690278768276397,-2.7721268347328616,0.3071741244168117
1782477375256271104,1.472762107849121,0.9613437056541443,0.5028220415115356,4.7348833084106445,-0.35603567957878113,0.1496892273426056,0.9224052429199219,0.3597588837146759,-0.563171923160553,-0.0808832049369812,0.17124035237745905,0.11626817877061066,-0.9734908006131422,0.09733468192830175,-0.1502539510136425,-2.7732252348062296,0.26578490846252645
1782477375266190336,1.4826812744140625,0.8685829043388367,0.41682666540145874,4.869441509246826,-0.3525204062461853,0.17471614480018616,0.9193496704101562,0.3171658217906952,-0.5237457156181335,-0.15949243307113647,0.17051362699433922,0.09422733193823243,-0.9750877054258279,0.10606749949764371,-0.1756174676532527,-2.775438428226092,0.22526777729740194
1782477375276110080,1.4926011562347412,0.2788635194301605,0.3791617155075073,4.822507858276367,-0.3472013473510742,0.19553910195827484,0.9171780943870544,0.33218666911125183,-0.522199273109436,-0.08401775360107422,0.16951046485723592,0.07179816265567225,-0.9764394878397951,0.11259283405773779,-0.19680713031518987,-2.779709887563374,0.18291405399262356
1782477375286030848,1.5025217533111572,-0.528747022151947,0.3768618106842041,4.901184558868408,-0.3409807085990906,0.20939747989177704,0.9164522290229797,0.38680288195610046,-0.6600047945976257,-0.09417140483856201,0.16865523552393194,0.048487938339383446,-0.9776886140751943,0.1154523863296279,-0.21095873651051267,-2.7853967405593005,0.13721822157910085
1782477375295950592,1.512441635131836,-0.5556199550628662,0.3398861587047577,5.264315605163574,-0.33388522267341614,0.21814651787281036,0.9170241951942444,0.425010621547699,-0.5992499589920044,-0.09434628486633301,0.16777715332839602,0.023642611436421844,-0.9787507966347225,0.11549410461363256,-0.21991483881490795,-2.792415397531009,0.08724414923030747
1782477375305869824,1.5223608016967773,-0.32706162333488464,0.03977826610207558,5.296121597290039,-0.32485753297805786,0.22511592507362366,0.9185805916786194,0.41451817750930786,-0.5068084001541138,-0.16249239444732666,0.16602817975996711,-0.0016101352484467343,-0.9794323340297548,0.11464868779696948,-0.2270620077634958,-2.8016684070334947,0.035843292349579385
1782477375315789824,1.532280683517456,-0.21685874462127686,-0.11132466793060303,5.375837326049805,-0.3137049973011017,0.23255027830600739,0.920602560043335,0.33415186405181885,-0.6447665095329285,-0.17647743225097656,0.16325378389520492,-0.02685886762745517,-0.9795814822282859,0.11422258156778395,-0.23469902766101883,-2.8131726081639306,-0.01575903977943451
1782477375325709568,1.5422005653381348,-0.3895900249481201,-0.34723225235939026,5.314486980438232,-0.29951211810112,0.24445125460624695,0.9222449660301208,0.3404362201690674,-0.5874383449554443,-0.19472134113311768,0.15922565711729883,-0.05261429056772241,-0.9789556834001609,0.11629543678325084,-0.24695373052703246,-2.8275740769878155,-0.06809664805161426
1782477375335628800,1.5521197319030762,-1.0708515644073486,-0.4425332248210907,5.435284614562988,-0.28269192576408386,0.2519958019256592,0.9255182147026062,0.3040693998336792,-0.6320006251335144,-0.23585116863250732,0.15392768812465177,-0.07902304399571848,-0.9780155724603675,0.11639289083380645,-0.25474204686059254,-2.8451509240568917,-0.1230090390693728
1782477375345548544,1.5620396137237549,-1.1072263717651367,-0.3649313747882843,5.361446857452393,-0.2657719552516937,0.2549663484096527,0.9297082424163818,0.24462321400642395,-0.5573344826698303,-0.27554869651794434,0.1484682484056107,-0.10572895769642211,-0.9765631177243723,0.1144685679158164,-0.25781290232135606,-2.8631527740348175,-0.1793687842493639
1782477375355468800,1.5719597339630127,-0.5171359181404114,-0.4897128641605377,5.292463779449463,-0.24842160940170288,0.26053741574287415,0.932956337928772,0.3370598554611206,-0.32492944598197937,-0.33128678798675537,0.14297447258011112,-0.1318307954537328,-0.974217026492159,0.11436904136477402,-0.2635787969509891,-2.881357306114809,-0.23431676509709812
1782477375365387776,1.581878662109375,-0.20896613597869873,-0.8883808851242065,5.235849857330322,-0.22836647927761078,0.26959070563316345,0.935504674911499,0.32158249616622925,-0.29118192195892334,-0.19032680988311768,0.136460022597743,-0.15707985626439272,-0.9711221703296726,0.11673116857591916,-0.2729679619174692,-2.9021647289845265,-0.2876863872085451
1782477375375307776,1.5917987823486328,-0.7165887951850891,-1.1403918266296387,5.273012161254883,-0.2050597220659256,0.27627408504486084,0.9389480948448181,0.3835265040397644,-0.39604029059410095,-0.06144547462463379,0.12825629464830393,-0.18189063587663223,-0.967672381135883,0.11864389849947084,-0.2799151328302531,-2.926575644380095,-0.34119225563877464
1782477375385227776,1.6017186641693115,-1.7986620664596558,-1.2689692974090576,5.150127410888672,-0.1796046942472458,0.2737021744251251,0.9448966383934021,0.4126673936843872,-0.44775912165641785,-0.016231298446655273,0.1181732450895964,-0.20704769376916887,-0.9641470769120488,0.11656270429324576,-0.277240094223317,-2.953754781536079,-0.3967867218924949
1782477375395147776,1.6116387844085693,-1.9378060102462769,-1.2193083763122559,5.260163307189941,-0.15443259477615356,0.26432937383651733,0.9519875645637512,0.39675742387771606,-0.3838820159435272,-0.17620033025741577,0.10740666674419845,-0.23213636151521208,-0.9602637672963459,0.11166900537439083,-0.267508509451268,-2.9807723688754098,-0.4526979256813105
1782477375405066752,1.6215577125549316,-2.1935696601867676,-1.4334068298339844,5.295363903045654,-0.1285000592470169,0.2519854009151459,0.9591617584228516,0.3331204056739807,-0.16116508841514587,-0.26140785217285156,0.0958172233283468,-0.2576545867816148,-0.9556123726176114,0.10601051569599408,-0.2547313275033542,-3.0084144472079437,-0.5096404257730398
1782477375414986496,1.6314775943756104,-2.111598491668701,-1.5203663110733032,5.083795070648193,-0.10178405046463013,0.2373020201921463,0.9660887122154236,0.14395935833454132,-0.3018925189971924,-0.2230163812637329,0.08330487526184739,-0.2825607328301658,-0.9503703420782792,0.10007921721157016,-0.2395875861576337,-3.036623062282573,-0.5653393061747709
1782477375424906752,1.6413977146148682,-2.2419981956481934,-1.4996761083602905,4.729753494262695,-0.07642040401697159,0.22030483186244965,0.9724330902099609,0.0887189731001854,-0.5068801045417786,-0.28729796409606934,0.0707643090040719,-0.3058224323390523,-0.9448223064130521,0.09368015865162412,-0.22212697087279643,-3.0631670360603667,-0.6173290038987678
1782477375434825728,1.6513166427612305,-1.9307036399841309,-1.5233891010284424,4.625380516052246,-0.05179254338145256,0.2025204449892044,0.9779074192047119,0.14976923167705536,-0.306524395942688,-0.3907187581062317,0.05815330287708371,-0.327846183837204,-0.9388666466846872,0.08754692281119288,-0.203931021392093,-3.088679465283351,-0.6664970426035456
1782477375444745728,1.6612367630004883,-1.8439033031463623,-1.5514404773712158,4.3572773933410645,-0.028399841859936714,0.18580475449562073,0.9821762442588806,0.14403094351291656,-0.18331755697727203,-0.38520658016204834,0.0460368804294719,-0.3485924093026477,-0.9325081451725539,0.0824167267094028,-0.18689081279664135,-3.112685488230847,-0.7127663587334191
1782477375454665728,1.671156644821167,-1.8465619087219238,-1.4214662313461304,3.8117637634277344,-0.0064627984538674355,0.1688307672739029,0.9856241345405579,0.030449610203504562,-0.02402481436729431,-0.27268755435943604,0.034255771626407916,-0.36742934101594843,-0.9261791168745102,0.07755390742662398,-0.16964328979890198,-3.135035685826034,-0.7547855001696474
1782477375464584704,1.6810755729675293,-2.005711078643799,-1.44309401512146,3.522327184677124,0.013096057809889317,0.1498059630393982,0.9886288642883301,-0.04422399029135704,0.1023760586977005,-0.20258748531341553,0.022872239701217666,-0.3840678766604342,-0.9202207878912276,0.07185068334205683,-0.15037202526302954,3.128346740550723,-0.7917697385433821
1782477375474504704,1.690995693206787,-2.6125848293304443,-1.2981969118118286,3.0032615661621094,0.031267277896404266,0.12613165378570557,0.9915205240249634,-0.22638142108917236,0.33002984523773193,-0.11743617057800293,0.010899696700418666,-0.39884706126160124,-0.9147028454227325,0.06419408713960424,-0.12646851171474424,3.1100684248001444,-0.8243649501156127
1782477375484424704,1.7009155750274658,-3.0014281272888184,-0.8699659705162048,2.6703832149505615,0.044670891016721725,0.09703461825847626,0.9942782521247864,-0.31014329195022583,0.33364471793174744,-0.10769665241241455,-0.00036401218885900524,-0.41139447331648715,-0.9098866444445661,0.05348695004308786,-0.09718754171131923,3.0966948883012693,-0.8514451125686631
1782477375494344704,1.7108356952667236,-3.100600004196167,-0.5426842570304871,2.120291233062744,0.05341334268450737,0.06573642045259476,0.9964064955711365,-0.2860183119773865,0.30200040340423584,-0.0640944242477417,-0.010322863080536432,-0.4222422237106134,-0.9054914383631868,0.04111243591558796,-0.06578385665379288,3.0880379375256153,-0.8744356295049756
1782477375504263680,1.720754623413086,-2.94254994392395,-0.33725178241729736,1.7223235368728638,0.05860511586070061,0.03436439111828804,0.9976896643638611,-0.3575095236301422,0.40139612555503845,0.05597555637359619,-0.019055098017487664,-0.4304818299882174,-0.9019590997610032,0.02814436738105441,-0.034371156748295384,3.0829192478146195,-0.8916132719582995
1782477375514183680,1.7306747436523438,-2.592872142791748,-0.2610854208469391,1.1616942882537842,0.061651770025491714,0.005591822322458029,0.9980818629264832,-0.2233644276857376,0.35675865411758423,0.04082787036895752,-0.026515719066129432,-0.4368963132599704,-0.8989786163051753,0.015996521921760598,-0.005591851620688385,3.079900782614038,-0.9049293695164974
1782477375524103680,1.7405946254730225,-2.034200429916382,-0.1389041393995285,0.5930166840553284,0.06341388821601868,-0.017938002943992615,0.9978259205818176,-0.43047934770584106,0.5945066213607788,-0.03301286697387695,-0.032432343757241175,-0.4404311544511768,-0.8971807789304159,0.00592435035803215,0.017938964797672225,3.0781259501265126,-0.9121219216850844
1782477375534022912,1.7505137920379639,-0.9684106111526489,0.0664295107126236,0.09677229076623917,0.06380181014537811,-0.03360678628087044,0.9973964095115662,-0.4206896424293518,0.7466347217559814,-0.010641217231750488,-0.036066066499978094,-0.44161141597825865,-0.8964806469878075,-0.0009773851157886245,0.03361311629877687,3.077711330488248,-0.914355108952978
1782477375543942656,1.7604336738586426,-0.1773044764995575,0.2629372477531433,-0.2647419571876526,0.06225741282105446,-0.03929847478866577,0.9972862601280212,-0.29353487491607666,0.7922891974449158,-0.06476056575775146,-0.03663129982146522,-0.4413663770713152,-0.8965706056477686,-0.00388303337601236,0.03930859761895029,3.079246736401851,-0.9136839099919926
1782477375553862912,1.7703537940979004,1.3982586860656738,0.4162069261074066,-0.6542133092880249,0.05907447636127472,-0.033496685326099396,0.9976914525032043,-0.3008500039577484,0.9446294903755188,0.026707351207733154,-0.03391245552776044,-0.4394096767797541,-0.8976440658129028,-0.0020574771106882184,0.03350295368405704,3.0824505365483845,-0.9094568755571103
1782477375563782656,1.780273675918579,2.492514133453369,0.4391958713531494,-0.7068629264831543,0.054848600178956985,-0.013803266920149326,0.9983994364738464,-0.1674889624118805,0.851388692855835,0.03170633316040039,-0.02769374083911034,-0.4368964644648222,-0.8990668520752081,0.005781176495478701,0.013803704975368442,3.086711291698955,-0.9043011880880886
1782477375573701632,1.7901926040649414,3.5897669792175293,0.1917532980442047,-0.7481765747070312,0.05175318941473961,0.016977505758404732,0.9985154271125793,-0.1379043161869049,0.7306726574897766,0.21941041946411133,-0.019635760462849552,-0.43383730816326066,-0.9005792062346262,0.01888504478288074,-0.016978322047766906,3.089808856021602,-0.8982921164275465
1782477375583621632,1.8001127243041992,3.388826608657837,-0.33199167251586914,-0.4081484079360962,0.051670223474502563,0.05152120813727379,0.9973342418670654,-0.09729401022195816,0.7601242661476135,0.4414626359939575,-0.012195569072515592,-0.43129227698956,-0.9014732914607028,0.0344108464212671,-0.05154402901378244,3.089830599629531,-0.8938216882597967
1782477375593541632,1.810032606124878,1.9323066473007202,-0.7966650724411011,-0.6322401762008667,0.05709255486726761,0.07769119739532471,0.9953415393829346,-0.149469256401062,0.9980534315109253,0.6692246198654175,-0.009089488025961875,-0.4293065569400409,-0.9018684204484323,0.047399124959927895,-0.07776956367748572,3.08429567383205,-0.8907887002718471
1782477375603460864,1.8199517726898193,-0.5014755725860596,-0.7026692628860474,-1.2939428091049194,0.06363479793071747,0.08682248741388321,0.9941890835762024,-0.5346431136131287,1.1171722412109375,0.739010751247406,-0.010328453754711949,-0.4250268228713307,-0.9035744290820195,0.0529022419101131,-0.08693193804868633,3.077673114408954,-0.8821314102059318
1782477375613380608,1.829871654510498,-0.9336725473403931,0.07233472168445587,-0.6523542404174805,0.06562726944684982,0.07836589962244034,0.9947624206542969,-0.5126945376396179,0.6455263495445251,0.8538399934768677,-0.013275388445656835,-0.42063081688873044,-0.9057874628019393,0.04942327867305907,-0.07844633018041036,3.075715311405102,-0.872084059754849
1782477375623300864,1.8397917747497559,-1.921055793762207,-0.4406026005744934,-0.710132360458374,0.06556340306997299,0.06653792411088943,0.9956274628639221,-0.2091486155986786,0.20548048615455627,0.5355919599533081,-0.015881158970565558,-0.41775400005335583,-0.9073562369983115,0.04397763516495454,-0.06658712299552653,3.075836253706425,-0.8651415930390517
1782477375633219840,1.8497107028961182,-2.0947930812835693,-0.07889337092638016,-0.39167848229408264,0.06758342683315277,0.04672570899128914,0.9966186285018921,-0.526750922203064,0.24084141850471497,0.6084684133529663,-0.021052910593511737,-0.41500282040560577,-0.9088905252539032,0.03531764288961179,-0.04674272681357068,3.073883591885436,-0.8582472932619137
1782477375643139584,1.8596305847167969,-1.4610445499420166,-0.3629370629787445,-0.8837728500366211,0.06752657145261765,0.028786439448595047,0.9973020553588867,-0.5381381511688232,0.22368548810482025,0.2514771819114685,-0.024847796163404958,-0.41184076471872244,-0.9105153524390521,0.027046831304561567,-0.028790416702343603,3.0739865902319443,-0.8505302902511598
1782477375653059840,1.8695507049560547,-0.1629582941532135,-0.014716326259076595,-0.2638002634048462,0.06933588534593582,0.020495479926466942,0.9973829388618469,-0.3805236220359802,0.695431649684906,-0.35393500328063965,-0.027454487831525667,-0.4090362100687717,-0.9118008879381517,0.02355516402428206,-0.020496914817607823,3.0721865031935867,-0.8440940808199175
1782477375662978560,1.879469633102417,0.5979270339012146,0.005641143303364515,-0.6435849070549011,0.06960168480873108,0.02171083353459835,0.9973385334014893,-0.549994170665741,0.7026849389076233,-0.6661465764045715,-0.027371513693170157,-0.4073588179706796,-0.9125393508339009,0.02411451511373027,-0.021712538972777598,3.071918195157544,-0.8404712824759261
1782477375672898816,1.8893897533416748,0.7661512494087219,1.0338771343231201,-0.7144967317581177,0.06204577535390854,0.03083152323961258,0.9975968599319458,-0.505725622177124,0.4118717312812805,-0.5991137027740479,-0.022121205981841724,-0.4052174249400682,-0.9135629483397394,0.026686349132640345,-0.03083641008246089,3.0794774229828445,-0.8359244225477814
1782477375682818560,1.8993096351623535,2.8261055946350098,0.016403624787926674,-1.2962172031402588,0.055762793868780136,0.04829787462949753,0.9972754716873169,-0.23934127390384674,0.5018730163574219,-0.2107151746749878,-0.015873822036808465,-0.4005839861822341,-0.9155163559353403,0.033322983508217795,-0.04831667206981814,3.085735679662218,-0.8262545766494174
1782477375692738816,1.9092297554016113,2.067579507827759,-0.1004277691245079,-0.4266223907470703,0.05665704980492592,0.07365898042917252,0.9956729412078857,0.4458301365375519,0.4925489127635956,-0.6259523630142212,-0.011396682847980032,-0.3964643192281039,-0.916871043634355,0.04509671022905029,-0.07372575039892303,3.084750677566261,-0.8183575342466591
1782477375702657792,1.9191486835479736,3.139925241470337,0.7262395024299622,-0.7054468393325806,0.05328977480530739,0.09761259704828262,0.9937965869903564,0.9421325922012329,0.3884255886077881,0.05939537286758423,-0.005206581961757709,-0.3944062319081508,-0.9172469699293385,0.0554483251303885,-0.09776828050348485,3.0880215432500457,-0.8147992003862659
1782477375712577536,1.9290685653686523,2.6270201206207275,0.44195225834846497,-1.0496736764907837,0.04760497063398361,0.126213937997818,0.9908603429794312,0.4678826928138733,0.0030127614736557007,-0.2724153995513916,0.0028324682926715453,-0.3909059861050219,-0.9179448185756283,0.06754190253860219,-0.1265514588442564,3.0935854937235403,-0.8082216784234412
1782477375722497792,1.9389886856079102,2.3397254943847656,1.1509596109390259,-1.7675013542175293,0.03504526987671852,0.15126623213291168,0.9878717064857483,0.6754039525985718,0.10277734696865082,0.051602840423583984,0.013050853387157326,-0.38460492954981623,-0.9197906913519933,0.07677147811107984,-0.15184911456372394,3.1061319969767616,-0.7947962887149732
1782477375732416512,1.9489076137542725,2.6482057571411133,1.1435661315917969,-0.3015095591545105,0.022906184196472168,0.17644521594047546,0.9840440154075623,1.0037661790847778,0.07079294323921204,-0.03638160228729248,0.023096165360024914,-0.37926581125274184,-0.920966584780557,0.08628219949857506,-0.17737382872063187,3.118319255682032,-0.7833659064498
1782477375742336768,1.9588277339935303,2.668898105621338,0.26471659541130066,0.10437721014022827,0.013502711430191994,0.20238490402698517,0.9792131185531616,1.2896894216537476,-0.17255394160747528,0.07509303092956543,0.032471888030478874,-0.37892407960506513,-0.9197951366712754,0.09663898979467361,-0.203792612911395,3.127804178567026,-0.7829677845679476
1782477375752256512,1.968747615814209,4.324427604675293,-0.44982415437698364,-0.6296765804290771,0.013440999202430248,0.23529472947120667,0.9718310832977295,0.8764362931251526,0.07030826807022095,0.023148715496063232,0.03873762449546908,-0.37710194611334025,-0.9185366959921143,0.11217770011821879,-0.23752180620573532,3.12776294369068,-0.7807800474209737
1782477375762175744,1.9786667823791504,4.600197792053223,-0.22508744895458221,-0.662703812122345,0.015644636005163193,0.2785821557044983,0.960284948348999,0.6667742133140564,0.3970465064048767,0.22085201740264893,0.045751487600979794,-0.37342813608325265,-0.9168936182168853,0.1332828463121912,-0.2823175181753953,3.1253024350815934,-0.7758397955555415
1782477375772095744,1.988586664199829,4.736936569213867,-0.19707894325256348,-0.7038126587867737,0.014343485236167908,0.32294225692749023,0.9463099837303162,0.2918088734149933,0.17138147354125977,0.7048282623291016,0.05464381213531684,-0.369944784573587,-0.9144921259724454,0.1544638030110071,-0.32883666987958177,3.126436534824442,-0.7713355056887807
1782477375782015744,1.998506784439087,3.606769323348999,0.00198329146951437,-1.0905728340148926,0.011395269073545933,0.36201512813568115,0.9321028590202332,0.008914176374673843,0.060836464166641235,0.7826647758483887,0.06289865764772296,-0.364428200734199,-0.9128217283857218,0.1731833484311305,-0.37042875224260213,3.129367927755123,-0.7619798903784077
1782477375791935744,2.0084266662597656,2.258133888244629,0.4705541729927063,-0.6733944416046143,0.006251043174415827,0.38905248045921326,0.9211941361427307,0.1685078740119934,0.03126606345176697,0.9294220805168152,0.06996664503080494,-0.3601507039366525,-0.91153086842017,0.1857618977891306,-0.39960281603258063,3.1348069532668954,-0.7539334828461003
1782477375801854720,2.018345594406128,1.4292926788330078,0.9143611788749695,-0.4362393915653229,-0.0035919155925512314,0.40629687905311584,0.9137338995933533,0.17264403402805328,-0.09927484393119812,0.8539966344833374,0.07764959933174669,-0.35769509998855814,-0.9104510745404298,0.19262272070184952,-0.418397700700692,-3.1376616435186384,-0.7478666442462819
1782477375811774720,2.0282657146453857,-0.6809446215629578,1.228818655014038,-0.9785231351852417,-0.01692528836429119,0.4101630449295044,0.9118549823760986,0.10777613520622253,-0.37393873929977417,0.8513131737709045,0.08436616603751122,-0.3556671306874656,-0.910729580458219,0.19223625899648197,-0.42263282389339857,-3.1230334021287507,-0.7406503739594332
1782477375821694720,2.0381855964660645,-2.4143147468566895,1.2787529230117798,-1.2455084323883057,-0.035066548734903336,0.39546918869018555,0.9178099036216736,0.10673706233501434,-0.537742018699646,0.8633487224578857,0.08940531481197274,-0.3525602765884295,-0.9135678466209302,0.18193923423601788,-0.4065786327078417,-3.1034044626241,-0.7287395753304244
1782477375831613696,2.048104763031006,-3.3683760166168213,1.211990475654602,-1.032943844795227,-0.05155596137046814,0.36747613549232483,0.9286032319068909,0.40041762590408325,-0.48556381464004517,0.5529797077178955,0.09115295331207277,-0.3496514506594742,-0.9176303584471973,0.16549834472971447,-0.3762938242487466,-3.0861296902800133,-0.7175437574757454
1782477375841533696,2.0580246448516846,-3.5132155418395996,0.9065700769424438,-0.7709290385246277,-0.06434062123298645,0.33488553762435913,0.9400597810745239,0.5131473541259766,-0.35321125388145447,0.4248543977737427,0.09057834750807363,-0.34769609442396493,-0.9214864760289905,0.14753231986571874,-0.34148376446354906,-3.073256111453529,-0.7098207340973346
1782477375851453696,2.0679447650909424,-3.5337631702423096,0.7175491452217102,-0.5594077706336975,-0.0743957906961441,0.30125102400779724,0.9506381750106812,0.3757111132144928,0.11993727087974548,0.2391352653503418,0.08885127045302678,-0.34698251655974927,-0.9246200355588473,0.12956205778463517,-0.30600435421074507,-3.0634930424445344,-0.7059658496342632
1782477375861372672,2.0778636932373047,-3.2881031036376953,0.7421032190322876,-0.8174843192100525,-0.08381476998329163,0.26807302236557007,0.9597457647323608,0.3686200678348541,0.32872873544692993,0.08899080753326416,0.08694529850779921,-0.34559341548754996,-0.9275980145442763,0.11210544092913495,-0.27139227742340627,-3.0544834757470274,-0.7013728998872012
1782477375871292672,2.0877835750579834,-4.155747890472412,0.5359480381011963,-0.3796992301940918,-0.09099572151899338,0.23298843204975128,0.9682130813598633,0.3061141073703766,0.0292339026927948,-0.09037470817565918,0.08384491854687527,-0.3450439233459464,-0.9300813016091962,0.0941466503287758,-0.23514956545339188,-3.0478847503092354,-0.6994110735080632
1782477375881212672,2.097703695297241,-4.546163558959961,0.7409608364105225,-1.0732017755508423,-0.0989019125699997,0.18944400548934937,0.9768980741500854,0.2721043825149536,-0.0814117044210434,0.05389440059661865,0.07963108637636986,-0.3439885514215573,-0.9328027244975212,0.07218013016663545,-0.1905958699717657,-3.0406956708066426,-0.6969405803268178
1782477375891132672,2.10762357711792,-5.289363384246826,0.1850750893354416,-0.7844493985176086,-0.10514774173498154,0.14099259674549103,0.9844111800193787,0.08128297328948975,0.06465011835098267,-0.08887267112731934,0.07386333580064147,-0.3418584056753146,-0.9355952218994786,0.04836011639468298,-0.1414639507927516,-3.035183274138343,-0.6930941600498423
1782477375901051648,2.1175427436828613,-4.921253681182861,0.14026926457881927,-1.0656368732452393,-0.10758399218320847,0.08958350121974945,0.9901515245437622,0.43134501576423645,0.25767600536346436,-0.02037942409515381,0.06599479062598057,-0.33977413934491557,-0.9378855398203804,0.023849848915503593,-0.08970375899693918,-3.033363154397646,-0.6902769634577683
1782477375910971648,2.12746262550354,-3.84805965423584,-0.040382690727710724,-1.1690990924835205,-0.10835322737693787,0.04404519870877266,0.9931361079216003,0.18682919442653656,0.47444844245910645,-0.20592010021209717,0.05852750930646081,-0.33561081970140916,-0.9401773355826987,0.0025315799973056456,-0.04405945259790567,-3.0329203871124517,-0.6833363605198829
1782477375920891648,2.137382745742798,-3.2804126739501953,-0.05665700137615204,-1.0483421087265015,-0.10849852114915848,0.008193137124180794,0.9940627813339233,0.20572754740715027,0.49926841259002686,-0.2901291847229004,0.05260955938011733,-0.3315640052804488,-0.9418581104706801,-0.01417078374931062,-0.008193228903096613,-3.0328764504342263,-0.6765216442828331
1782477375930810624,2.14730167388916,-2.7320728302001953,0.06878244876861572,-1.4862374067306519,-0.10853766649961472,-0.0230464618653059,0.9938253164291382,0.13665959239006042,0.5068873763084412,-0.23972058296203613,0.04759264777520582,-0.32643382868397897,-0.9435855114167296,-0.028676872580653195,0.023048503134041328,-3.032811755484735,-0.6673802716904526
1782477375940730880,2.157221794128418,-2.20540452003479,-0.06167862191796303,-1.3127751350402832,-0.1088527962565422,-0.04835566133260727,0.9928809404373169,0.2593197226524353,0.47534236311912537,-0.31534504890441895,0.04384744621249283,-0.3207954664621853,-0.9452675487346522,-0.040458272482836295,0.04837452481035824,-3.0323954743069743,-0.6569916807982072
1782477375950650624,2.1671416759490967,-2.197462320327759,0.2503544092178345,-1.3609826564788818,-0.10887471586465836,-0.07027876377105713,0.9915679693222046,0.20198385417461395,0.39139997959136963,-0.27104800939559937,0.04066616261533688,-0.31465011431737205,-0.9469843103599184,-0.050618574786100205,0.07033674816963921,-3.032230187064234,-0.6454296956375686
1782477375960569600,2.177060604095459,-2.4787421226501465,0.23281297087669373,-1.4428764581680298,-0.11001070588827133,-0.09584031999111176,0.9892990589141846,0.25499969720840454,0.16313156485557556,-0.11974632740020752,0.037559224411863955,-0.3088929892078103,-0.9482798441731806,-0.06276833061681214,0.09598765458130139,-3.0308469819587565,-0.6351273963312157
1782477375970489856,2.186980724334717,-2.1266987323760986,0.571667492389679,-1.6631438732147217,-0.11197162419557571,-0.11951595544815063,0.9864978194236755,0.1660182774066925,0.16843566298484802,-0.40451252460479736,0.03540037551952375,-0.30154627681138846,-0.9499046058355552,-0.07414726477962631,0.11980232728948298,-3.028572177425335,-0.6215597207686596
1782477375980409600,2.1969006061553955,-1.4431695938110352,0.8349359035491943,-1.7608592510223389,-0.11799576878547668,-0.1395069658756256,0.9831657409667969,0.22567704319953918,0.2219654619693756,-0.8192558288574219,0.03595192348237119,-0.29369630649277456,-0.9514858632607656,-0.08440738503875177,0.13996350130755142,-3.022147805051976,-0.6071684390950534
1782477375990328832,2.206819772720337,-0.474153608083725,0.5374553203582764,-1.5808244943618774,-0.12185622751712799,-0.15084734559059143,0.9810177683830261,0.3654322922229767,0.5557698607444763,-0.878005862236023,0.03692708298838978,-0.28528291990169635,-0.9534791755461859,-0.09015229748739154,0.15142536962008993,-3.0180115511787213,-0.5908355483714883
1782477376000248576,2.2167396545410156,0.5500520467758179,-0.17685824632644653,-1.382022500038147,-0.12140237540006638,-0.15197207033634186,0.9809006452560425,0.576694130897522,0.48969483375549316,-0.4655197858810425,0.03720880857357747,-0.27830219256426764,-0.9555094046975712,-0.09036156952255048,0.15256321635474873,-3.0184526303500894,-0.576263023245215
1782477376010168832,2.2266597747802734,1.3773694038391113,-0.9382494688034058,-0.970661997795105,-0.11503715068101883,-0.14365404844284058,0.9829193949699402,0.614380955696106,0.4402085542678833,-0.3643125295639038,0.035768830110942756,-0.27306395749795076,-0.9575467446108157,-0.08521172087154819,0.14415278654378055,-3.0250864678327103,-0.5640149098472063
1782477376020088576,2.236579656600952,1.5083415508270264,-0.7672050595283508,-0.711761474609375,-0.10563250631093979,-0.12994837760925293,0.9858779311180115,0.510326087474823,0.11574244499206543,-0.3818587064743042,0.033433475940907655,-0.26900027203356847,-0.9594674604129577,-0.07709255839658476,0.13031691223120526,-3.0348542462486523,-0.5536640496021477
1782477376030007552,2.2464985847473145,-0.42724332213401794,-0.6558579206466675,-0.4374972879886627,-0.09775533527135849,-0.12272866070270538,0.987614095211029,0.3436354696750641,-0.11439292132854462,-0.03665590286254883,0.030806580959568702,-0.2662773821755653,-0.9606786215820529,-0.07241487932463381,0.12303886513303983,-3.042932709024627,-0.5468589114433196
1782477376039927808,2.2564187049865723,-2.123900890350342,-0.23848018050193787,-0.6679316163063049,-0.09310828149318695,-0.13798800110816956,0.986047625541687,0.32533180713653564,-0.6494722962379456,0.5682888031005859,0.026668959049992783,-0.26444653341364155,-0.960776690984371,-0.07915107858775065,0.1384296880324269,-3.047446054668794,-0.5437147490904509
1782477376049847552,2.266338586807251,-1.2571274042129517,-0.4653262197971344,-0.9248558878898621,-0.08835714310407639,-0.1568753868341446,0.9836580753326416,0.254128634929657,-0.5953371524810791,0.1791379451751709,0.022190276560872028,-0.2607645589707807,-0.9611612145143046,-0.08762747281216049,0.1575260605343673,-3.052008016787497,-0.5369244594759749
1782477376059766784,2.2762577533721924,0.7001153230667114,-0.41882210969924927,-0.3191835880279541,-0.08291833847761154,-0.15985651314258575,0.9836513996124268,0.33981531858444214,0.48024535179138184,-0.3398832678794861,0.01941426074099382,-0.2580300897507083,-0.9618971709570394,-0.08830228926766823,0.16054529964536407,-3.057495003501827,-0.5309315172060096
1782477376069686528,2.286177635192871,1.1363162994384766,-0.3621567487716675,0.012662806548178196,-0.07855111360549927,-0.14961710572242737,0.9856186509132385,0.36324959993362427,0.31216901540756226,-0.38567376136779785,0.018680363265630905,-0.2574467341164145,-0.9625645410953613,-0.08271419897320244,0.15018101550843782,-3.0620634829507956,-0.5286705377847588
1782477376079606784,2.296097755432129,0.13389748334884644,-0.2231607586145401,-0.11682141572237015,-0.07577389478683472,-0.14330512285232544,0.9867734909057617,0.4083849787712097,-0.5515343546867371,0.058239877223968506,0.018138153070453068,-0.25763104845749835,-0.9628151383590818,-0.07927328190288839,0.1438002122990791,-3.064953503631602,-0.5284342413839805
1782477376089526528,2.3060176372528076,-0.32178547978401184,-0.1369294375181198,-0.2650243937969208,-0.07353874295949936,-0.14517275989055634,0.9866698384284973,0.13667960464954376,-0.48178040981292725,0.1954745054244995,0.016904086013102986,-0.25652908694221854,-0.9630824177970088,-0.07987143038815517,0.14568758112096086,-3.0671979318050395,-0.5260682309517076
1782477376099445504,2.31593656539917,-0.05625580996274948,-0.1377406269311905,-0.1599656194448471,-0.07223555445671082,-0.14752992987632751,0.9864161610603333,0.06306502968072891,-0.12041439116001129,0.18201029300689697,0.016039296800798727,-0.2556750517458216,-0.9632436540960725,-0.08083708804891272,0.1480704053570488,-3.068492832121223,-0.5243216977695844
1782477376109365760,2.3258566856384277,0.2506890892982483,-0.21400801837444305,-0.08798843622207642,-0.07039950788021088,-0.14630576968193054,0.9867313504219055,0.13213655352592468,0.09245748817920685,0.12893033027648926,0.015341259990329247,-0.2552625061303043,-0.9634348666805942,-0.07999392165794514,0.14683281730386333,-3.070367169719238,-0.5232396456664289
1782477376119285504,2.3357765674591064,-0.11605429649353027,-0.3858271837234497,-0.20157039165496826,-0.06708092987537384,-0.145428866147995,0.9870923161506653,0.16287559270858765,-0.1496456265449524,0.1510610580444336,0.01389320190205295,-0.25467896922273686,-0.9636829319673974,-0.07912637797649406,0.14594643428285822,-3.0737388697923955,-0.5217018864439565
1782477376129204736,2.345695734024048,-0.2814599275588989,-0.38538074493408203,-0.40042296051979065,-0.06310669332742691,-0.14812567830085754,0.9869528412818909,0.16962830722332,-0.19690603017807007,0.24462956190109253,0.011731366836110329,-0.25333389686868213,-0.9640012223703199,-0.0799115089300091,0.14867277427419515,-3.0777386405693816,-0.5187240196493069
1782477376139124736,2.3556156158447266,-0.14101196825504303,-0.5572438836097717,-0.7431768774986267,-0.05729857087135315,-0.15076324343681335,0.9869078397750854,0.13556089997291565,-0.054085999727249146,0.1546478271484375,0.00879002461422904,-0.25078057554840083,-0.9646569475676567,-0.08042858291135715,0.1513402999861233,-3.083599074512021,-0.5130753848046471
1782477376149044736,2.3655357360839844,0.45087742805480957,-0.44650155305862427,-0.4268884062767029,-0.051676880568265915,-0.14952120184898376,0.9874070286750793,0.1292678266763687,0.24981723725795746,0.1218000054359436,0.006428800044679576,-0.24822342445302495,-0.9654473883450568,-0.07908911708199616,0.15008401701669333,-3.089304415846084,-0.5072450146500944
1782477376158963712,2.3754546642303467,1.1709330081939697,-0.3944857716560364,-0.08820115774869919,-0.04704369977116585,-0.14147920906543732,0.9888226389884949,0.22097864747047424,0.284866064786911,-0.0822676420211792,0.0052833340002781375,-0.246981977869304,-0.9661320872259894,-0.0745700217314313,0.14195549083958883,-3.094053030153973,-0.5039400935451447
1782477376168883712,2.3853747844696045,1.2699815034866333,-0.2697470486164093,-0.10235711932182312,-0.04410388320684433,-0.12910780310630798,0.9906490445137024,0.2628081142902374,-0.05074751377105713,-0.062197744846343994,0.005422724226242956,-0.24661845669249846,-0.9666973956848615,-0.06816118964606989,0.12946919792935027,-3.0971018441190648,-0.5024573823698458
1782477376178803712,2.395294666290283,0.6284731030464172,0.030190125107765198,0.09411652386188507,-0.04271342232823372,-0.1194373220205307,0.9919223785400391,0.09306742250919342,-0.3431481122970581,0.10629832744598389,0.005958283419252094,-0.2464736786799139,-0.9670635569390692,-0.06327114663722996,0.11972312636827477,-3.098557985920649,-0.501689883610106
1782477376188723712,2.405214786529541,0.3570671081542969,0.20965860784053802,0.10275617986917496,-0.044045452028512955,-0.11481154710054398,0.9924101233482361,0.19672490656375885,-0.37113508582115173,0.20717459917068481,0.007136132752229969,-0.24714148752073256,-0.9670191995486237,-0.061187416997111214,0.11506528818037755,-3.0972394496407825,-0.502983903222788
1782477376198642688,2.4151337146759033,0.1699981689453125,0.14734889566898346,-0.08756981790065765,-0.045245420187711716,-0.11244488507509232,0.9926272034645081,0.07779242098331451,-0.1479158252477646,0.1321743130683899,0.008043102283461,-0.24664975978533024,-0.9672008598946575,-0.060180128619669794,0.11268320034753582,-3.096042700175403,-0.5019537452033185
1782477376208562688,2.425053596496582,0.3032366633415222,0.5366599559783936,0.11074087768793106,-0.048369936645030975,-0.10936976969242096,0.9928237795829773,0.23471026122570038,-0.09180212765932083,0.18939685821533203,0.00990698592712999,-0.24720018066500277,-0.9671111398338187,-0.05907686485081368,0.10958899513562698,-3.0929115867416606,-0.5031680011650563
1782477376218482688,2.43497371673584,0.26473692059516907,0.3021792769432068,-0.009431609883904457,-0.05226745828986168,-0.10643152892589569,0.9929453730583191,0.10805359482765198,-0.09933323413133621,0.2867329716682434,0.012173501446515035,-0.24702543564806925,-0.9671872176923348,-0.05813034876149344,0.10663349968801698,-3.0890023836117497,-0.502927597562826
1782477376228401664,2.444892644882202,0.3265514671802521,0.4848223328590393,-0.0564272478222847,-0.05510180443525314,-0.10366026312112808,0.9930853247642517,0.29381030797958374,-0.03595765680074692,0.35902655124664307,0.013896712109949399,-0.24695494530716525,-0.9672413920966793,-0.057133609452977255,0.1038468098105848,-3.0861640186360653,-0.5028380331518458
1782477376238321664,2.45481276512146,0.3327491879463196,0.44389912486076355,0.031931109726428986,-0.059419479221105576,-0.09997041523456573,0.9932146668434143,0.20755179226398468,-0.08583588153123856,0.41642284393310547,0.016469495564553415,-0.2466034887472694,-0.9673644848444285,-0.055869986631382804,0.1001376836884293,-3.0818384604953954,-0.5022086521828443
1782477376248241664,2.4647326469421387,-0.0038778239395469427,0.5631213188171387,0.04429403692483902,-0.0646447166800499,-0.09817194938659668,0.9930676221847534,0.163659006357193,-0.21484684944152832,0.4879656434059143,0.019223632276706322,-0.24668198413210396,-0.9673064719409364,-0.05564740720492142,0.09833032709716279,-3.076588385002241,-0.5025941692501698
1782477376258160640,2.474651575088501,-0.43584680557250977,0.8075488805770874,0.12287166714668274,-0.0712709128856659,-0.10041750222444534,0.9923895597457886,0.1692628562450409,-0.27098143100738525,0.474010705947876,0.022154058409432752,-0.24683055877584367,-0.9670933078659418,-0.05757153725931901,0.10058703288906509,-3.0698982713728467,-0.5033989444943392
1782477376268080640,2.484571695327759,-0.22794952988624573,0.6563248038291931,0.0576106421649456,-0.07869385182857513,-0.10359261929988861,0.991502046585083,0.18700072169303894,-0.2902977764606476,0.4713735580444336,0.025356481068503123,-0.2469836088168381,-0.9668247696276618,-0.06005115739684686,0.10377880579885224,-3.062390365285936,-0.5043345481341568
1782477376278000640,2.4944915771484375,-0.5465964674949646,0.9750322103500366,0.402736097574234,-0.08537378907203674,-0.1069265678524971,0.9905946850776672,0.19107142090797424,-0.258750319480896,0.4925747513771057,0.02812414944506452,-0.24798191820951912,-0.966334468972921,-0.0625431107992923,0.10713137572043845,-3.0556207095990153,-0.5070135906334488
1782477376287920640,2.5044116973876953,-0.29971104860305786,1.1717051267623901,0.5226565003395081,-0.09626059979200363,-0.11060988157987595,0.9891913533210754,0.11985068768262863,-0.10638535767793655,0.5098474025726318,0.032815945098227904,-0.25003858000956775,-0.9654410355937325,-0.06578360766816135,0.11083667848316155,-3.0445856796458743,-0.5122273418187757
1782477376297840640,2.514331579208374,-0.13106000423431396,1.097055435180664,0.5721950531005859,-0.10767446458339691,-0.11184948682785034,0.987874448299408,0.12326895445585251,-0.21862536668777466,0.41404205560684204,0.038060665526709905,-0.252112722757087,-0.964560216068222,-0.06792766217682718,0.11208401964469712,-3.0330251341154613,-0.5174093689047659
1782477376307760640,2.524251699447632,-0.07964435964822769,1.3089863061904907,0.6971014738082886,-0.12010322511196136,-0.11273109167814255,0.9863401651382446,0.27147042751312256,-0.30476462841033936,0.5272554159164429,0.043792279602119115,-0.2548270055546541,-0.9634486391965317,-0.0700867683545462,0.1129712381948436,-3.020422632552824,-0.5240069739260015
1782477376317680640,2.5341715812683105,0.15641450881958008,1.3724521398544312,0.7435144782066345,-0.13335774838924408,-0.11111593246459961,0.9848194718360901,0.1822011023759842,-0.11067059636116028,0.47749149799346924,0.050197946950185084,-0.2581104338358887,-0.962179169254023,-0.071207714438693,0.11134586458012138,-3.0069979581471773,-0.5316838378144798
1782477376327599872,2.544090747833252,0.7283865213394165,1.478450059890747,0.8434784412384033,-0.14777562022209167,-0.10575032979249954,0.9833510518074036,0.18227575719356537,0.06633688509464264,0.5259110331535339,0.05768250126022221,-0.26106484581001904,-0.9609998246700118,-0.07069099972705381,0.10594843197235648,-2.9924312416946233,-0.5384398475848622
1782477376337519616,2.5540106296539307,0.5751825571060181,1.2314178943634033,0.8849989771842957,-0.16222161054611206,-0.09772107750177383,0.9819032549858093,0.26881957054138184,-0.11335370689630508,0.5249475240707397,0.0655017583702765,-0.2646119547663182,-0.9596520993219717,-0.06897612869352066,0.09787727868574093,-2.9778602432533385,-0.5461403073980868
1782477376347439872,2.5639307498931885,0.26091086864471436,1.3345874547958374,0.872204601764679,-0.17498484253883362,-0.09195329248905182,0.9802678227424622,0.3037843108177185,-0.3338890075683594,0.6589686274528503,0.07221807697468419,-0.2682179811076456,-0.9582238868987845,-0.06819578643683587,0.09208336879626029,-2.9649460578565305,-0.5540135086448001
1782477376357358592,2.573849678039551,-0.3172356188297272,1.4714573621749878,0.6399583220481873,-0.18938200175762177,-0.09063510596752167,0.9777116775512695,0.13986721634864807,-0.6006796360015869,0.69147789478302,0.07917007373366954,-0.27140134450539477,-0.9566593689649968,-0.06983093462028701,0.09075965813195479,-2.9502627961174532,-0.5615822452069701
1782477376367278848,2.5837697982788086,-0.9597107768058777,1.6418497562408447,0.44973689317703247,-0.2049596756696701,-0.09600254893302917,0.974050760269165,0.0661657303571701,-0.7240200042724609,0.6261688470840454,0.0858502459521781,-0.2736829681789773,-0.9550513196857252,-0.07486197322094991,0.0961506351246886,-2.9341983213352996,-0.5681834989724738
1782477376377198592,2.5936896800994873,-1.2385019063949585,1.5153794288635254,0.40355023741722107,-0.22029444575309753,-0.10605739057064056,0.9696506261825562,0.22613856196403503,-0.6112887859344482,0.5086513757705688,0.09179730660411307,-0.27547594664180364,-0.9533825680452668,-0.08214608470126082,0.10625722894322695,-2.9181951919500984,-0.5744990833513287
1782477376387118848,2.603609800338745,-1.3312772512435913,1.6445952653884888,0.38872209191322327,-0.2359698861837387,-0.11765068024396896,0.9646121859550476,0.2202533334493637,-0.32235175371170044,0.37970244884490967,0.09768489814670978,-0.2772738771685154,-0.9515383817819373,-0.09028622743187507,0.11792379912543857,-2.9016775847357166,-0.5813184929105915
1782477376397037824,2.6135287284851074,-1.244845986366272,1.7534993886947632,0.33248063921928406,-0.25280654430389404,-0.12916085124015808,0.9588566422462463,0.10351458191871643,-0.07100392878055573,0.2580316662788391,0.10416459485384912,-0.2788297822099495,-0.9495695156697022,-0.09859690787974337,0.12952269813452272,-2.8838048536320513,-0.5880308525383259
1782477376406957568,2.623448610305786,-0.9268609881401062,1.6019501686096191,0.39170923829078674,-0.2688397169113159,-0.138406902551651,0.9531885385513306,0.1833752989768982,-0.03134709596633911,0.1662265658378601,0.11058162994651702,-0.2802160339032413,-0.9476672599524444,-0.1057229692226486,0.13885265288784135,-2.8666908994949636,-0.5942333640186432
1782477376416877824,2.633368730545044,-0.6936197280883789,1.744582176208496,0.7053430676460266,-0.2850867509841919,-0.14441977441310883,0.9475594162940979,0.2724371552467346,-0.08446209132671356,0.12611019611358643,0.11745178323271468,-0.28253091902426913,-0.9454924594649258,-0.11146958397474695,0.14492658192269184,-2.849343154147883,-0.6021115844040283
1782477376426796800,2.6432876586914062,-0.5450279116630554,1.8494023084640503,0.643263041973114,-0.3026898205280304,-0.1484123170375824,0.9414629936218262,0.10205203294754028,-0.10151135921478271,0.12189143896102905,0.12526289975987034,-0.2849458871725705,-0.9431528749264644,-0.11652332527537065,0.1489626213629527,-2.8305205319048583,-0.6102022014334195
1782477376436716800,2.653207778930664,-0.20091372728347778,1.8156155347824097,0.7400572299957275,-0.3210762143135071,-0.14994482696056366,0.9351081252098083,0.10958927869796753,-0.10783722996711731,0.13325154781341553,0.13383721989927633,-0.2872362433163049,-0.940770644387341,-0.12055575296510462,0.15051246791749046,-2.8108478048584,-0.6178273175280331
1782477376446636800,2.6631276607513428,-0.10253835469484329,1.7318609952926636,0.9238136410713196,-0.3387986421585083,-0.14821748435497284,0.9291112422943115,0.21662142872810364,-0.10179781913757324,0.14327669143676758,0.14244588939365807,-0.2905000329171715,-0.9381712833553579,-0.12310041699938454,0.14876560138322265,-2.791928378955019,-0.626887935113137
1782477376456555520,2.673046588897705,0.1075935810804367,1.5506502389907837,0.7767261862754822,-0.3548186123371124,-0.1459631323814392,0.9234705567359924,0.15860596299171448,-0.09617853164672852,0.19597488641738892,0.15039347616614315,-0.2931005179241681,-0.9358564858843889,-0.125085389317091,0.14648646380572933,-2.774760703855278,-0.6342462560153448
1782477376466475776,2.682966709136963,0.4365686774253845,1.4671506881713867,1.0126608610153198,-0.37002429366111755,-0.14000189304351807,0.9184123277664185,0.20095697045326233,-0.09698233008384705,0.12388485670089722,0.1584387205977729,-0.29623161593380576,-0.9335164743651985,-0.1252634623055749,0.14046332849626114,-2.7585925552668704,-0.6418314727253502
1782477376476395520,2.6928865909576416,0.8375920057296753,1.334805965423584,0.9331991076469421,-0.3839344084262848,-0.13036292791366577,0.9141113758087158,0.13025709986686707,-0.018852725625038147,0.11253029108047485,0.16642208563134525,-0.2993872218535979,-0.9313554547893869,-0.12348251314306241,0.13073502733237644,-2.7439575700270153,-0.6484176756690243
1782477376486314752,2.702805757522583,1.2874267101287842,1.166486382484436,0.9529844522476196,-0.3963322341442108,-0.11732801049947739,0.9105796217918396,0.18025243282318115,0.0473206490278244,0.09425759315490723,0.17425045295282474,-0.30225604700605246,-0.9294789335121055,-0.1197792169664406,0.11759887967144594,-2.7310700249855637,-0.6533155232817467
1782477376496234752,2.7127256393432617,1.392207145690918,1.2116024494171143,1.0081861019134521,-0.40764376521110535,-0.10044058412313461,0.9076002240180969,0.14453652501106262,-0.009285353124141693,0.0018998384475708008,0.18219247850169634,-0.30508023980408616,-0.9277532880318496,-0.11404283874029199,0.10061023779851765,-2.7194502772832654,-0.6569724128353905
1782477376506154752,2.7226457595825195,1.3120989799499512,1.3107616901397705,0.9430241584777832,-0.41994109749794006,-0.08456505835056305,0.9036031365394592,0.0646095871925354,-0.09007180482149124,0.0508495569229126,0.19058865527254218,-0.30751887086367236,-0.9258691706843593,-0.1089701869427869,0.08466617379102792,-2.7065482611339493,-0.6600772274997424
1782477376516074752,2.7325656414031982,1.0860556364059448,1.1587164402008057,0.914046049118042,-0.43197962641716003,-0.06965002417564392,0.8991901278495789,0.07580891251564026,-0.14914576709270477,-0.01666736602783203,0.19876531003387363,-0.3099948008426365,-0.9238497097563676,-0.10439060057709333,0.0697064634928271,-2.693739771845975,-0.6633641968593786
1782477376525993472,2.7424845695495605,0.6410989165306091,1.0202274322509766,0.672802746295929,-0.44220325350761414,-0.05886232107877731,0.8949816823005676,0.07559546828269958,-0.20072025060653687,-0.014808595180511475,0.20546337840604353,-0.31205800302834535,-0.9220144439821661,-0.10146007267872055,0.05889636574230669,-2.6826826229562353,-0.6664614494731906
1782477376535913728,2.7524046897888184,0.48914238810539246,0.9866002798080444,0.8117251992225647,-0.4514918625354767,-0.050631921738386154,0.8908376693725586,0.039809733629226685,-0.17330607771873474,-0.10677993297576904,0.21127571331491832,-0.3144382423154824,-0.9200801176183976,-0.0997186260854846,0.05065358081394075,-2.6725061554488483,-0.6707200296913872
1782477376545833472,2.762324571609497,0.14959914982318878,0.9502545595169067,0.5580180883407593,-0.4606281816959381,-0.044882699847221375,0.8864578604698181,-0.024753957986831665,-0.034630853682756424,-0.2078688144683838,0.21664030034041473,-0.31675500289212427,-0.918093247310449,-0.09918736469283797,0.044897784285485465,-2.6623663662005153,-0.6754227059203721
1782477376555752704,2.7722437381744385,0.21019938588142395,0.6228300929069519,0.44552457332611084,-0.46746042370796204,-0.04091735556721687,0.8830664157867432,-0.01931014657020569,0.08193299174308777,-0.23806226253509521,0.22060924501510107,-0.3185183132847019,-0.9165583948897537,-0.09898634215378632,0.04092878264851091,-2.654733501756275,-0.6790857654477039
1782477376565672704,2.782163619995117,0.2788058817386627,0.3961147665977478,0.3838839828968048,-0.47184816002845764,-0.03714476525783539,0.8808971047401428,0.07969725131988525,0.08885680139064789,-0.28681135177612305,0.22336816838588558,-0.31967571473605183,-0.9155632044630132,-0.09827586104859082,0.037153313725375565,-2.6498372761464792,-0.6811728919782738
1782477376575592704,2.792083740234375,0.082185760140419,0.4189806580543518,0.2517147660255432,-0.475660502910614,-0.03371671214699745,0.8789824843406677,-0.050615131855010986,0.07732632756233215,-0.2597808837890625,0.2257725555571607,-0.3209112641480057,-0.9146076788592507,-0.09764985998808108,0.033723102698174565,-2.6455702145876487,-0.6834451803163404
1782477376585512704,2.8020036220550537,0.04825874790549278,0.47185686230659485,0.20009076595306396,-0.4798327684402466,-0.03239694610238075,0.8767616152763367,-0.09992492198944092,0.09335580468177795,-0.19583821296691895,0.22804178384564647,-0.32185945625709145,-0.9136669529815347,-0.09806185630839695,0.032402615588427615,-2.6408413130438935,-0.6856825954142114
1782477376595431680,2.811922788619995,0.17405875027179718,0.28261423110961914,0.01874067261815071,-0.4826754629611969,-0.03053586557507515,0.8752666711807251,-0.041234999895095825,0.15706175565719604,-0.30829596519470215,0.22980017612444872,-0.3220700931544252,-0.9131835543268434,-0.0977675260289003,0.030540613035743746,-2.637628421691071,-0.6860006468942822
1782477376605351680,2.821842670440674,0.2215036302804947,0.19559037685394287,0.10084479302167892,-0.48439040780067444,-0.02867702580988407,0.8743816614151001,0.008651942014694214,0.14075283706188202,-0.26154303550720215,0.2310057279284229,-0.32202530081201447,-0.912957028977544,-0.097187709049508,0.028680958148066465,-2.635698518252969,-0.6856196593849334
1782477376615271680,2.8317627906799316,0.37878724932670593,-0.0980665311217308,-0.26732203364372253,-0.48513132333755493,-0.02666991390287876,0.8740343451499939,0.02425488829612732,0.1849035620689392,-0.28879886865615845,0.2318089281422692,-0.3212743356197542,-0.9131264777833416,-0.0961632567513541,0.026673075760465955,-2.634881812216809,-0.683532487221883
1782477376625190656,2.841681718826294,0.5434329509735107,0.14834080636501312,0.12513034045696259,-0.48523378372192383,-0.02271604910492897,0.8740890622138977,0.01720103621482849,0.21168091893196106,-0.3220568299293518,0.23260454226623287,-0.3205879241898592,-0.9133826820109807,-0.0940769221760366,0.022718002365750372,-2.634818784709937,-0.6809955524338701
1782477376635110656,2.8516016006469727,0.1448533982038498,-0.08065269887447357,-0.13082021474838257,-0.4851391315460205,-0.019206589087843895,0.8742262125015259,-0.17816051840782166,0.08358341455459595,-0.26660585403442383,0.23317085512818447,-0.32039550681743034,-0.9134877328621125,-0.0922948232550178,0.01920777015156149,-2.634968133136231,-0.6796381001168075
1782477376645030656,2.8615217208862305,0.1563510000705719,-0.3311413526535034,-0.22503437101840973,-0.4832689166069031,-0.019532201811671257,0.8752539753913879,0.019676387310028076,-0.013319972902536392,-0.16781079769134521,0.23227444028537841,-0.3191471032363877,-0.9142057350750519,-0.09176907597265135,0.01953344372581033,-2.637102524448741,-0.6767760765915931
1782477376654949632,2.8714406490325928,-0.020520716905593872,-0.39750999212265015,-0.1782010942697525,-0.4802491366863251,-0.019490785896778107,0.8769155144691467,0.10091567039489746,-0.1732582449913025,-0.19995933771133423,0.23076468009588377,-0.3187108088081884,-0.9148120939227729,-0.09104885192158843,0.019492020348403492,-2.640549861468915,-0.6754665697555677
1782477376664869888,2.8813607692718506,-0.33436548709869385,-0.4907156825065613,-0.20993052423000336,-0.4759870767593384,-0.021855652332305908,0.8791806101799011,0.05121290683746338,-0.09101361036300659,-0.1491086483001709,0.228202462395998,-0.31835874896977573,-0.9155533941811461,-0.09128694998504129,0.021857393263557862,-2.6453772517067997,-0.6748265774231818
1782477376674789632,2.8912806510925293,-0.3631603717803955,-0.585309624671936,0.022290468215942383,-0.4713432490825653,-0.025616561993956566,0.8815775513648987,0.10031065344810486,0.002194330096244812,-0.165940523147583,0.2251865627701104,-0.3182904271117708,-0.9162314023425442,-0.09220706502731953,0.025619364964890208,-2.650603910209757,-0.6751162376995697
1782477376684708608,2.9011995792388916,-0.3850279748439789,-0.618029773235321,-0.11906566470861435,-0.46644195914268494,-0.029578687623143196,0.8840570449829102,0.1845969259738922,-0.012215133756399155,-0.2153407335281372,0.2219522493954309,-0.31880659267167083,-0.9167283490284048,-0.0933201032411357,0.029583002378154873,-2.6560976863361843,-0.6766919019395987
1782477376694628608,2.9111196994781494,-0.4014309048652649,-0.6551734209060669,-0.2445511519908905,-0.4606383442878723,-0.03357943147420883,0.8869526982307434,0.26987290382385254,-0.003301076591014862,-0.3205767869949341,0.21833784594412914,-0.31852394783255955,-0.917615854408805,-0.09408680896810658,0.03358574367286612,-2.6625856404274413,-0.6764179488287227
1782477376704548608,2.921039581298828,-0.3298569321632385,-0.9073901176452637,-0.040165819227695465,-0.4535481035709381,-0.03779194876551628,0.8904299736022949,0.383769690990448,0.008144132792949677,-0.29381150007247925,0.21400495670492314,-0.31859246534718433,-0.918538969176697,-0.09479874406870645,0.03780094953317722,-2.67048627784679,-0.676799792208719
1782477376714468608,2.930959701538086,-0.22330091893672943,-0.8129898905754089,-0.06209002807736397,-0.4463904798030853,-0.04060560092329979,0.8939164280891418,0.4463752508163452,0.06616407632827759,-0.3901170492172241,0.20985301567815157,-0.3189492926037238,-0.9193636784551308,-0.09488657538428408,0.04061676696622844,-2.6784532582421035,-0.6774423552935521
1782477376724387584,2.9408786296844482,-0.12494878470897675,-0.8500144481658936,-0.016259022057056427,-0.438998281955719,-0.04251229017972946,0.8974815011024475,0.4543181359767914,0.11155831813812256,-0.39400261640548706,0.20574878752526402,-0.3192607223783217,-0.9202246200709597,-0.09448090227695918,0.042525107536619165,-2.6866669783207366,-0.677733048430617
1782477376734307840,2.950798749923706,-0.09913396835327148,-1.0266847610473633,-0.07330499589443207,-0.4307384788990021,-0.043675340712070465,0.901419460773468,0.4804821312427521,0.10609903931617737,-0.39215731620788574,0.20131284322352513,-0.3198444606722919,-0.9210913402453847,-0.0936133739733324,0.043689237970413505,-2.695825898959333,-0.678340585018996
1782477376744227584,2.9607186317443848,0.181936576962471,-1.3411353826522827,0.17852164804935455,-0.4198575019836426,-0.04302513971924782,0.9065696001052856,0.5334287881851196,0.2016402631998062,-0.3792106509208679,0.19587347925761264,-0.3204049295535042,-0.9222935922113471,-0.0913715543260643,0.043038426978435386,-2.7078755007577673,-0.6781973727498332
1782477376754146816,2.970637798309326,0.19776640832424164,-1.5015684366226196,0.005102991126477718,-0.40669354796409607,-0.041365474462509155,0.9126277565956116,0.507142186164856,0.15347179770469666,-0.2778468132019043,0.1894377676613046,-0.32139309059600196,-0.9235910114210522,-0.08831476831446644,0.04137727898595645,-2.72237944789744,-0.6785553804287258
1782477376764066816,2.980557680130005,0.025405962020158768,-1.5181207656860352,0.06692128628492355,-0.3920477628707886,-0.04018694534897804,0.9190670251846313,0.3181646168231964,0.12624648213386536,-0.24795472621917725,0.18224409677047843,-0.32207318905354043,-0.9250958663319013,-0.08516891293762589,0.04019776852147476,-2.738391704826552,-0.6782702254416876
1782477376773986816,2.9904778003692627,-0.019718904048204422,-1.6130012273788452,-0.030545083805918694,-0.37619519233703613,-0.040523748844861984,0.9256540536880493,0.32526126503944397,0.1341821849346161,-0.20420312881469727,0.17422327856920375,-0.3228912987778717,-0.926589578574976,-0.08257923064883643,0.040534847041936925,-2.7555725594744134,-0.6785507114140161
1782477376783905792,3.000396728515625,-0.15488246083259583,-1.7909287214279175,-0.21205781400203705,-0.36015939712524414,-0.04190604016184807,0.9319490194320679,0.32237866520881653,0.09322135150432587,-0.27475303411483765,0.16603677674163478,-0.32304324966908843,-0.9282335786201856,-0.08035701454522935,0.04191831352477354,-2.7728144179647445,-0.6776376470096211
1782477376793825536,3.0103166103363037,-0.1921592503786087,-1.7749476432800293,-0.18492074310779572,-0.34336698055267334,-0.04417911171913147,0.9381614923477173,0.3651108145713806,0.057789962738752365,-0.2737024426460266,0.1573824144794112,-0.32300941134684413,-0.9299170247104082,-0.07842157515204365,0.04419349762153044,-2.7907357619531834,-0.6764638885460132
1782477376803745792,3.0202367305755615,-0.11721096932888031,-1.756489634513855,-0.19524742662906647,-0.326460063457489,-0.04647265002131462,0.9440677165985107,0.3332960307598114,0.1291447877883911,-0.25987905263900757,0.14871329577748432,-0.32287699601356834,-0.9315494101123767,-0.07648808172847357,0.04648939457854908,-2.8086630146311533,-0.675101554224111
1782477376813665536,3.0301566123962402,-0.06740346550941467,-1.6970020532608032,-0.3373275697231293,-0.31004083156585693,-0.04823862761259079,0.94949871301651,0.29752859473228455,0.1476648896932602,-0.22855138778686523,0.1404303622105217,-0.3224005036028067,-0.933170552185034,-0.07436382727991095,0.04825735642141243,-2.8259765852436387,-0.6729823233766862
1782477376823584768,3.0400757789611816,-0.03431156277656555,-1.6513829231262207,-0.24800263345241547,-0.2937075197696686,-0.049449846148490906,0.9546156525611877,0.2846590280532837,0.03814307227730751,-0.22298705577850342,0.13231944684280275,-0.3217714054249977,-0.9347571882325196,-0.07199895177038444,0.049470022062927804,-2.843113228973439,-0.6704902154719227
1782477376833504768,3.0499956607818604,-0.09850919246673584,-1.555869698524475,-0.32311949133872986,-0.2782895565032959,-0.051068902015686035,0.9591386914253235,0.2402493953704834,-0.0023216046392917633,-0.2034928798675537,0.12462288168282512,-0.32097724052807225,-0.9362387232367979,-0.06999877008139474,0.05109112523932127,-2.8592012261323343,-0.6678223317717711
1782477376843424768,3.059915781021118,-0.17472966015338898,-1.4764721393585205,-0.3956340551376343,-0.26360514760017395,-0.053103797137737274,0.9631678462028503,0.20911604166030884,-0.004269246011972427,-0.22522228956222534,0.1172476928343749,-0.31999117831570334,-0.9376510873429588,-0.06833045458905325,0.053128785944189905,-2.8744488663299226,-0.6648916692328729
1782477376853343744,3.0698347091674805,-0.2837948799133301,-1.4234017133712769,-0.40197691321372986,-0.24937136471271515,-0.05640723928809166,0.9667636752128601,0.17196355760097504,-0.04733725264668465,-0.19093060493469238,0.10992096598405277,-0.318744396455446,-0.9390334603895661,-0.06734617566253326,0.056437196283943065,-2.8891509098736043,-0.6616342254428521
1782477376863263488,3.079754590988159,-0.4360288381576538,-1.3913743495941162,-0.39999520778656006,-0.23542694747447968,-0.06077418476343155,0.9699899554252625,0.21562106907367706,-0.11107029020786285,-0.19229531288146973,0.10257943003916768,-0.3174913714072142,-0.9403160076709183,-0.06695108346262021,0.060811657084798736,-2.903486179164324,-0.6585253435029488
1782477376873183744,3.089674711227417,-0.526654064655304,-1.33334481716156,-0.47683513164520264,-0.22200672328472137,-0.06658119708299637,0.9727694988250732,0.1928471028804779,-0.09723717719316483,-0.18372201919555664,0.09528299178410983,-0.316147693298979,-0.9415069770462788,-0.0673538260000915,0.0666304895163139,-2.9172142588999836,-0.655427630526255
1782477376883102720,3.0995936393737793,-0.6476324796676636,-1.3617233037948608,-0.40792515873908997,-0.20859825611114502,-0.07323799282312393,0.9752551913261414,0.1786452978849411,-0.07603872567415237,-0.1456959843635559,0.08787240766456324,-0.3148189893980644,-0.9426115803104631,-0.06819659347593102,0.07330362324710549,-2.930876776649255,-0.6524307319528061
1782477376893022720,3.109513759613037,-0.6118723154067993,-1.3380571603775024,-0.44432684779167175,-0.19518296420574188,-0.0801507905125618,0.9774861335754395,0.21956652402877808,0.023647509515285492,-0.13469761610031128,0.08042814175709476,-0.31356960579082455,-0.9436191882002511,-0.06919657373736188,0.0802368538649104,-2.9445062532125914,-0.6495866391183743
1782477376902942720,3.119433641433716,-0.5766109228134155,-1.2570240497589111,-0.3733190894126892,-0.18206681311130524,-0.08677438646554947,0.9794496297836304,0.15214435756206512,0.04266124963760376,-0.1108585000038147,0.07318778261455605,-0.31231258573530163,-0.9445558072802235,-0.07013313570946442,0.08688365951638692,-2.9578035194136603,-0.6466697240655582
1782477376912862720,3.1293537616729736,-0.4832223951816559,-1.1686633825302124,-0.4058448076248169,-0.16991788148880005,-0.0924985408782959,0.9811075925827026,0.15078336000442505,0.0329892635345459,-0.08860576152801514,0.06655944314617418,-0.31111141721088365,-0.9453906458849926,-0.07082434467860085,0.09263095361057125,-2.970103886052072,-0.6438074684400815
1782477376922781696,3.139272689819336,-0.4231087863445282,-1.1067267656326294,-0.3824136555194855,-0.15850304067134857,-0.09741190820932388,0.9825416207313538,0.16597983241081238,0.04533363878726959,-0.043927550315856934,0.06042649563219031,-0.30979566762275046,-0.9462015915968246,-0.07125946514451972,0.09756662535765469,-2.9816511745311547,-0.6406452249392672
1782477376932701696,3.1491925716400146,-0.36302706599235535,-0.9948530197143555,-0.3876590132713318,-0.14792148768901825,-0.1019701361656189,0.9837282299995422,0.17590612173080444,0.01987786591053009,0.02570164203643799,0.05475379483537071,-0.3084870740943674,-0.9469423708496579,-0.07167902480127825,0.10214768013555436,-2.9923425933146377,-0.6375030849423412
1782477376942621696,3.1591126918792725,-0.23171718418598175,-0.8984819054603577,-0.3596717119216919,-0.138300821185112,-0.10520987957715988,0.9847860932350159,0.170893594622612,-0.03544563800096512,0.019318461418151855,0.04975256738504415,-0.30713792258218775,-0.9476599269053424,-0.07163523513304852,0.10540495302954662,-3.0020677196852223,-0.634209923563599
1782477376952540672,3.1690316200256348,-0.30422866344451904,-0.7305392026901245,-0.3380116820335388,-0.12978807091712952,-0.10833075642585754,0.9856062531471252,0.14680162072181702,-0.06278130412101746,0.05569934844970703,0.045299842230964865,-0.30582641156778756,-0.948300230823743,-0.07172756609666861,0.10854377233538305,-3.010662495354074,-0.631060346695578
1782477376962460672,3.1789517402648926,-0.41002312302589417,-0.48736876249313354,-0.28479328751564026,-0.12333839386701584,-0.11209116131067276,0.9860138297080994,0.11479347944259644,-0.14595021307468414,0.09977108240127563,0.041722181223899216,-0.3047315401071763,-0.9487600340959901,-0.07247316866039333,0.11232722691762269,-3.0171511145921013,-0.6285682072754556
1782477376972380672,3.1888716220855713,-0.48065629601478577,-0.2793990671634674,-0.2171548306941986,-0.11911333352327347,-0.11695068329572678,0.985968828201294,0.08925188332796097,-0.15752440690994263,0.15642619132995605,0.03903591630393112,-0.3037381217384847,-0.9490666891322871,-0.07410653000643569,0.11721893882876554,-3.0213668672104705,-0.6265391323278111
1782477376982299904,3.1987907886505127,-0.3873956501483917,-0.06460360437631607,-0.07990740984678268,-0.11715567857027054,-0.1213170513510704,0.9856757521629333,0.10502495616674423,-0.132253497838974,0.17608261108398438,0.03748426215152085,-0.30310388542075273,-0.9491922370648764,-0.07587520197406358,0.12161663001729567,-3.023289436103312,-0.6253979978100451
1782477376992219648,3.2087106704711914,-0.20696064829826355,0.23041178286075592,0.014638273045420647,-0.1178310289978981,-0.12428456544876099,0.9852258563041687,0.13675189018249512,-0.1266920566558838,0.20894265174865723,0.037365633990894126,-0.3029802149649829,-0.9491132261111415,-0.07740207144040512,0.12460677197518054,-3.0225600540498943,-0.6254332877346235
1782477377002139904,3.218630790710449,-0.0991922914981842,0.37589702010154724,0.012375551275908947,-0.12076866626739502,-0.12567898631095886,0.9846925735473633,0.1684523969888687,-0.15871430933475494,0.26002776622772217,0.038562191659161735,-0.30294263623872925,-0.9489847402214325,-0.07852774030455784,0.12601221878960506,-3.0195560502140295,-0.6257139846416784
1782477377012059648,3.228550672531128,-0.11013895273208618,0.5241373181343079,0.12355639785528183,-0.12522748112678528,-0.1266137808561325,0.984015703201294,0.21987776458263397,-0.2299230694770813,0.3591544032096863,0.04053673696699811,-0.3031491247207117,-0.9487404576319084,-0.07967992460015655,0.12695453955754932,-3.015011404500074,-0.6266059649783814
1782477377021978624,3.2384696006774902,-0.1980935037136078,0.6293527483940125,0.0991392433643341,-0.1308317482471466,-0.12786290049552917,0.9831245541572571,0.246615469455719,-0.24349021911621094,0.43040376901626587,0.043005055591924385,-0.30343634018081184,-0.9484137641544454,-0.08116789405991119,0.12821389437874764,-3.009292502394262,-0.6278039624570768
1782477377031898624,3.248389720916748,-0.41330569982528687,0.7868784666061401,0.11030827462673187,-0.1377091109752655,-0.13076373934745789,0.981803297996521,0.20594638586044312,-0.1913493424654007,0.5461052656173706,0.04582791174553343,-0.30376153245369314,-0.9479612735771672,-0.08365597524750153,0.13113929149295214,-3.0022403445443904,-0.6293632337640332
1782477377041818624,3.2583096027374268,-0.47136059403419495,0.9636093378067017,0.05650276318192482,-0.14606358110904694,-0.1349705457687378,0.9800247550010681,0.13474155962467194,-0.1761561632156372,0.6290451288223267,0.0491866432519624,-0.303786054407602,-0.9474842466173448,-0.08699615837090158,0.13538373698639114,-2.993641021434508,-0.6305862147590248
1782477377051737856,3.268228769302368,-0.5745535492897034,1.1679155826568604,0.09013209491968155,-0.15612062811851501,-0.13994666934013367,0.9777737855911255,0.11550171673297882,-0.18808680772781372,0.6209659576416016,0.05324257208764363,-0.3038569653615107,-0.9468673825727695,-0.09098576991766459,0.14040754726099966,-2.9832596810597503,-0.6322092125923734
1782477377061657600,3.278148651123047,-0.6784502267837524,1.2990832328796387,0.1335117667913437,-0.16741341352462769,-0.14602388441562653,0.9750126600265503,0.09687204658985138,-0.20076259970664978,0.5849085450172424,0.05772667840148635,-0.3039316128425558,-0.9461141059777933,-0.09571457067622505,0.14654787351456564,-2.9715469814422715,-0.6341706399572788
1782477377071577856,3.2880687713623047,-0.5843160152435303,1.3607405424118042,0.13631661236286163,-0.17897474765777588,-0.15247774124145508,0.9719666242599487,0.1349836140871048,-0.2152743637561798,0.5478090047836304,0.06228220673318091,-0.3040515136303711,-0.9452703256215725,-0.10068640590926349,0.15307485096568127,-2.9594957220620524,-0.6364111892648814
1782477377081496832,3.297987699508667,-0.16761548817157745,1.3809030055999756,0.3516862690448761,-0.19199533760547638,-0.15599599480628967,0.9689186215400696,0.14440318942070007,-0.15647348761558533,0.5095512866973877,0.06795382203163798,-0.3045394381804355,-0.9443066412854176,-0.10451331381163638,0.15663571275045365,-2.945972478418246,-0.6393400273427015
1782477377091416576,3.3079075813293457,0.5598751306533813,1.4651049375534058,0.5472241044044495,-0.20614147186279297,-0.15330572426319122,0.9664381742477417,0.11188794672489166,-0.06260612607002258,0.441917359828949,0.0750367456676139,-0.30582395679365026,-0.9432342251019084,-0.10559508361369682,0.15391268127282726,-2.9314417519810063,-0.6433328720485547
1782477377101336832,3.3178277015686035,0.8901366591453552,1.5442413091659546,0.5620318055152893,-0.22124505043029785,-0.14487949013710022,0.9643962979316711,0.07811765372753143,0.009610354900360107,0.49866199493408203,0.08344365948393387,-0.3074014284728233,-0.9421796564612925,-0.10411013128836534,0.14539118167005363,-2.9160818471172822,-0.6472456180781686
1782477377111256576,3.3277475833892822,1.0849522352218628,1.5857077836990356,0.5745111107826233,-0.23672832548618317,-0.13419349491596222,0.962263822555542,0.014392539858818054,-0.05071249604225159,0.6768657565116882,0.09243036400408458,-0.3087365580071506,-0.9411767400400087,-0.10161043773465375,0.13459955244000252,-2.900371027459969,-0.6502821166197401
1782477377121175808,3.3376667499542236,0.8885607123374939,1.714658260345459,0.5264116525650024,-0.2532481253147125,-0.12315678596496582,0.959530234336853,0.04237160086631775,-0.31028440594673157,0.7315863370895386,0.10200041638426285,-0.31005079223443727,-0.9400178886148348,-0.09915098778313278,0.12347026092884773,-2.883547661447361,-0.6532370462171577
1782477377131095552,3.3475866317749023,0.48156869411468506,1.6878646612167358,0.4167887270450592,-0.26998183131217957,-0.11549780517816544,0.9559133648872375,0.09215587377548218,-0.41361600160598755,0.7552074193954468,0.11121128448736163,-0.3110180714560605,-0.938735554876519,-0.0983638262574433,0.11575614255819466,-2.866328920124724,-0.6559183678035239
1782477377141015808,3.35750675201416,0.17553354799747467,1.714932918548584,0.46934136748313904,-0.28641238808631897,-0.11140336841344833,0.9516078233718872,0.20541870594024658,-0.43745529651641846,0.7111730575561523,0.11973289309050132,-0.3120672894801613,-0.9372395177356531,-0.0992984203185056,0.11163509732929675,-2.8492394705420887,-0.6592891730416686
1782477377150934784,3.3674256801605225,0.0029199612326920033,1.735561490058899,0.40401536226272583,-0.3030879497528076,-0.10924911499023438,0.9466798305511475,0.20419570803642273,-0.3309212028980255,0.6097320318222046,0.12808235549185387,-0.3132021193731747,-0.9355449467340621,-0.10126741867894955,0.10946761022295817,-2.8317456060934747,-0.6632175493921644
1782477377160854784,3.3773458003997803,0.03841004520654678,1.705198049545288,0.44668370485305786,-0.31953758001327515,-0.10779428482055664,0.9414224624633789,0.19464439153671265,-0.19831228256225586,0.5537099838256836,0.1362413988701581,-0.3142666196066877,-0.9337814048828958,-0.10357163457490115,0.10800413883707712,-2.8143741574686882,-0.6671370398157774
1782477377170774784,3.387265682220459,0.13835954666137695,1.6589936017990112,0.3328482210636139,-0.33573585748672485,-0.10593622177839279,0.9359800815582275,0.16341838240623474,-0.1886346936225891,0.5171142816543579,0.1443809146565356,-0.31519477761960685,-0.9320098129721196,-0.10566006728547776,0.10613537047035695,-2.7971885819121325,-0.6707035489573905
1782477377180693504,3.3971846103668213,0.39967212080955505,1.5950689315795898,0.3156763017177582,-0.3510400950908661,-0.10224073380231857,0.9307618737220764,0.09183907508850098,-0.13062363862991333,0.4907621741294861,0.15246283594406151,-0.315583084977202,-0.9304774276786457,-0.10664961561959886,0.10241970218095847,-2.780935327552512,-0.6726630911580332
1782477377190613760,3.407104730606079,0.5089972615242004,1.5352388620376587,0.20803214609622955,-0.3656037747859955,-0.09716830402612686,0.9256846904754639,0.06032118201255798,-0.12306179106235504,0.5095417499542236,0.16047109245961014,-0.315608192534344,-0.9291037673258605,-0.10680200378587744,0.09732186392599466,-2.76544299055621,-0.673459805478633
1782477377200533504,3.417024612426758,0.35786452889442444,1.5770655870437622,0.21086163818836212,-0.38000231981277466,-0.09217394888401031,0.9203813672065735,-0.017595887184143066,-0.158634752035141,0.5060710906982422,0.16844458552960678,-0.3153832849442967,-0.9277521641084093,-0.10693759173871638,0.09230497131595092,-2.7500367864930353,-0.6736938613015309
1782477377210452736,3.426943778991699,0.1211332157254219,1.6231575012207031,0.25052809715270996,-0.3947371542453766,-0.08943477272987366,0.9144306778907776,-0.02872467041015625,-0.19064027070999146,0.501142144203186,0.1762458818591879,-0.31524022689077036,-0.926195944993706,-0.10826777984101216,0.08955443012167796,-2.734081550829441,-0.6746384256563759
1782477377220372736,3.436863660812378,-0.17705166339874268,1.6596006155014038,0.26106899976730347,-0.4099474251270294,-0.08870445936918259,0.9077855944633484,0.017460882663726807,-0.24354040622711182,0.4444177746772766,0.18394433371458238,-0.3155292790153536,-0.924301933154785,-0.11077770993550032,0.08882119894970188,-2.7174167762657753,-0.677070237822329
1782477377230292736,3.4467837810516357,-0.25124362111091614,1.733766794204712,0.38562238216400146,-0.4254724085330963,-0.08939845860004425,0.9005447626113892,0.03287911415100098,-0.12964144349098206,0.376753032207489,0.19154996377692854,-0.3162680087947258,-0.9220883473765223,-0.11417599385464526,0.08951796601524933,-2.7002178277158504,-0.6809295363316028
1782477377240212736,3.4567036628723145,-0.177959144115448,1.748214602470398,0.43570131063461304,-0.4414263963699341,-0.08969169110059738,0.8928037881851196,0.08147144317626953,-0.034270741045475006,0.23694193363189697,0.19942604298104086,-0.31736693986820047,-0.9196086756316509,-0.11759032178069541,0.08981238724162209,-2.6824132817878894,-0.6856287615327435
1782477377250131712,3.4666225910186768,0.05346129834651947,1.6085102558135986,0.49930188059806824,-0.4566348195075989,-0.087953120470047,0.8852957487106323,0.14976540207862854,0.04519801586866379,0.10321420431137085,0.20727199606796903,-0.31862521425256685,-0.9171291279532983,-0.11995981941132221,0.08806691464110966,-2.6653857311793865,-0.6901291446601537
