time,seconds_elapsed,rotationRateX,rotationRateY,rotationRateZ,gravityX,gravityY,gravityZ,accelerationX,accelerationY,accelerationZ,quaternionW,quaternionX,quaternionY,quaternionZ,pitch,roll,yaw
1784719817924081408,0.3746151924133301,-0.3283092975616455,-0.1997986137866974,-0.11079088598489761,-0.027128582820296288,0.6908224821090698,-0.7225152850151062,-0.08648838102817535,0.032306790351867676,0.11071419715881348,-0.271008720046889,0.12266822304319416,-0.3517027880122045,0.8875877636540724,-0.7626260158638704,-0.03752978562081952,-2.563959062187501
1784719817934001408,0.3845353126525879,-0.34712210297584534,-0.2145504653453827,-0.07160379737615585,-0.03024836629629135,0.693356454372406,-0.7199596166610718,0.015432089567184448,0.0680418610572815,0.13426625728607178,-0.270566150712888,0.1246710508023928,-0.3528134259711373,0.887002659869214,-0.7661365347007522,-0.0419892808067786,-2.566377506156575
1784719817943920384,0.3944542407989502,-0.1413804143667221,-0.2747325897216797,-0.043587617576122284,-0.03311505168676376,0.6956171989440918,-0.7176489233970642,0.09349410235881805,0.09573405981063843,0.10247564315795898,-0.2704145200945627,0.12660219476083473,-0.3537618052400423,0.886397392368563,-0.7692786975379401,-0.04611109666033555,-2.568055281360283
1784719817953840384,0.404374361038208,0.1342233419418335,-0.34915170073509216,-0.02060673199594021,-0.03591132164001465,0.6963733434677124,-0.7167807221412659,0.16432929039001465,0.0943065881729126,0.052641868591308594,-0.27071432440215154,0.12834362119825699,-0.35374788452247663,0.8860610261242261,-0.7703317128337813,-0.05005899373840444,-2.568854078018152
1784719817963760384,0.4142942428588867,0.35574987530708313,-0.3633468747138977,-0.0009166505769826472,-0.03829342871904373,0.6954750418663025,-0.7175291776657104,0.19774775207042694,0.03003460168838501,0.01287829875946045,-0.2714365980004154,0.12966725766931822,-0.3527347554886116,0.886051248339459,-0.769080769819652,-0.05331787737828446,-2.568640243437871
1784719817973680384,0.42421436309814453,0.4379984140396118,-0.3366432189941406,0.05905880406498909,-0.03985428437590599,0.6934012174606323,-0.7194486260414124,0.17317034304141998,0.0014534592628479004,-0.009707808494567871,-0.27252838918553485,0.13044455206617986,-0.35108390161434194,0.886257571713486,-0.7661986967923543,-0.05533903389769032,-2.567244463202498
1784719817983599360,0.43413329124450684,0.32823994755744934,-0.15695254504680634,0.24106456339359283,-0.0395355224609375,0.6914803981781006,-0.7213125824928284,0.08905029296875,-0.015546560287475586,0.01544100046157837,-0.2740776171560719,0.13045848987496683,-0.3497488996026718,0.886305728598063,-0.7635363566596124,-0.05475574026802645,-2.563762847768653
1784719817993519616,0.44405341148376465,0.34871408343315125,0.04053124412894249,0.23174281418323517,-0.03711879625916481,0.6897402405738831,-0.7231048941612244,0.003732539713382721,-0.03585535287857056,0.044454991817474365,-0.2756448305578897,0.12943066815081752,-0.3488484688860378,0.8863252997776653,-0.7611302305358859,-0.05128750469015484,-2.559084377421443
1784719818003439360,0.45397329330444336,0.36713171005249023,0.1864924430847168,0.2600812613964081,-0.03352969139814377,0.6877559423446655,-0.7251672148704529,-0.08718258142471313,-0.007381856441497803,0.054116249084472656,-0.2768914816001156,0.12761571769604196,-0.34803823149544255,0.8865182832293597,-0.7583932433707975,-0.04620427620489475,-2.554536202399311
1784719818013359360,0.46389317512512207,0.28678399324417114,0.2208366096019745,-0.02826511859893799,-0.0304777380079031,0.6860054731369019,-0.7269577383995056,0.0009825155138969421,-0.04267972707748413,0.07484292984008789,-0.27745928374062306,0.12586738716388443,-0.34738815762096403,0.886845601812762,-0.7559847059140435,-0.04190051068593048,-2.5518055792538026
1784719818023278592,0.4738123416900635,0.5752732753753662,0.35491958260536194,-0.02844328247010708,-0.028430964797735214,0.6833856701850891,-0.7295038104057312,0.07010269165039062,0.08083552122116089,0.0722772479057312,-0.2769573758723636,0.12402828716567436,-0.34621536917425577,0.8877199285395628,-0.7523901582044636,-0.03895330298646674,-2.5521457605171816
1784719818033198336,0.4837322235107422,0.8677298426628113,0.39446496963500977,0.4618234634399414,-0.02364964224398136,0.6784862875938416,-0.7342323064804077,0.22302095592021942,0.04362064599990845,0.030741095542907715,-0.277718375890099,0.12077285714300137,-0.3439444051433971,0.8888131413954005,-0.7457001252825471,-0.032198893235757246,-2.5484916404218287
1784719818043118592,0.49365234375,0.6791823506355286,0.33576464653015137,-0.2172759473323822,-0.01795337162911892,0.6731771230697632,-0.7392632961273193,0.26474905014038086,-0.053777098655700684,0.06497740745544434,-0.278905929398094,0.11713523292515142,-0.341537246260768,0.8898556497463658,-0.7384968460883862,-0.024280717424933214,-2.5435289332446254
1784719818053038336,0.5035722255706787,1.304294228553772,0.02846788428723812,-0.5342879295349121,-0.019447829574346542,0.6666221618652344,-0.7451421022415161,0.506462574005127,0.15074539184570312,0.07213795185089111,-0.27708926143473656,0.11578581064180318,-0.33767233976863276,0.8920721213398293,-0.7296679598427418,-0.02609356740042906,-2.5492293788173512
1784719818062957568,0.5134913921356201,2.1801390647888184,-0.06809620559215546,0.3306524455547333,-0.018738826736807823,0.653930127620697,-0.7563228011131287,0.9459238648414612,0.07389885187149048,-0.11104774475097656,-0.27782481996417674,0.11299104534652443,-0.33025991334498217,0.8949719333526758,-0.7127676339655917,-0.024771159989014597,-2.5488216906895014
1784719818072877312,0.5234112739562988,2.7244863510131836,-0.12301234155893326,0.8623847365379333,-0.011826747097074986,0.6360875368118286,-0.7715262770652771,0.944566011428833,0.024343371391296387,-0.039905548095703125,-0.2827221418101801,0.10750766397667433,-0.32043556376935606,0.8976811425768318,-0.6894171068013565,-0.015327826414175346,-2.536870631413405
1784719818082797568,0.5333313941955566,3.298668146133423,-0.15787312388420105,0.8074468970298767,-0.0029121418483555317,0.6133373379707336,-0.7898156642913818,0.676160454750061,-0.009928524494171143,0.011525869369506836,-0.28902233587761844,0.1005083191785649,-0.3082048849732851,0.9007629161582686,-0.6602791574450435,-0.0036870991178511066,-2.52188321967299
1784719818092716544,0.543250322341919,3.79103422164917,-0.11131889373064041,0.7517486810684204,0.0056558470241725445,0.5855770707130432,-0.8105970025062561,0.5337271094322205,0.014093339443206787,0.0919080376625061,-0.29509645575493343,0.09261349445979572,-0.29346932913399926,0.9045532287133278,-0.6255917850795621,0.006977271367713013,-2.5086399972365667
1784719818102636288,0.5531702041625977,4.258009910583496,-0.22833125293254852,0.8615665435791016,0.01435726135969162,0.5529342889785767,-0.8331011533737183,0.6291669011116028,0.11137229204177856,0.22448909282684326,-0.30140898696894647,0.08379962459494317,-0.27645443355228766,0.9086821138809509,-0.5858817798302502,0.017231809844405043,-2.4958371563054946
1784719818112556544,0.5630903244018555,4.578581809997559,-0.3151094317436218,0.9471303820610046,0.02237917110323906,0.5162883996963501,-0.8561223149299622,0.7694909572601318,0.2447131872177124,0.36916863918304443,-0.3083337740848076,0.07476018568061084,-0.25758445020418136,0.9126836578386683,-0.5425113990927567,0.026134205220384687,-2.48273627541824
1784719818122476288,0.5730102062225342,5.04026985168457,-0.3789949119091034,1.0132691860198975,0.030343489721417427,0.47533875703811646,-0.8792794346809387,0.7917085289955139,0.27633970975875854,0.4340432286262512,-0.3155516727337245,0.06501563664500946,-0.2369245447473676,0.9165516876567622,-0.495349042112385,0.03449580549153434,-2.4697266750347713
1784719818132395520,0.5829293727874756,4.917856693267822,-0.5581496953964233,1.0173226594924927,0.035702742636203766,0.4315549433231354,-0.9013798832893372,0.7768277525901794,0.19315513968467712,0.47120410203933716,-0.32277038431076255,0.05598276262808146,-0.21488600392686857,0.920059411355959,-0.4462157781029574,0.03958828965633252,-2.4578087418694827
1784719818142315264,0.5928492546081543,4.4812726974487305,-0.3858524560928345,0.8627035021781921,0.03791315108537674,0.3892137110233307,-0.9203669428825378,0.7410175204277039,0.05934891104698181,0.6187312006950378,-0.3290076119308756,0.048459613648315185,-0.19356702714287424,0.9230046611525025,-0.3997778295018328,0.04117024106244594,-2.4484271129469106
1784719818152235520,0.6027693748474121,3.7730844020843506,-0.3060172498226166,0.7250539660453796,0.039312586188316345,0.3511422276496887,-0.93549644947052,0.66678786277771,-0.12369474768638611,0.6834060549736023,-0.33398321136304226,0.04179764114384633,-0.1746560120186082,0.9253125740948314,-0.3587907352649539,0.041998521765264,-2.441198616229723
1784719818162155264,0.6126892566680908,3.049886703491211,-0.2887088358402252,0.6199384331703186,0.03977136313915253,0.31925129890441895,-0.9468351602554321,0.6727225184440613,-0.21590352058410645,0.7019163370132446,-0.3380657776707251,0.03650241016866614,-0.1589024515462464,0.926892177356953,-0.3249393496939495,0.04197985058085323,-2.435236657468392
1784719818172074240,0.6226081848144531,2.4078354835510254,-0.2708151638507843,0.42571917176246643,0.03951909393072128,0.29345235228538513,-0.9551565051078796,0.6880505084991455,-0.27321919798851013,0.6422445178031921,-0.3412334747692237,0.032459301602653416,-0.14617843561354832,0.9279752548020818,-0.2978361824857066,0.04135088427336962,-2.430645088209493
1784719818181994496,0.6325283050537109,1.963950753211975,-0.23562121391296387,0.2697245180606842,0.03876229375600815,0.27285486459732056,-0.9612740278244019,0.6829631924629211,-0.28873926401138306,0.5522774457931519,-0.34335765596422624,0.02941091464193762,-0.13600733991446295,0.9288393415644068,-0.27635924935252404,0.04030204152060295,-2.427820115245495
1784719818191914240,0.6424481868743896,1.7880985736846924,-0.23736801743507385,0.1673399955034256,0.03770827502012253,0.254983127117157,-0.9662099480628967,0.6632347106933594,-0.3383113741874695,0.41512352228164673,-0.3448303894799253,0.02689005320092342,-0.12716895781983764,0.9296219428271368,-0.257830248520753,0.03900720327692003,-2.4261291499467084
1784719818201834496,0.6523683071136475,1.7080225944519043,-0.10399185121059418,0.015144874341785908,0.03692082315683365,0.23828953504562378,-0.9704921245574951,0.5770165324211121,-0.3732687830924988,0.3528621196746826,-0.34560963025570995,0.024359866184780275,-0.11899805311435117,0.9304838107612204,-0.24060426914390998,0.038025066734654146,-2.425721134874845
1784719818211753472,0.6622872352600098,1.8457369804382324,0.00605456717312336,-0.2605627775192261,0.03674245625734329,0.22136183083057404,-0.9744993448257446,0.4240272045135498,-0.34863537549972534,0.33834517002105713,-0.34532919493014214,0.02137812128131968,-0.11087521952528095,0.9316638070524572,-0.22321073103500338,0.03768608142682252,-2.4274505034804466
1784719818221673472,0.6722073554992676,2.0383126735687256,0.14594429731369019,-0.5154515504837036,0.03708058223128319,0.2026238739490509,-0.978554368019104,0.2806379199028015,-0.3225426971912384,0.3511587381362915,-0.34366413069743157,0.01770221751287001,-0.1020267672794982,0.9333660727738484,-0.20403664324103224,0.037875106031738555,-2.432125732859825
1784719818231593472,0.6821272373199463,1.9345035552978516,0.31647977232933044,-0.7078239917755127,0.038577523082494736,0.18349801003932953,-0.9822628498077393,0.22665074467658997,-0.2567859888076782,0.36701321601867676,-0.340885946957788,0.013352117043367572,-0.09322182713475072,0.9353759561886276,-0.18454370908359694,0.03925396117505704,-2.4390032911290875
1784719818241512448,0.6920464038848877,1.9272665977478027,0.5167761445045471,-0.9005617499351501,0.041486408561468124,0.16500382125377655,-0.9854200482368469,0.20607218146324158,-0.24073319137096405,0.3364027142524719,-0.3371502557252583,0.008428753520537763,-0.084964374714827,0.9375712024492597,-0.16576187906716064,0.04207538176551131,-2.447694718813154
1784719818251432448,0.7019662857055664,1.7316179275512695,0.7063387036323547,-1.2437989711761475,0.046525970101356506,0.14733539521694183,-0.9879916906356812,0.186582550406456,-0.251766562461853,0.3022159934043884,-0.33198330563030076,0.0026026036821311786,-0.07744270392220615,0.94009730619186,-0.14787372460000073,0.047056692376752154,-2.4591726589957847
1784719818261352448,0.7118864059448242,1.8686537742614746,0.8779855370521545,-1.568612813949585,0.05257903039455414,0.1307523101568222,-0.9900198578834534,0.15895356237888336,-0.1368710845708847,0.32185274362564087,-0.3250954839452052,-0.0035562936776322067,-0.07055093536498157,0.9430391183485363,-0.13112777004155,0.05305921788748633,-2.4741604886017807
1784719818271272448,0.7218062877655029,2.3738455772399902,0.9631358981132507,-1.6492403745651245,0.06036148965358734,0.1108270063996315,-0.9920049905776978,0.16803206503391266,-0.122927226126194,0.16224730014801025,-0.317223987018273,-0.011023824318623879,-0.0622574402899461,0.9462407254069282,-0.11105514558261398,0.06077304142378775,-2.491270603341167
1784719818281191424,0.7317252159118652,2.48482346534729,1.0583314895629883,-1.8188427686691284,0.06926807016134262,0.08767861127853394,-0.9937375783920288,0.3713904917240143,-0.13731545209884644,0.07370889186859131,-0.308610464047799,-0.019417974558095956,-0.05247997526049171,0.9495411714305724,-0.0877913433038096,0.0695920264959227,-2.5100526506137464
1784719818291111424,0.741645336151123,2.467907428741455,1.1945536136627197,-2.022653341293335,0.07963403314352036,0.06398975104093552,-0.9947682023048401,0.27920690178871155,-0.1653386354446411,0.1362171769142151,-0.29894533511820537,-0.02845128853298851,-0.04250216763016567,0.9528986068245717,-0.0640335030198991,0.07988250740847526,-2.531037154877808
1784719818301031424,0.7515652179718018,1.5145440101623535,1.031574010848999,-2.5064079761505127,0.08919963985681534,0.046342458575963974,-0.9949350953102112,0.14026203751564026,-0.2535568177700043,0.10263162851333618,-0.28781110872076965,-0.03607609045596777,-0.03508530886448633,0.9563640683219238,-0.046359062006020926,0.08941467195423261,-2.554874785296664
1784719818310951424,0.7614853382110596,0.8103682994842529,1.3245453834533691,-3.022991418838501,0.10015665739774704,0.03843829035758972,-0.9942288994789124,0.00346577912569046,-0.23571917414665222,0.10357338190078735,-0.27421111207934173,-0.04293740797641937,-0.032278786277155795,0.960168046664785,-0.038447761296023314,0.100399317256669,-2.5832975221336048
1784719818320870400,0.7714042663574219,0.4823547601699829,1.2360016107559204,-3.434345006942749,0.11174337565898895,0.03510236367583275,-0.9931169152259827,0.05300576984882355,-0.30707502365112305,-0.043702542781829834,-0.2583402049325481,-0.04951167384029116,-0.031466292762452434,0.9642711475721776,-0.035109577246053264,0.11204658137513374,-2.61609332424333
1784719818330790400,0.7813243865966797,0.10944722592830658,1.4003154039382935,-3.6998634338378906,0.12457755953073502,0.03778678923845291,-0.9914900660514832,0.05642218887805939,-0.171713188290596,-0.12687230110168457,-0.24121313865735075,-0.055993737287197656,-0.033461296743642024,0.968277493895199,-0.037795788915567737,0.12499179648532789,-2.6509347898018376
1784719818340710400,0.7912442684173584,0.3777964115142822,1.3387510776519775,-4.0322489738464355,0.13589069247245789,0.04009537026286125,-0.9899121522903442,0.10274149477481842,-0.07500748336315155,-0.196397602558136,-0.22213652631754616,-0.06193084490863845,-0.03476336970015327,0.9724255166146016,-0.040106120884166624,0.13642283118855783,-2.6896883130720597
1784719818350630400,0.8011643886566162,0.2903694808483124,1.2779350280761719,-4.378584384918213,0.1477610468864441,0.042539093643426895,-0.9881078600883484,0.028905212879180908,-0.039823029190301895,-0.3039606213569641,-0.20155507040372675,-0.06825857050490478,-0.03587267083150635,0.9764371253952384,-0.04255193327428184,0.14843944164781334,-2.7313083994685203
1784719818360549376,0.8110833168029785,0.42471185326576233,1.2228411436080933,-4.745263576507568,0.15854907035827637,0.04615483433008194,-0.9862717390060425,-0.04859423637390137,0.02453913539648056,-0.286540150642395,-0.1791019340870539,-0.07409102834449867,-0.03707633749406167,0.9803358770585695,-0.046171237483443095,0.1593922807709331,-2.776501335405851
1784719818370469376,0.8210031986236572,0.6121109127998352,1.3459900617599487,-4.966516971588135,0.1693449169397354,0.0488278903067112,-0.9843465685844421,-0.06827069818973541,0.027603384107351303,-0.33028966188430786,-0.15495949381113733,-0.08015780176371246,-0.03743594226942775,0.9839516607266877,-0.04884731348080549,0.17037014645699486,-2.825012821031276
1784719818380389376,0.830923318862915,0.5361538529396057,1.2969309091567993,-5.057623386383057,0.17992070317268372,0.05221172422170639,-0.982294499874115,-0.12823918461799622,-0.1531486213207245,-0.258184015750885,-0.1298852058296341,-0.08616784802641568,-0.03778695188005414,0.987054774257373,-0.0522354763961276,0.18115566130103697,-2.8751733695840103
1784719818390309376,0.8408432006835938,0.6945608854293823,1.3452637195587158,-5.086944580078125,0.19068913161754608,0.055808842182159424,-0.9800627827644348,-0.12568669021129608,-0.17684155702590942,-0.20447701215744019,-0.10444812942693991,-0.09235005348464712,-0.037948446999592766,0.9895058566917024,-0.05583785173629214,0.1921673380699997,-2.9258767370724734
1784719818400228608,0.8507623672485352,0.7633228898048401,1.4503188133239746,-5.024393081665039,0.20194584131240845,0.05861703306436539,-0.9776409864425659,-0.14498479664325714,-0.2512287199497223,-0.2304888367652893,-0.0789608463798923,-0.09888108102864855,-0.03744370993956692,0.9912546359143661,-0.058650654035805105,0.2036994485147201,-2.976617400992199
1784719818410148352,0.8606822490692139,0.9843056201934814,1.4417914152145386,-4.977835178375244,0.2136482447385788,0.0606713742017746,-0.9750248193740845,-0.1482490748167038,-0.3062463402748108,-0.2571834325790405,-0.05370003670459079,-0.10569073148008296,-0.036291287476151235,0.9922845488351613,-0.060708659160726805,0.21571156583359768,-3.0268876788999353
1784719818420068608,0.8706023693084717,1.4578673839569092,1.4853817224502563,-4.831707954406738,0.22532714903354645,0.060151729732751846,-0.9724245071411133,-0.14558471739292145,-0.19493260979652405,-0.2965269088745117,-0.028562573616852712,-0.1125304012399111,-0.03353579499248056,0.9926713587335209,-0.060188063618725834,0.22769837039487006,-3.0771774648412533
1784719818429987328,0.880521297454834,1.8364473581314087,1.282425880432129,-4.513373851776123,0.23666556179523468,0.054614704102277756,-0.9700549840927124,-0.21087820827960968,-0.006534259766340256,-0.4449840784072876,-0.00440960660445071,-0.1191053054953189,-0.028043566705660095,0.9924757075061084,-0.05464188931523103,0.23929658860275504,-3.1261358394639585
1784719818439907328,0.8904411792755127,1.7407793998718262,1.0741446018218994,-4.233940601348877,0.24607913196086884,0.047912146896123886,-0.9680648446083069,-0.11682194471359253,-0.022811442613601685,-0.4003280997276306,0.01831293225508075,-0.12445849891507954,-0.021855762068564554,0.9918150532004365,-0.04793049769724285,0.24892483162857912,3.1106664028878046
1784719818449827328,0.9003612995147705,1.5358489751815796,1.0745772123336792,-4.135687351226807,0.25509434938430786,0.04284181073307991,-0.9659665822982788,-0.23522740602493286,-0.2653759717941284,-0.2869325876235962,0.039926316933047115,-0.12941214761986353,-0.016407349291826825,0.9906509192015557,-0.04285492845243696,0.2581877401389269,3.06659411534849
1784719818459747328,0.9102811813354492,1.817514181137085,0.8419293165206909,-4.058760166168213,0.26282593607902527,0.03824470564723015,-0.9640849828720093,-0.42365357279777527,-0.28195807337760925,-0.19117319583892822,0.06120525722980388,-0.13354764873844338,-0.011069316112088329,0.9890886399055994,-0.03825403531599659,0.2661493746950959,3.023110858695754
1784719818469666560,0.9202003479003906,2.324307441711426,0.8217320442199707,-3.8278398513793945,0.2698424458503723,0.029384732246398926,-0.9624560475349426,-0.4917052388191223,-0.16361629962921143,-0.20651978254318237,0.08198764469095016,-0.13696598994761383,-0.0035078501043091927,0.987170779709799,-0.029388962495195372,0.2733504702472675,2.9799089460123
1784719818479586304,0.9301202297210693,2.9710891246795654,0.8035653233528137,-3.858144760131836,0.276992529630661,0.015104892663657665,-0.960753321647644,-0.5451810359954834,-0.11340201646089554,-0.003007054328918457,0.10252739490732152,-0.13991339931956664,0.006897230038620223,0.9848170918414104,-0.015105467075048121,0.280695639306688,2.936258002356029
1784719818489506560,0.9400403499603271,4.19865083694458,0.6776705384254456,-3.696157217025757,0.2842984199523926,-0.007770990487188101,-0.9587043523788452,-0.6044735908508301,-0.04014160856604576,-0.007604241371154785,0.12354094253105785,-0.14202608607763123,0.02182702166820746,0.981880717544909,0.00777106853376921,0.2882835193210779,2.8901386538258045
1784719818499426304,0.9499602317810059,5.403872013092041,0.4755786955356598,-3.4122419357299805,0.2909274697303772,-0.04318128526210785,-0.9557701349258423,-0.4414249062538147,-0.21122850477695465,0.009099602699279785,0.14407992765893354,-0.14234851810633276,0.04303280438778928,0.9783281984004188,0.04319471433885663,0.2954799983042108,2.842722268855724
1784719818509345536,0.9598793983459473,6.381468772888184,0.26718950271606445,-3.3294005393981934,0.29684072732925415,-0.08889259397983551,-0.9507805705070496,-0.40101248025894165,-0.18904626369476318,0.03455132246017456,0.16447148251182367,-0.14068793103018482,0.0694018929617977,0.9738271717435131,0.08901008131063468,0.3026182740981676,2.7933862124015287
1784719818519265536,0.969799280166626,7.025165557861328,0.010302042588591576,-3.3279330730438232,0.3017186224460602,-0.1418730616569519,-0.9427819848060608,-0.5015629529953003,-0.2421448826789856,0.07052856683731079,0.18512634526491603,-0.13682132954058407,0.09944304366489407,0.9680492269225768,0.14235335687517925,0.30973024664151233,2.7414222927080254
1784719818529185536,0.9797194004058838,7.206073760986328,-0.19589240849018097,-3.123826026916504,0.306362509727478,-0.19820407032966614,-0.9310516715049744,-0.4894374907016754,-0.23178857564926147,0.22366946935653687,0.2053970641108806,-0.1313660527507442,0.13121409310779097,0.9609047098531274,0.1995253063164532,0.3178905681304096,2.6883359803451534
1784719818539104512,0.9896383285522461,7.138157844543457,-0.28994858264923096,-2.913020610809326,0.3109647035598755,-0.2545469105243683,-0.9157001972198486,-0.3977109491825104,-0.1661379039287567,0.39365124702453613,0.2245021129272612,-0.12479980749837175,0.1630181606657004,0.952601115972622,0.2573791643753028,0.32737299448943313,2.6359543029232406
1784719818549024256,0.9995582103729248,6.676738262176514,-0.42976728081703186,-2.807434558868408,0.3155621290206909,-0.3079684376716614,-0.8975388407707214,-0.5219982862472534,-0.11679047346115112,0.5691697001457214,0.2424884595868691,-0.1175294574434347,0.19343577037140997,0.9433816183778337,0.3130569325396106,0.3380870836016477,2.5845446363513154
1784719818558944512,1.0094783306121826,5.904921531677246,-0.34268805384635925,-2.865670919418335,0.3216301500797272,-0.3543514907360077,-0.8780598044395447,-0.6922355890274048,-0.1564822494983673,0.652214527130127,0.25960076159420375,-0.11090641721585981,0.22061244316703557,0.9336152046497775,0.36222045701275013,0.351118364532043,2.5342339122824957
1784719818568864256,1.0193982124328613,4.7364349365234375,-0.37792524695396423,-3.0712130069732666,0.32958415150642395,-0.39068859815597534,-0.8594979643821716,-0.7090855240821838,-0.27312976121902466,0.5943612456321716,0.27656769347507393,-0.1056154678344964,0.24309751853553552,0.9237203275924691,0.4013795122073268,0.3661680342867613,2.4844716366562656
1784719818578783488,1.0293173789978027,3.765817880630493,-0.36520466208457947,-3.0247483253479004,0.33888572454452515,-0.4162682592868805,-0.8437281250953674,-0.5497164726257324,-0.1990271508693695,0.4907923936843872,0.29321238445692993,-0.10184701558314635,0.26031348918561326,0.9142704457611002,0.42933719846557317,0.3819303291996222,2.436656469830239
1784719818588703488,1.0392372608184814,3.1617329120635986,-0.483286589384079,-2.7889208793640137,0.347625732421875,-0.43470409512519836,-0.8307759761810303,-0.33038330078125,-0.22218677401542664,0.2690541744232178,0.30861460402909047,-0.09867961917949272,0.27363179257340997,0.9056185398319121,0.44970968855537136,0.39629690379101823,2.392938885606145
1784719818598623488,1.0491573810577393,3.240341901779175,-0.5932586789131165,-2.6626293659210205,0.35521602630615234,-0.4510076940059662,-0.8187879323959351,-0.27872371673583984,-0.1471063494682312,0.09964120388031006,0.323031698159088,-0.09513215505109228,0.28557997145531494,0.8972426904349623,0.4678940459717958,0.4093272069037818,2.3515817919569435
1784719818608543488,1.059077262878418,3.8971526622772217,-0.7603525519371033,-2.544792890548706,0.36167970299720764,-0.470123827457428,-0.8050909042358398,-0.30827394127845764,-0.009963452816009521,-0.057641029357910156,0.3372000601907428,-0.09013749682109888,0.29888086536595665,0.888167537142966,0.4894310689540726,0.4222223951678138,2.308965719866508
1784719818618462208,1.0689961910247803,4.878754615783691,-0.9257358908653259,-2.3763060569763184,0.36690157651901245,-0.4958612322807312,-0.7870863080024719,-0.30533236265182495,0.1979028284549713,-0.16547411680221558,0.3512020514740039,-0.08273198767556249,0.3156141207581682,0.8776104628179967,0.5188262828767553,0.43620415764724757,2.2627681422437345
1784719818628382464,1.078916311264038,5.477106094360352,-1.2011865377426147,-2.2441530227661133,0.37016406655311584,-0.5273396968841553,-0.7647819519042969,-0.27887070178985596,0.18922019004821777,-0.14955520629882812,0.3648939603837597,-0.0725226528667089,0.33518574100809967,0.8655884918444128,0.5554664560324262,0.4507760229280622,2.213140341018097
1784719818638302208,1.0888361930847168,5.909402370452881,-1.341726303100586,-2.1796858310699463,0.3726504445075989,-0.5617778897285461,-0.7386049628257751,-0.2692263424396515,-0.04559820890426636,-0.20765358209609985,0.37838160876194143,-0.060382397514160704,0.35644282552053347,0.8521325742675997,0.5965333149178697,0.4672672793712569,2.1597507384417787
1784719818648222464,1.0987563133239746,6.2220892906188965,-1.6652663946151733,-2.005251407623291,0.37386175990104675,-0.597460925579071,-0.7094137668609619,-0.19080203771591187,-0.07134705781936646,-0.24569487571716309,0.39155563345142197,-0.046312160193536116,0.37834944120110897,0.8374910177702717,0.6403310503651992,0.485014331661473,2.1032345231139598
1784719818658141440,1.108675241470337,6.77678918838501,-1.8373864889144897,-1.7931658029556274,0.3733091354370117,-0.6350300312042236,-0.6762967109680176,-0.09851357340812683,0.016057252883911133,-0.2900576591491699,0.4039984823672267,-0.02991028163251127,0.40119448669357305,0.821543488105366,0.6880473799034247,0.5043698673918471,2.04342261985205
1784719818668061440,1.1185953617095947,7.305622577667236,-2.0613455772399902,-1.5539460182189941,0.37137463688850403,-0.674737274646759,-0.6378170251846313,-0.10637521743774414,0.021889984607696533,-0.25412023067474365,0.41547816306399943,-0.01112254489844582,0.42540305800703754,0.8039194940978691,0.7406086740134754,0.5272723851749909,1.978763851266928
1784719818677981440,1.1285152435302734,7.731738090515137,-2.2179648876190186,-1.3268686532974243,0.3681272566318512,-0.7154794335365295,-0.5937772989273071,-0.10433334112167358,-0.08119714260101318,-0.1036408543586731,0.4257608972530749,0.009904785107115495,0.4505699125585236,0.7846122024371498,0.7973101239483913,0.5549778992925594,1.908434073018663
1784719818687900416,1.1384344100952148,7.917705535888672,-2.3097918033599854,-1.265039086341858,0.36459508538246155,-0.7551575899124146,-0.5448002219200134,-0.15651103854179382,-0.11244183778762817,-0.06042426824569702,0.4351421550827251,0.03249878396002221,0.47596607699960136,0.7635779774583635,0.8558945136869323,0.5897731289887972,1.83030325972939
1784719818697820416,1.1483542919158936,7.979852676391602,-2.34476637840271,-0.9649871587753296,0.3612109422683716,-0.791965126991272,-0.4922580420970917,-0.17453491687774658,-0.03912007808685303,-0.0043239593505859375,0.4432122133365413,0.05575604402071585,0.500761657937914,0.7414122010075868,0.9140208413831079,0.6330416523496532,1.744627167929998
1784719818707740416,1.1582741737365723,8.006330490112305,-2.476393222808838,-0.7297431230545044,0.3567579686641693,-0.8258061408996582,-0.43677008152008057,-0.13329297304153442,-0.1051630973815918,0.012957215309143066,0.44967403980963516,0.08006068849954458,0.5246000808510353,0.7184555951583583,0.9716301732834836,0.6849069575850695,1.6509885787128953
1784719818717660416,1.16819429397583,8.37637996673584,-2.5243942737579346,-0.5964167714118958,0.3520907759666443,-0.8566198945045471,-0.3771396577358246,-0.17069435119628906,-0.1887596845626831,-0.036556631326675415,0.45488239666266683,0.10551314542051721,0.5479937539651004,0.6940113154914046,1.0286823169838144,0.7510619550196032,1.5428236871481193
1784719818727579392,1.1781132221221924,8.682245254516602,-2.5750064849853516,-0.4279814064502716,0.34766796231269836,-0.8839935064315796,-0.3125419616699219,-0.25770214200019836,-0.03641664981842041,-0.09241104125976562,0.4586771143012236,0.13204398609799622,0.5712209718293828,0.6677472011598432,1.0843367056513071,0.8385523280150889,1.41323343731539
1784719818737499392,1.1880333423614502,8.913313865661621,-2.592137575149536,-0.24911843240261078,0.34330469369888306,-0.9072646498680115,-0.2429257184267044,-0.27775293588638306,-0.054328978061676025,-0.1407107710838318,0.4608045520441368,0.15969163948838014,0.5941680928714462,0.6396265412653965,1.1367336298685016,0.954981460286593,1.2546547354450284
1784719818747419392,1.197953224182129,8.50118637084961,-2.7146573066711426,-0.12619628012180328,0.33956795930862427,-0.9245719909667969,-0.17280147969722748,-0.20120126008987427,-0.21539688110351562,-0.10594606399536133,0.4619279339665575,0.187322667074831,0.6152312425778278,0.6107564039976292,1.179910688784993,1.1000649944513254,1.0674768146258042
1784719818757339392,1.2078733444213867,8.025956153869629,-2.885258913040161,0.023394014686346054,0.3359639644622803,-0.9359157681465149,-0.10578178614377975,-0.05111292004585266,-0.36472803354263306,-0.14379094541072845,0.4624745064082502,0.21453073222491037,0.6333132480815221,0.5822440795367378,1.2108501060362242,1.265762395628218,0.8595023647017728
1784719818767258368,1.217792272567749,7.587555885314941,-2.9523532390594482,0.18762150406837463,0.33274802565574646,-0.9420412182807922,-0.04286114498972893,0.02813759446144104,-0.4303494691848755,-0.23040848970413208,0.46262111049370763,0.24098775099760397,0.6484553424148788,0.5544477431435134,1.2286634780498562,1.4426921032576447,0.6403773001894273
1784719818777178624,1.2277123928070068,7.535007953643799,-3.0434517860412598,0.5774949789047241,0.3286249041557312,-0.9442963004112244,0.017616845667362213,0.1328161358833313,-0.43380123376846313,-0.2740408182144165,0.4618289219629219,0.2675767300205887,0.661219416214945,0.5271676502970933,1.2354497753379172,1.6243528239905878,0.4162628469861697
1784719818787100160,1.2376339435577393,7.694546699523926,-3.008096694946289,0.9469283223152161,0.3227350413799286,-0.9431845545768738,0.07902567833662033,0.21948599815368652,-0.4704659581184387,-0.3445744514465332,0.4592602736754589,0.2952735791365258,0.672552117799858,0.4995670186400915,1.2320877802108197,1.8109337725027452,0.18674256899240327
1784719818797020160,1.247554063796997,7.837059497833252,-3.062723159790039,1.1311625242233276,0.31610748171806335,-0.9380481243133545,0.14192260801792145,0.19735080003738403,-0.41034066677093506,-0.25897276401519775,0.4549684497208263,0.32377966241521977,0.6827357012751584,0.47121384901290386,1.2169535410504235,1.9927929462544351,-0.038499551024443315
1784719818806939136,1.2574729919433594,7.482629299163818,-2.934441089630127,1.3061555624008179,0.3097846508026123,-0.9287025332450867,0.20382636785507202,0.1439507007598877,-0.33191758394241333,-0.10586488246917725,0.4494896578046543,0.35203198234911764,0.6913657976036122,0.4427707155810627,1.1908984988375568,2.152748027608672,-0.24160443013302674
1784719818816859136,1.2673931121826172,6.316620826721191,-2.6931114196777344,1.3090198040008545,0.30387184023857117,-0.9168069958686829,0.25908854603767395,0.053687334060668945,-0.25772303342819214,0.06416893005371094,0.4436972993052647,0.3781555454504448,0.6975261010986644,0.41663947511382005,1.1600097586610327,2.2768120425034346,-0.4063064070483555
1784719818826779136,1.277312994003296,4.837547779083252,-2.433109998703003,1.2451777458190918,0.2993648648262024,-0.9052529335021973,0.30149316787719727,-0.028643399477005005,-0.3297935724258423,0.2637229263782501,0.43931284068904813,0.3999271332663382,0.7005746675648924,0.39529454497086236,1.1319746722978388,2.3597365554195573,-0.5252440004318812
1784719818836698368,1.2872321605682373,3.5334131717681885,-2.132559061050415,1.3030844926834106,0.2949939966201782,-0.8958860039710999,0.33221524953842163,-0.012126505374908447,-0.4837375283241272,0.307921439409256,0.4362410027150551,0.4178603132737067,0.701070880392422,0.37892774443555977,1.1104214729225401,2.415469196659749,-0.6121321969498849
1784719818846618112,1.297152042388916,2.1665971279144287,-1.8089717626571655,1.2619479894638062,0.2899048924446106,-0.8900867700576782,0.35171154141426086,0.08489677309989929,-0.545231282711029,0.3547857105731964,0.434577793238679,0.43218571474587775,0.6993363104904282,0.36781314103234036,1.097535568677805,2.4522277631011233,-0.6749346693891518
1784719818856538112,1.3070719242095947,1.4667803049087524,-1.7121341228485107,1.5535659790039062,0.28368815779685974,-0.8878584504127502,0.36225515604019165,0.19017362594604492,-0.5725603699684143,0.293796569108963,0.43426919657967505,0.4440224465649774,0.6956807020185601,0.3609471220081589,1.0926696699754002,2.477231355644531,-0.7226198850824939
1784719818866458112,1.3169920444488525,1.3427302837371826,-1.5149606466293335,1.7675470113754272,0.2742241621017456,-0.8876215219497681,0.37003955245018005,0.3305579423904419,-0.5109685659408569,0.17543160915374756,0.4335564255490528,0.45575089614063324,0.6908768993077833,0.356383359866076,1.092155020226178,2.5038330890249165,-0.7702703742823007
1784719818876377088,1.3269109725952148,1.5547019243240356,-1.376771092414856,1.925154447555542,0.2628135681152344,-0.887405276298523,0.37873604893684387,0.2900886535644531,-0.40608227252960205,0.16127252578735352,0.43183781694319023,0.4677780837529938,0.6859677020206651,0.3523465770442081,1.0916857229774726,2.5349570059579696,-0.8212636086133865
1784719818886297344,1.3368310928344727,1.8107867240905762,-1.3102140426635742,2.206589698791504,0.2491249442100525,-0.8863284587860107,0.390330970287323,0.35515350103378296,-0.44550424814224243,0.14897555112838745,0.4286218288333241,0.48091579968082676,0.6810913909448718,0.34801968093850755,1.0893550200886843,2.5735288500276607,-0.8795310097914385
1784719818896217088,1.3467509746551514,1.8247483968734741,-1.1949330568313599,2.3522627353668213,0.23300030827522278,-0.8847929239273071,0.40354958176612854,0.41714614629745483,-0.4282258152961731,0.19111594557762146,0.4241945596910234,0.4949109215782992,0.6758979020308485,0.34392463176628013,1.0860494202676683,2.617973714528449,-0.9433812384641717
1784719818906137344,1.3566710948944092,1.561636209487915,-1.1228702068328857,2.4765093326568604,0.2149215042591095,-0.8836239576339722,0.4159536361694336,0.4307693839073181,-0.44810211658477783,0.17181488871574402,0.41925706366685456,0.5088434605927632,0.6701157690241958,0.34094968271395204,1.0835467670298826,2.66467775970148,-1.0083659313284417
1784719818916056064,1.3665900230407715,1.2567436695098877,-1.0233702659606934,2.6040420532226562,0.1926301270723343,-0.8837596774101257,0.4264531433582306,0.4850584864616394,-0.4886157512664795,0.14698731899261475,0.4135791553968529,0.523017112529845,0.6630834613076063,0.34018473474014593,1.0838367800172723,2.7173235082742986,-1.07781542744891
1784719818925976320,1.3765101432800293,1.0518875122070312,-0.8675344586372375,2.7685720920562744,0.17215077579021454,-0.8839471936225891,0.43474283814430237,0.5101459622383118,-0.4594365358352661,0.12551411986351013,0.4088887266459918,0.5359431602023137,0.6558478043172666,0.33976249679771786,1.0842376523169184,2.764553985336902,-1.1414326006705895
1784719818935896064,1.386430025100708,1.2510251998901367,-0.8209901452064514,2.8146190643310547,0.15096426010131836,-0.8835340738296509,0.4433708190917969,0.5549531579017639,-0.36138492822647095,0.0571938157081604,0.40372866749652325,0.5487364690166863,0.6485165345719415,0.3395848382620574,1.0833547971166457,2.8134131004150493,-1.2058933786892299
1784719818945816320,1.3963501453399658,1.4048651456832886,-0.830146312713623,2.9554922580718994,0.1291629523038864,-0.8816315531730652,0.45391932129859924,0.6729152798652649,-0.29358506202697754,-0.03219693899154663,0.39777982615150265,0.5620595531675537,0.641130814223915,0.33883851532538334,1.079308196253282,2.864369302613543,-1.2728191364575023
1784719818955735296,1.4062690734863281,1.3774535655975342,-0.8025529980659485,3.039560556411743,0.10642218589782715,-0.8788247108459473,0.4651249945163727,0.7422869205474854,-0.3340505361557007,-0.06456655263900757,0.391331924533137,0.5757106242166735,0.6333401669111045,0.33807806639275445,1.073393456453076,2.916661028667133,-1.3413500244816143
1784719818965655040,1.4161889553070068,1.2819362878799438,-0.7731962203979492,3.1742005348205566,0.0830724909901619,-0.8755812644958496,0.4758742153644562,0.6937524080276489,-0.34661710262298584,-0.08469992876052856,0.384762256930298,0.5892471073413615,0.6250799592636677,0.33766975908291025,1.0666378347666374,2.9687660102206372,-1.4095968077357977
1784719818975575296,1.4261090755462646,1.2967933416366577,-0.7785728573799133,3.2846338748931885,0.0587754026055336,-0.8717629313468933,0.4863892197608948,0.6337447166442871,-0.29780781269073486,-0.12146013975143433,0.377986723051207,0.6029392176864544,0.6161646833683693,0.3375371221499864,1.058789260118081,3.0213354765404032,-1.4786811490117555
1784719818985494016,1.436028003692627,1.4814726114273071,-0.784605860710144,3.319753885269165,0.03404238820075989,-0.8665642738342285,0.4979028105735779,0.5382232666015625,-0.25172168016433716,-0.18781369924545288,0.3706380813789682,0.6168211029307399,0.6070281205934064,0.33715860849681806,1.0482763381090339,3.0733273467762587,-1.547327104596407
1784719818995414272,1.4459481239318848,1.6706575155258179,-0.7777804732322693,3.2666337490081787,0.009738964959979057,-0.8593513369560242,0.5112928152084351,0.5167807936668396,-0.21431803703308105,-0.24369949102401733,0.3625785274247741,0.6308689150138286,0.5980391438250132,0.3359916213072882,1.033999856842308,3.122547231327033,-1.6133835604740143
1784719819005334016,1.4558680057525635,1.8476234674453735,-0.7994770407676697,3.33028244972229,-0.014012043364346027,-0.8503328561782837,0.5260587930679321,0.5570265650749207,-0.1832669973373413,-0.22109663486480713,0.3539852663423383,0.6449904361706015,0.589081256086102,0.3341632601951144,1.016617468444638,-3.1149630610258385,-1.676180806925512
1784719819015254272,1.4657881259918213,1.9494731426239014,-0.7898470759391785,3.312040090560913,-0.037647996097803116,-0.8394646644592285,0.5421087741851807,0.6065109372138977,-0.17898333072662354,-0.1351262927055359,0.34468821497690405,0.6592124800483036,0.5800804106090912,0.3318670172339683,0.9962973249652566,-3.0722566648653182,-1.736051052691951
1784719819025173248,1.4757070541381836,2.1070854663848877,-0.7821542024612427,3.358154535293579,-0.06081283837556839,-0.8269057869911194,0.5590426921844482,0.6663120985031128,-0.15595859289169312,-0.06346774101257324,0.33487159429456625,0.6733616680839474,0.5710563902443204,0.32914998627687675,0.9735828476827555,-3.033238386070078,-1.7922396256082345
1784719819035092992,1.4856269359588623,2.429809808731079,-0.7993305325508118,3.5127503871917725,-0.08419717103242874,-0.8117576241493225,0.5778935551643372,0.6977988481521606,-0.15137732028961182,-0.08445465564727783,0.32393671448839895,0.6879444236259818,0.5618533972010651,0.32575818854978267,0.9471554721853551,-2.996913963281848,-1.8461341150587793
1784719819045013248,1.4955470561981201,2.7356629371643066,-0.7928080558776855,3.5674350261688232,-0.1076391264796257,-0.7933461666107178,0.5991796851158142,0.6581152081489563,-0.17345088720321655,-0.09534955024719238,0.3116045708423477,0.7030774911699292,0.5525141395308215,0.32142331094507076,0.9162860755348033,-2.963844409850825,-1.897314880111305
1784719819054932992,1.5054669380187988,2.9973268508911133,-0.797702431678772,3.6458640098571777,-0.13066169619560242,-0.7717520594596863,0.6223554015159607,0.5939795970916748,-0.19170308113098145,-0.1112775206565857,0.2980202429630263,0.7184477055705384,0.5431487654485829,0.31623759746148505,0.8815916767734925,-2.934651136982792,-1.9448253524099757
1784719819064852224,1.5153861045837402,3.1591434478759766,-0.7345914840698242,3.658397912979126,-0.15322032570838928,-0.7473081350326538,0.6465710401535034,0.6120368242263794,-0.2401949167251587,-0.18706786632537842,0.28336477478649386,0.7337763842555892,0.5337206428438983,0.3105139307248553,0.8440017188759996,-2.908911119387735,-1.9887298940908449
1784719819074772224,1.525305986404419,3.36685848236084,-0.760094404220581,3.806220531463623,-0.1753663420677185,-0.7200473546981812,0.671400249004364,0.6338929533958435,-0.2816005349159241,-0.23269492387771606,0.26772943772485347,0.7490825775922126,0.5239994495622387,0.3043366046574372,0.803870538970012,-2.886105659173939,-2.0298707154990785
1784719819084692224,1.5352261066436768,3.610553026199341,-0.7546313405036926,3.8931496143341064,-0.1971842348575592,-0.6893861293792725,0.6970400810241699,0.5716807246208191,-0.254430890083313,-0.281619668006897,0.25090022897014014,0.7645799918009052,0.5137484688560378,0.2975381633768064,0.7606413013698456,-2.8659079823879443,-2.0691140996852675
1784719819094611200,1.545145034790039,3.7666618824005127,-0.7437374591827393,3.8941903114318848,-0.2177003026008606,-0.6555037498474121,0.7231332063674927,0.4490387737751007,-0.21096664667129517,-0.3425636887550354,0.23309177730664918,0.7798918459007391,0.5033242477535789,0.29000289547196867,0.7148494518211109,-2.8491714955642844,-2.1052392998505787
1784719819104531200,1.5550651550292969,3.503396987915039,-0.7675926685333252,3.870140314102173,-0.23657071590423584,-0.6201667785644531,0.7479488849639893,0.40922391414642334,-0.24225997924804688,-0.35491299629211426,0.2152709431035456,0.7946160707817602,0.4925035345841913,0.28228356354508877,0.6689553225720132,-2.835256320110514,-2.1390897226098273
1784719819114451200,1.5649850368499756,3.085083484649658,-0.7346946001052856,3.7699272632598877,-0.2536037564277649,-0.5864680409431458,0.7692469358444214,0.3592860996723175,-0.272968053817749,-0.29776543378829956,0.19894038859605914,0.808194481450556,0.48108745232820616,0.27531690916730617,0.6266913640189898,-2.823135522320356,-2.1717098721104304
1784719819124371200,1.5749051570892334,2.842557907104492,-0.7913087606430054,3.7210612297058105,-0.26863348484039307,-0.5542793273925781,0.7877886295318604,0.3590570390224457,-0.2602196931838989,-0.2807236313819885,0.183957131381619,0.820776838840455,0.4692757015983114,0.2688225932305959,0.5874968676973595,-2.8129607957734626,-2.2030538062392613
1784719819134290176,1.5848240852355957,2.7115397453308105,-0.8806421160697937,3.675048589706421,-0.2815905809402466,-0.5225169658660889,0.8047876358032227,0.3857165277004242,-0.1848042607307434,-0.2841728925704956,0.16978467534360997,0.8327581368327002,0.4570642306808365,0.26225837313084965,0.5498003158929282,-2.805012032478286,-2.2334266204573816
1784719819144210176,1.5947439670562744,2.4356331825256348,-0.9295845031738281,3.630723714828491,-0.29238349199295044,-0.4917631149291992,0.8201714158058167,0.3051246106624603,-0.20472431182861328,-0.2952232360839844,0.15665396118119618,0.8441042896357487,0.44449257676869913,0.2556831868162145,0.5141134738495491,-2.7991471887529036,-2.2630625079588786
1784719819154130176,1.6046640872955322,2.2578885555267334,-0.9928329586982727,3.573227643966675,-0.3013555705547333,-0.4624113142490387,0.833882749080658,0.19481873512268066,-0.2772584557533264,-0.3547874093055725,0.14462327151486037,0.8548103198218515,0.4315561347446842,0.24928436416783653,0.48071281703244145,-2.794808491160762,-2.292347236808577
1784719819164050176,1.614583969116211,1.9852969646453857,-1.097238302230835,3.518810510635376,-0.3080310821533203,-0.4343826174736023,0.8464211225509644,0.12445259094238281,-0.2732132077217102,-0.43594443798065186,0.13368969001562914,0.8649625046146513,0.4183902783075414,0.24272729362292877,0.4493527382798203,-2.792569587679306,-2.321072340533148
1784719819173969152,1.6245031356811523,1.5461913347244263,-1.1014684438705444,3.4411628246307373,-0.31302610039711,-0.4094966650009155,0.8569289445877075,0.044028908014297485,-0.24353373050689697,-0.39210045337677,0.12457910853631698,0.8743942167802503,0.4048446819184164,0.2366761315790634,0.42190226401719855,-2.7913634236563722,-2.3501053208609286
1784719819183889152,1.634423017501831,1.3665398359298706,-1.15719735622406,3.4408981800079346,-0.31676211953163147,-0.3872334659099579,0.8658588528633118,-0.037562161684036255,-0.22696325182914734,-0.38406282663345337,0.11693921421116989,0.8832398686956491,0.3909178491254717,0.23107504598182912,0.39762906310387575,-2.790880491138185,-2.3795973412562703
1784719819193809152,1.6443431377410889,1.2080434560775757,-1.2207560539245605,3.3531525135040283,-0.31893154978752136,-0.36618325114250183,0.8741807341575623,-0.10372158885002136,-0.14001169800758362,-0.42574042081832886,0.11011212471251432,0.8917095578495043,0.37675513471295,0.22535485533305238,0.37490407218827476,-2.791763598046488,-2.4090903826175984
1784719819203729152,1.6542630195617676,0.8795608282089233,-1.311286449432373,3.2311809062957764,-0.3192232847213745,-0.34775370359420776,0.8815690875053406,-0.176031231880188,-0.10904866456985474,-0.4218217134475708,0.1047178578270231,0.8995616380301046,0.36273047710289175,0.21965809783310053,0.3551742114223185,-2.794172117172305,-2.43798504105321
1784719819213648128,1.6641819477081299,0.29665133357048035,-1.4054583311080933,3.0658071041107178,-0.3176458775997162,-0.33410751819610596,0.8873966932296753,-0.17033013701438904,-0.04989507794380188,-0.4243078827857971,0.10183707514693985,0.9067306830171695,0.34862275489806094,0.21431464365020836,0.3406581823863912,-2.7978508321385283,-2.4671686308503404
1784719819223568128,1.6741020679473877,-0.11410058289766312,-1.4970792531967163,2.8055379390716553,-0.3140949010848999,-0.32656124234199524,0.8914607763290405,-0.2190777063369751,0.07657650113105774,-0.4540218114852905,0.10202955650209626,0.9130223823385666,0.33484404035096244,0.2094268881690807,0.33266304346950804,-2.8028371243071972,-2.495975109263069
1784719819233488128,1.6840219497680664,-0.4166436493396759,-1.629054307937622,2.566879987716675,-0.3083835542201996,-0.32712095975875854,0.8932478427886963,-0.2424129843711853,0.18641960620880127,-0.5237408876419067,0.10619733219593862,0.9181357282982227,0.321948291954379,0.20517862386141716,0.3332552864694706,-2.809165978683243,-2.52349293330255
1784719819243407360,1.6939411163330078,-0.5056160688400269,-1.5255872011184692,2.3329808712005615,-0.30203571915626526,-0.3264816105365753,0.8956477642059326,-0.1902587115764618,0.16963636875152588,-0.5223717093467712,0.10963835408500844,0.9230197850145488,0.30961000012992246,0.20038897653243382,0.3325787999199659,-2.8163427901380644,-2.549379343135974
1784719819253327104,1.7038609981536865,-0.5411088466644287,-1.6437090635299683,2.266998529434204,-0.29544171690940857,-0.3256305754184723,0.8981530666351318,-0.16552630066871643,0.09259837865829468,-0.47069334983825684,0.11279072907205653,0.9275974539744589,0.29772383625119164,0.1954526127276921,0.331678591297879,-2.8237980272452723,-2.5740721163177853
1784719819263247360,1.7137811183929443,-0.7194339036941528,-1.8406578302383423,2.1105849742889404,-0.28705862164497375,-0.32529234886169434,0.9009897708892822,-0.10266613960266113,0.11765071749687195,-0.3825875520706177,0.11630428474743738,0.9320453170017231,0.2859832338431706,0.18968002651146654,0.33132086824799367,-2.8331568857172273,-2.598132533536998
1784719819273167104,1.723701000213623,-0.842559814453125,-1.8380886316299438,1.9129290580749512,-0.27718836069107056,-0.32718393206596375,0.9033921957015991,-0.17622658610343933,0.21666449308395386,-0.29847264289855957,0.12086443113222375,0.9360177114234863,0.27489444398016644,0.18356398558212575,0.33332194569239937,-2.8438811099467602,-2.6207300864553416
1784719819283086080,1.7336199283599854,-1.0775055885314941,-1.852162480354309,1.7425951957702637,-0.26666533946990967,-0.33128413558006287,0.9050635695457458,-0.31387054920196533,0.29946959018707275,-0.2956124544143677,0.1263836064488047,0.9395122001449203,0.2642888961388767,0.17746916764888643,0.33766424567697045,-2.855063166363735,-2.6423242477377307
1784719819293006080,1.7435400485992432,-1.072157382965088,-1.9120922088623047,1.4162973165512085,-0.25521180033683777,-0.3373197615146637,0.9061356782913208,-0.42867180705070496,0.41333913803100586,-0.2878955602645874,0.13265015153908977,0.9424004287201753,0.2548514844321807,0.1712774956939146,0.3440683391210591,-2.8670559157732054,-2.6613650183643314
1784719819302926080,1.7534599304199219,-0.7610381245613098,-1.9385464191436768,1.316117525100708,-0.24282090365886688,-0.3426381051540375,0.9075446724891663,-0.3916700482368469,0.426546186208725,-0.3209052085876465,0.138375055873727,0.9450091110314714,0.24643481389181504,0.1645601981919084,0.34972354568030806,-2.880158214112702,-2.677847975842673
1784719819312846080,1.7633800506591797,-0.24767068028450012,-2.140087842941284,1.314333200454712,-0.22908595204353333,-0.3441978693008423,0.9105203747749329,-0.3361606001853943,0.3572136461734772,-0.31239116191864014,0.14216203628178284,0.9478280677453477,0.23849976075472876,0.15661974346414717,0.35138432860950136,-2.895109677000421,-2.6925447282832473
1784719819322765056,1.773298978805542,0.2960858643054962,-2.1507482528686523,1.194458246231079,-0.21388816833496094,-0.34126266837120056,0.9153099656105042,-0.32135969400405884,0.3156430423259735,-0.24190878868103027,0.14365460278384032,0.9509680078201809,0.2309000264161246,0.14733821876946568,0.3482598716740774,-2.912033498262566,-2.7057560265738543
1784719819332685312,1.7832190990447998,0.3732142150402069,-2.029463052749634,1.2098268270492554,-0.19895119965076447,-0.335767537355423,0.920694887638092,-0.43866783380508423,0.3771493136882782,-0.11417615413665771,0.14355035423775317,0.9539863749199731,0.22418171298288342,0.13800717133323437,0.34241994965120864,-2.928776717631207,-2.7169106547866
1784719819342605056,1.7931389808654785,0.3349587321281433,-1.5187793970108032,1.0549044609069824,-0.18659937381744385,-0.3302742838859558,0.9252562522888184,-0.4816287159919739,0.431318074464798,0.04929184913635254,0.1430046419524135,0.9566588724259454,0.21778869587470312,0.13008240222789938,0.33659413870639127,-2.942588771564487,-2.7278318056291737
1784719819352525312,1.8030591011047363,-0.027317477390170097,-1.2672970294952393,1.094405174255371,-0.17746907472610474,-0.32681524753570557,0.9282760620117188,-0.7228147387504578,0.39815014600753784,0.18561547994613647,0.14303282449930962,0.9588322333199618,0.21161000176940686,0.12411108904413126,0.3329318232070765,-2.9526907684521175,-2.7389968433123726
1784719819362444288,1.8129780292510986,-0.44368013739585876,-1.1170111894607544,0.913928747177124,-0.16957150399684906,-0.32713422179222107,0.9296389818191528,-0.7380365133285522,0.47146713733673096,0.34730803966522217,0.14474400138167756,0.9604554533684,0.20577858706405514,0.11928816181813608,0.3332693448066866,-2.961170448621368,-2.749898505776989
1784719819372364288,1.8228981494903564,-0.8428863883018494,-0.7763558626174927,0.2641965448856354,-0.16295413672924042,-0.3324834108352661,0.928924560546875,-0.7689153552055359,0.6489659547805786,0.4144287109375,0.14864439290089726,0.9611618423174555,0.201569328985836,0.11594220334308898,0.3389355851204074,-2.967937203460443,-2.757942384827167
1784719819382284288,1.8328180313110352,-0.5169976353645325,-0.5202674269676208,0.3880270719528198,-0.15885260701179504,-0.3380998969078064,0.9276068806648254,-0.8661870956420898,0.7797654867172241,0.43315672874450684,0.15217105163369446,0.9612673850534208,0.19942031711246583,0.11419538637333893,0.34489716301365764,-2.9719879408969665,-2.7620949793872906
1784719819392203008,1.8427369594573975,-0.5195942521095276,-0.604081928730011,0.15731051564216614,-0.15504294633865356,-0.34285539388656616,0.9265052080154419,-0.7947708964347839,0.5168971419334412,0.4596337080001831,0.15526819723923757,0.961497985895543,0.19691172824896683,0.11242415562256347,0.3499548425179802,-2.975787276636901,-2.7669626371227536
1784719819402123264,1.8526570796966553,0.17730563879013062,-0.552722156047821,0.5586677193641663,-0.14985871315002441,-0.34277617931365967,0.9273870587348938,-0.6582925319671631,0.44482699036598206,0.3756066560745239,0.15595704487265738,0.9621364102398966,0.19490268257039933,0.10947075751147078,0.34987053768354226,-2.981385115108993,-2.7702304503888935
1784719819412043008,1.862576961517334,0.9492034316062927,-0.5466821193695068,0.1823127269744873,-0.14777129888534546,-0.33751174807548523,0.9296504259109497,-0.616312563419342,0.45756781101226807,0.5310889482498169,0.15366978758899352,0.9630970884695568,0.19305236732789027,0.10751976043920955,0.34427226966414876,-2.983957817200454,-2.7733981967047034
1784719819421963264,1.8724970817565918,1.481380820274353,-0.6945729851722717,0.34694305062294006,-0.14324238896369934,-0.3259108364582062,0.9344860911369324,-0.616126537322998,0.4310286045074463,0.21222734451293945,0.14832891727234304,0.9646396628462056,0.19160731361565428,0.10370929422297528,0.33197500338296176,-2.989491877639608,-2.7749641504461913
1784719819431882240,1.882416009902954,1.742540955543518,-0.6601244807243347,0.6057189702987671,-0.13946472108364105,-0.3092227876186371,0.9407078623771667,-0.37519899010658264,0.2369418740272522,0.17162752151489258,0.1403395413471943,0.9665400972732696,0.1901425040897782,0.09975465122304794,0.31437565534658496,-2.994409667117392,-2.7764727514623977
1784719819441802240,1.892336130142212,1.8320469856262207,-0.36578240990638733,0.7624398469924927,-0.13743221759796143,-0.2911161780357361,0.9467650651931763,-0.08484257757663727,-0.05972921848297119,0.06228351593017578,0.13163834211578135,0.9686770138079043,0.1872094809905531,0.09637893261466446,0.2953933358352265,-2.997439736163447,-2.7812573287580435
1784719819451722240,1.9022560119628906,1.575881004333496,-0.4778575599193573,0.7061496376991272,-0.1363176554441452,-0.2752630114555359,0.9516554474830627,0.012751951813697815,-0.2897089719772339,0.07794678211212158,0.12404320143851037,0.9705672592526824,0.18392099306977336,0.09373175626940068,0.2788632760173121,-2.999317824274445,-2.7870372885820407
1784719819461642240,1.9121761322021484,1.911810040473938,-0.3226521909236908,0.8170909285545349,-0.13528408110141754,-0.2572023570537567,0.9568414688110352,0.44985926151275635,-0.43811020255088806,-0.17206645011901855,0.11528476740448704,0.9724136967348591,0.1811969655792967,0.09104282910018789,0.2601260284067478,-3.001137513501274,-2.791545117784689
1784719819471561216,1.9220950603485107,1.9286258220672607,-0.5282527804374695,0.9191818833351135,-0.13462626934051514,-0.23712541162967682,0.9621056914329529,0.6867045164108276,-0.3391074538230896,-0.16030210256576538,0.10563434494079214,0.9745448418985341,0.17696100455908204,0.08825278194091567,0.23940579835341613,-3.002566572337053,-2.7990888988889986
1784719819481480960,1.9320149421691895,2.3921189308166504,-0.659348726272583,0.49839550256729126,-0.13178718090057373,-0.21675164997577667,0.967290461063385,0.9318360090255737,-0.20460452139377594,0.010919928550720215,0.0959226135455825,0.9764072564879334,0.17399451278507513,0.08457905295859103,0.21848578415111392,-3.006182732501507,-2.803771545018223
1784719819491401216,1.9419350624084473,3.040456533432007,-0.5655210614204407,1.2270337343215942,-0.12840093672275543,-0.19081051647663116,0.9731929302215576,1.0741559267044067,-0.040329620242118835,-0.1417263150215149,0.08357785553738326,0.9786330760433778,0.1699227923247043,0.08011404320804506,0.19198776228098913,-3.0104125193335065,-2.810404379025856
1784719819501320960,1.951854944229126,3.968696355819702,-0.7545804977416992,1.0774157047271729,-0.12377714365720749,-0.15389706194400787,0.9803034663200378,0.7783944606781006,0.22002866864204407,-0.30220288038253784,0.06587924876530826,0.9811382393858226,0.16588998674154407,0.07421714571807492,0.15451112115893476,-3.015993191730803,-2.8163379757702534
1784719819511240192,1.9617741107940674,4.443057060241699,-1.2458701133728027,1.3218622207641602,-0.11633056402206421,-0.11185042560100555,0.9868923425674438,0.5153326392173767,0.18304795026779175,-0.0870206356048584,0.04594824228247154,0.9836336200152229,0.1609691460666377,0.06665239121484184,0.11208496939707742,-3.0242584522048364,-2.823763482526593
1784719819521160192,1.971693992614746,4.756155490875244,-0.9674426913261414,1.0831302404403687,-0.10606661438941956,-0.06554928421974182,0.9921963810920715,0.23701752722263336,-0.17640934884548187,-0.10248672962188721,0.024114660586294773,0.9857396742262706,0.15625453103629627,0.05762305591624302,0.06559631451897827,-3.0350962678224254,-2.830676127772111
1784719819531080192,1.981614112854004,4.451052665710449,-0.9694749712944031,1.0987459421157837,-0.09629765152931213,-0.019173473119735718,0.9951677918434143,0.19190923869609833,-0.24495616555213928,-0.21400946378707886,0.0021527764988811243,0.9871654737292342,0.1519480484032314,0.04910618956422599,0.01917464756191518,-3.0451277470158007,-2.8370682841854853
1784719819540999168,1.9915330410003662,3.8667750358581543,-1.1518980264663696,1.0259085893630981,-0.08585663139820099,0.022940145805478096,0.9960430860519409,0.13166353106498718,-0.24399423599243164,-0.2938339114189148,-0.01770091976201992,0.9880583476792602,0.14752028566869668,0.040804343008530905,-0.022942158910487922,-3.0556074796185864,-2.844188768505786
1784719819550919168,2.001453161239624,3.719923734664917,-1.0334222316741943,0.592422604560852,-0.07375546544790268,0.0615154393017292,0.9953771233558655,0.12031003832817078,-0.0381237231194973,-0.3018958568572998,-0.03581425532107079,0.9883195417039577,0.1446134829173174,0.03207313839290943,-0.06155430379378394,-3.06762980954876,-2.8487314276936924
1784719819560839168,2.0113730430603027,3.0452659130096436,-0.6537473201751709,0.6915218830108643,-0.06642252951860428,0.0959702730178833,0.9931656718254089,0.23790079355239868,0.1253584772348404,-0.1382155418395996,-0.05230721823618744,0.9881582507492942,0.14186651537397543,0.026099686214341125,-0.096118208500207,-3.0748124985174954,-2.853195119054052
1784719819570759168,2.0212929248809814,2.1811044216156006,-1.0249189138412476,0.4933566153049469,-0.056421536952257156,0.12178639322519302,0.9909511208534241,0.29838016629219055,-0.058096230030059814,-0.01654040813446045,-0.06439079422364025,0.9878948655885106,0.1397830212666617,0.019445418224419215,-0.12208947309901225,-3.084717308762755,-2.8569899564010157
1784719819580678144,2.031212091445923,0.8076012134552002,-0.8743534088134766,0.3087114989757538,-0.047127533704042435,0.13911114633083344,0.9891544580459595,0.38141709566116333,0.008624404668807983,0.12101370096206665,-0.07234465420263131,0.9876793039417081,0.13808263611724345,0.013743556289144261,-0.1395637730222232,-3.0939843931403566,-2.860454760441229
1784719819590598144,2.0411319732666016,0.24593523144721985,-0.32124629616737366,-0.6405349373817444,-0.04140472412109375,0.14217086136341095,0.9889758825302124,0.08826445788145065,0.37057024240493774,0.43122076988220215,-0.07348665456121982,0.987416666891803,0.13962904652341004,0.01057455371179216,-0.14265421412415039,-3.0997508262485614,-2.857648637309319
1784719819600518144,2.0510520935058594,-0.05139145627617836,-0.47037598490715027,0.035195980221033096,-0.038256287574768066,0.1427890509366989,0.9890133738517761,0.22059881687164307,0.0403011292219162,0.0037690401077270508,-0.07358810529589926,0.9871690667796906,0.14143521438608883,0.008833536254987612,-0.14327877708445608,-3.1029306654353257,-2.854207604492357
1784719819610438144,2.060971975326538,-0.7405053973197937,-0.3577122986316681,-0.29443493485450745,-0.0340217649936676,0.1387321650981903,0.9897454380989075,0.5253394842147827,-0.239363893866539,0.1000068187713623,-0.07126541389766407,0.9872491921814699,0.14216799478642242,0.006968070262926533,-0.13918109129715575,-3.1072319234443118,-2.853155465996165
1784719819620357376,2.0708911418914795,-1.3595428466796875,-0.12432486563920975,0.01688767969608307,-0.03174971416592598,0.12847231328487396,0.9912047982215881,0.2766990661621094,-0.09484195709228516,0.30135202407836914,-0.06599348501331846,0.9874973934762105,0.14300800349573484,0.0065187615907491255,-0.1288283785356691,-3.109572165053622,-2.851889522173901
1784719819630277120,2.080811023712158,-1.1514298915863037,0.033296726644039154,-0.2748807966709137,-0.03261208534240723,0.11615558713674545,0.9926952123641968,0.3447000980377197,-0.09427452832460403,0.18905192613601685,-0.059926484717112906,0.9878354520267897,0.14327845496419103,0.007814933851608794,-0.11641838518548174,-3.1087524008278318,-2.8516019234322023
1784719819640197376,2.090731143951416,-1.2939103841781616,-0.053502921015024185,-0.27705639600753784,-0.032891012728214264,0.10281987488269806,0.9941560626029968,0.31430885195732117,0.06759027391672134,-0.12353533506393433,-0.05332916355385883,0.9879854607655387,0.14478520226152797,0.008830325477127844,-0.10300191024051357,-3.108520359637449,-2.848867458644977
1784719819650117120,2.1006510257720947,-0.7611551880836487,-0.3512163758277893,-0.10332241654396057,-0.03184715658426285,0.09403219074010849,0.9950598478317261,0.33653464913368225,0.1409379094839096,-0.338336706161499,-0.048892717128783,0.9881412881032277,0.14528152291066462,0.00892622341790105,-0.09417132154159019,-3.109598307572342,-2.8481265663573465
1784719819660036096,2.110569953918457,-1.032303810119629,-0.4452158808708191,-0.5393199324607849,-0.027891896665096283,0.0845990926027298,0.9960246086120605,0.18513372540473938,0.2271684855222702,-0.24889326095581055,-0.043938278972520534,0.9880652165117042,0.14744298302248351,0.007557757698613572,-0.08470033268065941,-3.113596749466565,-2.8441444811280023
1784719819669956096,2.120490074157715,-0.8753594160079956,-0.43433260917663574,-0.2900230288505554,-0.023697182536125183,0.07572516053915024,0.9968472123146057,0.3367007374763489,0.08386651426553726,-0.15851402282714844,-0.03923769738769011,0.988023378262643,0.1491086918646145,0.006070615445997239,-0.07579772079147591,-3.1178249977672032,-2.8411197774368566
1784719819679876096,2.1304099559783936,-1.0664628744125366,-0.9476233720779419,-0.417371928691864,-0.018376003950834274,0.06556759029626846,0.9976790547370911,0.24496902525424957,0.13813723623752594,-0.06526017189025879,-0.03381578845416734,0.9879277047981243,0.1511237209375368,0.0041274620723304595,-0.06561466519136618,-3.123175983344892,-2.8374007690108876
1784719819689796096,2.1403300762176514,-0.7960848808288574,-0.9926432967185974,-1.0147737264633179,-0.00804427545517683,0.05624772235751152,0.9983845353126526,0.3412504494190216,0.3211936950683594,-0.09387397766113281,-0.028418888442633152,0.9875182714839739,0.15491907616309858,-0.00038529960508450087,-0.0562774254936552,-3.1335355364095268,-2.8301480657890434
1784719819699715072,2.1502490043640137,-0.08058182895183563,-0.8970568180084229,-0.7529756426811218,0.00016618131485302,0.05181743577122688,0.9986565709114075,0.3525559902191162,0.5845046043395996,-0.007216751575469971,-0.025572518239952963,0.986871912124439,0.15941175706160862,-0.004214985423171959,-0.05184065318054303,3.141426248718067,-2.8212989220675317
1784719819709635328,2.1601691246032715,0.6432509422302246,-0.8690598011016846,-0.6956726312637329,0.00900927372276783,0.05423231050372124,0.9984878897666931,0.3014918267726898,0.5325902104377747,-0.05436539649963379,-0.026029474442947557,0.9862600525315828,0.16289583639877528,-0.008866555672331565,-0.05425893108329724,3.1325699814855854,-2.814462658298614
1784719819719555072,2.17008900642395,0.9462416172027588,-1.0057446956634521,-0.9758084416389465,0.016721591353416443,0.06264668703079224,0.9978959560394287,0.25074973702430725,0.40483686327934265,-0.06456136703491211,-0.02950166998474555,0.9854249437491368,0.16698998022717051,-0.013483806654213209,-0.06268773399158498,3.124837372161766,-2.806387759576455
1784719819729474048,2.1800079345703125,0.5037986636161804,-1.1169458627700806,-0.8656409382820129,0.02763555757701397,0.06957242637872696,0.9971941709518433,0.3523388206958771,0.29222872853279114,0.03643631935119629,-0.031923093746301826,0.9844894580135156,0.17139894586013177,-0.019593265173882123,-0.06962867661933204,3.113886429911396,-2.7978144684467283
1784719819739394304,2.1899280548095703,0.13276320695877075,-1.0120950937271118,-0.9228987097740173,0.03760965168476105,0.07283170521259308,0.9966350793838501,0.33800071477890015,0.08796542882919312,0.1617056131362915,-0.03255799316853727,0.9835111191941482,0.1761346551832959,-0.024950827539956602,-0.0728962503778689,3.1038739195831497,-2.7885501571116484
1784719819749314048,2.199847936630249,-0.07598868012428284,-0.6930031180381775,-0.9067442417144775,0.045153986662626266,0.07383362948894501,0.9962475895881653,0.30715617537498474,0.013889141380786896,0.21536105871200562,-0.03226316455796785,0.9826367229049838,0.18041303747897836,-0.02889947899248955,-0.07390087408091302,3.0962995891076175,-2.7801099033219843
1784719819759234304,2.209768056869507,0.27113398909568787,-0.8373339176177979,-0.7452487349510193,0.051984626799821854,0.07373984158039093,0.9959218502044678,0.21013085544109344,0.14700907468795776,0.2916148900985718,-0.031457197445045174,0.9817371799077159,0.18480539885496836,-0.03239744253675092,-0.07380683677727598,3.0894424846046284,-2.7713867860438435
1784719819769153024,2.219686985015869,1.6787959337234497,-0.8893529176712036,-0.3947615921497345,0.06006796285510063,0.08426208049058914,0.9946314692497253,0.35762614011764526,0.06457214802503586,-0.04893755912780762,-0.03579662430333782,0.9809258021746519,0.18735075696964343,-0.03745492859067515,-0.08436211472053089,3.081273734840134,-2.766697341042426
1784719819779073280,2.229607105255127,1.9292511940002441,-0.8826777935028076,-0.2628788650035858,0.06872275471687317,0.10329870879650116,0.9922735095024109,0.32629677653312683,-0.07804541289806366,-0.1794987916946411,-0.04430378313357898,0.9800521571430816,0.18877106546680375,-0.04359426287323629,-0.10348330540067935,3.0724451917202535,-2.7646091579940393
1784719819788993280,2.2395272254943848,1.0762394666671753,-0.9027668237686157,-0.29970771074295044,0.07757623493671417,0.11889966577291489,0.9898707866668701,0.31971684098243713,-0.40159928798675537,-0.01893913745880127,-0.05110918874904167,0.9792273100591214,0.18986642443379637,-0.04952071391564927,-0.11918161602114745,3.063382449395944,-2.7632257093474824
1784719819798913536,2.2494473457336426,0.3494100868701935,-0.6472090482711792,-0.29848554730415344,0.0845237448811531,0.12542133033275604,0.9884964823722839,0.1824745386838913,-0.40926533937454224,0.21050864458084106,-0.05358296376817319,0.9785648773500797,0.19146544403241977,-0.05367161611915728,-0.1257525056442336,3.056292758571089,-2.7605293798661936
1784719819808832512,2.259366273880005,0.07144664973020554,-0.5081675052642822,-0.20791171491146088,0.0898268073797226,0.12763570249080658,0.9877449870109558,0.1592576652765274,-0.4253041744232178,0.12446808815002441,-0.05409834236045606,0.9781286806491166,0.19270904767606897,-0.05657603661112079,-0.12798482372405467,3.050900826490237,-2.7583547275266325
1784719819818752256,2.2692861557006836,-0.08419647812843323,-0.4967476427555084,-0.15037092566490173,0.09474837779998779,0.12767072021961212,0.9872809052467346,0.1586238443851471,-0.36415138840675354,0.03991055488586426,-0.05358043038697734,0.9778041649167641,0.1937510312862027,-0.059066481489123746,-0.12802012315036382,3.0459166466498386,-2.7564995173941615
1784719819828672512,2.2792062759399414,-0.48453348875045776,-0.5070188641548157,-0.07472676038742065,0.09986861795186996,0.12516355514526367,0.9870970249176025,0.18795792758464813,-0.33176755905151367,0.03635585308074951,-0.05180371424519475,0.9776124237343711,0.19447994854829406,-0.06138331804439652,-0.12549268420567367,3.040761691154771,-2.7551931995451584
1784719819838592256,2.28912615776062,-1.0703538656234741,-0.47359544038772583,-0.1767168790102005,0.10467720776796341,0.11771421879529953,0.9875149130821228,0.1428508460521698,-0.2918780744075775,0.03689897060394287,-0.04760264411686895,0.9775280706215308,0.19543879963813848,-0.06305906793005082,-0.11798778193383391,3.035986372213361,-2.7531760910562237
1784719819848511488,2.2990453243255615,-1.4074621200561523,-0.430325984954834,-0.20505717396736145,0.10870467126369476,0.1055147722363472,0.9884584546089172,0.15981949865818024,-0.2077791690826416,-0.04966139793395996,-0.041108351265393625,0.9774885863349058,0.19683823583210067,-0.06388210888114551,-0.10571154812619278,3.032058872234101,-2.749965634423514
1784719819858431232,2.3089652061462402,-1.5682238340377808,-0.5473961234092712,-0.33061233162879944,0.11312670260667801,0.09080352634191513,0.9894223809242249,0.2924824059009552,0.008576944470405579,-0.18710023164749146,-0.03329849358168666,0.9773204817644113,0.19888655929340773,-0.06465225593345664,-0.0909287777573061,3.0277509040687707,-2.7452565609843482
1784719819868351488,2.318885326385498,-1.2853388786315918,-0.3851640820503235,-0.17310605943202972,0.11788318306207657,0.0771079808473587,0.9900290966033936,0.29917001724243164,0.0781349241733551,-0.18363279104232788,-0.025980566389523837,0.9771335746015212,0.2005605496325997,-0.06565353066584713,-0.07718459836727071,3.0230802096575426,-2.7412892898499224
1784719819878270464,2.3288042545318604,-1.0261094570159912,-0.4995487630367279,-0.29200229048728943,0.12173502147197723,0.06588106602430344,0.9903735518455505,0.24337726831436157,0.10196559876203537,-0.16813868284225464,-0.019979460559924733,0.9769193514054083,0.2020281063657135,-0.06643733961581784,-0.06592881387730196,3.0192878680509585,-2.73777769475861
1784719819888190208,2.338724136352539,-0.7183024287223816,-0.45928066968917847,-0.25334304571151733,0.12599441409111023,0.057580411434173584,0.9903585910797119,0.24584703147411346,0.15910965204238892,-0.19465839862823486,-0.015356391630010428,0.9765661411925141,0.2037102744283673,-0.0677122170317787,-0.05761227844088546,3.0150514343265686,-2.7339446147624953
1784719819898110464,2.348644256591797,-0.2392847239971161,-0.44838836789131165,-0.18278472125530243,0.13062269985675812,0.05318678542971611,0.9900044798851013,0.22576157748699188,0.2133842557668686,-0.1921072006225586,-0.012640440786727734,0.97622175088182,0.2049227551273617,-0.06955557610576643,-0.05321189513012414,3.010408863942235,-2.7312688285452635
1784719819908030208,2.3585641384124756,0.05879330262541771,-0.5665069818496704,-0.2197938710451126,0.13543087244033813,0.052945517003536224,0.9893713593482971,0.14414067566394806,0.11896000802516937,-0.2010105848312378,-0.011954039118487265,0.9758526843581001,0.20590581318852083,-0.07191335369662526,-0.052970285116631974,3.005552364020916,-2.729300857722698
1784719819917949440,2.368483304977417,0.2027432918548584,-0.4487881064414978,-0.28542187809944153,0.1405593603849411,0.054654646664857864,0.9885625839233398,0.0969742089509964,0.014421887695789337,-0.18936824798583984,-0.012163212456690914,0.9753751096339918,0.20718274724701063,-0.07463763051078035,-0.054681894777402255,3.0003537792417387,-2.7268565818898183
1784719819927869440,2.3784031867980957,0.32585883140563965,-0.6358351707458496,-0.26158207654953003,0.14559929072856903,0.057807765901088715,0.9876534342765808,0.10444650053977966,0.04644028842449188,-0.20615923404693604,-0.013086457153026806,0.9748805394117485,0.20840984726464373,-0.077473072856648,-0.0578400122937769,2.995227462286602,-2.7246149930891193
1784719819937789440,2.3883233070373535,0.4869896471500397,-0.6136673092842102,-0.2671824097633362,0.15166209638118744,0.06209513917565346,0.9864800572395325,0.15741993486881256,0.04142048954963684,-0.1942284107208252,-0.014442128734883793,0.9742937617905221,0.20974196017918637,-0.08094085654809761,-0.0621351135593569,2.989046372851821,-2.7222629358612638
1784719819947709440,2.3982431888580322,0.2927306890487671,-0.5711262226104736,-0.32800236344337463,0.15725009143352509,0.06627196073532104,0.985332727432251,0.12403042614459991,-0.08375854045152664,-0.16376900672912598,-0.015792440608486478,0.9737303118848202,0.21098729786223383,-0.08416811762640364,-0.06632057055505279,2.9833363543030362,-2.720091782408397
1784719819957628416,2.4081623554229736,-0.04373333603143692,-0.5732253193855286,-0.23354403674602509,0.16292671859264374,0.06818880140781403,0.9842792749404907,0.08991146087646484,-0.16001617908477783,-0.09095323085784912,-0.01601361453073998,0.9731807827097819,0.21227059090680053,-0.08720124531485776,-0.06824175752226948,2.977551149627279,-2.717691134463697
1784719819967548416,2.4180822372436523,-0.29155677556991577,-0.5348231792449951,-0.18452033400535583,0.1682642251253128,0.06678585708141327,0.9834770560264587,0.1411992907524109,-0.16198542714118958,-0.026796579360961914,-0.014637905838671195,0.972700102293218,0.21352523351270497,-0.0897066570778931,-0.06683560278292532,2.972142177927246,-2.7150899074055275
1784719819977468416,2.42800235748291,-0.5543372631072998,-0.5172505378723145,-0.10653508454561234,0.17338933050632477,0.06295331567525864,0.9828394055366516,0.1685906946659088,-0.19784098863601685,-0.036992669105529785,-0.012125925035126632,0.972351006070431,0.21436703865461626,-0.09183315955176993,-0.06299497199820264,2.966972669335023,-2.7131255764582534
1784719819987388416,2.437922239303589,-0.7216074466705322,-0.421016663312912,-0.030597448348999023,0.17801721394062042,0.05700242519378662,0.9823750257492065,0.16587011516094208,-0.23058640956878662,-0.04250991344451904,-0.008637498084997789,0.9720742707723526,0.21507936608250278,-0.09347676291670645,-0.057033339791467096,2.9623269162020094,-2.7112197113598717
1784719819997307392,2.447841167449951,-0.781640350818634,-0.49944666028022766,-0.2147906869649887,0.18231730163097382,0.04981045797467232,0.9819774627685547,0.14020773768424988,-0.15123561024665833,-0.07108867168426514,-0.004546466515559708,0.9717532811646156,0.2160654988635942,-0.09481932299407468,-0.04983107648884523,2.958019487546014,-2.7086064774229186
1784719820007227392,2.457761287689209,-0.5774853825569153,-0.43790900707244873,-2.6455760234966874e-05,0.18728511035442352,0.04334516078233719,0.981348991394043,0.19773992896080017,-0.11171978712081909,-0.09719359874725342,-0.0007391793726847937,0.9713840463399295,0.21699657907563188,-0.09656628822594743,-0.043358746824001836,2.953015705691275,-2.7061324939088496
1784719820017147392,2.4676811695098877,-0.5965610146522522,-0.408761590719223,-0.08314384520053864,0.191327765583992,0.037971071898937225,0.9807915687561035,0.15300209820270538,-0.09201769530773163,-0.07106244564056396,0.0024009808101755586,0.9711091164289086,0.21758418898949758,-0.09797196092102455,-0.03798020100251081,2.9489372815152017,-2.704428848556128
1784719820027067392,2.4776012897491455,-0.7067756652832031,-0.32257476449012756,0.015290049836039543,0.19502966105937958,0.03161979094147682,0.9802874326705933,0.13878683745861053,-0.11667229235172272,0.08273124694824219,0.0059853674771965645,0.9708465946147092,0.21817560793762267,-0.09909801443327662,-0.03162506316579455,2.945205459054083,-2.7025987985938715
1784719820036986368,2.487520217895508,-1.0608090162277222,-0.284244179725647,-0.11386124044656754,0.19806323945522308,0.023108405992388725,0.9799168109893799,0.16132701933383942,-0.21423999965190887,0.16696429252624512,0.01055297292942617,0.9706249864791046,0.2187362192230397,-0.09965053857311447,-0.023110462824530765,2.942157056498644,-2.700598313686617
1784719820046906368,2.4974403381347656,-1.2898286581039429,-0.09867192059755325,-0.001225510612130165,0.19982244074344635,0.011665166355669498,0.9797629714012146,0.15869811177253723,-0.14041882753372192,0.2666820287704468,0.01645440478520918,0.9703739938360971,0.21967200355854619,-0.09923663107341966,-0.011665430747949715,2.9404021318379816,-2.6975175434663963
1784719820056826368,2.5073602199554443,-1.572177529335022,-0.2068856656551361,-0.14309851825237274,0.20094257593154907,-0.0018536963034421206,0.9796012043952942,0.19447368383407593,-0.09548211842775345,0.25315630435943604,0.023287809927759195,0.9701508662708495,0.22047199376999863,-0.0982702630693405,0.0018536973571438202,2.9392722554141644,-2.6944842858514724
1784719820066746368,2.517280340194702,-1.7985364198684692,-0.1572675108909607,-0.140855610370636,0.20288433134555817,-0.017854895442724228,0.9790399670600891,0.23124350607395172,-0.08302095532417297,0.25480103492736816,0.031506480763608714,0.9696586733462604,0.22199561828483033,-0.09740320373338929,0.01785584462489764,2.937257024664875,-2.689635287861207
1784719820076665344,2.5271992683410645,-2.0366055965423584,-0.08876549452543259,-0.07916205376386642,0.20418888330459595,-0.03622625023126602,0.9782611727714539,0.25909850001335144,-0.23567011952400208,0.24512767791748047,0.04081783022117356,0.9691064659743924,0.2235245787295763,-0.09593440703684487,0.03623417876822842,2.935820622028444,-2.684479462391168
1784719820086585344,2.537119150161743,-1.9896646738052368,-0.031150132417678833,-0.06641829758882523,0.20479612052440643,-0.055769845843315125,0.9772146344184875,0.3156506419181824,-0.17572124302387238,0.2774851322174072,0.050597096824511675,0.9685561283648039,0.22473616181022824,-0.09398222768129093,0.055798796630129356,2.935011108256839,-2.6798119405454766
1784719820096505344,2.547039270401001,-1.688212513923645,0.12305080890655518,-0.040640462189912796,0.2045963555574417,-0.073630191385746,0.9760733246803284,0.295479953289032,0.047873347997665405,0.2970590591430664,0.05946257943742842,0.9679772232392011,0.22595743949469518,-0.09180191796121255,0.07369688510039057,2.934972423083651,-2.6752962771120368
1784719820106424320,2.5569581985473633,-1.0661958456039429,0.26859602332115173,0.1308434009552002,0.20287777483463287,-0.0872209444642067,0.9753120541572571,0.24495245516300201,0.1342332661151886,0.29081666469573975,0.06598814838995132,0.9676592628922914,0.22647641352250344,-0.08938490332729362,0.08733191049180873,2.9365040993015525,-2.6727854647103624
1784719820116344576,2.566878318786621,-0.3623332679271698,0.4406818747520447,0.25640934705734253,0.19968360662460327,-0.09462787210941315,0.9752804636955261,0.25678306818008423,0.05584004521369934,0.2865908741950989,0.06919715990579191,0.9677914101137038,0.22587608344986296,-0.0870144318238399,0.09476967109605029,2.9396389686443505,-2.673405615057625
1784719820126264320,2.5767982006073,0.4037521779537201,0.6372213363647461,0.2879563570022583,0.19429334998130798,-0.09500590711832047,0.9763315916061401,0.20228251814842224,0.061512887477874756,0.3623064160346985,0.06864262771030426,0.9683295761507285,0.224730121214365,-0.08439338062297745,0.09514941000951616,2.945155507983517,-2.6761236195282763
1784719820136184576,2.5867183208465576,0.8817371726036072,0.8844534754753113,0.23648189008235931,0.18710900843143463,-0.08898387104272842,0.9783005714416504,0.20261570811271667,0.2591346502304077,0.45587295293807983,0.06472947190631265,0.9691233630111274,0.22349537744440573,-0.08160753231892827,0.08910172591165443,2.9526156351775095,-2.6798360980302105
1784719820146103296,2.59663724899292,1.1800740957260132,1.12271249294281,0.14559780061244965,0.17774654924869537,-0.07921265065670013,0.980883002281189,0.18339845538139343,0.28149843215942383,0.5466895699501038,0.05874795791662751,0.9700375510094701,0.22241550714802652,-0.07814833319443372,0.07929572143033638,2.962327208482418,-2.6836830708514214
1784719820156023552,2.6065573692321777,1.0883017778396606,1.3330942392349243,0.051505908370018005,0.1678956001996994,-0.06809724122285843,0.9834497570991516,0.1619078367948532,0.025143764913082123,0.5792483687400818,0.05211526426523927,0.9708137660660822,0.2219133237755318,-0.07455881796665187,0.06814998232711157,2.972501766149844,-2.6863669994061294
1784719820165943296,2.6164772510528564,0.7784706950187683,1.4905283451080322,0.08992600440979004,0.15457451343536377,-0.05893716588616371,0.9862217307090759,0.23228156566619873,-0.2838210165500641,0.6374508142471313,0.04607681908920472,0.971595952656604,0.22161264286436907,-0.06903697822665389,0.058971341511069336,2.986123447812896,-2.6884881988275
1784719820175863296,2.626397132873535,0.0632147490978241,1.5960869789123535,0.1955137401819229,0.13968433439731598,-0.05481281504034996,0.9886775612831116,0.32715827226638794,-0.5308805108070374,0.658218502998352,0.04233600661557503,0.9723237564441072,0.22119063113741189,-0.06219928065619353,0.05484029786601294,3.0012376061300956,-2.6903768178407725
1784719820185782528,2.6363162994384766,-0.6085844039916992,1.8219739198684692,0.3283402621746063,0.12279487401247025,-0.05808146297931671,0.9907311201095581,0.33889031410217285,-0.592721164226532,0.6824103593826294,0.04198160463975586,0.9730413005732038,0.22035468379925627,-0.053591345114041025,0.058114168096081525,3.018277852883757,-2.6925971264766924
1784719820195702272,2.6462361812591553,-1.1068488359451294,1.9047480821609497,0.40660080313682556,0.10419678688049316,-0.06707468628883362,0.9922923445701599,0.27867674827575684,-0.5152617692947388,0.5565510988235474,0.044243687430579146,0.9737141230651801,0.2191505887278384,-0.04354703605710861,0.06712508652936393,3.03696992377925,-2.6953209500493602
1784719820205622528,2.656156301498413,-1.2892305850982666,1.964184284210205,0.422069251537323,0.0850292518734932,-0.07948476076126099,0.9932028651237488,0.2844775915145874,-0.3349897265434265,0.4923926591873169,0.043551887944138855,0.9940829571985335,0.09165434380774547,-0.03875220459189312,0.07956869737018986,3.0561897341399824,-2.9543111639779163
1784719820215542272,2.666076183319092,-1.2006330490112305,1.9770958423614502,0.2521321773529053,0.06545821577310562,-0.09205661714076996,0.9936001896858215,0.293855756521225,-0.16358913481235504,0.3920964002609253,0.047365048097734716,0.9976144434025025,0.039566535203851914,-0.030928818331335123,0.09218713927656615,3.0758078829275988,-3.059276421557271
1784719820225461504,2.675995349884033,-0.9111733436584473,1.9878557920455933,0.3435315787792206,0.045574042946100235,-0.1027676984667778,0.9936609864234924,0.31122222542762756,0.022567488253116608,0.3499213457107544,0.05172081839883778,0.9983498723940374,0.011314821368505496,-0.022238505329703007,0.10294945228943318,3.095759994060933,-3.116564858112704
1784719820235381248,2.685915231704712,-0.6235044002532959,1.9707319736480713,0.4535578489303589,0.02572026289999485,-0.11056147515773773,0.9935362339019775,0.3633941113948822,0.07436764985322952,0.31766659021377563,0.05527463967940109,0.9983560679464736,-0.007298696863631337,-0.013285404899953009,0.11078797189056976,3.1157108390066326,3.1284067273187026
1784719820245301504,2.6958353519439697,-0.525092363357544,2.0288608074188232,0.4983873665332794,0.005540815647691488,-0.11613406240940094,0.9932181239128113,0.3716564476490021,-0.010132409632205963,0.2734139561653137,0.05809637520472226,0.9980920345859504,-0.020526800007170817,-0.003970516048320067,0.11639671220500632,3.136014062187422,3.1007914058877617
1784719820255221248,2.7057552337646484,-0.24301527440547943,2.097536087036133,0.5327948927879333,-0.015387671068310738,-0.11994677037000656,0.9926613569259644,0.3157874643802643,-0.06598160415887833,0.23829591274261475,0.06030111466766391,0.9976440788318944,-0.032202049100612126,0.005765599595978964,0.12023626688349531,-3.126092464118671,3.076125896271358
1784719820265140224,2.7156741619110107,-0.032151512801647186,2.1045663356781006,0.4725286662578583,-0.03660471737384796,-0.12104959040880203,0.9919711947441101,0.31362804770469666,-0.022489815950393677,0.18257397413253784,0.061345048169453416,0.9971580903961411,-0.0407593755614213,0.015847009149571798,0.12134718361758234,-3.104708398735292,3.0576461481538386
1784719820275060480,2.7255942821502686,0.12502186000347137,2.0663328170776367,0.5229237079620361,-0.05768279731273651,-0.12019086629152298,0.991073727607727,0.2902114689350128,-0.028185606002807617,0.1163482666015625,0.06154531740383577,0.9966208889877971,-0.04778780091223903,0.025988099654622725,0.12048214353699305,-3.0834559148977587,3.0422589533012134
1784719820284980224,2.7355141639709473,0.2987510561943054,2.055715322494507,0.361745685338974,-0.07835857570171356,-0.1181570440530777,0.9898983240127563,0.30026715993881226,-0.03201994299888611,0.1039888858795166,0.06124287673957246,0.996045807540039,-0.05330967502333838,0.03605702823816619,0.11843371954410754,-3.0625991621562525,3.029966416746062
1784719820294900480,2.745434284210205,0.5881321430206299,2.0302023887634277,0.36921370029449463,-0.09878571331501007,-0.11344007402658463,0.9886215925216675,0.27682527899742126,0.10091261565685272,0.13021379709243774,0.05967109906102436,0.9954578857204136,-0.0580895666159325,0.046136143802168315,0.11368479830284613,-3.0420005630296805,3.019343784876276
1784719820304819456,2.7553532123565674,0.9600351452827454,2.0163772106170654,0.2774752676486969,-0.11888930946588516,-0.10553554445505142,0.9872826337814331,0.20641376078128815,0.1725521832704544,0.17302590608596802,0.05656083374876018,0.9948658639369449,-0.06231555481696023,0.05620861690487397,0.10573243636521688,-3.021748978023049,3.010132628249864
1784719820314739456,2.765273332595825,1.2328225374221802,2.048121690750122,0.2185688018798828,-0.13889174163341522,-0.09447896480560303,0.9857902526855469,0.12364824116230011,0.14501610398292542,0.1955297589302063,0.05185400110029874,0.9943184393247577,-0.06500739617864577,0.06645252913019717,0.09462009227413518,-3.0016201973627656,3.0043829009582574
1784719820324659456,2.775193214416504,1.449794054031372,1.883920669555664,0.1714385747909546,-0.1582692712545395,-0.08111512660980225,0.9840584397315979,0.10614524781703949,0.16062867641448975,0.21567904949188232,0.04602471696652192,0.9937046857538202,-0.06767737887802384,0.07650140488247542,0.0812043408066304,-2.9821250924218825,2.9990983825905273
1784719820334578176,2.785112142562866,1.5282188653945923,1.9053328037261963,0.17188961803913116,-0.17663510143756866,-0.06613914668560028,0.9820516705513,0.13963253796100616,0.08460228890180588,0.22943508625030518,0.039370185462883664,0.9930425602195565,-0.0699450604830278,0.0861632742006656,0.06618746355837601,-2.963632087352584,2.9950475857749845
1784719820344498432,2.795032262802124,1.3647431135177612,1.8806650638580322,0.15015928447246552,-0.1953766942024231,-0.05162946879863739,0.9793683886528015,0.11403210461139679,-0.08560808002948761,0.2695329785346985,0.032958463868427185,0.9922417326926813,-0.0716975388712909,0.09607064972169851,0.05165243313221395,-2.9446850734373564,2.992224119977183
1784719820354418176,2.8049521446228027,1.0866879224777222,1.8561595678329468,0.2083720564842224,-0.213495671749115,-0.0393398217856884,0.9761515855789185,0.17403645813465118,-0.1733829528093338,0.25526314973831177,0.02768943251508406,0.9912886762027124,-0.0736380074867626,0.10562901239478696,0.03934997606044665,-2.926271600006607,2.9890413503632205
1784719820364338432,2.8148722648620605,0.7563384771347046,1.7826387882232666,-0.000704729522112757,-0.23101919889450073,-0.030226292088627815,0.9724795818328857,0.22900503873825073,-0.17884963750839233,0.17636990547180176,0.024005522154919648,0.990229396384626,-0.07540256535114012,0.11482139848489659,0.03023089591529259,-2.9083590278024922,2.9860510923717465
1784719820374257408,2.824791193008423,0.7717048525810242,1.8405815362930298,0.10010533779859543,-0.24849162995815277,-0.022871650755405426,0.9683639407157898,0.24280013144016266,-0.11447270214557648,0.11299586296081543,0.021174145500375094,0.9890909675064317,-0.0766878192574371,0.12397445859068328,0.022873644915797523,-2.8904027821968725,2.9839468491890697
1784719820384177408,2.8347113132476807,0.790037214756012,1.6633380651474,0.10869190096855164,-0.2655677795410156,-0.014839445240795612,0.9639779329299927,0.188724547624588,-0.061088286340236664,0.002818882465362549,0.01802651695217805,0.987870106146062,-0.07811277257347896,0.13298893433101316,0.014839990349865348,-2.8727694898406355,2.9817703927253354
1784719820394097408,2.8446311950683594,0.9607250094413757,1.5831232070922852,0.1846306025981903,-0.28088298439979553,-0.006396770942956209,0.9597205519676208,0.10914534330368042,-0.02216767705976963,-0.041370511054992676,0.014660773366753374,0.9866556226467991,-0.07981832323450254,0.1411549189395603,0.006396814682574234,-2.856872617194977,2.979231653082753
1784719820404017408,2.854551315307617,0.9331232309341431,1.5141377449035645,0.23049449920654297,-0.2957712709903717,0.0033461141865700483,0.955253005027771,-0.022145599126815796,-0.05006852746009827,-0.159110426902771,0.010639041783620904,0.9853870408064694,-0.08147929989987202,0.14919901110686254,-0.0033461203852716568,-2.8413281298036503,2.977098971959336
1784719820413936384,2.8644702434539795,0.9684621095657349,1.4374533891677856,0.2256370335817337,-0.3095145523548126,0.012858922593295574,0.9508078098297119,-0.12072226405143738,-0.01942020282149315,-0.21295380592346191,0.00669497597921863,0.9841245531153726,-0.08308298316751475,0.15668854491369805,-0.01285927739281116,-2.826883278020977,2.9751859756475674
1784719820423856384,2.8743903636932373,1.0256731510162354,1.1939067840576172,0.3111492693424225,-0.3219839632511139,0.023121731355786324,0.946462869644165,-0.223380446434021,-0.0032242722809314728,-0.295843243598938,0.002422004723579196,0.9828372821136953,-0.0852192768871795,0.1635932923201475,-0.023123791768362,-2.813677439607677,2.972436310887214
1784719820433776384,2.884310245513916,1.0059324502944946,1.0497084856033325,0.18683606386184692,-0.3323628604412079,0.033378709107637405,0.9425608515739441,-0.318073570728302,0.0640334039926529,-0.3653970956802368,-0.0020152917609090343,0.9817046616600276,-0.08681236609156424,0.16945665509881688,-0.03338491018284255,-2.8025884404052275,2.9709052198390564
1784719820443696384,2.894230365753174,1.1386667490005493,0.8466312885284424,0.21023353934288025,-0.34099826216697693,0.044062983244657516,0.9390307664871216,-0.42004910111427307,0.16220532357692719,-0.4060870409011841,-0.006831831208493169,0.980710470678352,-0.08787697912562624,0.17446483264612203,-0.04407725257220148,-2.7932614153306927,2.970615681703817
1784719820453615360,2.904149293899536,1.2574806213378906,0.59931480884552,0.007898879237473011,-0.34771788120269775,0.05555877834558487,0.9359515309333801,-0.43098387122154236,0.17205658555030823,-0.4161610007286072,-0.012207861480004767,0.9798605639408375,-0.08859489354334595,0.17853610638723116,-0.055587401457914576,-2.785882860447501,2.9712459383377565
1784719820463535360,2.914069175720215,1.2593408823013306,0.4693980813026428,-0.07721814513206482,-0.35239729285240173,0.06687033921480179,0.9334584474563599,-0.29301899671554565,0.10132730007171631,-0.4176044464111328,-0.017771939926868083,0.9792496812441901,-0.08831353185184923,0.18153505962345043,-0.0669202748107738,-2.7806163158995068,2.9739251057454585
1784719820473455360,2.9239892959594727,1.1223567724227905,0.25988054275512695,0.14599713683128357,-0.355729341506958,0.07819271087646484,0.9313120245933533,-0.13816708326339722,0.01995181292295456,-0.3729473948478699,-0.02328564114704082,0.9786667194148365,-0.08869879374110742,0.18385225000480887,-0.07827260936549814,-2.776729020193104,2.975269054548088
1784719820483375360,2.9339091777801514,1.0863659381866455,0.1621156483888626,0.20013973116874695,-0.3573400676250458,0.08886201679706573,0.9297374486923218,-0.08524110913276672,0.021672651171684265,-0.3773235082626343,-0.028491935988395764,0.9782014016602478,-0.089391014997885,0.1852552691950781,-0.0889793832622961,-2.7746542573981996,2.975853977425869
1784719820493294592,2.9438283443450928,1.0506260395050049,0.1953197866678238,0.08681502938270569,-0.3585560917854309,0.09956126660108566,0.928183913230896,-0.01839706301689148,0.015291653573513031,-0.37450337409973145,-0.03373354103909721,0.9777405665623493,-0.09008524814849105,0.18646759946262065,-0.09972648363548614,-2.772953407416665,2.9764466349867273
1784719820503214336,2.9537482261657715,0.7517924904823303,-0.009966247715055943,0.012838543392717838,-0.3597915768623352,0.108241006731987,0.9267328381538391,-0.010981708765029907,-0.0897321105003357,-0.2779597043991089,-0.038000972867524054,0.9773290292101159,-0.09052284518287064,0.18758856438792235,-0.10845349187176115,-2.7712681057206354,2.977207711309564
1784719820513134592,2.9636683464050293,0.6060706973075867,-0.2228275090456009,0.24951806664466858,-0.3584077060222626,0.11499425768852234,0.9264558553695679,0.13044136762619019,-0.20563146471977234,-0.2962067127227783,-0.041331069920652136,0.9771793808588412,-0.0913695088035128,0.1872534992838338,-0.11524922046049871,-2.7724658657612378,2.976666847454944
1784719820523054336,2.973588228225708,0.2926776111125946,-0.23822776973247528,0.3296067714691162,-0.35584208369255066,0.12008547782897949,0.9267987608909607,0.30586954951286316,-0.262923002243042,-0.3586682081222534,-0.043665514794336356,0.9770849574199926,-0.09329715055519987,0.18626313628742713,-0.12037598005596392,-2.775000748177286,2.973540444998175
1784719820532973312,2.9835071563720703,-0.1673925668001175,-0.32046768069267273,0.2748633325099945,-0.3528917133808136,0.12205013632774353,0.9276699423789978,0.3385331630706787,-0.23716244101524353,-0.4011805057525635,-0.04437390634566775,0.9770909741908795,-0.09554161551828692,0.1849217880861245,-0.12235520353618957,-2.7780904515330342,2.969162481036173
1784719820542893312,2.993427276611328,-0.29591938853263855,-0.29572373628616333,0.3577108085155487,-0.3494202494621277,0.12101717293262482,0.9291183352470398,0.4177490174770355,-0.21537750959396362,-0.4084271192550659,-0.043539093274984814,0.9772111618207613,-0.09806892726725187,0.18315381688450394,-0.12131452226596318,-2.7818779038034465,2.9636344686960063
1784719820552813312,3.003347158432007,-0.45341578125953674,-0.5181276202201843,0.39408427476882935,-0.34511005878448486,0.11877644807100296,0.9310163855552673,0.4647389352321625,-0.24829304218292236,-0.4987194538116455,-0.0420676321847396,0.977397454082569,-0.10100694346324775,0.18089278525991603,-0.1190575158552325,-2.7866138983565545,2.957018885530448
1784719820562733312,3.0132672786712646,-0.5131592750549316,-0.699489414691925,0.3456096649169922,-0.338955283164978,0.11558596044778824,0.9336751103401184,0.548763632774353,-0.20723025500774384,-0.4899800419807434,-0.04025802332854835,0.9777882163477759,-0.10376781684286646,0.17759994515029331,-0.11584489216424723,-2.7933542573994994,2.950533327242768
1784719820572652288,3.023186206817627,-0.4937582314014435,-0.8920246958732605,0.37850645184516907,-0.3309401869773865,0.11197525262832642,0.9369845986366272,0.5629348754882812,-0.16478592157363892,-0.4745517373085022,-0.038322962319632316,0.9783170162769971,-0.10671508045011467,0.1733177817483887,-0.11221058408000399,-2.8020725242138544,2.943544865814368
1784719820582572544,3.0331063270568848,-0.41720592975616455,-0.9860172271728516,0.38224661350250244,-0.3216734230518341,0.10881864279508591,0.9405766725540161,0.4828978180885315,-0.1108328178524971,-0.45340943336486816,-0.036725088779319556,0.9789154688707633,-0.1096031030973674,0.16841280042196588,-0.10903456121553812,-2.8120660984977013,2.936740486195611
1784719820592492288,3.0430262088775635,-0.2922073304653168,-1.159481167793274,0.4323292076587677,-0.3091951310634613,0.10634361207485199,0.9450340270996094,0.3852144479751587,-0.026723258197307587,-0.44994741678237915,-0.0356833523937617,0.9797256691919347,-0.11249282099314081,0.16189398066638178,-0.1065450800956932,-2.8253913387470897,2.929954748008193
1784719820602412544,3.0529463291168213,-0.09456349164247513,-1.2526966333389282,0.3507730960845947,-0.2965969145298004,0.10572917759418488,0.9491318464279175,0.2719692885875702,0.02905169129371643,-0.4574633240699768,-0.03568798650432965,0.9804814288646255,-0.11498739626732343,0.15543601093271112,-0.1059271630118843,-2.8387143138287687,2.924286314428989
1784719820612331264,3.0628652572631836,-0.14502333104610443,-1.3152788877487183,0.31976956129074097,-0.284076064825058,0.10560619831085205,0.9529679417610168,0.21702897548675537,0.03970324248075485,-0.3597673773765564,-0.03601715920764651,0.9812027561683676,-0.11715431140134829,0.14905950591773082,-0.10580348957204178,-2.8518834395290873,2.9193687808253066
1784719820622251264,3.0727851390838623,-0.2536180019378662,-1.3897840976715088,0.3488054573535919,-0.2704455852508545,0.10486248880624771,0.9570075869560242,0.2700183093547821,-0.052540093660354614,-0.28382015228271484,-0.03614456303126549,0.9819848220094882,-0.11920398559137939,0.1420911638389557,-0.10505562838673754,-2.8661792049490993,2.914565198517669
1784719820632171520,3.08270525932312,-0.5353110432624817,-1.4021189212799072,0.3611854016780853,-0.2565237283706665,0.10189997404813766,0.9611514210700989,0.2461935579776764,-0.11200129985809326,-0.2521060109138489,-0.035161269677656794,0.9827494381588964,-0.12156992801899948,0.13486287184026408,-0.10207715260463886,-2.8807798083496436,2.9088343413274336
1784719820642091264,3.092625141143799,-0.7667125463485718,-1.3985878229141235,0.37770605087280273,-0.24264343082904816,0.09649793058633804,0.9653041362762451,0.25813114643096924,-0.12817519903182983,-0.24782073497772217,-0.03294404402288207,0.9834657542077265,-0.12428666354012462,0.1275247490105216,-0.09664832278446119,-2.8953299277745357,2.9021431822461095
1784719820652010496,3.1025443077087402,-1.064964771270752,-1.320228934288025,0.35589247941970825,-0.22941666841506958,0.08831983804702759,0.9693129062652588,0.2761848568916321,-0.10374648123979568,-0.19109946489334106,-0.02934179290878145,0.9841380230282794,-0.12699922919001214,0.1203436045161249,-0.0884350646656714,-2.9091895196869997,2.8952482894682854
1784719820661930240,3.112464189529419,-1.206343412399292,-1.3160115480422974,0.3570197820663452,-0.21636319160461426,0.07818787544965744,0.9731768369674683,0.28121310472488403,-0.06892580538988113,-0.17184650897979736,-0.024767089990215083,0.984729517022876,-0.12998541418128431,0.11312848495960198,-0.07826775992759598,-2.922824152472844,2.8877077808194076
1784719820671850496,3.1223843097686768,-1.1954922676086426,-1.343917965888977,0.2792380154132843,-0.20300939679145813,0.06702278554439545,0.9768802523612976,0.24875527620315552,-0.0033478587865829468,-0.18270611763000488,-0.01977692343769377,0.9853061455676533,-0.13270987884545393,0.10568216725978546,-0.06707306365913983,-2.9366950420314155,2.880724376786733
1784719820681770240,3.1323041915893555,-1.2188020944595337,-1.322859287261963,0.25731247663497925,-0.18996047973632812,0.05566795915365219,0.9802122116088867,0.19067765772342682,0.02680579572916031,-0.211459219455719,-0.014750001839082563,0.985821636290182,-0.13513624100485375,0.09836819694389158,-0.055696750577720354,-2.9501702510159173,2.8744796667335004
1784719820691689472,3.142223358154297,-1.0585732460021973,-1.2875034809112549,0.20996083319187164,-0.17710982263088226,0.045047931373119354,0.9831597805023193,0.19386394321918488,0.045574016869068146,-0.21147692203521729,-0.010125224292709364,0.9862455016489078,-0.13747619199295893,0.09120131341902368,-0.04506318238449063,-2.9633607511088824,2.8686178064028756
1784719820701609472,3.1521432399749756,-0.919034481048584,-1.3515682220458984,0.10758306086063385,-0.16402758657932281,0.03561701253056526,0.9858123064041138,0.1885027289390564,0.04304203763604164,-0.21367204189300537,-0.006201629338193931,0.9866805540987771,-0.1391677066661454,0.08399563401219903,-0.03562454841210525,-2.9767148847679623,2.8642923622605787
1784719820711529472,3.1620633602142334,-0.7983759641647339,-1.3005316257476807,0.07238608598709106,-0.1509959101676941,0.027288518846035004,0.9881579279899597,0.1706797182559967,0.058252256363630295,-0.1960434913635254,-0.00286739689704108,0.9870672621069962,-0.14063139190021348,0.07689567237233445,-0.027291906010753722,-2.989960133729231,2.8606229119145636
1784719820721449472,3.171983242034912,-0.6288212537765503,-1.3158589601516724,0.026805823668837547,-0.1380818635225296,0.02034888043999672,0.9902119040489197,0.1166737824678421,0.05168786272406578,-0.1858142614364624,-0.0002548328004390001,0.9874144062726391,-0.14184055150104116,0.06995753121960133,-0.02035028537185224,-3.0030393429674724,2.857659877759814
1784719820731368192,3.1819021701812744,-0.5287454128265381,-1.326602816581726,-0.04894070327281952,-0.12506097555160522,0.014821273274719715,0.9920381903648376,0.09236140549182892,0.02552296593785286,-0.19017374515533447,0.001592898448263478,0.9877907293915948,-0.14243796907102332,0.06307368083846275,-0.014821816046337952,-3.0161895018417235,2.856100492172235
1784719820741288448,3.1918222904205322,-0.5590404868125916,-1.2567427158355713,-0.03728005290031433,-0.11220844835042953,0.00937547069042921,0.9936406016349792,0.10621172934770584,-0.030051130801439285,-0.16253995895385742,0.0034019420081951007,0.9881143989996671,-0.14300427513877456,0.056286732848252904,-0.00937560845130786,-3.029142447815707,2.854667378851876
1784719820751208192,3.201742172241211,-0.6508246064186096,-1.1959911584854126,-0.0465010441839695,-0.099972665309906,0.0032852166332304478,0.994985044002533,0.11179818958044052,-0.08806304633617401,-0.14552795886993408,0.0055702312647896365,0.9883631319239992,-0.14363441379813038,0.049765368447244794,-0.0032852225213122507,-3.0414521922652185,2.85312682179589
1784719820761128448,3.2116622924804688,-0.7638020515441895,-1.1484659910202026,-0.07253025472164154,-0.08827723562717438,-0.0037465926725417376,0.9960888624191284,0.14899197220802307,-0.11672154814004898,-0.1013593077659607,0.008233298341283852,0.9885581483583129,-0.14421238167444334,0.04344840439490029,0.003746601335977567,-3.0531997321408855,2.8517075570706503
1784719820771047424,3.221581220626831,-0.8577837347984314,-1.0537132024765015,-0.13235196471214294,-0.07733893394470215,-0.011894975788891315,0.9969339966773987,0.14665961265563965,-0.13071367144584656,-0.042634010314941406,0.011462785036226207,0.9888185305786402,-0.14389198381847587,0.03743868219301591,0.01189525652923612,-3.0641709339081418,2.852122361709664
1784719820780967424,3.231501340866089,-0.801471471786499,-0.9348225593566895,-0.12582695484161377,-0.067264124751091,-0.020109744742512703,0.9975323677062988,0.1453128457069397,-0.10804881900548935,-0.009495437145233154,0.014809742289794408,0.9889330447418055,-0.14414442128137137,0.03184980175066814,0.020111100236049166,-3.0742640546691926,2.8514388134308937
1784719820790884864,3.2414188385009766,-0.7311702966690063,-0.8565704226493835,-0.1359308958053589,-0.05819349363446236,-0.027922308072447777,0.9979148507118225,0.14428357779979706,-0.047944389283657074,0.029444217681884766,0.018022642939902675,0.9890204485876294,-0.1442080829684492,0.026791898677786672,0.027925937684931637,-3.0833435328107806,2.8512017077741905
1784719820800804864,3.2513387203216553,-0.6291994452476501,-0.7940974831581116,-0.12636801600456238,-0.049882419407367706,-0.03469008952379227,0.9981522560119629,0.1792769581079483,-0.07198409736156464,0.027940034866333008,0.020775333315662486,0.9890559126768155,-0.14437632269013043,0.022184532680823658,0.03469705146904519,-3.091659434800425,2.8508258691252677
1784719820810723840,3.2612576484680176,-0.6145750284194946,-0.7303304672241211,-0.15665870904922485,-0.042289894074201584,-0.04081542789936066,0.9982714056968689,0.1701280176639557,-0.13125795125961304,0.07329237461090088,0.023259269499230267,0.9890751631567691,-0.14445079469871314,0.01798157298895521,0.040826767433826065,-3.0992548460295484,2.850686058168895
1784719820820643840,3.2711777687072754,-0.5608742237091064,-0.657334566116333,-0.08504790812730789,-0.03521984815597534,-0.04676874727010727,0.9982846975326538,0.16597241163253784,-0.15400639176368713,0.11792623996734619,0.025696898844231115,0.9890567846920497,-0.14459955960662887,0.014047892052637293,0.046785812758458396,-3.1063269181504496,2.850425510913112
1784719820830563840,3.281097650527954,-0.510785698890686,-0.6320326924324036,-0.0624670647084713,-0.028697779402136803,-0.052048757672309875,0.9982320070266724,0.17504483461380005,-0.15977373719215393,0.13374114036560059,0.027843007388534256,0.9889836002627507,-0.1450084205351776,0.010426279436968338,0.05207228809794154,-3.1128519626092275,2.849671511230536
1784719820840483840,3.291017770767212,-0.46001145243644714,-0.5669010877609253,0.0451081320643425,-0.0226436797529459,-0.05696330964565277,0.9981196522712708,0.14668238162994385,-0.15569844841957092,0.19598758220672607,0.029841697084482668,0.9888563557786718,-0.14568088568329982,0.007053071885668239,0.0569941591415942,-3.118910205924416,2.8484052181391672
1784719820850402816,3.300936698913574,-0.3827536702156067,-0.4578287899494171,0.022591903805732727,-0.017417285591363907,-0.06118219345808029,0.9979747533798218,0.12343534827232361,-0.1796320229768753,0.24224448204040527,0.031553285307312,0.9886937213184142,-0.14653365779980354,0.004131738696022449,0.06122042716158541,-3.1241417949142076,2.846781826017984
1784719820860323072,3.310856819152832,-0.36170002818107605,-0.3239594101905823,-0.0011355291353538632,-0.013443700969219208,-0.0649033859372139,0.9978012442588806,0.11045908182859421,-0.1355665922164917,0.3050706386566162,0.03310608639166888,0.9885440295164329,-0.1472458107313137,0.0018685235050586574,0.06494903719805892,-3.128120143784921,2.845424918549568
1784719820870242816,3.3207767009735107,-0.24845832586288452,-0.18625572323799133,0.07374902814626694,-0.010823528282344341,-0.06800229847431183,0.9976263046264648,0.14963273704051971,-0.10484925657510757,0.3136070966720581,0.034448143650119854,0.9883784849997354,-0.14805786824091952,0.0003151074110021064,0.06805481981610154,-3.1307437983612014,2.843837076366992
1784719820880162048,3.330695867538452,-0.120658278465271,-0.06162164360284805,0.10801991820335388,-0.009461935609579086,-0.06979092210531235,0.9975168108940125,0.20384365320205688,-0.16643038392066956,0.32224637269973755,0.035232533797867414,0.9881700210307399,-0.1492595338464823,-0.0005341427548655887,0.06984769961465842,-3.132107448242347,2.8414349136273387
1784719820890081792,3.340615749359131,-0.1201092004776001,0.14602194726467133,0.12323958426713943,-0.00980883277952671,-0.07100213319063187,0.9974278807640076,0.24834948778152466,-0.25655829906463623,0.39035892486572266,0.03585783524711163,0.9879580039613329,-0.1505088575619038,-0.0004985085543566241,0.07106192352886713,-3.1317588433108603,2.838881156614161
1784719820900002048,3.3505358695983887,-0.3335607647895813,0.2797245979309082,0.1165662333369255,-0.011881666257977486,-0.07314518094062805,0.997250497341156,0.27996334433555603,-0.28502437472343445,0.4585752487182617,0.03707606991550318,0.9877321839702301,-0.15169168885962225,0.0003206348961909954,0.07321056102591278,-3.129678792118273,2.836386047153116
1784719820909921792,3.3604557514190674,-0.47113507986068726,0.5036410689353943,0.16481542587280273,-0.015622825361788273,-0.07729867100715637,0.9968852996826172,0.2893197238445282,-0.20016711950302124,0.5648362040519714,0.03942024628874344,0.9874473517958873,-0.15293914668277894,0.0018051733417848894,0.0773758576708491,-3.1259222991691606,2.833661289672347
1784719820919841792,3.370375633239746,-0.6122564673423767,0.6206076741218567,0.17433328926563263,-0.021193070337176323,-0.08273585885763168,0.9963461756706238,0.2552933990955353,-0.1390659213066101,0.618216872215271,0.042546982738459374,0.9871004478165336,-0.15429128694998687,0.004084595757358687,0.08283053918680969,-3.1203250712261488,2.83060541379307
1784719820929761024,3.3802947998046875,-0.7003389000892639,0.7603029012680054,0.1825113594532013,-0.027630804106593132,-0.08936517685651779,0.9956156015396118,0.19482135772705078,-0.09720403701066971,0.6411641836166382,0.04634013845579695,0.9867070190487139,-0.15561828221215668,0.006692998934613518,0.08948455031856284,-3.1138472932754806,2.827497764472171
1784719820939680768,3.390214681625366,-0.8515220284461975,0.9124007821083069,0.1712816208600998,-0.03368593007326126,-0.09769950062036514,0.9946460723876953,0.14547181129455566,-0.08143872022628784,0.6025680303573608,0.05095694253940691,0.9862688166712028,-0.1568338676742331,0.008974419417789745,0.09785559920980676,-3.1077383418538704,2.8245408006083474
1784719820949601024,3.400134801864624,-0.8515694737434387,1.019012451171875,0.12911681830883026,-0.042738210409879684,-0.10635016858577728,0.9934098720550537,0.13012529909610748,-0.017871633172035217,0.5452253818511963,0.05597835347465789,0.985778923884777,-0.15793934650385347,0.01270865121885998,0.10655167366860925,-3.0985974367636797,2.821564260025595
1784719820959519744,3.4100537300109863,-0.41696637868881226,1.084537148475647,0.2065753936767578,-0.052945513278245926,-0.11300729960203171,0.9921827912330627,0.15771235525608063,0.05185004323720932,0.46385693550109863,0.06011827056613648,0.9852855592476919,-0.15907156499311892,0.017162181987643587,0.1132492196752848,-3.08828055665119,2.8184379988699426
1784719820969440000,3.419973850250244,0.4679577052593231,1.0860611200332642,0.3460012674331665,-0.06366690248250961,-0.1127772256731987,0.9915785193443298,0.18186147511005402,0.0646967664361,0.38250601291656494,0.06090459295161148,0.9848882915910849,-0.1605749799824871,0.022392080196331245,0.11301766738452146,-3.0774730458942536,2.8147306969955106
1784719820979359744,3.429893732070923,0.9535872936248779,1.1238830089569092,0.37864255905151367,-0.0747389867901802,-0.10518760234117508,0.9916396737098694,0.190644770860672,-0.05820348858833313,0.3589308261871338,0.05809628744817742,0.9846014404203369,-0.16241868024311218,0.028370435859899467,0.10538254479916699,-3.0663657796956554,2.8106502397290813
1784719820989280000,3.4398138523101807,0.8320688605308533,1.2323790788650513,0.35413163900375366,-0.08651554584503174,-0.09578805416822433,0.9916352033615112,0.20072755217552185,-0.26210689544677734,0.5072970390319824,0.05447294009186383,0.9843054431666158,-0.16419620958581657,0.034860643736414024,0.09593514137460084,-3.0545676782631204,2.806827887921496
1784719820999198976,3.449732780456543,0.3667903244495392,1.2960323095321655,0.2600730359554291,-0.09912487864494324,-0.08964250236749649,0.9910287857055664,0.21767044067382812,-0.3688993453979492,0.6411731243133545,0.052548959836213716,0.9838947174329986,-0.1657274167105295,0.041522366990457714,0.08976299283769051,-3.041902018315409,2.803364095051511
1784719821009118720,3.4596526622772217,0.07300499081611633,1.4356991052627563,0.2187403440475464,-0.11254387348890305,-0.08749352395534515,0.9897874593734741,0.27392080426216125,-0.32057228684425354,0.69182288646698,0.05268714608750717,0.9833580506557139,-0.16703492061521796,0.04827473025415749,0.08760554224029964,-3.028373816591318,2.800113341438785
1784719821019038976,3.4695727825164795,-0.03591802343726158,1.5391464233398438,0.32639092206954956,-0.12736164033412933,-0.08698026835918427,0.9880353212356567,0.31946977972984314,-0.27904757857322693,0.6489582061767578,0.05378942246880339,0.9826584432514971,-0.16852311696354202,0.05557989831405194,0.08709031579588446,-3.0133956544282348,2.7963093673664803
1784719821028958720,3.479492664337158,-0.1082402914762497,1.6324940919876099,0.4141702353954315,-0.1431053876876831,-0.08724222332239151,0.9858546257019043,0.3267296850681305,-0.2812269926071167,0.5764926075935364,0.055415023585173105,0.9817682049887121,-0.1704655496683226,0.0632596775370099,0.08735327559311144,-2.997440793962435,2.791447258975697
1784719821038878976,3.489412784576416,-0.2047969251871109,1.6741219758987427,0.49814581871032715,-0.1595371961593628,-0.0881076529622078,0.9832523465156555,0.3217533826828003,-0.3187832236289978,0.5029079914093018,0.05746425486010689,0.9807076326698162,-0.17273881356057727,0.07121622003883572,0.08822205207901758,-2.9807398606647553,2.7857802024876017
1784719821048797952,3.4993317127227783,-0.2860950231552124,1.6686855554580688,0.6460896134376526,-0.17636263370513916,-0.0896027460694313,0.980238676071167,0.29696810245513916,-0.3141295611858368,0.45984017848968506,0.059955418360155374,0.9794336770124795,-0.17558195942093777,0.07928482216028908,0.0897230763288055,-2.96357910130293,2.7788109255293962
1784719821058717952,3.509251832962036,-0.30135947465896606,1.5896614789962769,0.6526505351066589,-0.1927875131368637,-0.09134746342897415,0.9769791960716248,0.2228320837020874,-0.26720353960990906,0.3935650587081909,0.06263544069652946,0.9779986985177804,-0.17890819381649117,0.08710416524654979,0.09147497994891232,-2.946765514070088,2.770782471063808
1784719821068637952,3.519171714782715,-0.09435217827558517,1.5169312953948975,0.6001327633857727,-0.20817521214485168,-0.09208577871322632,0.9737472534179688,0.1079554408788681,-0.14499005675315857,0.29969048500061035,0.0647586689192,0.9766027328075123,-0.18199104348332815,0.09451346153963039,0.09221642293148306,-2.9309755046725985,2.7633628461867334
1784719821078557952,3.5290918350219727,0.2559986412525177,1.5487598180770874,0.5296532511711121,-0.2234313040971756,-0.09031880646944046,0.9705262780189514,0.0917021781206131,0.07800495624542236,0.14705801010131836,0.06563927544301983,0.9752769136775419,-0.1846566281115091,0.10211963600926167,0.09044205334718951,-2.9153185125377816,2.7570643539202875
1784719821088476928,3.539010763168335,0.8666157722473145,1.5999952554702759,0.4040472209453583,-0.23899343609809875,-0.08391924202442169,0.9673882126808167,0.17608141899108887,0.317973792552948,3.4332275390625e-05,0.06422145462101343,0.9740963697087479,-0.1866289868557037,0.11037011851545701,0.08401805765060075,-2.8993922160949817,2.7527662276241984
1784719821098396672,3.5489306449890137,1.3472332954406738,1.4918055534362793,0.24300426244735718,-0.25406599044799805,-0.07236160337924957,0.9644762277603149,0.21208906173706055,0.4393049478530884,-0.06548941135406494,0.060093476513150314,0.9731862313722165,-0.1874744840442848,0.11895667761733636,0.07242490361474416,-2.884020280399876,2.7515921686831124
1784719821108316928,3.5588507652282715,1.4846091270446777,1.4053895473480225,0.1889665275812149,-0.2679639458656311,-0.05810655653476715,0.961675226688385,0.13519719243049622,0.31559860706329346,-0.06711339950561523,0.05444462706815376,0.9724216445378835,-0.18770660787253515,0.12727232060442126,0.058139304431029125,-2.86984286041389,2.752272241077581
1784719821118236672,3.56877064704895,1.210318684577942,1.3891746997833252,0.1843867003917694,-0.2812318503856659,-0.044499531388282776,0.95860755443573,-0.018908530473709106,0.023717064410448074,-0.04085242748260498,0.049065580462656605,0.9715802197845146,-0.18797783105384502,0.1352360611738737,0.04451423147323638,-2.8562245330990526,2.752966578221557
1784719821128155904,3.5786898136138916,0.6615902781486511,1.408819317817688,0.12997442483901978,-0.2944822609424591,-0.03522379696369171,0.9550075531005859,-0.164700448513031,-0.2059871405363083,-0.011831343173980713,0.04585458222779417,0.9705861793251326,-0.18832483720454135,0.1428060450283811,0.03523108503162836,-2.842487589033632,2.752982322886164
1784719821138075904,3.5886096954345703,0.23310445249080658,1.392600655555725,0.14594513177871704,-0.30776071548461914,-0.030666640028357506,0.9509693384170532,-0.20296618342399597,-0.31680649518966675,-0.05826926231384277,0.045034751799102386,0.9694360658985306,-0.18888725368690804,0.14995714245385097,0.030671448346646972,-2.8286018072453136,2.751889852032584
1784719821147995904,3.598529815673828,-0.022502882406115532,1.3080228567123413,0.21999496221542358,-0.320495069026947,-0.029285000637173653,0.9467973709106445,-0.2090306580066681,-0.2578548789024353,-0.1202898621559143,0.045825481297255354,0.9681625466468967,-0.18989460526617943,0.15652901046661805,0.029289187511335288,-2.8151953780577457,2.749408485314006
1784719821157915904,3.608449697494507,-0.013912057504057884,1.2005707025527954,0.17985926568508148,-0.3322305381298065,-0.02894843928515911,0.9427536725997925,-0.2411031424999237,-0.08149466663599014,-0.1711779236793518,0.04708224434035456,0.9668862538892299,-0.1910701942806862,0.16250025301961554,0.02895248459594616,-2.802777438632398,2.7464396204571813
1784719821167834880,3.6183688640594482,0.2518930733203888,1.0089541673660278,0.12684467434883118,-0.34256377816200256,-0.027409672737121582,0.9390944242477417,-0.3209187984466553,0.11015810072422028,-0.2099076509475708,0.047552089223035825,0.9657760582672511,-0.19189531535020699,0.16790317713420336,0.027413105599049286,-2.791811080495772,2.7444667741461894
1784719821177754880,3.628288745880127,0.5445265173912048,0.7427229881286621,0.032110974192619324,-0.3507685363292694,-0.023540077731013298,0.9361662268638611,-0.3885045349597931,0.29577213525772095,-0.27207326889038086,0.046570108631621636,0.9649372228986298,-0.19229996397550092,0.17247633150924077,0.02354225252133222,-2.7830971672405034,2.7439059625806816
1784719821187674880,3.6382088661193848,0.7761247754096985,0.5802196860313416,-0.06837251782417297,-0.35688337683677673,-0.0174061618745327,0.9339869618415833,-0.43729090690612793,0.3515889048576355,-0.3273583650588989,0.04411090051326131,0.9644315160337357,-0.19200349100935415,0.17624086933279207,0.01740704002722931,-2.776605393000543,2.745349718226367
1784719821197594880,3.6481287479400635,0.8757493495941162,0.4319731891155243,0.005668681114912033,-0.3615747094154358,-0.009687218815088272,0.9322929382324219,-0.4282660186290741,0.22068575024604797,-0.3421286344528198,0.04066696302832419,0.9640926784326257,-0.1914987563995885,0.17944300197313867,0.009687370692548507,-2.7716181725332865,2.747622035005987
1784719821207513856,3.658047676086426,0.7707852125167847,0.2362147569656372,-0.022652672603726387,-0.36444324254989624,-0.0019013904966413975,0.9312235116958618,-0.29476693272590637,0.08454299718141556,-0.36297106742858887,0.03702873362126079,0.9638765414725103,-0.19119042037333328,0.18170592637214827,0.0019013916467817023,-2.7685570446708887,2.7496057793603397
1784719821217433856,3.6679677963256836,0.5949135422706604,0.17607472836971283,0.10204584896564484,-0.36601266264915466,0.004544306080788374,0.930598795413971,-0.14706408977508545,-0.03699974715709686,-0.38087040185928345,0.03396289071065159,0.9637306978371177,-0.19110869878473163,0.183158765264121,-0.004544321511678062,-2.766867860048885,2.75093157393555
1784719821227353856,3.6778876781463623,0.4019554555416107,-0.12137316167354584,0.22401313483715057,-0.36646392941474915,0.009809254668653011,0.930380642414093,-0.034933775663375854,-0.051450494676828384,-0.34511446952819824,0.03154663948319906,0.9635038793384707,-0.19196507121208914,0.18388729138101587,-0.009809412242587435,-2.766368016355693,2.750132454568866
1784719821237273856,3.68780779838562,0.4261507987976074,-0.33465906977653503,0.18671956658363342,-0.3639717698097229,0.014168179593980312,0.9313021898269653,0.09987267851829529,0.018577180802822113,-0.3818790316581726,0.029372183713612967,0.9634643310216038,-0.19335866428521908,0.18299227012516095,-0.014168653243782503,-2.7690247872131453,2.748143166819141
1784719821247192832,3.6977267265319824,0.580044150352478,-0.25406134128570557,0.14568421244621277,-0.36125001311302185,0.019406592473387718,0.9322670102119446,0.07343876361846924,0.18239089846611023,-0.3877723813056946,0.026616444742212787,0.9635595559748424,-0.1941300610901044,0.18209352038562487,-0.01940781146321702,-2.77191158603097,2.7476008613524936
