time,seconds_elapsed,rotationRateX,rotationRateY,rotationRateZ,gravityX,gravityY,gravityZ,accelerationX,accelerationY,accelerationZ,quaternionW,quaternionX,quaternionY,quaternionZ,pitch,roll,yaw
1783423362019708416,0.1792452335357666,-0.0011180858127772808,-0.1479356437921524,0.08850885927677155,0.08343023806810379,0.5885307788848877,-0.8041585087776184,0.0037279725074768066,-0.010848283767700195,0.021107971668243408,0.9002601782920242,-0.3076686044220408,-0.05710326175850514,0.3026727747581502,-0.6292403757222241,0.10337864173020679,0.6823364705337112
1783423362029628160,0.1891651153564453,-0.0009915856644511223,-0.15255463123321533,0.11306507140398026,0.0833759605884552,0.5892354846000671,-0.8036479353904724,-0.002885855734348297,-0.01976221799850464,0.022855699062347412,0.8998832247821337,-0.3080074387379522,-0.05751041875316632,0.30337138405068204,-0.6301122868922293,0.10337703889217302,0.6840334836642347
1783423362039548416,0.19908523559570312,0.015070936642587185,-0.16615359485149384,0.13415582478046417,0.0832628682255745,0.589705228805542,-0.8033150434494019,-0.019404828548431396,-0.004988431930541992,0.021088480949401855,0.8995183403882815,-0.3081976318186393,-0.05793710406770205,0.3041779424087396,-0.6306937965223752,0.10328028793023278,0.685890363156086
1783423362049467392,0.20900416374206543,0.06111113354563713,-0.16208109259605408,0.12844546139240265,0.08271148055791855,0.5899722576141357,-0.8031759262084961,-0.04880645126104355,0.015908479690551758,0.014967918395996094,0.8992125153544575,-0.30819771030397836,-0.058533881867929995,0.3049670211839457,-0.6310245136291983,0.10261878807583046,0.6874737460512137
1783423362059387392,0.21892428398132324,0.12327496707439423,-0.14760993421077728,0.1126839742064476,0.08120147138834,0.5900900959968567,-0.8032434582710266,-0.05716888606548309,0.027829766273498535,0.0031030774116516113,0.8990329730107229,-0.3079571045648767,-0.059503834831583086,0.3055511390589779,-0.6311704519851674,0.10074970382081534,0.6881569673368331
1783423362069306368,0.22884321212768555,0.2138749212026596,-0.13203656673431396,0.07949353009462357,0.07881520688533783,0.5898301005363464,-0.8036719560623169,-0.043063871562480927,0.040098488330841064,-0.010506510734558105,0.8990315682189522,-0.30736513555617817,-0.060751078025840094,0.30590568024749115,-0.6308484532468577,0.0977562877716929,0.6878679595374231
1783423362079226368,0.23876309394836426,0.3237236440181732,-0.11092428863048553,0.013134082779288292,0.07596121728420258,0.5889526009559631,-0.8045898675918579,-0.02626335620880127,0.052298009395599365,-0.01439511775970459,0.8992602862467426,-0.30636572044725263,-0.06200907383021794,0.30598366323369974,-0.6297621823240774,0.09413085406248611,0.686626260922942
1783423362089146368,0.24868321418762207,0.4094718396663666,-0.08626048266887665,-0.10014613717794418,0.07287958264350891,0.5874046087265015,-0.8060051798820496,0.016659006476402283,0.059293389320373535,-0.02302008867263794,0.8997554708717879,-0.30498178232812917,-0.06311516732892951,0.30568385408429904,-0.6278481354771321,0.09017551125838563,0.6843067829919768
1783423362099065344,0.2586021423339844,0.5255624651908875,-0.10455597937107086,-0.3575308322906494,0.06940602511167526,0.5853943824768066,-0.8077723979949951,0.10352182388305664,0.04940176010131836,-0.011120975017547607,0.9006207896060753,-0.30333351746580833,-0.0640513854016046,0.3045790068711614,-0.6253663854336167,0.08571223254277324,0.6799514453215773
1783423362108985344,0.2685222625732422,0.6805863976478577,-0.28947895765304565,-0.4995044767856598,0.06553324311971664,0.5823015570640564,-0.8103272318840027,0.29722923040390015,0.03574037551879883,-0.008199930191040039,0.9018552310463107,-0.30105586157002406,-0.06482093287803037,0.30301923670561515,-0.6215569039317721,0.08069693950136843,0.6742203333166985
1783423362118904320,0.2784411907196045,0.6019306182861328,-0.4952642321586609,-0.39631301164627075,0.06228676438331604,0.5787320137023926,-0.8131356835365295,0.35407981276512146,0.004458904266357422,0.02669769525527954,0.9029682996629004,-0.29859238803021887,-0.06538156117747267,0.30201995440193896,-0.6171729836475481,0.07645140611649537,0.6699357061478658
1783423362128824320,0.2883610725402832,0.41608887910842896,-0.4660554826259613,-0.5267496109008789,0.06091614067554474,0.5758916139602661,-0.8152533769607544,0.27357178926467896,-0.05379688739776611,0.031043171882629395,0.9036957180759075,-0.2968196800439891,-0.06535589019399135,0.3015969445736354,-0.6136943632314216,0.07458190713037456,0.6678695847875112
1783423362138743296,0.2982802391052246,0.36464470624923706,-0.45398199558258057,-0.8786797523498535,0.05975789204239845,0.5739473104476929,-0.8167089819908142,0.29207926988601685,-0.035113632678985596,0.03927367925643921,0.9046163859888727,-0.2956620012730878,-0.06503459383760084,0.30003958799357267,-0.6113180357899632,0.07303898084979532,0.6635730809255915
1783423362148663296,0.3082001209259033,0.4936186671257019,-0.4972756505012512,-1.0550256967544556,0.05782069265842438,0.5716362595558167,-0.8184673190116882,0.4518381357192993,0.050220370292663574,0.04954642057418823,0.9059488986465264,-0.2942441355049758,-0.06470494805300549,0.29747312873266846,-0.6084986881430579,0.0705279136339132,0.6566812551993354
1783423362158583296,0.31812024116516113,0.8496789336204529,-0.5923106670379639,-1.1675227880477905,0.05512690916657448,0.5675514340400696,-0.8214903473854065,0.5584595203399658,0.13917464017868042,0.05667412281036377,0.907748082911668,-0.291755228478474,-0.06429385171716086,0.2945142569566878,-0.6035288176179259,0.06700550923351387,0.648323458986118
1783423362168502272,0.32803916931152344,1.306240439414978,-0.6980096697807312,-1.314731240272522,0.04890218377113342,0.5601413249969482,-0.8269523978233337,0.6030753254890442,0.19722867012023926,0.06843799352645874,0.9103908300242465,-0.28691315118920263,-0.06484318651045329,0.29097214155338813,-0.594556391202555,0.05906663844001421,0.6368027523536558
1783423362178422528,0.33795928955078125,1.6997183561325073,-0.7694189548492432,-1.4870543479919434,0.03993258252739906,0.5491558909416199,-0.8347653746604919,0.6232448816299438,0.22861504554748535,0.10800451040267944,0.9138712066470661,-0.2797677663406424,-0.06593423237362521,0.2867438554865029,-0.581353856278063,0.04780045629212701,0.6223818640938827
1783423362188341504,0.34787821769714355,1.9760029315948486,-0.772866427898407,-1.600114345550537,0.029503608122467995,0.5352582931518555,-0.844173014163971,0.6626502871513367,0.21808338165283203,0.15061527490615845,0.9179450745127836,-0.2709369000280583,-0.06713180850133929,0.28189263615744525,-0.5648135234161152,0.03493549660717121,0.6060369637343804
1783423362198261248,0.35779809951782227,2.07772159576416,-0.7539883255958557,-1.677054762840271,0.01875755377113819,0.5196213126182556,-0.8541907668113708,0.7261307239532471,0.21031337976455688,0.17694467306137085,0.9222777411952289,-0.2612585583092483,-0.06818054479044994,0.2765849116647682,-0.546407684581369,0.021955913807396994,0.5888703424514005
1783423362208181504,0.3677182197570801,2.1549041271209717,-0.7256951928138733,-1.7251676321029663,0.008138773031532764,0.5030903220176697,-0.8641955256462097,0.7921847105026245,0.18865162134170532,0.197798490524292,0.92665805781646,-0.25125992010531883,-0.0690700726711255,0.27092950535990157,-0.5271708381049159,0.009417466100407695,0.5714308708619795
1783423362218100224,0.3776371479034424,2.2744622230529785,-0.7524548172950745,-1.7835352420806885,-0.0025288036558777094,0.4854961037635803,-0.8742351531982422,0.8270221948623657,0.16547435522079468,0.2075786590576172,0.920444766137714,-0.2380246342763247,-0.078909354853145,0.2998315746560648,-0.5069305318457693,-0.0028925814986354866,0.6290643837201866
1783423362228020480,0.3875572681427002,2.3944191932678223,-0.7938965559005737,-1.9151582717895508,-0.013694517314434052,0.4665576219558716,-0.8843847513198853,0.8220136165618896,0.13494381308555603,0.21870487928390503,0.9227011725937851,-0.22626290512226746,-0.08131856520137258,0.30135508401782257,-0.48539483285763063,-0.015483557969502567,0.6275249660848097
1783423362237939456,0.3974761962890625,2.4308018684387207,-0.8232460021972656,-2.115078926086426,-0.02560489811003208,0.4466191828250885,-0.8943576812744141,0.7768561244010925,0.09316045045852661,0.28290748596191406,0.9267614938309063,-0.21447965748072378,-0.08258100539717901,0.2971398213175605,-0.4629831491951264,-0.02862155180906376,0.6137865683300723
1783423362247859200,0.4073960781097412,2.1219208240509033,-0.7982815504074097,-2.3797836303710938,-0.03783092647790909,0.42751583456993103,-0.9032159447669983,0.7167249917984009,0.07072940468788147,0.4226403832435608,0.9308721906613902,-0.20330202032702352,-0.08402575061805971,0.2916929796370875,-0.4417430417908681,-0.04186022921685726,0.5979258289162157
1783423362257779456,0.417316198348999,1.533950686454773,-0.7709894776344299,-2.591355800628662,-0.049149032682180405,0.41296547651290894,-0.9094195365905762,0.6775364875793457,0.0038588643074035645,0.5097002983093262,0.9346174150155855,-0.19480233807518166,-0.08568710418868088,0.2849562486703988,-0.4257077508286346,-0.05399187372590418,0.5802035617928287
1783423362267698176,0.42723512649536133,0.6714706420898438,-0.7362794280052185,-2.7827088832855225,-0.05686987191438675,0.40680381655693054,-0.9117436408996582,0.6393283605575562,-0.12279197573661804,0.4777226448059082,0.9376335060829069,-0.19128161674890223,-0.08683045702595428,0.2769749193097917,-0.41895255989944824,-0.062294144728414116,0.5612110275186302
1783423362277618432,0.43715524673461914,-0.3890743553638458,-0.6893243789672852,-2.9960076808929443,-0.04680781066417694,0.41984155774116516,-0.906389594078064,0.5460296273231506,-0.24279379844665527,0.34301984310150146,0.9384363359835519,-0.20005791890865168,-0.08235304489815252,0.26931792488175027,-0.4332707236389658,-0.05159620940643108,0.547591565878536
1783423362287537408,0.44707417488098145,-1.3879085779190063,-0.6111507415771484,-3.2132861614227295,-0.047452546656131744,0.4358031451702118,-0.8987902402877808,0.42144545912742615,-0.2870146930217743,0.11909663677215576,0.9385300481656719,-0.2088644162819097,-0.0835496338808405,0.2618328675977743,-0.450930422316874,-0.052747045689908796,0.5320276917828426
1783423362297457152,0.45699405670166016,-2.2544403076171875,-0.4570176899433136,-3.4913289546966553,-0.058110371232032776,0.45473000407218933,-0.8887315392494202,0.28056827187538147,-0.20675945281982422,-0.05307137966156006,0.9382020550512492,-0.21808892820957923,-0.08984121896926503,0.25326380023563005,-0.4720690548214466,-0.06529279831849165,0.5116134108249081
1783423362307376384,0.46691322326660156,-2.5968453884124756,-0.21919392049312592,-3.775679349899292,-0.07037728279829025,0.4775565564632416,-0.8757777810096741,0.15338510274887085,-0.10363993048667908,-0.20727574825286865,0.9376228908378573,-0.2296163813109791,-0.09688865795507505,0.24238855544472984,-0.49787153941269385,-0.08018743232458926,0.4855565566043768
1783423362317296384,0.4768331050872803,-2.45595383644104,0.01846684142947197,-3.974679470062256,-0.08097023516893387,0.5010395050048828,-0.8616282343864441,0.08246558904647827,0.010801315307617188,-0.2693989872932434,0.9369908038367429,-0.24218200204983012,-0.10263407729626566,0.22991827561500586,-0.524799523737824,-0.09369834588577201,0.45606661965768885
1783423362327216384,0.4867532253265381,-1.8696779012680054,0.20722050964832306,-4.113646507263184,-0.08347214758396149,0.5245597958564758,-0.847271740436554,0.05977524816989899,0.06856459379196167,-0.31735527515411377,0.9360437008128717,-0.25595938068742274,-0.10415811431151277,0.21784890655156708,-0.5521979774691269,-0.0982018495217023,0.42948174796318117
1783423362337135360,0.4966721534729004,-1.0939850807189941,0.28625398874282837,-4.22714900970459,-0.08918661624193192,0.5401004552841187,-0.8368615508079529,0.08967489004135132,0.06277430057525635,-0.2959814667701721,0.9359505321725686,-0.2652005500477542,-0.1060089378392689,0.20597926578602763,-0.5705564943233765,-0.10617197585331623,0.40207899118933194
1783423362347055360,0.5065922737121582,-0.3672144412994385,0.2156738042831421,-4.354468822479248,-0.10550461709499359,0.5441364645957947,-0.8323366641998291,0.1357475221157074,-0.03365367650985718,-0.1999356746673584,0.9374538421513842,-0.26726155865490936,-0.11136846586158441,0.193258195800083,-0.5753595505800518,-0.12608473307017323,0.369256182933619
1783423362356974336,0.5165112018585205,0.17827875912189484,0.08030042052268982,-4.519018650054932,-0.1248486116528511,0.5413324236869812,-0.8314878344535828,0.1420605182647705,-0.2021295428276062,-0.04902052879333496,0.9398932003502892,-0.2655442410663001,-0.11722767143139787,0.17984643988471669,-0.5720209815265501,-0.14903747619701538,0.3342226582231538
1783423362366894336,0.5264310836791992,0.4077995717525482,-0.029521416872739792,-4.668723106384277,-0.1454821527004242,0.5344188213348389,-0.832605242729187,0.096989706158638,-0.34731554985046387,0.12151515483856201,0.942918971408622,-0.261877030977094,-0.12295446450885365,0.16494390264677647,-0.5638199892090597,-0.17298489157256558,0.2961384143881898
1783423362376813824,0.5363507270812988,0.3416014611721039,-0.03595622256398201,-4.74595308303833,-0.16063429415225983,0.5290758609771729,-0.8332319259643555,0.05702710151672363,-0.4726793169975281,0.20969676971435547,0.9455977110533973,-0.25976998637969156,-0.1261094879194568,0.14986989077251595,-0.5575111209738328,-0.1904481563268135,0.25971017160636967
1783423362386733056,0.5462698936462402,0.08538299053907394,-0.04448659345507622,-4.760796546936035,-0.18128642439842224,0.5213010311126709,-0.8338947296142578,0.06725747883319855,-0.5788419246673584,0.1996326446533203,0.948213103849544,-0.2563348561876566,-0.13170067141657765,0.13356394205706726,-0.5483748521528792,-0.21406635151362388,0.219452461663639
1783423362396653056,0.556189775466919,-0.09733709692955017,-0.11084895581007004,-4.79053258895874,-0.20481938123703003,0.5130080580711365,-0.8335896730422974,0.10530155897140503,-0.6726760268211365,0.12524616718292236,0.9504448355748881,-0.2529641609614729,-0.13861559710523377,0.11597210623594781,-0.5386854493511377,-0.2409347621210252,0.17602818240645737
1783423362406571776,0.5661087036132812,-0.06390536576509476,-0.19215525686740875,-4.857466697692871,-0.22941921651363373,0.503735363483429,-0.8328370451927185,0.12996241450309753,-0.743969738483429,0.032635629177093506,0.9522737636793539,-0.2494620695552711,-0.14611691415243996,0.09794552116287651,-0.5279173978726556,-0.2688004368763015,0.13193254527192866
1783423362416492032,0.5760288238525391,0.1581183820962906,-0.27563226222991943,-4.8815717697143555,-0.25471770763397217,0.4919283092021942,-0.8325415253639221,0.16624724864959717,-0.7951662540435791,-0.028817057609558105,0.9539261596302759,-0.24504363046128042,-0.15389231368317483,0.0793452370941587,-0.5143031923985346,-0.2969083222535085,0.08735573740687137
1783423362426411008,0.5859477519989014,0.48612821102142334,-0.41687464714050293,-4.787133693695068,-0.2802375853061676,0.4764954447746277,-0.8333180546760559,0.1946357786655426,-0.8359925150871277,-0.008280456066131592,0.955513241505926,-0.2391069934943122,-0.16176780371630928,0.06044360366466029,-0.49666422065650284,-0.3244103266471101,0.04340614720553987
1783423362436331008,0.5958678722381592,0.6485967636108398,-1.0363065004348755,-4.384418964385986,-0.30637678503990173,0.4580610990524292,-0.8344538807868958,0.17554795742034912,-0.8626936674118042,0.08843642473220825,0.9567873870946445,-0.23185315736438133,-0.1703443002697747,0.04224608249176441,-0.47581279866851967,-0.3518782189683176,0.0020826508000689557
1783423362446251008,0.6057877540588379,0.3569880723953247,-0.33526745438575745,-4.431528091430664,-0.33107510209083557,0.4399963319301605,-0.834740936756134,-0.01858004927635193,-0.9193359613418579,0.1996091604232788,0.9574565643650801,-0.22502023136026886,-0.178872618689414,0.025443099128586364,-0.45559460078297775,-0.37758933803551686,-0.03539559438737856
1783423362456169728,0.6157066822052002,0.07533301413059235,-0.24304427206516266,-4.3265557289123535,-0.35201799869537354,0.4229793846607208,-0.8349681496620178,0.006559014320373535,-1.079366683959961,0.3150096535682678,0.957825095804898,-0.21936371286094034,-0.1854602192127582,0.007428118198933723,-0.43673079932012493,-0.3989826370524026,-0.0741590000476151
1783423362466089984,0.625626802444458,-0.13868845999240875,-0.07400146126747131,-3.925201177597046,-0.36894434690475464,0.4086901545524597,-0.8347768783569336,-0.013868182897567749,-1.146315336227417,0.3211660385131836,0.957750707628696,-0.215367797635014,-0.19033722911983506,-0.010106203770335977,-0.42101841786179767,-0.41615412630269766,-0.11126971891385283
1783423362476008960,0.6355457305908203,-0.22154712677001953,-0.012318158522248268,-4.060266017913818,-0.3852037489414215,0.3951588273048401,-0.833946943283081,-0.03146800398826599,-0.8443318009376526,0.21630167961120605,0.9572028547971173,-0.21194642520427528,-0.19520560686912206,-0.027131921385085613,-0.40624075771904394,-0.43270939191541685,-0.14715130633218818
1783423362485928960,0.6454658508300781,0.32227036356925964,-0.009714651852846146,-3.9230268001556396,-0.40022748708724976,0.37919607758522034,-0.8342830538749695,0.032124459743499756,-0.667404055595398,0.09430813789367676,0.9566206904184851,-0.20756194879985224,-0.19944045925857828,-0.04492574327306892,-0.38892734448519006,-0.4472974582100795,-0.1833923286610085
1783423362495848960,0.6553857326507568,0.9141367673873901,-0.031224660575389862,-3.5918521881103516,-0.41395753622055054,0.3585812747478485,-0.8366950750350952,0.08378785848617554,-0.6038053035736084,0.09215772151947021,0.9563465282633291,-0.20050893255958324,-0.20358938915075864,-0.06122803210238337,-0.36674766911460055,-0.4594413552438326,-0.21455474830277943
1783423362505767936,0.6653048992156982,1.5555229187011719,0.09910884499549866,-3.3216745853424072,-0.42538100481033325,0.3337762951850891,-0.8412160277366638,0.02126726508140564,-0.6519373655319214,0.09600728750228882,0.9564788658919515,-0.1909190900553012,-0.2072242717335514,-0.07586912590162574,-0.34030678638911366,-0.4681764423208608,-0.24020711930680008
1783423362515687936,0.675224781036377,2.1973495483398438,0.21372194588184357,-3.0974833965301514,-0.43398961424827576,0.3041746914386749,-0.8480158448219299,-0.04902735352516174,-0.65041184425354,0.08591556549072266,0.9571679046361344,-0.17833588301360526,-0.2102103808063601,-0.08853053932345734,-0.30907194803903926,-0.4730197243618034,-0.2595157484096831
1783423362525606912,0.6851437091827393,2.783585548400879,0.3544977009296417,-2.928788661956787,-0.43978115916252136,0.26944729685783386,-0.8567325472831726,-0.14333346486091614,-0.5447311401367188,0.029156923294067383,0.958289035596128,-0.16280915304925675,-0.21243090918214896,-0.10024233550866167,-0.27281907077747586,-0.47424968957363883,-0.2747732590187239
1783423362535526912,0.6950638294219971,3.2001640796661377,0.3086046576499939,-2.7700493335723877,-0.44364434480667114,0.23096227645874023,-0.8659307956695557,-0.12476080656051636,-0.46091222763061523,0.007578134536743164,0.9595383854061298,-0.14508717744749633,-0.2144395356041561,-0.11068657532776537,-0.2330665836495822,-0.47346472549145474,-0.2861624096028438
1783423362545445888,0.7049827575683594,2.8483846187591553,0.2084740698337555,-2.642336130142212,-0.4469410181045532,0.19208452105522156,-0.8736974596977234,-0.05441701412200928,-0.5511390566825867,0.05028742551803589,0.9603482022111995,-0.12725376604975575,-0.21669737910824824,-0.12074750723251698,-0.1932857745433903,-0.4728458519018234,-0.2968585051716987
1783423362555366144,0.7149028778076172,1.9204375743865967,0.18928386270999908,-2.5711441040039062,-0.4496040642261505,0.15927985310554504,-0.8789118528366089,-0.0546225905418396,-0.7044916749000549,0.13438981771469116,0.9603534598118425,-0.11277311212369377,-0.218692217773315,-0.13106145825192175,-0.1599611521777788,-0.4728418828413915,-0.30988487277892673
1783423362565285888,0.7248227596282959,0.7528136968612671,0.3492623269557953,-2.465646982192993,-0.4507821798324585,0.13599982857704163,-0.8822128176689148,-0.09584864974021912,-0.849531352519989,0.1533767580986023,0.9595845113957282,-0.10346127995816688,-0.2195207397793044,-0.14249188500894575,-0.13642260500681058,-0.47238316390650503,-0.32771496265761607
1783423362575204864,0.7347416877746582,-0.15503089129924774,0.6059466004371643,-2.3303136825561523,-0.44937753677368164,0.12248553335666656,-0.8849051594734192,-0.16297292709350586,-0.8143647909164429,0.08528357744216919,0.9583828716510614,-0.09917730739348993,-0.21842913133279507,-0.15477360676596705,-0.12279389180594548,-0.46988851309242136,-0.3496517261193436
1783423362585124864,0.744661808013916,-0.6447670459747314,0.8566413521766663,-2.1178667545318604,-0.4454737901687622,0.11612462252378464,-0.8877320289611816,-0.18863573670387268,-0.5932211875915527,0.03754281997680664,0.9570859384908633,-0.09825900679284637,-0.21559023115567602,-0.16689069767185014,-0.11638720452439641,-0.46509543418325894,-0.37286964650138915
1783423362595043840,0.7545807361602783,-0.7292503714561462,0.7971459627151489,-2.030233144760132,-0.44038546085357666,0.11277435719966888,-0.8906977772712708,-0.21545255184173584,-0.4542355537414551,-0.12906229496002197,0.9557004568386657,-0.09866158395629679,-0.21193628488365707,-0.1788449800677778,-0.11301478407218149,-0.4591796590116721,-0.396429969089629
1783423362604964096,0.7645008563995361,-0.7817455530166626,0.7842893004417419,-1.8544598817825317,-0.43549588322639465,0.11054585874080658,-0.8933772444725037,-0.16786712408065796,-0.4305074214935303,-0.10193824768066406,0.9541736728104403,-0.0994972866124849,-0.20835463702046103,-0.19037139792100213,-0.11077225518610116,-0.45357461014735456,-0.4194434733777986
1783423362614883840,0.7744207382202148,-0.8685448169708252,0.6319723725318909,-1.8118259906768799,-0.43087372183799744,0.10967078804969788,-0.895723283290863,-0.12089934945106506,-0.4107419550418854,-0.10212522745132446,0.9525272854751208,-0.10087613503897279,-0.20484720574832244,-0.2013787701860844,-0.10989183146127311,-0.4483603661422277,-0.4417751908991229
1783423362624803072,0.7843399047851562,-0.7544430494308472,0.3348000943660736,-1.6864789724349976,-0.42775875329971313,0.10872655361890793,-0.8973299264907837,-0.19142764806747437,-0.4020615220069885,-0.09154641628265381,0.95053445181563,-0.1023754365457015,-0.2021244884553002,-0.2124834152002188,-0.10894192119960495,-0.44483589579999067,-0.46451201910164824
1783423362634723072,0.794259786605835,-0.7438152432441711,0.5909627079963684,-1.8767410516738892,-0.42461222410202026,0.1078115701675415,-0.8989333510398865,-0.23507100343704224,-0.2875295877456665,-0.0544663667678833,0.9485962869473975,-0.1036716244029956,-0.1994631135212464,-0.2227817132881752,-0.1080215226177681,-0.4412849257808025,-0.4855983224416517
1783423362644641792,0.8041787147521973,-0.9758836627006531,0.5384116172790527,-1.9968708753585815,-0.4214140474796295,0.1068434789776802,-0.9005523920059204,-0.3447449803352356,-0.2408156394958496,-0.018759071826934814,0.9461260476856903,-0.10524675506093775,-0.1965881844762642,-0.23477990525032447,-0.10704781269646792,-0.4376809735649041,-0.5103001849548783
1783423362654562048,0.8140988349914551,-0.389272004365921,0.5052934885025024,-1.8063091039657593,-0.4184386432170868,0.10463457554578781,-0.9021977186203003,-0.2010682225227356,-0.1106312945485115,-0.07782852649688721,0.9440625516380993,-0.10574351590063336,-0.19421495001794373,-0.24463207244164417,-0.10482645238256162,-0.434269948697727,-0.5302465687624051
1783423362664481024,0.8240177631378174,0.28041979670524597,0.47117650508880615,-1.9586387872695923,-0.4156467020511627,0.09697992354631424,-0.9043410420417786,-0.3537624776363373,-0.008417919278144836,-0.10876625776290894,0.9417718672046755,-0.10370772614234047,-0.19254658661232424,-0.25541380908945016,-0.09713258830353236,-0.4308190893180058,-0.5509392900486524
1783423362674401024,0.8339378833770752,0.9883869290351868,0.3885192573070526,-2.0173022747039795,-0.41323065757751465,0.08244002610445023,-0.9068869948387146,-0.33934807777404785,0.07377944886684418,-0.12131118774414062,0.9394750495985091,-0.09828966100166141,-0.19208235889802308,-0.26613933614782276,-0.08253369406452936,-0.42754945070549966,-0.5700319362428131
1783423362684321024,0.8438577651977539,1.4526067972183228,0.25522881746292114,-1.9496283531188965,-0.41143688559532166,0.06282562762498856,-0.9092704057693481,-0.28761401772499084,0.043222956359386444,-0.09318625926971436,0.9371709082796535,-0.09038086134671491,-0.19286291738221462,-0.27630765449961114,-0.06286703015040075,-0.42492370376663874,-0.5869827562331269
1783423362694239744,0.8537766933441162,1.8216699361801147,0.11906760185956955,-1.8622437715530396,-0.4103648364543915,0.0396692156791687,-0.9110581874847412,-0.2547047436237335,-0.0897027775645256,-0.08267045021057129,0.9348654740263667,-0.08072862086160033,-0.19481733188870137,-0.28557927822113827,-0.039679626362452126,-0.4232086235688582,-0.6014716902156262
1783423362704160000,0.863696813583374,1.9285180568695068,0.033534854650497437,-1.8782185316085815,-0.4099043607711792,0.014528642408549786,-0.9120128154754639,-0.2929154634475708,-0.17695845663547516,-0.03970837593078613,0.9323275015544779,-0.07023554467766056,-0.19763745980067698,-0.29457071882645874,-0.01452915374796612,-0.42239662719939414,-0.6151683479312283
1783423362714078976,0.8736157417297363,1.9480037689208984,-0.06263257563114166,-1.86867356300354,-0.4096764028072357,-0.011154812760651112,-0.912162721157074,-0.3336249589920044,-0.22306758165359497,0.0024642348289489746,0.9296162646505925,-0.05952437620818744,-0.20093655784465556,-0.3031416256632446,0.011155044412702647,-0.4221272649777729,-0.6280507428002251
1783423362723998976,0.8835358619689941,2.075169086456299,-0.13760855793952942,-1.8448760509490967,-0.4098598062992096,-0.037233348935842514,-0.9113882780075073,-0.3574436604976654,-0.2506237030029297,0.030284762382507324,0.9266441431116316,-0.048741681610269504,-0.20476842925824634,-0.3114878019144916,0.03724195655747853,-0.42261217671987933,-0.6405701227047124
1783423362733918976,0.8934557437896729,2.247187852859497,-0.15971973538398743,-1.7929279804229736,-0.40997129678726196,-0.06476369500160217,-0.9097962379455566,-0.34929078817367554,-0.31087714433670044,0.03313302993774414,0.9234070856809986,-0.03731838473239649,-0.20906751085572403,-0.31971447149972093,0.06480905482436511,-0.4233684130202459,-0.6526984254571588
1783423362743837952,0.9033749103546143,2.3572163581848145,-0.26670557260513306,-1.74491548538208,-0.4102357029914856,-0.09318941831588745,-0.9072058200836182,-0.3247649371623993,-0.35284024477005005,0.047510385513305664,0.9200724593290149,-0.025426832901402994,-0.21389381867828933,-0.327214863842826,0.09332482629217823,-0.4246794029092203,-0.6632476678542996
1783423362753757952,0.913294792175293,2.347187042236328,-0.27941030263900757,-1.800478458404541,-0.4103794991970062,-0.12231199443340302,-0.9036749601364136,-0.4159144461154938,-0.3972192406654358,0.07278811931610107,0.9163402155644746,-0.013319855813479643,-0.21905502221273804,-0.33489994654537425,0.12261903203346498,-0.4262772364682784,-0.674219128200993
1783423362763676928,0.9232137203216553,2.172152519226074,-0.3389066457748413,-1.7823537588119507,-0.41021883487701416,-0.15042512118816376,-0.8994958400726318,-0.36854398250579834,-0.21972259879112244,0.08307433128356934,0.9124698032511916,-0.001656268634410037,-0.22416360966020613,-0.34226720479635797,0.15099826555755663,-0.42787713943037964,-0.6848503745688782
1783423362773596928,0.9331338405609131,1.994254469871521,-0.3377513289451599,-1.8558528423309326,-0.40991097688674927,-0.17694714665412903,-0.8947975635528564,-0.44363516569137573,-0.12200304865837097,0.10303425788879395,0.9082663783394438,0.009117068857060985,-0.22916825318115872,-0.34993000841621,0.1778837874718953,-0.42957331030643586,-0.696588820883855
1783423362783516928,0.9430537223815918,1.9321385622024536,-0.3910347819328308,-1.7875232696533203,-0.40929681062698364,-0.20239947736263275,-0.8896688222885132,-0.42061346769332886,-0.19950178265571594,0.10963952541351318,0.9036511536201538,0.0192211369106733,-0.23408574648544303,-0.3581189208604557,0.20380748949386357,-0.4311843328312154,-0.709848582772121
1783423362793436160,0.9529728889465332,1.7007533311843872,-0.5183308124542236,-1.7800612449645996,-0.4089692533016205,-0.2261503040790558,-0.8840815424919128,-0.4312712252140045,-0.2295534461736679,0.16406512260437012,0.8989379008713478,0.028456737465610952,-0.2390594676058249,-0.3659939225392633,0.22812377306464465,-0.43327612596108145,-0.7228770458671095
1783423362803355904,0.9628927707672119,1.334710955619812,-0.5212613344192505,-1.742300271987915,-0.4088425636291504,-0.2470397800207138,-0.878532350063324,-0.4415145218372345,-0.2047271728515625,0.17378991842269897,0.8940781636157303,0.03617609326947762,-0.24377268091910176,-0.3740190880865839,0.2496241558359261,-0.43556181953342266,-0.7368999797962036
1783423362813274880,0.9728116989135742,1.2150219678878784,-0.6297982335090637,-1.7705650329589844,-0.40916183590888977,-0.2657754123210907,-0.8728975057601929,-0.42749282717704773,-0.2372000515460968,0.17244279384613037,0.8889676334802578,0.042621686871944744,-0.2484645781775289,-0.3823418629496817,0.2690081812649302,-0.4383282261684449,-0.7520938696631952
1783423362823194880,0.982731819152832,1.0135908126831055,-0.7638726830482483,-1.7552731037139893,-0.4100675880908966,-0.2829914689064026,-0.8670411705970764,-0.3895234763622284,-0.2364329695701599,0.14626175165176392,0.8837050682023295,0.0481507343278744,-0.2533000603386876,-0.3906224087769592,0.28691163092778516,-0.4417748256291486,-0.7675600201953768
1783423362833113856,0.9926507472991943,1.2433525323867798,-0.8497107625007629,-1.7707802057266235,-0.41167524456977844,-0.2999580502510071,-0.8605513572692871,-0.37552565336227417,-0.17246928811073303,-0.016203343868255615,0.8780181467140631,0.053225255817848365,-0.2586337054575309,-0.3991988690803801,0.3046486749889975,-0.44620693467751704,-0.7838129058277958
1783423362843034112,1.0025708675384521,1.6221911907196045,-1.052827000617981,-1.7029434442520142,-0.4141475260257721,-0.3197300136089325,-0.8522056937217712,-0.2184055745601654,-0.1535976231098175,-0.18598705530166626,0.8719090678321838,0.05944333830430658,-0.2652614594526254,-0.4072804798798407,0.32544451618138154,-0.45236180616203725,-0.7984650273831921
1783423362852953856,1.0124907493591309,2.1412649154663086,-1.1835488080978394,-1.6718649864196777,-0.4175798296928406,-0.34297096729278564,-0.8414261937141418,-0.052482426166534424,-0.16096580028533936,-0.31621235609054565,0.865417297216058,0.06720248116507976,-0.27344238247438274,-0.41444671243281817,0.3500778878591245,-0.46066418463979525,-0.8103558131536903
1783423362862873088,1.0224099159240723,2.908419132232666,-1.4402364492416382,-1.5616652965545654,-0.4224326014518738,-0.3712233304977417,-0.8268881440162659,0.10338661074638367,-0.1599198281764984,-0.43208402395248413,0.8584608311425066,0.0772976690817198,-0.28386794893415523,-0.4201060392240899,0.38032613731232384,-0.47230599913658855,-0.8176409164727808
1783423362872792832,1.032329797744751,3.6284284591674805,-1.7789267301559448,-1.6233787536621094,-0.4288979768753052,-0.4050360321998596,-0.8074604272842407,0.15195095539093018,-0.16599363088607788,-0.4586986303329468,0.8505143552643046,0.08981845371234957,-0.2969889296623736,-0.4246829415656107,0.41701824074749205,-0.4882707874802642,-0.8208990682056777
1783423362882711808,1.0422487258911133,4.257325172424316,-2.0366389751434326,-1.605375051498413,-0.4365156292915344,-0.44405850768089294,-0.7824743986129761,0.17514780163764954,-0.19000524282455444,-0.4311944246292114,0.8412845267292619,0.10468658694572808,-0.3127355328767194,-0.42834290424276583,0.4601232078883708,-0.5088620542177185,-0.8202176129802007
1783423362892632064,1.052168846130371,4.677829265594482,-2.310392141342163,-1.6156538724899292,-0.44496867060661316,-0.4862351715564728,-0.7520493865013123,0.14232581853866577,-0.13452288508415222,-0.36365801095962524,0.8309260821414229,0.12119179507801797,-0.3305871406187336,-0.4307976365901621,0.5077761227722621,-0.5342755498630191,-0.8148099137634975
1783423362902551808,1.0620887279510498,5.167402744293213,-2.5765483379364014,-1.5492669343948364,-0.453846275806427,-0.53021639585495,-0.7161663174629211,0.14189556241035461,-0.15395718812942505,-0.31178778409957886,0.8192455764816078,0.13877471466151955,-0.35022625384708167,-0.43234228192517665,0.5588557488867141,-0.5648426844349232,-0.8050318681344909
1783423362912471040,1.0720078945159912,5.622767448425293,-2.865023612976074,-1.3936026096343994,-0.4634180963039398,-0.5753627419471741,-0.6739445924758911,0.1306697130203247,-0.16825902462005615,-0.2511499524116516,0.8061757574887721,0.15736301427963062,-0.37183944559794213,-0.4324961475041459,0.6130475935452383,-0.6023691303420688,-0.7888047547914885
1783423362922391040,1.08192777633667,6.030452728271484,-3.1168928146362305,-1.20624840259552,-0.47338801622390747,-0.6205002069473267,-0.6252065300941467,0.12905821204185486,-0.29063254594802856,-0.229911208152771,0.7918754496530259,0.17687109336607054,-0.3951118154473491,-0.430739377370077,0.6693803693582623,-0.648074512848738,-0.7638063196393987
1783423362932309760,1.0918467044830322,6.200362205505371,-3.117304801940918,-1.0444854497909546,-0.482803612947464,-0.6639077663421631,-0.5710753798484802,0.1178438663482666,-0.3457815647125244,-0.1663970947265625,0.7762306599562883,0.19655795835797496,-0.41931762033553344,-0.42778926105980286,0.7260323163551292,-0.7018342788618014,-0.7310612461868156
1783423362942230016,1.10176682472229,6.447320461273193,-3.196063280105591,-0.8512382507324219,-0.49093514680862427,-0.705030620098114,-0.5117759108543396,0.18408086895942688,-0.482713520526886,-0.21448147296905518,0.7595572701275675,0.21684903788285842,-0.4439465662804276,-0.4230374878455331,0.7824663030675829,-0.7646167598221589,-0.6876002658916409
1783423362952148992,1.1116857528686523,6.298737525939941,-3.1280007362365723,-0.7420035004615784,-0.4928092062473297,-0.746039628982544,-0.4478437304496765,0.2898978590965271,-0.45255351066589355,-0.1523454785346985,0.7408147276122343,0.23928840987567815,-0.46778113404078636,-0.4184680304471866,0.8420947546338887,-0.8331642072146692,-0.6371421753694354
1783423362962068992,1.1216058731079102,6.240190505981445,-3.095065116882324,-0.5635517239570618,-0.49312445521354675,-0.7814643383026123,-0.3822852373123169,0.48207709193229675,-0.329192578792572,-0.1156243085861206,0.7214473944757479,0.2604908776670741,-0.4909194236910153,-0.41310586323478493,0.89700922666282,-0.9113421135813996,-0.5768774822474949
1783423362971988992,1.1315257549285889,6.334682941436768,-3.1796979904174805,-0.42225906252861023,-0.4953418970108032,-0.8093900680541992,-0.3154746890068054,0.6110035181045532,-0.15092194080352783,-0.04246601462364197,0.7020359405042174,0.2790501062043133,-0.5141922717666497,-0.4060578982881822,0.9431127944012911,-1.003697747670805,-0.503127942459867
1783423362981907968,1.1414446830749512,6.701931476593018,-3.1731481552124023,-0.26710623502731323,-0.4950287342071533,-0.833906888961792,-0.2440200299024582,0.5624420642852783,0.04029732942581177,0.01947171986103058,0.6808828913157048,0.2980408233066302,-0.5377375321450295,-0.39800560001652624,0.9861492053082533,-1.1128117385520884,-0.41288706650989376
1783423362991827968,1.151364803314209,7.223162651062012,-3.152778148651123,-0.11675320565700531,-0.49553942680358887,-0.8520945310592651,-0.16845034062862396,0.42512014508247375,0.1710337996482849,0.12117864191532135,0.6591471470349367,0.31656799180362255,-0.561746861061434,-0.3869757064358974,1.0199742673505114,-1.2431176365205747,-0.29962807750126413
1783423363001746944,1.1612837314605713,7.716464519500732,-3.054785966873169,-0.047116607427597046,-0.4973457455635071,-0.8629950881004333,-0.08880747109651566,0.3242958188056946,0.17003244161605835,0.15806710720062256,0.636849669010354,0.3345771430790507,-0.5862204374930475,-0.3725939695693903,1.0411683587401173,-1.394095790546013,-0.16363258090647545
1783423363011666944,1.171203851699829,8.08393669128418,-2.8709330558776855,0.04729877784848213,-0.49774178862571716,-0.867306113243103,-0.005771570838987827,0.34394845366477966,0.07128560543060303,0.17676156759262085,0.613563272407406,0.35312983842347534,-0.6102569392121419,-0.3555642467687449,1.0497646462281927,-1.5592013350288196,-0.010692694394908584
1783423363021585920,1.1811227798461914,8.243465423583984,-2.7453877925872803,0.1758897751569748,-0.49686598777770996,-0.8642578125,0.07862912118434906,0.47130754590034485,-0.013336122035980225,0.22169435024261475,0.5895576483772965,0.37164924347600814,-0.6333967163474762,-0.33631409286008745,1.0436730783439752,-1.7277449561988116,0.14814060802456072
1783423363031506176,1.1910429000854492,8.575875282287598,-2.6076958179473877,0.3400923013687134,-0.49509352445602417,-0.8532678484916687,0.1637570559978485,0.6054297685623169,-0.0734899640083313,0.20674169063568115,0.5647906383196026,0.38988137288317265,-0.6556455148019382,-0.31485395361182317,1.0222201347772069,-1.890228952595739,0.3029903455231616
1783423363041425920,1.200962781906128,9.052088737487793,-2.5043303966522217,0.5019714832305908,-0.4926849901676178,-0.8334259390830994,0.2503257691860199,0.6715789437294006,-0.06499642133712769,0.17977383732795715,0.5388606236359963,0.4080582169091266,-0.6772380530579052,-0.29063114573756704,0.9852783599348696,-2.0408908789068763,0.4482126311084401
1783423363051344896,1.2108817100524902,9.670578002929688,-2.343712568283081,0.6970130801200867,-0.48975056409835815,-0.8034701943397522,0.3384971022605896,0.6865278482437134,-0.07258278131484985,0.137821227312088,0.5114169240933663,0.4264092533191672,-0.698157365183209,-0.2630670340388946,0.9331013785227946,-2.175566289574204,0.580129146251913
1783423363061264896,1.220801830291748,10.293811798095703,-2.1541659832000732,0.9355513453483582,-0.4869546890258789,-0.7617828249931335,0.42727333307266235,0.6977394819259644,-0.10845661163330078,0.20378455519676208,0.4823989477452749,0.4446927097790532,-0.7182513868244212,-0.23163494427365888,0.8660606730378774,-2.2910063752724077,0.6959225206603274
1783423363071183872,1.2307207584381104,10.786383628845215,-1.9735368490219116,1.1498229503631592,-0.48426640033721924,-0.7076659798622131,0.5144855380058289,0.6267528533935547,-0.1707063913345337,0.3290661573410034,0.45181877214774574,0.4625448157163518,-0.7370855233431208,-0.19651257023363547,0.7861893351741508,-2.3864421632940593,0.7948295986875683
1783423363081104128,1.2406408786773682,11.013538360595703,-1.700710415840149,1.3657469749450684,-0.48177674412727356,-0.6415628790855408,0.5968990325927734,0.5005450248718262,-0.250130295753479,0.39916425943374634,0.4200899774684385,0.4793448302883053,-0.7541074464063504,-0.15835073563727334,0.69653396832428,-2.4625175762420106,0.8773460722337382
1783423363091023872,1.2505607604980469,10.726393699645996,-1.2970374822616577,1.5720614194869995,-0.4803083837032318,-0.5662159323692322,0.6698530316352844,0.4041060209274292,-0.37567853927612305,0.4000778794288635,0.388630760046239,0.49413754076374855,-0.7686056280526756,-0.11848847741634039,0.6019076751730322,-2.5195247712775757,0.943840133890515
1783423363100942848,1.2604796886444092,10.0492582321167,-0.8647332787513733,1.8279649019241333,-0.48054930567741394,-0.4861004650592804,0.7299169301986694,0.46985289454460144,-0.533308744430542,0.37881720066070557,0.3589543845544354,0.506029043033154,-0.7803160035849082,-0.07869745632406278,0.5076219708570794,-2.559361736818563,0.9954911106368854
1783423363110862848,1.270399808883667,9.16435718536377,-0.5254592895507812,2.1143288612365723,-0.4824258089065552,-0.4052083194255829,0.7765771746635437,0.5989723205566406,-0.6278728246688843,0.3699226975440979,0.3318059633086632,0.5149646410568937,-0.7893668340262171,-0.04020415720385964,0.4172066998962184,-2.5857156548196514,1.0354390787924674
1783423363120781824,1.2803187370300293,8.183101654052734,-0.22131165862083435,2.3885011672973633,-0.4846744239330292,-0.3267049789428711,0.8113905787467957,0.6165255904197693,-0.6637277603149414,0.3726457357406616,0.30705785337488717,0.520323000183337,-0.7968433102486027,-0.004496779728469623,0.3328151423129245,-2.603132790864391,1.0643107013224875
1783423363130702080,1.290238857269287,6.967756748199463,0.14844489097595215,2.5927295684814453,-0.4835391342639923,-0.25457462668418884,0.8374856114387512,0.49696674942970276,-0.6976501941680908,0.39571458101272583,0.2838424061135551,0.5228333596173742,-0.8033604959205928,0.026283309277810335,0.25740779788888957,-2.6179790230869258,1.0845561709000298
1783423363140621824,1.3001587390899658,5.416226863861084,0.5493334531784058,2.7200214862823486,-0.48521843552589417,-0.19149906933307648,0.8531652688980103,0.41672179102897644,-0.7746874094009399,0.4262535572052002,0.26572530051759774,0.5216432009477892,-0.8089938197582689,0.05298465860078471,0.1926892563234745,-2.624485206404603,1.0943205508491167
1783423363150541056,1.3100779056549072,3.786041259765625,0.910129725933075,2.9171359539031982,-0.4939219057559967,-0.13946345448493958,0.8582488894462585,0.4492442011833191,-0.8688830733299255,0.41422730684280396,0.25510390876347916,0.516297418596775,-0.8139787633137837,0.07614174363854666,0.13991955320562066,-2.6193829928273717,1.0930578155488622
1783423363160461056,1.319997787475586,2.512493371963501,1.1203885078430176,3.1598734855651855,-0.5048586130142212,-0.09832050651311874,0.8575841188430786,0.47493618726730347,-0.887061595916748,0.38528984785079956,0.24951358903927942,0.507643089317634,-0.819201166541666,0.09460874902953008,0.09847960571233143,-2.609524422530742,1.0826747974884974
1783423363170379776,1.3299167156219482,1.7398771047592163,1.2245807647705078,3.4287266731262207,-0.5164504647254944,-0.06420358270406723,0.8539066314697266,0.45363008975982666,-0.8129783868789673,0.2440546751022339,0.24700921730549055,0.49633412850733394,-0.824988329504497,0.10969526537622183,0.06424777268531424,-2.597644589679726,1.0653044572422457
1783423363180300032,1.339836835861206,1.4518682956695557,1.2426111698150635,3.6585593223571777,-0.5276501774787903,-0.03303753212094307,0.848818838596344,0.40687698125839233,-0.7390419244766235,0.062252700328826904,0.24587959866866918,0.48309205688273316,-0.8312830296956513,0.12301912889267079,0.033043546694058894,-2.585421264624573,1.043438998672335
1783423363190219008,1.3497557640075684,1.3963115215301514,1.1935200691223145,3.8355143070220947,-0.5375103950500488,-0.0018647658871486783,0.8432552814483643,0.37546199560165405,-0.6809050440788269,-0.10991775989532471,0.2447972724197494,0.4686628699842211,-0.8378441124434598,0.1358188326590805,0.0018647669891326153,-2.5741097116946183,1.0194698729415879
1783423363200139008,1.3596758842468262,1.4656221866607666,1.1329634189605713,3.9668636322021484,-0.5454317331314087,0.030170386657118797,0.8376123309135437,0.36160898208618164,-0.5685004591941833,-0.21215444803237915,0.2432158053838329,0.45345888863538214,-0.8445005628702363,0.1484588260889933,-0.030174965760804716,-2.564392277120324,0.9945049375704387
1783423363210059008,1.3695957660675049,1.8871207237243652,1.003843903541565,4.122753143310547,-0.5505022406578064,0.06460948288440704,0.8323301076889038,0.37069249153137207,-0.47194284200668335,-0.2914668917655945,0.2402677104441546,0.43790657968285085,-0.8511186117937929,0.1615750735068344,-0.06465451740929819,-2.557245849931179,0.9698248075866844
1783423363219977728,1.3795146942138672,2.2789459228515625,0.8358367681503296,4.19587516784668,-0.5481836795806885,0.09958315640687943,0.8304081559181213,0.369365930557251,-0.40793275833129883,-0.2963658571243286,0.23395942149077553,0.42303288449843607,-0.8580485103054559,0.17337493681093485,-0.09974848463124501,-2.5581237771689307,0.9460692646543708
1783423363229897984,1.389434814453125,2.4975414276123047,0.6214964985847473,4.267494201660156,-0.5461115837097168,0.13998423516750336,0.8259334564208984,0.37638819217681885,-0.41853344440460205,-0.20931071043014526,0.2272319507708043,0.4075437011313831,-0.8642192193002789,0.18814562583949046,-0.14044548917570027,-2.557380540985373,0.9235955696539943
1783423363239816960,1.3993537425994873,2.250756025314331,0.639817476272583,4.202702045440674,-0.5431868433952332,0.18164347112178802,0.8197276592254639,0.3120163083076477,-0.4756803512573242,-0.17753112316131592,0.2205568147229934,0.3915223480065672,-0.8698126649376511,0.2036928915967655,-0.1826574664594523,-2.556380776506462,0.9010773263681223
1783423363249736960,1.4092738628387451,1.5774320363998413,0.6278747916221619,4.157816410064697,-0.5392827391624451,0.21881219744682312,0.8132007122039795,0.29170888662338257,-0.5295727252960205,-0.09287905693054199,0.2150402136683659,0.3750327173347414,-0.8751861622617414,0.2171574707612706,-0.22059700062868706,-2.556021190527086,0.8764376878534413
1783423363259655936,1.4191927909851074,1.1324152946472168,0.6720220446586609,4.240297794342041,-0.5342992544174194,0.25151392817497253,0.8070098161697388,0.2907842993736267,-0.5608553886413574,-0.13002324104309082,0.2106454432340472,0.35754866773363986,-0.8807178024263791,0.22830577576259786,-0.25424414864634903,-2.556777164870327,0.848205578418319
1783423363269576192,1.4291129112243652,0.6100588440895081,0.6307613849639893,4.267829895019531,-0.5278775095939636,0.2803058922290802,0.801732063293457,0.22799646854400635,-0.4546222686767578,-0.20523536205291748,0.20697045569410744,0.33911010423579296,-0.8864933056011182,0.23727051302996216,-0.28411276696671994,-2.5593201066294053,0.816371058070524
1783423363279495936,1.439032793045044,0.45180365443229675,0.498839795589447,4.440057754516602,-0.5195472836494446,0.30646246671676636,0.7975907921791077,0.17280668020248413,-0.36800119280815125,-0.2624194025993347,0.2034146405887911,0.3198475354793862,-0.8924645317089697,0.2445956153289141,-0.3114744574294809,-2.5642367985749073,0.7814407957029622
1783423363289414912,1.4489517211914062,0.15865308046340942,0.42468151450157166,4.463998794555664,-0.508750319480896,0.3317408561706543,0.7944315671920776,0.08274006843566895,-0.3803247809410095,-0.2573220133781433,0.19931800261550278,0.2998064557423261,-0.898516476322243,0.25111087094942663,-0.33814834177409275,-2.57199897517431,0.7439697885684784
1783423363299334912,1.458871841430664,-0.6626943349838257,0.3863498270511627,4.2242817878723145,-0.4969650208950043,0.351228803396225,0.7935137748718262,-0.028669744729995728,-0.41574299335479736,-0.25872373580932617,0.19592015940256013,0.27968373990556,-0.9047286305422516,0.2546731500584176,-0.3588832112499535,-2.582070500073174,0.7037660313200392
1783423363309253888,1.4687907695770264,-1.3953425884246826,0.29312360286712646,4.284081935882568,-0.48443087935447693,0.3632538318634033,0.7958475351333618,0.041651368141174316,-0.4519531726837158,-0.2942911386489868,0.1934439618718255,0.2591655744684832,-0.9114587081425318,0.25427474920501375,-0.37175792920263173,-2.594802024258821,0.6594271904139221
1783423363319174144,1.4787108898162842,-1.9171916246414185,0.12028549611568451,4.284628868103027,-0.47026264667510986,0.3701765537261963,0.8011382222175598,0.11453449726104736,-0.3670943081378937,-0.3171446919441223,0.19096457140475334,0.2379045284015723,-0.9186786995295717,0.2509251711969316,-0.37919906155044353,-2.6107919317947563,0.6110241187402979
1783423363329093888,1.488630771636963,-2.1397597789764404,-0.22484521567821503,4.3279008865356445,-0.45395219326019287,0.3730769455432892,0.8091604113578796,0.10579252243041992,-0.24815329909324646,-0.33329999446868896,0.18775127326268914,0.2164442090542271,-0.9261382849894464,0.2452939803602023,-0.38232320077629567,-2.6303309792274576,0.5602395513714232
1783423363339012864,1.4985496997833252,-2.291295289993286,-0.5316624045372009,4.356443881988525,-0.43482062220573425,0.37428155541419983,0.819050669670105,0.007696717977523804,-0.2086016833782196,-0.28902149200439453,0.18308217106394967,0.1947905471453129,-0.9335855484631616,0.23865350206120678,-0.38362190978345073,-2.653544437957915,0.508023547082379
1783423363348932864,1.508469820022583,-2.581907272338867,-0.6955715417861938,4.311045169830322,-0.4134071171283722,0.37248772382736206,0.8308715224266052,-0.15414360165596008,-0.11258473992347717,-0.18244922161102295,0.17722922475726471,0.17321722410458268,-0.9409737322868872,0.23055161336561822,-0.3816882040952482,-2.6799002359360955,0.4548432684063924
1783423363358851840,1.5183887481689453,-3.111340284347534,-0.7749385237693787,4.132108211517334,-0.391879141330719,0.36538222432136536,0.8443496823310852,-0.24882212281227112,-0.004511892795562744,-0.13829511404037476,0.1713947154643902,0.15183033240694133,-0.94822064467686,0.2201112464071749,-0.3740433835081793,-2.7070591950755145,0.4010454056664093
1783423363368772096,1.5283088684082031,-3.436887741088867,-0.8719046115875244,3.9597561359405518,-0.37043675780296326,0.35281381011009216,0.8592431545257568,-0.14874351024627686,0.02404773235321045,-0.1938990354537964,0.16548576377909444,0.13088773241607743,-0.9552434123474155,0.2073471156686121,-0.3605766075806199,-2.734549897535229,0.3475414098421326
1783423363378692608,1.5382294654846191,-4.025032043457031,-1.0700716972351074,3.7605881690979004,-0.34895655512809753,0.3343029022216797,0.875482976436615,-0.030346333980560303,0.023622453212738037,-0.1808421015739441,0.15930089163685585,0.1105145682035437,-0.9620436611592392,0.1920458796816293,-0.34086548153306523,-2.762304541639797,0.2947931994940138
1783423363388612864,1.548149585723877,-4.373902320861816,-1.3325363397598267,3.6285009384155273,-0.32672119140625,0.30939584970474243,0.8930439352989197,-0.00823974609375,0.10558217763900757,-0.24288225173950195,0.15235864200353957,0.09069058354321723,-0.9686574208981776,0.17396802385342594,-0.31455763964727784,-2.7908668968838946,0.2428893983344355
1783423363398532608,1.5580694675445557,-4.965011119842529,-1.5027235746383667,3.344794511795044,-0.3035609722137451,0.27840322256088257,0.9112311601638794,-0.14387246966362,0.24883368611335754,-0.21648329496383667,0.14443126898911987,0.07151872583556688,-0.9749362342267521,0.15337531216528608,-0.28213119699652534,-2.820022614701198,0.19250760779093498
1783423363408451840,1.567988634109497,-5.282214164733887,-1.6979715824127197,3.0781595706939697,-0.28072673082351685,0.24063323438167572,0.9291331768035889,-0.29703208804130554,0.359388142824173,-0.20543920993804932,0.13602601366586486,0.05354993695040329,-0.9806625215409543,0.13011693692901985,-0.24301820663939433,-2.8481752495875106,0.1451881760754473
1783423363418371584,1.5779085159301758,-5.603289604187012,-1.7919813394546509,2.659114360809326,-0.2582434117794037,0.19765418767929077,0.9456443190574646,-0.2923241853713989,0.31993919610977173,-0.1642417311668396,0.1270713573583977,0.036912331366761045,-0.9856265232136249,0.10502720049514726,-0.19896431975533743,-2.8750055898860483,0.1016318761759833
1783423363428290560,1.587827444076538,-5.287081241607666,-1.8772894144058228,2.400721549987793,-0.2361913025379181,0.1516079604625702,0.9598068594932556,-0.22630266845226288,0.2758823037147522,-0.1946241855621338,0.11755895564057393,0.02212726209587348,-0.9896533865238051,0.07922494639328514,-0.15219483215536042,-2.900304805308988,0.06319591370401728
1783423363438210816,1.597747564315796,-4.641317844390869,-2.063424825668335,1.984641671180725,-0.21467837691307068,0.10862225294113159,0.9706258177757263,-0.22015132009983063,0.2862599492073059,-0.12509053945541382,0.10762546319387066,0.009182368336547193,-0.9925868201460738,0.05571238759121281,-0.10883699404320939,-2.9239216641250065,0.0304053007065896
1783423363448130560,1.6076674461364746,-3.7667367458343506,-2.3053221702575684,1.6120600700378418,-0.1919010430574417,0.07138007134199142,0.978814959526062,-0.1928035169839859,0.2554479241371155,-0.03472322225570679,0.096509250897857,-0.0012906538297464214,-0.9946888060708974,0.035755380732611884,-0.07144082835986279,-2.9479937384057875,0.0043449489655058675
1783423363458049792,1.617586612701416,-2.6636264324188232,-2.2830965518951416,1.3217334747314453,-0.16847051680088043,0.042338237166404724,0.9847972393035889,-0.27552977204322815,0.31885257363319397,0.016118526458740234,0.08475846680204581,-0.00961772336026132,-0.9961456289623307,0.020432690035837014,-0.04235089565411037,-2.972161493481847,-0.015712353848238415
1783423363467969536,1.6275064945220947,-1.678332805633545,-2.144744634628296,1.0970981121063232,-0.14629364013671875,0.023232797160744667,0.9889683127403259,-0.46602630615234375,0.4533754885196686,0.0930628776550293,0.07352945282282282,-0.016248887657644682,-0.9971058726233086,0.010451876083233025,-0.0232348882234188,-2.994732165560418,-0.030879922332893522
1783423363477888768,1.6374256610870361,-1.6021705865859985,-1.9581098556518555,1.0034658908843994,-0.12604671716690063,0.008707706816494465,0.9919862747192383,-0.5290588736534119,0.4982503056526184,0.31067192554473877,0.06323043799305253,-0.021869394760836606,-0.9977549118384591,0.0029777272713827126,-0.00870781688719496,-3.0152049648509816,-0.043279176081590466
1783423363487808768,1.6473455429077148,-1.7990858554840088,-1.5266019105911255,0.3412550389766693,-0.10857900977134705,-0.007189890369772911,0.9940618276596069,-0.7099024057388306,0.5858794450759888,0.43483221530914307,0.05425859129467658,-0.02590187315393435,-0.9981783388507398,-0.005009469903537386,0.007189952342987569,-3.032796331581052,-0.052278151134024765
1783423363497727744,1.6572644710540771,-2.0111136436462402,-0.9275419116020203,0.21567849814891815,-0.096684530377388,-0.02638084627687931,0.994965136051178,-0.6622112989425659,0.7289260029792786,0.5471640825271606,0.04802154616886296,-0.027477935557663712,-0.9983624242182196,-0.014533756332836606,0.026383907421817974,-3.0447230079842806,-0.05631108662026934
1783423363507647744,1.667184591293335,-2.1668527126312256,-0.6975525617599487,-0.10245908796787262,-0.08894632756710052,-0.04708212986588478,0.9949230551719666,-0.5379152297973633,0.7549983859062195,0.5391345620155334,0.0438408420383034,-0.028424136219236226,-0.9983253935151575,-0.024828781114658464,0.04709954129974205,-3.0524294860632892,-0.05902980381762079
1783423363517567744,1.6771044731140137,-2.220886468887329,-0.4589993953704834,-0.2517678737640381,-0.083494171500206,-0.0693003386259079,0.9940956830978394,-0.4450855255126953,0.6513468623161316,0.5591422319412231,0.04082844698227841,-0.02774610246307041,-0.998137266430388,-0.03584977745583956,0.06935592698766105,-3.0577992449074674,-0.0584901028106267
1783423363527486720,1.687023639678955,-2.356001138687134,-0.375125527381897,-0.011753522790968418,-0.07943440228700638,-0.09180166572332382,0.9926038384437561,-0.21640297770500183,0.5887651443481445,0.5270341038703918,0.03849919580511581,-0.02770323049762915,-0.9977647231914207,-0.04707260446298187,0.0919310993902691,-3.0617365412464137,-0.059191486489430394
1783423363537406720,1.6969435214996338,-2.2812676429748535,-0.26699426770210266,-0.1982826590538025,-0.07632157951593399,-0.11546465009450912,0.990375280380249,-0.3274412453174591,0.5851301550865173,0.4011653661727905,0.03663121214515138,-0.027701111217567655,-0.9972062370156317,-0.05891163376047607,0.11572276231494148,-3.0646813695993242,-0.06000051254495769
1783423363547325696,1.706862449645996,-2.038165807723999,-0.28588101267814636,0.08435433357954025,-0.07266440242528915,-0.1368354707956314,0.9879252910614014,-0.30747783184051514,0.5517066717147827,0.24820470809936523,0.03450623892637451,-0.02792026171900577,-0.9965857287369324,-0.0696188558136913,0.13726612508466293,-3.0681723360524558,-0.06106643205462076
1783423363557245696,1.716782569885254,-2.268918514251709,0.13882391154766083,-0.12008348852396011,-0.07297408580780029,-0.15794706344604492,0.9847474098205566,-0.5569850206375122,0.7043337821960449,0.16391891241073608,0.034367578165051156,-0.02820679639062889,-0.9957801347300231,-0.08028171043781177,0.15861127509525152,-3.067623488173473,-0.06251867916190827
1783423363567165696,1.7267024517059326,-1.704464077949524,-0.28509193658828735,-0.8046216368675232,-0.07245323061943054,-0.17771923542022705,0.9814100861549377,-0.6174728870391846,0.5429384112358093,-0.0794329047203064,0.03402057496397572,-0.02634348196186561,-0.9949930039087282,-0.09020750830989308,0.17866830824252009,-3.067900700693791,-0.05954345998502816
1783423363577084672,1.736621618270874,-1.23433256149292,0.21868544816970825,-0.10616660863161087,-0.06990969926118851,-0.19269725680351257,0.9787644147872925,-0.2714751660823822,0.27985551953315735,-0.05492132902145386,0.03276665929920187,-0.024283359400841587,-0.9943804731843213,-0.09769330403219567,0.19391018399369164,-3.0702872708952325,-0.05576954515708834
1783423363587004672,1.7465415000915527,-1.4207568168640137,0.1409880369901657,-0.293873131275177,-0.07179981470108032,-0.20626556873321533,0.9758580327033997,-0.3414539694786072,0.3566714823246002,0.07716602087020874,0.033626413809452464,-0.02377380424807941,-0.9936618223447785,-0.10459515745338617,0.20775691825223672,-3.068148901439323,-0.05550195322560659
1783423363596923904,1.7564606666564941,-1.214564561843872,-0.010433971881866455,-1.1678954362869263,-0.06991331279277802,-0.2196706384420395,0.9730658531188965,-0.7188287377357483,0.6505635380744934,-0.11965692043304443,0.03292687894067114,-0.020301064982562844,-0.9930361518085601,-0.11127870075187977,0.22147685554693936,-3.0698674126811922,-0.048859914594951426
1783423363606843648,1.7663805484771729,-0.1600717157125473,0.6132669448852539,0.0887986496090889,-0.07227879017591476,-0.22600199282169342,0.9714413285255432,-0.5090810656547546,0.6361888647079468,-0.37560123205184937,0.03438036856758137,-0.01756962191221163,-0.9926791966621132,-0.11444285653855826,0.22797151238618416,-3.067325840409408,-0.04390075828664825
1783423363616762624,1.7762994766235352,-0.3219514489173889,0.2443200945854187,-1.083634376525879,-0.07563086599111557,-0.22859546542167664,0.9705795645713806,-0.5699074864387512,0.41499677300453186,-0.21226322650909424,0.03634837709589483,-0.015033340567314809,-0.9925037991071121,-0.1157115703296027,0.2306347078136421,-3.063826393373007,-0.039303704368511785
1783423363626682880,1.786219596862793,0.26751092076301575,0.0699848160147667,-0.23275813460350037,-0.07553985714912415,-0.2300063669681549,0.970253050327301,-0.08440276235342026,0.3875685930252075,-0.44226837158203125,0.03675063389938672,-0.011144075134991585,-0.9924728325746192,-0.11628805158750688,0.23208421833595944,-3.063893560129053,-0.03151780060897444
1783423363636602624,1.7961394786834717,0.13776569068431854,-0.7530480623245239,-0.7741582989692688,-0.07246190309524536,-0.22934792935848236,0.9706436395645142,-0.40690821409225464,0.6457754969596863,-0.4774031639099121,0.035497341620449666,-0.008601861963866439,-0.9925965154845618,-0.11583690477081111,0.2314077022912482,-3.067077423556383,-0.025995945312199648
1783423363646521856,1.806058645248413,1.020667552947998,0.1606156826019287,-0.38713353872299194,-0.07140076905488968,-0.22465306520462036,0.9718191623687744,-0.17414365708827972,0.27610576152801514,-0.420412540435791,0.035273551595208376,-0.005971880725845562,-0.9929118376846405,-0.11334055457692073,0.22658697844560127,-3.0682531791385768,-0.020377189230179123
1783423363656441600,1.8159785270690918,1.1878677606582642,-0.3104807138442993,-0.06582768261432648,-0.06840237230062485,-0.21261665225028992,0.9747384190559387,0.11634550243616104,0.114426389336586,-0.37650251388549805,0.03393874466195549,-0.004459610166470763,-0.9936545267160684,-0.10713953023682911,0.21425206236284194,-3.0715323976927724,-0.016513284159052358
1783423363666360576,1.825897455215454,0.9838225841522217,-0.8978404402732849,-0.4983050227165222,-0.060847677290439606,-0.20230437815189362,0.9774307608604431,-0.223789781332016,0.06866787374019623,-0.2398817539215088,0.030306864719975218,-0.002834388134864951,-0.9943376350759378,-0.10181460538626871,0.20371039091240484,-3.079420211176043,-0.012057646300666844
1783423363676280832,1.835817575454712,0.2726842761039734,-0.09198414534330368,-1.1213504076004028,-0.05421559512615204,-0.1967037171125412,0.978962779045105,-0.08987314999103546,-0.1254092901945114,0.15610790252685547,0.02739172355040201,0.001411003499539197,-0.9947257942123299,-0.09883447944661611,0.19799480872954664,-3.0862685168856765,-0.0026593287651142427
1783423363686200576,1.8457374572753906,1.0082027912139893,-0.33440592885017395,-1.1164942979812622,-0.050296906381845474,-0.19331708550453186,0.9798462390899658,0.6514016389846802,-0.13859207928180695,-0.0690796971321106,0.026032117662100177,0.007750283983466522,-0.9949186206397742,-0.09694942139793457,0.19454188483191007,-3.090306240637051,0.010573861320893488
1783423363696119808,1.855656623840332,2.108921527862549,-0.12654459476470947,-0.3010452091693878,-0.046501170843839645,-0.17717362940311432,0.9830807447433472,0.8782730102539062,-0.5276145935058594,-0.08497869968414307,0.024372895930668683,0.011471417456391823,-0.9956951165591582,-0.08868901987513754,0.1781139028371133,-3.0943264077871446,0.018819680152361684
1783423363706039552,1.8655765056610107,1.5389927625656128,-0.5157724618911743,-0.5912294983863831,-0.04508388414978981,-0.1582169532775879,0.98637455701828,1.083825945854187,-0.05587908625602722,-0.015686750411987305,0.023640074244334654,0.01284136708790215,-0.9965050802072986,-0.07908129220979357,0.15888460626906162,-3.0959177842386034,0.022134583457809193
1783423363715958528,1.875495433807373,2.0230183601379395,-1.1008074283599854,-0.8834972977638245,-0.035126231610774994,-0.14349769055843353,0.9890269041061401,1.2220768928527832,0.2567789554595947,-0.013441145420074463,0.018813366945411265,0.01669338495553904,-0.9971132199731633,-0.07164159673574536,0.14399477819627626,-3.1060916224571837,0.03091962373208148
1783423363725878784,1.8854155540466309,3.4327211380004883,-1.392714262008667,-0.6053178310394287,-0.02475612424314022,-0.11710265278816223,0.9928115010261536,1.0072084665298462,0.08255672454833984,-0.06049919128417969,0.013617118734535746,0.020751850808882033,-0.9979855255440014,-0.05838636544884342,0.11737195996339063,-3.11666244720521,0.0401166808422224
1783423363735798528,1.8953354358673096,4.917757034301758,-1.5814520120620728,-0.4367770552635193,-0.008576060645282269,-0.07221511751413345,0.9973524808883667,0.37010255455970764,-0.19348618388175964,-0.1502300500869751,0.005138646732955422,0.023480854926929424,-0.9990620091253959,-0.0360206857979738,0.072278032093338,-3.132994039633843,0.04668627264443793
1783423363745717760,1.905254602432251,3.81003999710083,-1.5507357120513916,-1.5444625616073608,0.00687881326302886,-0.028855884447693825,0.9995599389076233,0.2596464455127716,0.07179412245750427,0.1723303198814392,-0.003044428215428892,0.027307232481168304,-0.9995170227000837,-0.014518089012753824,0.028859890427154086,3.13471092040112,0.054726577294656506
1783423363755637760,1.9151744842529297,5.444991111755371,-1.479277491569519,-0.6650070548057556,0.021900344640016556,0.016502495855093002,0.9996238946914673,0.7406423687934875,0.0564650297164917,-0.40102165937423706,-0.011219580462783802,0.03325371093891865,-0.999352862498078,0.007883256781557858,-0.016503244951149548,3.1196875735500544,0.06634517775040899
1783423363765556736,1.925093650817871,5.707907199859619,-1.8988395929336548,-0.3344593644142151,0.03862706571817398,0.07542309910058975,0.9964034557342529,0.5866628289222717,0.35991016030311584,-0.6687970161437988,-0.020652054627697366,0.03528882943248376,-0.9984770506432724,0.03703917137670932,-0.07549479172437513,3.1028455630169858,0.06919242928587178
1783423363775476736,1.9350135326385498,4.493268013000488,-1.92826247215271,-1.5048843622207642,0.056786611676216125,0.12387298792600632,0.9906719923019409,0.22849172353744507,0.22103670239448547,0.027730226516723633,-0.030913631606526954,0.039798562304580995,-0.9968711476302666,0.06089671118974612,-0.12419198777469126,3.0843340072847485,0.0762434990006946
1783423363785395712,1.944932460784912,4.127729415893555,-1.4529016017913818,-1.6378111839294434,0.07256563752889633,0.16814517974853516,0.9830875992774963,0.27116909623146057,-0.16996100544929504,-0.1532995104789734,-0.040411897156170044,0.04736351199890118,-0.9946358584070962,0.08260162895613367,-0.16894775910098997,3.067912265143029,0.08892428120149995
1783423363795315712,1.95485258102417,2.098447322845459,-1.8548061847686768,-1.1013576984405518,0.08580216020345688,0.19801026582717896,0.976437509059906,0.3353709578514099,-0.008450299501419067,0.3625671863555908,-0.04850116367921582,0.05398793116748487,-0.9926248322827482,0.09710280253769588,-0.19932757140626925,3.0539451252741183,0.09990117427820193
1783423363805235712,1.9647724628448486,2.6107449531555176,-1.268615961074829,0.17088505625724792,0.10024067759513855,0.22018367052078247,0.9702940583229065,0.5072422027587891,-0.31941163539886475,0.2076842188835144,-0.05668371093557932,0.05608542794986067,-0.9909598720327388,0.10788802391517592,-0.22200275244618817,3.038648275002734,0.10158935627793984
1783423363815154688,1.97469162940979,2.103631019592285,-1.6516962051391602,-0.29530394077301025,0.11298645287752151,0.24412769079208374,0.9631384611129761,0.12189207971096039,-0.15762563049793243,0.17805105447769165,-0.06396449861687821,0.056583020734256445,-0.9891246611892721,0.1197468303696493,-0.24662006893935823,3.024815685282756,0.09979631656276512
1783423363825074688,1.9846115112304688,0.7983039021492004,-1.3172751665115356,0.014656978659331799,0.12736265361309052,0.25797227025032043,0.9577206969261169,0.24078615009784698,-0.21970322728157043,0.3263673782348633,-0.07185883849266779,0.05769898009460813,-0.9876898193661116,0.12639591435533298,-0.2609228538656327,3.009383213420194,0.09933196187083954
1783423363834993664,1.994530439376831,-0.7351964116096497,-0.6536924839019775,-0.05846836417913437,0.1365395188331604,0.25847959518432617,0.9563186168670654,0.0944175273180008,-0.48421812057495117,0.35747838020324707,-0.07664318397867337,0.05855449352503812,-0.9872845027495659,0.12635870299326848,-0.26144796849431423,2.9997749495101402,0.09980240492173094
1783423363844913664,2.004450559616089,-3.0781073570251465,-0.6800357103347778,-0.9372942447662354,0.14171214401721954,0.240724578499794,0.9601924419403076,0.27117544412612915,-0.21414372324943542,0.5239232778549194,-0.07899951551760775,0.0616117214234284,-0.9880790594603894,0.11688840937681026,-0.24311230618078247,2.9950632187155546,0.10661743733034913
1783423363854833664,2.0143704414367676,-3.25451922416687,-0.6869915723800659,-1.1396533250808716,0.1461307257413864,0.21084240078926086,0.9665356278419495,0.4982631802558899,-0.32056838274002075,0.266984760761261,-0.08090750793383408,0.06903783435004512,-0.9891923995706985,0.10092629404381627,-0.2124366567056047,2.991538900152403,0.12332984468683189
1783423363864752896,2.024289608001709,-3.5990264415740967,-0.41516274213790894,-1.142020583152771,0.14747042953968048,0.18040937185287476,0.9724737405776978,0.2742977738380432,-0.37408918142318726,0.1181178092956543,-0.0810092629139481,0.07632488483726764,-0.9901572519094982,0.0848568908346381,-0.18140264164176428,2.9910946426795113,0.1401493400801744
1783423363874672640,2.0342094898223877,-4.16408634185791,-0.22870391607284546,-0.7277256846427917,0.1494779735803604,0.14256606996059418,0.9784331321716309,0.4007081985473633,-0.024295195937156677,0.08763742446899414,-0.08085898881837271,0.08292200882883137,-0.9911309292401198,0.06515591715967303,-0.14305348490495454,2.9899920330098895,0.15605651508892668
1783423363884591872,2.044128656387329,-2.9915947914123535,-0.615678608417511,-0.4405076801776886,0.1509656310081482,0.10841961950063705,0.9825756549835205,0.3138933777809143,0.06983356922864914,-0.46931564807891846,-0.08029517257079526,0.08728487818425122,-0.991800969428861,0.04759146000600597,-0.10863316130135982,2.989142023009012,0.16725579652290146
1783423363894511616,2.054048538208008,-2.5081889629364014,-0.9110684990882874,-0.6922163367271423,0.15847958624362946,0.08261505514383316,0.9839000105857849,0.36976441740989685,0.34029754996299744,-0.44585978984832764,-0.08301913335710145,0.09105126133842871,-0.9917961850140613,0.03402768613472205,-0.08270932004067838,2.981891483023183,0.176473386619903
1783423363904430592,2.06396746635437,-1.215188980102539,-0.8365752696990967,-0.8461549282073975,0.16627240180969238,0.06472831964492798,0.9839534163475037,0.3810451626777649,0.5992579460144043,-0.4920250177383423,-0.08622068570792232,0.0962251045624976,-0.9913210613377662,0.024278274281037782,-0.06477360298343514,2.974190107313724,0.18809261145136277
1783423363914350848,2.073887586593628,1.2977049350738525,-0.9895321130752563,-0.3977312743663788,0.17406532168388367,0.0667252317070961,0.9824709296226501,0.538489580154419,0.3766341507434845,-0.5303987264633179,-0.0903250815135772,0.09938751161246168,-0.9906349357121358,0.024615959026175378,-0.0667748405811363,2.966241305528701,0.1941132313708993
1783423363924270592,2.0838074684143066,2.2895405292510986,-0.5893841981887817,-0.3977075517177582,0.18146729469299316,0.08491174876689911,0.9797242879867554,0.16461730003356934,0.1438785344362259,-0.16479814052581787,-0.09503158933349777,0.10021562795816714,-0.9898580557040391,0.033269643726744194,-0.08501411868758431,2.958445452439281,0.19398569857608058
1783423363934189824,2.093726634979248,2.977567672729492,-0.8122947812080383,0.05433421954512596,0.1875218152999878,0.11156973242759705,0.9759033918380737,0.08855542540550232,-0.21877801418304443,-0.14803797006607056,-0.09951168862158186,0.10027533691247122,-0.9888865202029398,0.04632108833674076,-0.11180250857628532,2.9517544880215394,0.19145849315189015
1783423363944109568,2.1036465167999268,2.1283857822418213,-0.6644783020019531,0.09004837274551392,0.19627241790294647,0.1363133043050766,0.9710282683372498,0.21490615606307983,-0.2244023084640503,0.16453081369400024,-0.10514686466710296,0.0979556283531841,-0.98788604635275,0.058566395344181836,-0.13673902002885682,2.942151365934274,0.18396526249499945
1783423363954028544,2.113565444946289,1.5209286212921143,-0.634452223777771,-0.4181959331035614,0.20115533471107483,0.15383939445018768,0.9674038290977478,0.23368965089321136,-0.12432888150215149,0.19598734378814697,-0.10864157094714327,0.0989906049004673,-0.9868651305905732,0.06704583835129316,-0.15445275283388948,2.936580822079162,0.1840281426739565
1783423363963948800,2.123485565185547,1.5545527935028076,-0.978606104850769,-0.15732303261756897,0.2092767357826233,0.16872580349445343,0.9631900787353516,0.4408545196056366,-0.14834004640579224,0.03891575336456299,-0.11361008315049619,0.09920401486386973,-0.9857756386142434,0.07414701759221023,-0.16953679180430484,2.927643411822402,0.18234677807391422
1783423363973868544,2.1334054470062256,1.44901704788208,-0.8597210049629211,-0.4070785343647003,0.21693749725818634,0.18358126282691956,0.9587677717208862,0.08170747756958008,0.08028893172740936,0.12752044200897217,-0.11845623260649657,0.1004912563713891,-0.9845229257406369,0.08114266623238578,-0.18462839987473526,2.919072600117354,0.1827524632826954
1783423363983787776,2.143324613571167,1.2471742630004883,-1.015571117401123,-0.19914235174655914,0.22518108785152435,0.19691917300224304,0.9542097449302673,0.20923660695552826,0.09945225715637207,0.12223672866821289,-0.12351885246940382,0.10139993187264433,-0.9832715419594792,0.08739679511150679,-0.19821456452717867,2.909845561073442,0.1823776198693336
1783423363993707776,2.1532444953918457,1.51414155960083,-0.8289003968238831,-0.24510931968688965,0.23329414427280426,0.20998221635818481,0.949463427066803,0.12640120089054108,-0.0009368956089019775,0.10415565967559814,-0.12852168733908584,0.10218765489472484,-0.9819823735871113,0.09354320795544135,-0.2115567767639018,2.900654215692746,0.1816741617317713
1783423364003626752,2.163163661956787,1.2627723217010498,-0.7730084657669067,-0.016734499484300613,0.24014779925346375,0.2241474837064743,0.9445037245750427,0.16584287583827972,-0.012569054961204529,0.1815493106842041,-0.1329035784683459,0.10223245413756926,-0.9807142263781445,0.10042342778669827,-0.22606817624978756,2.892610332224233,0.17932646666517763
1783423364013546752,2.173083543777466,0.8152173757553101,-0.6550549268722534,-0.35202860832214355,0.24628472328186035,0.23418262600898743,0.9404799342155457,0.13150763511657715,-0.10857227444648743,0.23437058925628662,-0.13672648933049078,0.10267272942444175,-0.9796419141732662,0.1051947972215337,-0.23637773249223804,2.8854725639742433,0.1782730690746347
1783423364023465728,2.183002471923828,0.6573212742805481,-0.7088913917541504,-0.03456023335456848,0.2518651783466339,0.2415100783109665,0.9371429085731506,0.2046014964580536,-0.2553650736808777,0.1512664556503296,-0.1401649102450184,0.10360238081245542,-0.97869199126397,0.10854653150612775,-0.24392169386296433,2.8790382619667265,0.1785660651992521
1783423364033385728,2.192922592163086,0.22411735355854034,-0.5499259233474731,-0.05012401193380356,0.25799560546875,0.24562643468379974,0.9344015121459961,0.1611328423023224,-0.27373307943344116,0.23327744007110596,-0.14361822597977453,0.10383300679280984,-0.9779670084103403,0.11033184559569881,-0.24816587168484866,2.872196772587934,0.17775055254526556
1783423364043305728,2.2028424739837646,-0.10325150936841965,-0.4896976947784424,0.1721993088722229,0.26301947236061096,0.2461625188589096,0.9328587055206299,0.19077694416046143,-0.282386839389801,0.24399089813232422,-0.14624550221746344,0.10379393385362168,-0.9775766771262414,0.11037688112236345,-0.24871893967753653,2.8667766551745886,0.1769892252679219
1783423364053224704,2.212761640548706,-0.3323981463909149,-0.24258537590503693,0.0332145169377327,0.26698237657546997,0.24356891214847565,0.932413637638092,0.1414954960346222,-0.2768482565879822,0.18413329124450684,-0.14810875182863173,0.10361297425397607,-0.9774820546854047,0.10889045982833766,-0.24604389855572797,2.8627195100773952,0.17650769147312423
1783423364063144704,2.2226815223693848,-0.7011784315109253,-0.2867041826248169,0.18850922584533691,0.26973843574523926,0.23855455219745636,0.9329167008399963,0.21689489483833313,-0.2873978614807129,0.15608811378479004,-0.14921277683980735,0.10360980183124772,-0.9776110514861847,0.10619496434017239,-0.24087716029845566,2.8601337426641367,0.17689032013531386
1783423364073063680,2.232600450515747,-0.9041539430618286,-0.3642841875553131,0.03149724751710892,0.2729131281375885,0.230673149228096,0.9339743256568909,0.2392480969429016,-0.1931060403585434,0.056809186935424805,-0.15038125944315014,0.10389140731582125,-0.9778515928963089,0.10197176575368823,-0.23276943180018073,2.85730134371859,0.17823501891395926
1783423364082983680,2.242520570755005,-0.7507585287094116,-0.33076202869415283,0.02804671972990036,0.2763862907886505,0.22271162271499634,0.9348849058151245,0.2864340841770172,-0.13140307366847992,-0.06916242837905884,-0.1517363783958012,0.10454070822955218,-0.9780151822719336,0.09763977208372593,-0.22459506531504236,2.854143667227901,0.18033432898342922
1783423364092903680,2.2524404525756836,-0.6136784553527832,-0.07949091494083405,-0.007866806350648403,0.27852869033813477,0.21628230810165405,0.9357582330703735,0.20889803767204285,-0.09584471583366394,-0.09872227907180786,-0.15248140856636344,0.10502009091242158,-0.9781870497206316,0.09418193211722475,-0.21800504171565135,2.8522929730690723,0.18202472116499208
1783423364102822656,2.262359619140625,-0.6923971772193909,-0.130882129073143,0.08583775162696838,0.2799043357372284,0.20973145961761475,0.9368385076522827,0.2048979103565216,-0.06780946254730225,-0.043848395347595215,-0.15280325853300408,0.10531589214929077,-0.9784313006807075,0.090730048945858,-0.21130030586753823,2.8512596708167983,0.18344535457177422
1783423364112742656,2.2722795009613037,-0.5509465336799622,-0.3577978014945984,0.02298155426979065,0.2820388376712799,0.20340843498706818,0.9375919103622437,0.21829679608345032,-0.09044766426086426,-0.07928532361984253,-0.15354677116841464,0.10577220530250495,-0.9785745773875469,0.08733441538185768,-0.2048378867317424,2.849391146309255,0.18509477129973093
1783423364122661888,2.282198667526245,-0.3232666850090027,-0.23046936094760895,0.11028692871332169,0.2855522036552429,0.19912347197532654,0.9374485611915588,0.2411659061908722,-0.06878291070461273,-0.07341963052749634,-0.15508651953177371,0.10569357071308648,-0.9785464410788542,0.08499350134401784,-0.2004634002527602,2.8459157987717285,0.18523519469193897
1783423364132581632,2.292118549346924,-0.49169057607650757,0.047433093190193176,0.032123155891895294,0.28660136461257935,0.19534224271774292,0.9379240274429321,0.14238429069519043,-0.03819192945957184,0.05166971683502197,-0.15537503534776428,0.10551749394879688,-0.9786869136133154,0.08304631259674938,-0.1966064083376454,2.8450337278467277,0.18533995290412217
1783423364142501632,2.3020384311676025,-0.6797872185707092,-0.10774515569210052,0.19204334914684296,0.28748518228530884,0.1889791488647461,0.938956618309021,0.24484822154045105,-0.1357564628124237,0.10157084465026855,-0.15544078709136894,0.10563480410463374,-0.9789379874910024,0.07974929779078725,-0.19012245852958032,2.844480251799243,0.18644570166799457
1783423364152420864,2.311957597732544,-0.8558863401412964,0.020624535158276558,0.03260468691587448,0.28813329339027405,0.1816953420639038,0.940194308757782,0.2020246982574463,-0.20383591949939728,0.06918948888778687,-0.1553134959831851,0.10556396210479457,-0.9792616686661976,0.07602887531851107,-0.18271021707977456,2.844218545263918,0.1873263947051836
1783423364162340608,2.3218774795532227,-1.3607938289642334,-0.01897742971777916,0.19341230392456055,0.28861796855926514,0.1706736981868744,0.9421092867851257,0.1969776749610901,-0.13757741451263428,0.10760372877120972,-0.15490212305474066,0.10589569001018177,-0.9797146185702159,0.07036067600277733,-0.17151336080152446,2.844317691403325,0.18959612062665218
1783423364172259840,2.331796646118164,-1.4778932332992554,0.32532429695129395,0.2758976221084595,0.28714144229888916,0.15617312490940094,0.9450711011886597,0.14106589555740356,-0.11740057170391083,0.075161874294281,-0.15324490485629627,0.10590031848914559,-0.980469620844663,0.06309005082233385,-0.15681504042230252,2.846625347810877,0.19184174705280288
1783423364182179584,2.3417165279388428,-1.6218626499176025,0.18770521879196167,0.02255348488688469,0.2851305603981018,0.14150965213775635,0.9479848146438599,0.2280072271823883,-0.06742827594280243,0.08132708072662354,-0.15133608267421625,0.10626961764477325,-0.9811723520633007,0.0557215064413828,-0.1419862537809698,2.849424599155413,0.19485135215059785
1783423364192099840,2.3516366481781006,-1.9648191928863525,0.12487218528985977,0.061455607414245605,0.2836643159389496,0.12429916858673096,0.9508334994316101,0.3381771147251129,-0.09352219104766846,0.12237811088562012,-0.14959322760429694,0.10726320674338466,-0.9817898703334033,0.04695886258705115,-0.12462149211282614,2.8516665868761857,0.19942602482604427
1783423364202018816,2.361555576324463,-2.126934289932251,0.28902414441108704,0.05405624955892563,0.2818897068500519,0.1046767309308052,0.9537197947502136,0.2787335216999054,-0.15759417414665222,0.0758671760559082,-0.1475585805344532,0.1085737172172078,-0.9823806032063341,0.036968747906840585,-0.10486883863813849,2.854206229684382,0.2049614781979556
1783423364211938560,2.3714754581451416,-2.0875251293182373,0.35398849844932556,0.2819128632545471,0.2790854871273041,0.08395488560199738,0.9565895199775696,0.3130929470062256,-0.04644874483346939,-0.005264759063720703,-0.1449067610810905,0.10924977277375084,-0.9830357314085839,0.026597622258491063,-0.08405382660925982,2.857721278205249,0.20934393128322887
1783423364221857792,2.381394624710083,-1.872192621231079,0.13934175670146942,0.16276569664478302,0.2770967185497284,0.06384702771902084,0.9587185978889465,0.32995903491973877,0.19057804346084595,-0.06243240833282471,-0.14271073531392922,0.10952034175633069,-0.9835469522716812,0.01656635364387344,-0.0638904881804493,2.8602318824035873,0.21274027863329867
1783423364231777792,2.3913145065307617,-1.3204983472824097,0.16521622240543365,0.262282133102417,0.27628812193870544,0.04815984517335892,0.9598677158355713,0.26207253336906433,0.2921416759490967,-0.1399669647216797,-0.14138637814084765,0.10958230907704967,-0.983832086756708,0.008727582875335725,-0.048178479933932414,2.8613289993177,0.21505471349956762
1783423364241696512,2.401233434677124,-0.7354660630226135,0.2263450175523758,0.40419721603393555,0.27475982904434204,0.03723476827144623,0.9607916474342346,0.15254727005958557,0.19183017313480377,-0.11699587106704712,-0.1399719741266237,0.10863352468194816,-0.984172028187067,0.003466604364218567,-0.03724337716767865,2.8630544431927256,0.2146499322264
1783423364251616768,2.411153554916382,-0.34171369671821594,0.18068698048591614,0.3447493314743042,0.27338793873786926,0.031106533482670784,0.9614007472991943,0.06805795431137085,0.050100743770599365,-0.003179311752319336,-0.13892142841768074,0.10715527234961428,-0.9844887679578016,0.0006776141614973625,-0.031111552774588973,2.864541641130418,0.21249569370863655
1783423364261536512,2.4210734367370605,-0.12709665298461914,0.4689115583896637,0.16714221239089966,0.27045390009880066,0.02785254269838333,0.9623299241065979,-0.017112255096435547,-0.01738501340150833,0.0773276686668396,-0.1372393183189392,0.10600424553824409,-0.9848492552523439,-0.0006312427735361694,-0.027856145267426417,2.867619134287165,0.21060418160467642
1783423364271455744,2.430992603302002,0.04138822853565216,0.6702491641044617,0.09849951416254044,0.2649029493331909,0.027166200801730156,0.9638925194740295,0.03616824746131897,-0.05357915163040161,0.12782824039459229,-0.1343632302155284,0.10546765429629539,-0.985303427602567,-0.0005966427762892243,-0.027169543648102003,2.8733880001464147,0.2096038217555406
1783423364281375744,2.4409124851226807,0.016327084973454475,0.8473802208900452,0.17961394786834717,0.25771790742874146,0.026965543627738953,0.9658439755439758,0.12649843096733093,-0.021945396438241005,0.22026753425598145,-0.13068293488476412,0.10475423064663728,-0.9858745001774561,-0.00020978189297152038,-0.026968812393597216,2.880836083071232,0.2081794847275693
1783423364291294720,2.450831651687622,0.15551187098026276,0.857553243637085,0.07707185298204422,0.24945873022079468,0.027433373034000397,0.9679964780807495,0.17432354390621185,-0.01609610579907894,0.2608087658882141,-0.1264961971954559,0.10396703721759354,-0.9865034679356374,0.0005729846487171367,-0.02743681454860018,2.8893743129196903,0.20652491043576915
1783423364301214720,2.460751533508301,0.009988827630877495,0.813298761844635,0.10849092900753021,0.24147926270961761,0.02768903225660324,0.9700106978416443,0.2581087350845337,0.027578294277191162,0.4281672239303589,-0.12244653631818099,0.1034804527251997,-0.9870649165323198,0.001189073965721875,-0.027692571752533993,2.897607223482617,0.2055145380073827
1783423364311134720,2.4706716537475586,-0.11314881592988968,0.6633755564689636,-0.15574844181537628,0.2341090440750122,0.026899520307779312,0.9718379378318787,0.2357395440340042,0.09778003394603729,0.5282381176948547,-0.11865738906218505,0.10366008802753224,-0.9875087607393324,0.0011642680257616222,-0.026902765609295994,2.905203390985367,0.2059816967572227
1783423364321053696,2.480590581893921,0.38454118371009827,0.6285937428474426,0.13353586196899414,0.22839972376823425,0.027665382251143456,0.9731745719909668,0.2723632752895355,0.03399539738893509,0.4898383617401123,-0.11579905861963703,0.10364892354334147,-0.9878482679501085,0.0018527575414347293,-0.027668912476828823,2.9110692504400295,0.2058793007891801
1783423364330973696,2.4905104637145996,0.715583860874176,0.7081090211868286,0.23460230231285095,0.22205370664596558,0.03256908804178238,0.9744903445243835,0.22634105384349823,-0.13725964725017548,0.48482972383499146,-0.1128347277023244,0.10217032961507837,-0.9883351601223499,0.004812318093762499,-0.0325748496598716,2.917551511703862,0.20235586953776957
1783423364340892672,2.500429630279541,0.4375033378601074,0.778592050075531,0.15189003944396973,0.21552710235118866,0.03687991574406624,0.9758010506629944,0.17375510931015015,-0.33898869156837463,0.5515273213386536,-0.10974576730072014,0.101037391370563,-0.9887830803530753,0.00743492934861553,-0.03688828212838544,2.924210786410979,0.1996345298798184
1783423364350812672,2.5103495121002197,0.3274247646331787,1.205891489982605,0.26364052295684814,0.20777611434459686,0.0381573885679245,0.9774316549301147,0.22893039882183075,-0.5519666075706482,0.48143041133880615,-0.10587342087884022,0.0993422542147165,-0.9893669473658032,0.00865299753452429,-0.03816665360647458,2.9321369014001504,0.1961366987685318
1783423364360731648,2.520268440246582,-0.5866468548774719,1.3042104244232178,-0.031204884871840477,0.1953381448984146,0.036366596817970276,0.9800617694854736,0.23048892617225647,-0.3698016405105591,0.6247358322143555,-0.09949058939695206,0.09897838410811577,-0.9900677506367761,0.00841950496576908,-0.03637461698683199,2.9448586371649,0.1956905081333979
1783423364370650880,2.5301878452301025,-0.6057392954826355,1.4150402545928955,0.05772764980792999,0.1821519285440445,0.029638102278113365,0.9828236103057861,0.3241347074508667,-0.18965701758861542,0.46537280082702637,-0.09249794953298686,0.09931606174327094,-0.990731103378115,0.005685214811603788,-0.029642443239200542,2.9583366845861323,0.19709898252355373
1783423364380570880,2.5401077270507812,-0.3449186682701111,1.4789308309555054,0.0831669270992279,0.16803337633609772,0.024920905008912086,0.9854663610458374,0.20893502235412598,0.0027127694338560104,0.39861273765563965,-0.08514841088888195,0.0988663229649622,-0.9914427063734335,0.004077030133638223,-0.02492348440961936,2.9727053767251674,0.19667240517222515
1783423364390490112,2.5500268936157227,0.17625582218170166,1.5808780193328857,-0.04844782128930092,0.15324297547340393,0.023341115564107895,0.9879127144813538,0.10778911411762238,0.1325121521949768,0.4094870686531067,-0.07763666170618286,0.09900597233536702,-0.9920454456393365,0.00401601029486344,-0.023343235730493617,2.9877011897044863,0.19714112102230294
1783423364400409856,2.5599467754364014,0.6000916361808777,1.6600944995880127,0.029063282534480095,0.13732105493545532,0.02762964367866516,0.9901410341262817,0.057503148913383484,0.09314366430044174,0.3911149501800537,-0.06986309108823059,0.09872596648739945,-0.9926347330173839,0.006968848380419554,-0.027633160889273773,3.0037833599845705,0.19635777649365022
1783423364410329088,2.5698659420013428,0.8713407516479492,1.838189959526062,-0.03883374482393265,0.12036015838384628,0.03485005348920822,0.9921182990074158,0.10420343279838562,0.08172708749771118,0.4793934226036072,-0.061725290994671424,0.09828432812666547,-0.9931763895802985,0.011436436699099132,-0.03485711357200907,3.0208662792127736,0.19517000796093098
1783423364420249088,2.5797858238220215,1.205625295639038,1.8509001731872559,0.08561767637729645,0.10229387879371643,0.04465491324663162,0.9937515258789062,0.22177229821681976,-0.07990270853042603,0.4851456880569458,-0.05317596964623323,0.09807820017073678,-0.9936077794671352,0.01722214042610952,-0.044669766307431386,3.039016851756576,0.1944874801890456
1783423364430169088,2.5897059440612793,1.3283016681671143,2.0115468502044678,0.13509760797023773,0.08339925110340118,0.05717005953192711,0.9948751330375671,0.2508750557899475,-0.1860305219888687,0.4462108612060547,-0.04432875664468602,0.09672061061634708,-0.9940234837228139,0.02444361261809963,-0.05720124723881895,3.057959332344919,0.19159959563944268
1783423364440088064,2.5996248722076416,1.1213972568511963,2.1699378490448,-0.024335328489542007,0.06317570805549622,0.06933040916919708,0.9955915212631226,0.23067805171012878,-0.19002743065357208,0.474837064743042,-0.034809990604705035,0.09595045278421944,-0.9942782594116109,0.03150543797321854,-0.06938607508278816,3.0782221627403032,0.19020930169849193
1783423364450007808,2.6095447540283203,0.9262469410896301,2.2213573455810547,-0.08766184002161026,0.04184018075466156,0.07931765913963318,0.9959706664085388,0.31297242641448975,-0.23839056491851807,0.4558417797088623,-0.02464128253230076,0.09552464172450545,-0.9944145898586467,0.03751451398885948,-0.07940106421125387,3.0996078893711463,0.18986669982380774
1783423364459927040,2.6194639205932617,0.8232338428497314,2.1001687049865723,0.03543659299612045,0.021039098501205444,0.08812978863716125,0.9958866834640503,0.38757601380348206,-0.30018118023872375,0.40767765045166016,-0.014677783706238474,0.09500769534950197,-0.9944429937578255,0.042908837616461824,-0.08824427321879061,3.1204697984413268,0.1895663733000439
1783423364469847040,2.6293838024139404,0.6022466421127319,2.307044267654419,-0.07773363590240479,-0.0005907162558287382,0.09477005898952484,0.9954990148544312,0.379542738199234,-0.32565081119537354,0.45933496952056885,-0.004202196063961357,0.09468046178701597,-0.9943767480695788,0.047252876698701984,-0.09491249261321319,-3.1409992665728743,0.18988757182980565
1783423364479767040,2.6393039226531982,0.494203120470047,2.1055221557617188,-0.0007887230021879077,-0.022523930296301842,0.09991253167390823,0.9947409629821777,0.3841572403907776,-0.3655985891819,0.4162847399711609,0.006495448638609681,0.09444996333656253,-0.9942080757461284,0.05086436399366121,-0.10007951403667271,-3.118953512638202,0.19056570977039908
1783423364489686016,2.6492228507995605,0.334273099899292,2.3820111751556396,0.16187795996665955,-0.04452741518616676,0.10428550839424133,0.993550181388855,0.36162030696868896,-0.30199363827705383,0.3859359622001648,0.01731279742915555,0.09345901203747488,-0.9940022616874561,0.05408517863777536,-0.10447546260145264,-3.096806149233194,0.18983673714443733
1783423364499606016,2.6591427326202393,0.1626787781715393,2.494260549545288,0.176405668258667,-0.06829576194286346,0.1064947247505188,0.9919652342796326,0.30386093258857727,-0.1922185868024826,0.33054471015930176,0.029153579957514487,0.0919803176184824,-0.9937415310331057,0.056281152744686216,-0.10669705603831502,-3.0728521814290515,0.18826539142934004
1783423364509524992,2.6690618991851807,0.16630919277668,2.3315351009368896,0.2236461490392685,-0.09218773245811462,0.10827475786209106,0.9898377060890198,0.34040242433547974,-0.12566974759101868,0.1675875186920166,0.04110907390869153,0.0902832298323465,-0.9933618569642557,0.05823541457756433,-0.10848744160790587,-3.0487263480637914,0.18632106402236304
1783423364519444992,2.6789817810058594,0.4073353409767151,1.9020317792892456,0.3788880407810211,-0.11223854869604111,0.1108885109424591,0.9874748587608337,0.4403787851333618,0.028759941458702087,0.013501882553100586,0.051143231392083835,0.08837785451594454,-0.9929384569464091,0.06039063589703732,-0.11111703062205815,-3.0284161766651287,0.18384601183586816
1783423364529364992,2.688901901245117,0.663932740688324,1.8013086318969727,0.5116127729415894,-0.12969741225242615,0.11734743416309357,0.9845854043960571,0.34760814905166626,0.03699523210525513,-0.14301729202270508,0.059799908498382334,0.08556710205047936,-0.9924570403008833,0.06427544729909089,-0.11761843389673525,-3.0106188034296855,0.17973188504776388
1783423364539283968,2.6988208293914795,0.2255195826292038,1.411714792251587,0.030772732570767403,-0.14448456466197968,0.12146516889333725,0.9820234775543213,0.15774448215961456,0.03936244547367096,-0.12637180089950562,0.06716760767400161,0.08392485635933596,-0.9919517939589987,0.06690810671810898,-0.12176584845272023,-2.995511276181713,0.1777302047352289
1783423364549204224,2.7087409496307373,0.1816605180501938,1.4255967140197754,0.14157967269420624,-0.15794697403907776,0.1238369420170784,0.9796518087387085,0.15954910218715668,-0.1643947809934616,-0.2806464433670044,0.07389882922768219,0.08315481101330272,-0.9914187765158727,0.06865263824113428,-0.12415566604318888,-2.981740608281499,0.17731458715936754
1783423364559122944,2.7186598777770996,-0.1990690529346466,1.513807773590088,0.06969533115625381,-0.17206433415412903,0.12391982227563858,0.9772605299949646,-0.05610038340091705,-0.10676891356706619,-0.2554128170013428,0.08109196879974126,0.08199430814535588,-0.9909123129657227,0.06923820639610519,-0.12423918926168023,-2.9673108845691685,0.1759840944041521
1783423364569042944,2.7285797595977783,-0.48801907896995544,1.165846824645996,-0.10176058113574982,-0.1848423182964325,0.12038613110780716,0.9753669500350952,-0.1007411777973175,-0.0002231597900390625,-0.33552002906799316,0.08771557336478021,0.08149877075712408,-0.9904753555278687,0.06798935306014467,-0.1206788365844939,-2.954303149932826,0.17554282796098097
1783423364578962176,2.7384989261627197,-0.6476506590843201,0.9087802171707153,-0.15606087446212769,-0.1949487179517746,0.11420996487140656,0.9741412997245789,-0.1574072390794754,0.16012778878211975,-0.4456378221511841,0.09305611570674452,0.08163460143152187,-0.9901547531733887,0.06534491991824438,-0.11445972798657116,-2.944078188892891,0.17587341562496478
1783423364588881920,2.7484188079833984,-0.3477158546447754,0.8964356780052185,-0.060548726469278336,-0.20386196672916412,0.10889270901679993,0.9729250073432922,-0.35192418098449707,0.22046826779842377,-0.5190979242324829,0.09777403903900012,0.08165072062835042,-0.9898462851369372,0.06307007055353847,-0.10910906648868221,-2.9350457339320655,0.1759233337603581
1783423364598802176,2.7583389282226562,-0.11979912966489792,0.6283915638923645,-0.09012995660305023,-0.2118149846792221,0.10606618225574493,0.9715375304222107,-0.47626492381095886,0.32722240686416626,-0.49831628799438477,0.1019185601017878,0.08159716687289718,-0.9895002061368022,0.06200034840323183,-0.10626607185744835,-2.9269313601384646,0.17601400149443355
1783423364608720896,2.7682578563690186,0.1882266104221344,0.48476359248161316,-0.09577159583568573,-0.21716903150081635,0.1060430184006691,0.9703567624092102,-0.37058424949645996,0.2417200356721878,-0.49007129669189453,0.10461399024758151,0.08195449610874024,-0.9891723043235309,0.06226932756359866,-0.10624277166879068,-2.9214175605288784,0.17707997815317478
1783423364618640896,2.7781777381896973,0.16218236088752747,0.24608604609966278,-0.04366598278284073,-0.22064144909381866,0.10761869698762894,0.9693995714187622,-0.24261537194252014,0.15527497231960297,-0.451302707195282,0.10628467599966936,0.08244820911306672,-0.9888893153574742,0.06327536292845237,-0.10782752455891655,-2.9177988939494877,0.17849212002071807
1783423364628560128,2.7880969047546387,-0.13616225123405457,0.4765722155570984,-0.32546037435531616,-0.22423061728477478,0.10772471874952316,0.9685641527175903,-0.1391727328300476,-0.01971200853586197,-0.38251960277557373,0.1080550513974717,0.08321408287335123,-0.9886139179815667,0.06357796412973277,-0.1079341626606873,-2.9140922329941055,0.18029167320071163
1783423364638479872,2.7980167865753174,-0.3584716320037842,0.316734254360199,-0.018275339156389236,-0.22789987921714783,0.10487010329961777,0.9680206775665283,-0.0013481825590133667,-0.14066722989082336,-0.3804962635040283,0.10998361951395022,0.083995086132995,-0.988410416869114,0.062396281470557195,-0.10506328187216117,-2.9103744400213625,0.181764337031467
1783423364648400128,2.807936906814575,-0.6706729531288147,0.29171228408813477,0.03134947270154953,-0.23117028176784515,0.09999307245016098,0.9677613377571106,0.009170114994049072,-0.06981117278337479,-0.33552849292755127,0.11187119520406592,0.08350345185965637,-0.988386485458314,0.0600353892524919,-0.10016045911264994,-2.907115301169674,0.1803754566238386
1783423364658319104,2.8178558349609375,-0.5174291729927063,0.33531641960144043,-0.13774973154067993,-0.2348942756652832,0.09371296316385269,0.9674929976463318,0.01734967529773712,0.006338924169540405,-0.346277117729187,0.11401708617231861,0.08347883562008865,-0.9883206944196715,0.05704069250532117,-0.09385067781208137,-2.903414577430527,0.1797685005700085
1783423364668239104,2.8277759552001953,-0.40946170687675476,-0.21415841579437256,0.06560364365577698,-0.23458896577358246,0.0894448384642601,0.9679707884788513,0.3012089133262634,-0.0843484178185463,-0.38503938913345337,0.11404295883042607,0.08327302934110661,-0.9884588993722006,0.05485217665126973,-0.08956453587861035,-2.903825630099339,0.1787989474718049
1783423364678158080,2.8376948833465576,-0.33891621232032776,-0.3409668803215027,0.12028230726718903,-0.23119661211967468,0.08589336276054382,0.9691076874732971,0.39812785387039185,-0.1360642910003662,-0.42139387130737305,0.11249267444624454,0.08262738552884064,-0.988800566163089,0.05283336115244538,-0.08599933134523546,-2.9074035640323803,0.176861560300253
1783423364688077824,2.8476147651672363,-0.6733959913253784,-0.3074701726436615,0.04380883648991585,-0.22772884368896484,0.08087204396724701,0.9703605771064758,0.40018367767333984,-0.08557175099849701,-0.4054189920425415,0.11095137845753048,0.0821674049009398,-0.9891556020025215,0.05009586985284807,-0.08096046180528099,-2.911079444664494,0.17513373973294583
1783423364697998080,2.857534885406494,-0.2943856418132782,-0.21397137641906738,0.16291065514087677,-0.22504088282585144,0.07582159340381622,0.9713951349258423,0.38278618454933167,-0.12674015760421753,-0.5700581073760986,0.1098230045438149,0.08136975977632452,-0.9894829540460333,0.047344998069367025,-0.0758944313301678,-2.913940919314853,0.17278040314475007
1783423364707917056,2.8674538135528564,-0.14777730405330658,-0.5568768382072449,0.0802069902420044,-0.2209784984588623,0.07358361035585403,0.9724989533424377,0.4062049388885498,-0.04671289026737213,-0.5702009201049805,0.10786989868748903,0.08088269002509338,-0.9898017341230706,0.04598558709000262,-0.07365017852199496,-2.918159065607009,0.17133584700352555
1783423364717837056,2.8773739337921143,0.09880804270505905,-0.6133285760879517,0.04111754894256592,-0.21447674930095673,0.07220066338777542,0.9740570187568665,0.46765053272247314,-0.07476413249969482,-0.5895048379898071,0.10463462987693613,0.08065227667993884,-0.990213977856291,0.04497952355306912,-0.072263540822515,-2.924861977087347,0.17040494310548107
1783423364727756032,2.8872928619384766,0.13287466764450073,-0.9223995804786682,0.09484415501356125,-0.20625412464141846,0.0724344253540039,0.9758137464523315,0.43991196155548096,-0.0457925871014595,-0.5832967162132263,0.10045893757107603,0.08061893838675431,-0.990660110365623,0.04473391469948212,-0.07249791480297331,-2.933292241113568,0.1699815248096944
1783423364737676032,2.8972127437591553,0.41044628620147705,-1.105576992034912,-0.016349906101822853,-0.1961221545934677,0.0748947337269783,0.9777150750160217,0.3579263687133789,0.008464030921459198,-0.608132004737854,0.09522716956144481,0.08077673846057602,-0.9911269581668676,0.04554361740926345,-0.07496492781254255,-2.9436275927818842,0.17008831277610637
1783423364747596032,2.907132863998413,0.502875566482544,-1.1680309772491455,0.0654943585395813,-0.18472406268119812,0.07917848974466324,0.9795955419540405,0.3217785358428955,0.04397518187761307,-0.5116544365882874,0.08928123390861764,0.08115953078445201,-0.9915699229537489,0.04723345098716634,-0.07926145829371478,-2.9552095418756372,0.1707467500840266
1783423364757515008,2.9170517921447754,0.5958211421966553,-1.207400918006897,-0.10566876828670502,-0.17344489693641663,0.08448860794305801,0.9812129735946655,0.24989140033721924,-0.002030104398727417,-0.428936243057251,0.08334826565190814,0.08182525879829121,-0.9919229440907608,0.0494638185819802,-0.084589448408984,-2.9666341802927443,0.17203355185813127
1783423364767435008,2.926971912384033,0.5560998320579529,-1.3283240795135498,0.13378110527992249,-0.16057631373405457,0.09024129062891006,0.9828894138336182,0.31166887283325195,-0.09451375901699066,-0.36048346757888794,0.07661983394920122,0.08215849798546367,-0.992317831849555,0.051813658543542494,-0.09036422455155427,-2.979651584533945,0.1725500849216773
1783423364777353984,2.9368908405303955,0.20916858315467834,-1.4450342655181885,0.01709340512752533,-0.14705327153205872,0.09411545842885971,0.9846406579017639,0.3005262017250061,-0.0974876657128334,-0.28266024589538574,0.06965265092315043,0.08235214300735816,-0.9927428974008937,0.053179706551634294,-0.09425495994888156,-2.9933412546339118,0.1725339848897646
1783423364787273984,2.946810722351074,0.007204558700323105,-1.4265589714050293,0.04182591289281845,-0.13324420154094696,0.0951543003320694,0.9865049719810486,0.30138078331947327,-0.1614079475402832,-0.27579617500305176,0.06266313488655237,0.08256854792200215,-0.9931943087801957,0.05311262252435484,-0.09529848220312269,-3.007338193879306,0.17229880528539493
1783423364797192960,2.9567298889160156,-0.16953380405902863,-1.4143775701522827,0.12874174118041992,-0.11914913356304169,0.09428080916404724,0.9883900284767151,0.2756890654563904,-0.23174723982810974,-0.2580585479736328,0.05562709849271442,0.08258552393394247,-0.993667266977322,0.05206410485052917,-0.09442104405739636,-3.0216228463451906,0.17151739268366886
1783423364807112960,2.9666497707366943,-0.2819279730319977,-1.4281455278396606,0.22421181201934814,-0.1049264520406723,0.09191487729549408,0.9902235269546509,0.23816616833209991,-0.20301410555839539,-0.21963918209075928,0.04862717819269096,0.08199484758141203,-0.9941773482488551,0.05023712845395751,-0.09204479010270064,-3.0360241962159327,0.169444135537236
1783423364817032960,2.976569890975952,-0.42240214347839355,-1.4399125576019287,0.09488557279109955,-0.09063205868005753,0.0885063037276268,0.9919437170028687,0.19701634347438812,-0.1256767213344574,-0.15156596899032593,0.041634735072301365,0.08149903031583104,-0.9946505725142589,0.04790259265847422,-0.08862226094587808,-3.0504774944816093,0.16755227580215956
1783423364826951936,2.9864888191223145,-0.29095327854156494,-1.4453840255737305,0.18420293927192688,-0.07636189460754395,0.08511008322238922,0.9934406876564026,0.22013023495674133,-0.15716210007667542,-0.17550891637802124,0.03465698399921637,0.08105126415519906,-0.9950633384044649,0.04558909343270555,-0.08521317504158504,-3.0648774215770147,0.16582002154919348
1783423364836872192,2.9964089393615723,-0.08949122577905655,-1.431536078453064,0.24831818044185638,-0.06209408491849899,0.0831204503774643,0.9946029186248779,0.2287658452987671,-0.125860333442688,-0.17915815114974976,0.027643561141677524,0.08026546771834679,-0.9954189586180783,0.043980524765784394,-0.08321646172661183,-3.079242544349985,0.16351815135774192
1783423364846790912,3.0063278675079346,-0.007531111128628254,-1.4097061157226562,0.2687115967273712,-0.04805336147546768,0.08286983519792557,0.9954013228416443,0.21823462843894958,-0.05407647788524628,-0.15940260887145996,0.02068305107954493,0.07934628624499782,-0.995693143401775,0.04326236459989584,-0.08296497751467642,-3.0933547410212014,0.16104547968200653
1783423364856710912,3.0162477493286133,0.03313529118895531,-1.2627235651016235,0.28542542457580566,-0.034561969339847565,0.0830715224146843,0.9959442615509033,0.19197162985801697,-0.0820033997297287,-0.08926689624786377,0.013991985986142503,0.07817138312069453,-0.9959223703629336,0.04280407200308879,-0.08316736223029311,-3.1069038583994066,0.15810516484777998
1783423364866630912,3.026167869567871,-0.08158303797245026,-1.2479068040847778,0.29555264115333557,-0.021738603711128235,0.08291397988796234,0.9963196516036987,0.17281587421894073,-0.15675126016139984,-0.03503119945526123,0.007650396898535883,0.07696430261911032,-0.9961105929711566,0.04220996743169376,-0.0830092733920537,-3.119777209262865,0.1551292267795497
1783423364876549888,3.0360867977142334,-0.38001713156700134,-1.1723562479019165,0.3631860017776489,-0.009223646484315395,0.08074043691158295,0.996692419052124,0.14910097420215607,-0.18947458267211914,-0.006656467914581299,0.001548980666223642,0.07551139046831215,-0.9963153342005272,0.040636916278270444,-0.08082841734649236,-3.1323386621794707,0.1516662598208884
1783423364886470144,3.046006917953491,-0.6654403209686279,-1.157355785369873,0.311697781085968,0.00258358265273273,0.07524767518043518,0.9971616864204407,0.1150006428360939,-0.22641649842262268,0.00010716915130615234,-0.004082856744028297,0.07414838421585605,-0.9965354270650592,0.03745084992703367,-0.07531886484202635,3.139001722722554,0.14844101821056896
1783423364896389120,3.0559258460998535,-0.787621021270752,-1.078742265701294,0.33470791578292847,0.014006627723574638,0.06811504811048508,0.9975789785385132,0.12484835088253021,-0.17674237489700317,-0.05032879114151001,-0.009469782555585242,0.07275384506857403,-0.9967428783194292,0.03347760222221538,-0.06816783143524748,3.1275529553645725,0.14524601209519383
1783423364906308864,3.0658457279205322,-0.8994008302688599,-1.0685497522354126,0.32782524824142456,0.024736760184168816,0.059369780123233795,0.9979292154312134,0.09094011038541794,-0.06951689720153809,-0.06323713064193726,-0.01446333273622746,0.0713466700931597,-0.9969324251482691,0.028741144481426742,-0.05940471191014447,3.116809637073704,0.14215240669413268
1783423364916229120,3.07576584815979,-0.8783788084983826,-1.0657258033752441,0.20428992807865143,0.03553009033203125,0.050796106457710266,0.9980769157409668,0.09511566162109375,-0.060943201184272766,-0.0750575065612793,-0.01951660159014836,0.07029270552368633,-0.9970443347538471,0.024097402713634534,-0.05081797697145094,3.1060091306818602,0.1398648239597657
1783423364926147840,3.0856847763061523,-0.8600932955741882,-0.9414728283882141,0.2424764633178711,0.045523665845394135,0.04192187637090683,0.9980831742286682,0.08423706889152527,-0.004492070525884628,-0.05463230609893799,-0.024173475255699087,0.06937947808653232,-0.997109864363442,0.01933968963114264,-0.041934165748055564,3.096013149463374,0.13798124171066448
1783423364936068096,3.09560489654541,-0.8307397365570068,-0.8858157396316528,0.24553200602531433,0.05486929416656494,0.03359129652380943,0.9979285001754761,0.11892831325531006,-0.032263774424791336,-0.04048514366149902,-0.028533986164290155,0.06836376285152078,-0.9971412405309941,0.014887516639769484,-0.03359761542120984,3.0866647685575557,0.13598225020025523
1783423364945987072,3.1055238246917725,-0.88325035572052,-0.782398521900177,0.1749393194913864,0.06325295567512512,0.02465071715414524,0.9976931214332581,0.10395286232233047,-0.03528608754277229,-0.01609516143798828,-0.032405989953303564,0.06755794173850141,-0.9971371478590068,0.010165177733524423,-0.02465321384427129,3.078278183558365,0.1345162979922014
1783423364955907072,3.1154439449310303,-0.8355131149291992,-0.7253526449203491,0.14408166706562042,0.07065248489379883,0.016018753871321678,0.9973725080490112,0.10024596005678177,-0.05242622271180153,-0.01829218864440918,-0.03580685822771467,0.06692746888415388,-0.997099283963318,0.005629243820704848,-0.016019439894715236,3.0708721808543276,0.13347659038470855
1783423364965827072,3.125363826751709,-0.8180297613143921,-0.5962843894958496,0.06216204911470413,0.07723116129636765,0.007582022342830896,0.996984601020813,0.14252594113349915,0.005357434041798115,0.04265797138214111,-0.038811636974630255,0.06658467792237763,-0.9970249659816514,0.0012103516450911861,-0.007582094957315253,3.064282300705678,0.13307546105165224
1783423364975745792,3.1352827548980713,-0.6870538592338562,-0.5271865725517273,-0.02849259041249752,0.08265203982591629,0.000263624096987769,0.9965782761573792,0.15849784016609192,-0.011661941185593605,0.06952261924743652,-0.041278162633672996,0.06662164462152048,-0.9969206085603908,-0.0026262944237033336,-0.0002636240959991436,3.0588462057934818,0.13344551012295808
1783423364985666048,3.145202875137329,-0.6923599243164062,-0.4005867838859558,-0.09341593086719513,0.08740850538015366,-0.006594844162464142,0.9961504936218262,0.17933036386966705,-0.00027161184698343277,0.16388344764709473,-0.043426152756908795,0.06706031824683027,-0.9967839095484089,-0.006229628851603517,0.006594892159979659,3.054070535156491,0.13463968859422715
1783423364995585024,3.1551218032836914,-0.6071038246154785,-0.30613479018211365,-0.03437267988920212,0.09094703942537308,-0.01311188843101263,0.9957694411277771,0.18839561939239502,-0.048472583293914795,0.2687111496925354,-0.0449734895769466,0.06757185232425447,-0.9966537844399985,-0.009627100613952442,0.013112264259684625,3.050511921076804,0.1359878099777821
1783423365005505024,3.165041923522949,-0.5132854580879211,-0.17173649370670319,-0.03442914038896561,0.09310273081064224,-0.018624311313033104,0.9954824447631836,0.19367095828056335,-0.11066341400146484,0.39091598987579346,-0.045862986488052926,0.06786137285827544,-0.9965621156513826,-0.01246734171151331,0.018625387267036917,3.048338680737207,0.1368501420973393
1783423365015424000,3.1749608516693115,-0.431932270526886,-0.08205512166023254,0.0032226298935711384,0.09452212601900101,-0.02340097166597843,0.9952479004859924,0.2183288335800171,-0.17853385210037231,0.4934455156326294,-0.04640990008749301,0.068006579420793,-0.9964933830665825,-0.014908944319350392,0.0234031078895469,3.04690321896039,0.1373893779695106
1783423365025344000,3.1848807334899902,-0.4862484931945801,0.09695591032505035,-0.09570581465959549,0.09453532099723816,-0.027891244739294052,0.995130717754364,0.18383076786994934,-0.18823423981666565,0.5514543056488037,-0.0462590005252178,0.06834123685523803,-0.9964410839444325,-0.01716811956564743,0.0278948621818608,3.0468789988021157,0.13827826223246614
1783423365035264000,3.194800853729248,-0.4370324909687042,0.32743388414382935,-0.020984170958399773,0.0926743596792221,-0.032609082758426666,0.9951623678207397,0.1853407770395279,-0.18540850281715393,0.5514990091323853,-0.045159614770212374,0.0687509013670456,-0.9964208381208579,-0.01947902392830093,0.03261486417908049,3.0487355927264046,0.1392928322721233
1783423365045182976,3.2047197818756104,-0.398088276386261,0.6437918543815613,0.0016409785021096468,0.08818502724170685,-0.03694338724017143,0.9954186677932739,0.20930030941963196,-0.18287472426891327,0.6033055186271667,-0.04276004356847083,0.06900615583672082,-0.9964675088600401,-0.021498342196376807,0.036951795165280896,3.053232445973555,0.13991457459818296
1783423365055102976,3.214639902114868,-0.34892866015434265,0.8558980226516724,0.1022830680012703,0.08088038116693497,-0.0409732311964035,0.9958813190460205,0.29762914776802063,-0.2163204699754715,0.614088773727417,-0.038970950004879046,0.06890444278828903,-0.9965906026273486,-0.023251159126892948,0.04098470319961507,3.0605556299054264,0.1397224058338898
1783423365065021952,3.2245588302612305,-0.21437136828899384,0.903063952922821,0.21784402430057526,0.07227397710084915,-0.044193606823682785,0.9964054226875305,0.35578083992004395,-0.2702442705631256,0.5487760305404663,-0.034572438168140165,0.06832128415089,-0.9967622221712653,-0.024538285481274867,0.04420800341237433,3.069184757568842,0.13847382072095188
1783423365074942208,3.2344789505004883,0.06916626542806625,1.0716606378555298,0.30520936846733093,0.06299494206905365,-0.045763060450553894,0.996964156627655,0.31607913970947266,-0.2494487315416336,0.5386041402816772,-0.029913903352419623,0.06704671791095665,-0.9969888745357218,-0.02496232356115268,0.04577904801176229,3.0784897786623784,0.13574135290077552
1783423365084861952,3.244398832321167,0.6272194385528564,1.1659181118011475,0.27242186665534973,0.05365873500704765,-0.04430900141596794,0.9975756406784058,0.20641204714775085,-0.19102729856967926,0.5299510359764099,-0.025330276384724723,0.06569904001080505,-0.9972318959601125,-0.023884791447049962,0.04432351341233063,3.08785529998928,0.13276406115461872
1783423365094780928,3.2543177604675293,0.9886131286621094,1.3458309173583984,0.20887383818626404,0.04226917773485184,-0.03734756261110306,0.9984080195426941,0.16055065393447876,-0.15425705909729004,0.5093587636947632,-0.01989203728516484,0.06457419693217169,-0.9975140025369158,-0.02000803264075891,0.03735624854669346,3.0992813453720482,0.13008036484776273
1783423365104700928,3.264237880706787,0.8509250283241272,1.4137004613876343,0.23288889229297638,0.028866486623883247,-0.028399154543876648,0.9991797208786011,0.1773407757282257,-0.19405873119831085,0.5594597458839417,-0.013503998437261343,0.06356714444258013,-0.9977720558025284,-0.015091610905959122,0.028402972801885678,3.112710503240159,0.1276564197346383
1783423365114619904,3.2741568088531494,0.4772181808948517,1.453310251235962,0.2530045211315155,0.01492227427661419,-0.022152503952383995,0.999643087387085,0.22248922288417816,-0.28624287247657776,0.6045895218849182,-0.006755662641241106,0.06242727978689763,-0.9979601101188492,-0.011521492145962611,0.02215431608698157,3.12666615997504,0.12511230650114885
1783423365124540160,3.2840769290924072,0.09006249159574509,1.5304442644119263,0.31450650095939636,0.00020250461238902062,-0.01967199519276619,0.9998064637184143,0.2549702227115631,-0.3565944731235504,0.6229046583175659,0.0005003619265279649,0.06113985469465546,-0.9980807350566463,-0.009824261263751383,0.019673264941500266,3.1413901097810215,0.1223639400925119
1783423365134459904,3.293996810913086,-0.17799799144268036,1.5526323318481445,0.387876033782959,-0.014966783113777637,-0.0201138723641634,0.9996857643127441,0.27201634645462036,-0.34847742319107056,0.5941101312637329,0.008068712968133572,0.059449347548592164,-0.9981526241572698,-0.009594982419650412,0.02011522968972026,-3.126622284420496,0.11882763277093432
1783423365144378880,3.3039157390594482,-0.34052911400794983,1.6280813217163086,0.45952704548835754,-0.030729472637176514,-0.022893207147717476,0.9992654323577881,0.293653666973114,-0.20145677030086517,0.5707722902297974,0.015999788748626745,0.0574284355320452,-0.9981656663393469,-0.010547107785071995,0.0228952076032468,-3.1108502811914587,0.11458925681605656
1783423365154299136,3.313835859298706,-0.1695515662431717,1.706012487411499,0.48177745938301086,-0.047386281192302704,-0.025415342301130295,0.9985535144805908,0.2840806245803833,-0.0591946505010128,0.4382753372192383,0.024366769164690463,0.055134075394904766,-0.9981167244182387,-0.011385674239765869,0.02541807925656609,-3.094173303060346,0.10976126473769039
1783423365164217856,3.3237547874450684,0.22600162029266357,1.6656148433685303,0.5469349026679993,-0.06421694159507751,-0.025216734036803246,0.9976174235343933,0.305595725774765,0.0840241014957428,0.36665570735931396,0.03274855611832458,0.05273558872332711,-0.9980118644874421,-0.010903029664982043,0.025219407952645885,-3.0773110347772903,0.10477220461946361
1783423365174138112,3.333674907684326,0.5816909670829773,1.511101245880127,0.5508308410644531,-0.07992786914110184,-0.020662298426032066,0.9965861439704895,0.28978201746940613,0.11645698547363281,0.31260234117507935,0.040465856887968825,0.05005348085353262,-0.9978916324702672,-0.008323240868578392,0.02066376933194888,-3.061562289231414,0.09940711157380236
1783423365184057856,3.343594789505005,0.8302075862884521,1.6105198860168457,0.4599757492542267,-0.09531615674495697,-0.013347573578357697,0.9953573942184448,0.24743103981018066,0.041622113436460495,0.28433603048324585,0.04797864585839525,0.04781679134644131,-0.9976934704223658,-0.0043897267466751445,0.013347969581009667,-3.046123030326598,0.0951437180228781
1783423365193977088,3.3535139560699463,0.9106216430664062,1.656103253364563,0.3786886930465698,-0.11135852336883545,-0.0043044257909059525,0.9937708973884583,0.15328967571258545,-0.0466599278151989,0.3195834755897522,0.05580627797980849,0.04597152917540039,-0.9973826143784936,0.0004143717184361872,0.00430443886915583,-3.0300016398561236,0.09187872119012423
1783423365203897088,3.363433837890625,0.8174189925193787,1.7377654314041138,0.3779485821723938,-0.12805065512657166,0.004904178436845541,0.991755485534668,0.14295849204063416,-0.08495178818702698,0.38666242361068726,0.06398500202654894,0.044370020445415666,-0.9969498670037369,0.005307293029088537,-0.00490419812134814,-3.0131879008664706,0.08926813109285556
1783423365213815808,3.3733527660369873,0.6525579690933228,1.7128891944885254,0.40054115653038025,-0.14490769803524017,0.012373809702694416,0.9893677830696106,0.13448596000671387,-0.03933609277009964,0.3962828516960144,0.07231627157161499,0.0425640634800379,-0.9964297292613751,0.009298176384936354,-0.012374125791293251,-2.9961617522131534,0.08628263097001665
1783423365223736064,3.383272886276245,0.6809275150299072,1.7379770278930664,0.13893911242485046,-0.16182862222194672,0.01916198618710041,0.9866329431533813,0.07377013564109802,0.01561279408633709,0.3212132453918457,0.08071708303957477,0.0413687529300341,-0.9957936967150883,0.012974734029471977,-0.019163159444246,-2.9790191349223027,0.08460044839436626
1783423365233655808,3.393192768096924,0.8016746640205383,1.751994252204895,0.12892067432403564,-0.17863762378692627,0.02654407173395157,0.9835569262504578,0.08281242847442627,0.13887646794319153,0.258996844291687,0.089065100520355,0.040909467758140534,-0.995040139045692,0.016999958872193417,-0.026547189256831832,-2.9619270539359936,0.08457187422976895
1783423365243575040,3.4031119346618652,1.1338986158370972,1.769601583480835,0.23011545836925507,-0.19549167156219482,0.036585576832294464,0.9800227284431458,0.04738987982273102,0.20038340985774994,0.18394821882247925,0.09741640430943727,0.04012402850934789,-0.99418379595234,0.02233141025371467,-0.036593741840747616,-2.9447003406737724,0.08428834088796838
1783423365253495040,3.413031816482544,1.2054404020309448,1.6934905052185059,0.012872993014752865,-0.2119380384683609,0.04783974587917328,0.9761112928390503,0.01664082705974579,0.22513999044895172,0.21077817678451538,0.10555369052667163,0.03997227461234695,-0.9932058573398023,0.028331582188177877,-0.0478580113662904,-2.9277863947838605,0.0855847163301469
1783423365263414016,3.4229507446289062,1.3296611309051514,1.6314470767974854,0.07506100088357925,-0.22756880521774292,0.06006618216633797,0.9719077348709106,0.051573917269706726,0.14211276173591614,0.15028464794158936,0.11327450219624147,0.040173023032672145,-0.9921390954314635,0.034857683953696164,-0.06010236171252046,-2.91158966725033,0.08788298719413515
1783423365273334016,3.432870864868164,1.3224070072174072,1.6869730949401855,-0.013886582106351852,-0.2434307038784027,0.07313774526119232,0.9671570658683777,-0.03505748510360718,0.04240180552005768,0.09857797622680664,0.12112197382690089,0.040431069546634474,-0.9909308064892001,0.04184546899939964,-0.07320310813252667,-2.895017285896426,0.09063201706401464
1783423365283252992,3.4427897930145264,1.1699492931365967,1.516182541847229,-0.047048527747392654,-0.2589700520038605,0.08505526930093765,0.9621330499649048,-0.01753443479537964,-0.03358738124370575,0.03359442949295044,0.12883730304924038,0.0410384377180478,-0.9896374967297027,0.0483155864688801,-0.08515815808049103,-2.878661669588406,0.09415580640414656
1783423365293172992,3.452709913253784,1.1436970233917236,1.1356130838394165,0.1065223217010498,-0.2708573043346405,0.09608067572116852,0.9578127264976501,0.08416599035263062,-0.06357944756746292,-0.06634831428527832,0.13474782044820327,0.04104575164253161,-0.9885451979358294,0.05419192017102075,-0.09622911931530495,-2.866001120729104,0.09634971953232506
1783423365303092992,3.462629795074463,0.8333556652069092,1.0922778844833374,-0.11115061491727829,-0.2811988890171051,0.10513155907392502,0.9538736343383789,-0.08426439762115479,0.09460600465536118,-0.07443320751190186,0.13988615902603732,0.04158002494269632,-0.987526168057228,0.059119698696211656,-0.10532619229372955,-2.854916266791706,0.09937607027139385
1783423365313011968,3.472548723220825,0.931771457195282,1.0522031784057617,-0.04194185137748718,-0.29130497574806213,0.11320196092128754,0.9499088525772095,-0.24911555647850037,0.11572565138339996,-0.22137796878814697,0.1449263118006866,0.042206923714563034,-0.9864953160996166,0.06357645443682233,-0.11344514096919718,-2.844031310827662,0.10253922856283282
1783423365322931968,3.482468843460083,0.7383639216423035,0.9842631816864014,-0.2408594787120819,-0.30148884654045105,0.1205771416425705,0.9458149671554565,-0.35500532388687134,0.1267372965812683,-0.2228991985321045,0.1500072156116297,0.04317146405504269,-0.985415494869078,0.067752742934205,-0.12087124689014248,-2.833014099718097,0.10638575535631353
