time,seconds_elapsed,rotationRateX,rotationRateY,rotationRateZ,gravityX,gravityY,gravityZ,accelerationX,accelerationY,accelerationZ,quaternionW,quaternionX,quaternionY,quaternionZ,pitch,roll,yaw
1784114970415241984,0.17007899284362793,-0.6469757556915283,0.050533849745988846,-0.005509790498763323,-0.07665756344795227,0.7635276913642883,-0.6412091255187988,0.044812463223934174,-0.01506882905960083,0.12900209426879883,-0.1581277427909074,0.11522644928251954,-0.4075761348336498,0.8919642812949742,-0.8687583590766733,-0.1189868516747991,-2.84593085091481
1784114970425161216,0.17999815940856934,-0.6756201386451721,0.11293544620275497,0.04358159005641937,-0.07306374609470367,0.7719858884811401,-0.6314265727996826,-0.04069053381681442,-0.030912280082702637,0.11690020561218262,-0.15816659825998508,0.11466742072141164,-0.41368841182792254,0.8892112652157945,-0.881959512301338,-0.1151998588011781,-2.843947557479404
1784114970435080960,0.18991804122924805,-0.6329696178436279,0.1629965603351593,0.03275011479854584,-0.07089146971702576,0.7796222567558289,-0.6222246289253235,-0.07949915528297424,0.011210262775421143,0.060823261737823486,-0.1577359947126949,0.11455488130048684,-0.4192431957576235,0.8866970731807132,-0.894062453788566,-0.11344311344084758,-2.8439221183916548
1784114970445001216,0.19983816146850586,-0.571395993232727,0.16752766072750092,-0.011530531570315361,-0.07023751735687256,0.7866016626358032,-0.6134529113769531,-0.05242786556482315,0.037372887134552,0.0001564621925354004,-0.15686668131204834,0.11497572345158308,-0.42432785251595734,0.8843750501653621,-0.9052857913817297,-0.1139989550535793,-2.8459785897657643
1784114970454920960,0.20975804328918457,-0.38156330585479736,0.1196899488568306,-0.039735838770866394,-0.07091837376356125,0.792731523513794,-0.6054314970970154,-0.0020491480827331543,0.017769575119018555,-0.06954103708267212,-0.1556968770254494,0.11585542831085581,-0.4287910547813713,0.8823118440807837,-0.9152770669849175,-0.11660553304393126,-2.8497385488535634
1784114970464841216,0.21967816352844238,-0.2505251467227936,0.034943364560604095,-0.024714011698961258,-0.07211529463529587,0.7972248196601868,-0.5993596315383911,0.023821242153644562,-0.0030658841133117676,-0.07900035381317139,-0.15478898828814527,0.11687000485654987,-0.4320435099575423,0.8807497393662747,-0.9226840389599593,-0.11974494407634982,-2.8532335443007653
1784114970474759936,0.2295970916748047,-0.15370012819766998,-0.011241782456636429,-0.06796684861183167,-0.07316827028989792,0.7997769713401794,-0.5958214402198792,0.0006890371441841125,-0.01854228973388672,-0.061389803886413574,-0.15422768040279577,0.11763495331831963,-0.43387936491366913,0.8798434380917635,-0.9269235704985971,-0.12219056560216915,-2.8556626930630897
1784114970484679936,0.2395169734954834,0.021633613854646683,-0.015178468078374863,-0.11653225123882294,-0.07457666099071503,0.8005036115646362,-0.5946699380874634,-0.03067847341299057,0.04165947437286377,-0.06180894374847412,-0.15365614920714363,0.1182697020780947,-0.43437001805395953,0.8796162655409672,-0.9281350220568085,-0.1247571811024524,-2.8582166429089706
1784114970494599936,0.2494370937347412,0.292354941368103,0.0007248269394040108,-0.12254483252763748,-0.07639411836862564,0.7995396256446838,-0.5957351922988892,-0.05310724675655365,0.08727067708969116,-0.05392301082611084,-0.15306338349903995,0.11882218460787423,-0.4336054569210477,0.8800223462968713,-0.9265283339259349,-0.1275389737862293,-2.8609489653777898
1784114970504519936,0.2593569755554199,0.5070149898529053,0.042895447462797165,-0.045672688633203506,-0.07814934849739075,0.7970991730690002,-0.598770022392273,-0.07257696241140366,0.09199994802474976,-0.03187572956085205,-0.15260493567788128,0.11914659649333087,-0.43176275031193373,0.8809634845967186,-0.9224759353997257,-0.12978285268061807,-2.863115995735643
1784114970514439936,0.26927709579467773,0.6519617438316345,0.17726367712020874,0.06956411898136139,-0.07877548038959503,0.7938169240951538,-0.6030332446098328,-0.09149732440710068,0.09264236688613892,-0.0015199780464172363,-0.15246382922854335,0.11885210141445034,-0.4293687993577631,0.882196867140601,-0.9170597358519561,-0.12989652267454105,-2.863515321327753
1784114970524358912,0.27919602394104004,0.629651665687561,0.31854012608528137,0.01649957150220871,-0.07805042713880539,0.7902023196220398,-0.607855498790741,-0.09673897922039032,0.06488484144210815,0.03410977125167847,-0.15228141286675945,0.11773323373445674,-0.4268619656889028,0.883593811037273,-0.9111391054442873,-0.1277041568878137,-2.8628916815020964
1784114970534279168,0.28911614418029785,0.5909478664398193,0.46531447768211365,-0.22307443618774414,-0.07780211418867111,0.7868075370788574,-0.6122751235961914,-0.10766848921775818,-0.00023221969604492188,0.0836496353149414,-0.15105391296364137,0.11642515681982399,-0.42462643826264257,0.8850539327817292,-0.905619320263985,-0.12639313033702962,-2.8650622801147105
1784114970544198912,0.29903602600097656,0.46140265464782715,0.6238614916801453,-0.31033316254615784,-0.07870692759752274,0.7839112877845764,-0.6158638596534729,-0.036130718886852264,-0.052328646183013916,0.1268196702003479,-0.14847226451490161,0.11520959791594533,-0.42284136349005397,0.8865032056067645,-0.9009406947461545,-0.12711020190003613,-2.8712497134862995
1784114970554119168,0.3089561462402344,0.45448610186576843,0.8296025991439819,-0.15412989258766174,-0.07906404137611389,0.7820596694946289,-0.6181678175926208,0.14473788440227509,-0.05142313241958618,0.1183815598487854,-0.14548539859105059,0.11368367755380014,-0.42189109926786456,0.8876473379037477,-0.8979639414944955,-0.1272099428179246,-2.878034754648173
1784114970564038912,0.3188760280609131,0.3670680820941925,0.8164447546005249,-0.7259510159492493,-0.07802603393793106,0.7803410887718201,-0.6204673051834106,0.29760003089904785,0.054574012756347656,0.09834212064743042,-0.14197369768781726,0.11116692683296865,-0.4211986062337526,0.8888627571574823,-0.8952110319019126,-0.12509699319294992,-2.884938248715156
1784114970573959168,0.3287961483001709,1.1491063833236694,0.28699055314064026,-0.5286418795585632,-0.07992091774940491,0.7769643068313599,-0.6244511008262634,0.59864342212677,0.12490642070770264,-0.0523982048034668,-0.13792979503151173,0.10978818145918777,-0.41919088414723804,0.8906183615228023,-0.8898293380704554,-0.12729383299425906,-2.895051469195905
1784114970583878144,0.3387150764465332,1.6483901739120483,0.06956130266189575,0.673769474029541,-0.0744294673204422,0.7694345116615295,-0.6343742609024048,0.6588411331176758,0.16895043849945068,-0.04410773515701294,-0.13995857932842898,0.10656110697723423,-0.41407438410333514,0.8930837816052928,-0.8779553473117397,-0.11679341313268697,-2.8855805713449074
1784114970593797888,0.3486349582672119,1.5082284212112427,0.2554559111595154,0.1779748499393463,-0.06493661552667618,0.7610827684402466,-0.6453962326049805,0.2952375113964081,0.08910644054412842,0.13547801971435547,-0.14367200011730333,0.10180036987283077,-0.40858114803044554,0.8955761037675407,-0.8649807092825769,-0.10027763513393485,-2.8697777299930554
1784114970603718144,0.3585550785064697,1.7167125940322876,0.45330190658569336,-0.3129831552505493,-0.05820450186729431,0.7522671222686768,-0.6562823057174683,0.2620924115180969,-0.10135769844055176,0.15550410747528076,-0.14428061731873185,0.09710603212827629,-0.4030251354147508,0.8985123244182759,-0.8514963644076814,-0.08845677056183059,-2.8632912306557508
1784114970613637888,0.36847496032714844,1.926830768585205,0.6607146263122559,-0.09808313101530075,-0.04923296347260475,0.7421084046363831,-0.6684693098068237,0.48943376541137695,-0.05126672983169556,0.22372138500213623,-0.14434830296567516,0.09081654439757587,-0.3968850038553524,0.9018858638290086,-0.8362104227433157,-0.07351755897135075,-2.856857209222811
1784114970623558144,0.37839508056640625,2.10746431350708,0.6295905113220215,0.15158049762248993,-0.03671877831220627,0.7305288314819336,-0.6818940043449402,0.6202606558799744,0.1010141372680664,0.23903816938400269,-0.14565234835756424,0.08303023970988127,-0.39007559880976367,0.9053908224091035,-0.8190960441153451,-0.053796265457283936,-2.8459384682594986
1784114970633476864,0.38831400871276855,2.2073748111724854,0.5473135709762573,0.07138632237911224,-0.025080734863877296,0.7177312970161438,-0.6958683729171753,0.6426344513893127,0.1473199725151062,0.2827976942062378,-0.14717437944022504,0.07573107545074241,-0.3825318548398963,0.9089961513374131,-0.8005387186642672,-0.03602676129891046,-2.835805849483861
1784114970643396096,0.39823317527770996,2.3352222442626953,0.3451104462146759,0.10028322041034698,-0.014689894393086433,0.7036283016204834,-0.7104163765907288,0.7336382865905762,0.0510408878326416,0.22636181116104126,-0.14869561339970946,0.06900923387002722,-0.3742052171868445,0.91274193440032,-0.7804909090260722,-0.02067492003373465,-2.827112961516867
1784114970653316352,0.4081532955169678,2.1279375553131104,0.26248908042907715,0.15642549097537994,-0.005238059442490339,0.6894392967224121,-0.7243245840072632,0.6464123725891113,-0.03695821762084961,0.20515954494476318,-0.15066059406897706,0.0630220994865353,-0.3658769382963521,0.9162225152409924,-0.7607146473056648,-0.007231520538568705,-2.8185276654015308
1784114970663236096,0.4180731773376465,1.966965675354004,0.36893990635871887,0.21349729597568512,0.0037173707969486713,0.6758727431297302,-0.7370089888572693,0.5516262650489807,-0.15698236227035522,0.1788424849510193,-0.1524678890959187,0.05735791414277044,-0.3580580709372795,0.9193791933333353,-0.7421482384077994,0.005043818229887935,-2.8109457860536415
1784114970673156352,0.4279932975769043,1.7606980800628662,0.4186406135559082,0.28822022676467896,0.0124911367893219,0.662973165512085,-0.7485389709472656,0.547521710395813,-0.19048476219177246,0.20068740844726562,-0.15413207755169733,0.05185226071495421,-0.35077324705336616,0.9222325147794206,-0.7247832379736601,0.016685808894793368,-2.804068804643766
1784114970683075072,0.4379122257232666,1.8578864336013794,0.43277880549430847,0.26966971158981323,0.02084488794207573,0.650138258934021,-0.7595299482345581,0.5164781212806702,-0.136618971824646,0.1893090009689331,-0.15569087086551178,0.04656935905140033,-0.34360778825011384,0.9249462004779663,-0.707766419966229,0.0274375706323136,-2.797933716660127
1784114970692995072,0.4478321075439453,2.254725456237793,0.47043538093566895,0.2440432459115982,0.028930002823472023,0.6349735856056213,-0.7719919085502625,0.4854132831096649,-0.017862439155578613,0.17131447792053223,-0.15702918003737837,0.04111754331224902,-0.33513189260592346,0.9280827947809086,-0.6879743401368325,0.03745696239566423,-2.7929530823427973
1784114970702915072,0.4577522277832031,2.629889965057373,0.4870742857456207,0.20797471702098846,0.03713301196694374,0.6163561940193176,-0.7865914702415466,0.45761796832084656,0.10169190168380737,0.1727609634399414,-0.15821168352449178,0.03521450868334572,-0.3247525041252303,0.9318072727916132,-0.6641070174142171,0.04717246864722564,-2.788951570838624
1784114970712835072,0.46767210960388184,2.794032573699951,0.4452793598175049,0.0849449411034584,0.04486648365855217,0.5953355431556702,-0.8022235035896301,0.42074018716812134,0.13450759649276733,0.2101062536239624,-0.15909878734445052,0.029257882536787905,-0.31310096290444034,0.9358415170298153,-0.6376832032955538,0.055869457126821925,-2.7863534186665797
1784114970722755072,0.47759222984313965,2.9082982540130615,0.4542291760444641,-0.04423221945762634,0.0519355945289135,0.5729897022247314,-0.8179153203964233,0.38400799036026,0.046166181564331055,0.19796597957611084,-0.1593560521742073,0.02337343759789805,-0.3008255546198048,0.9399804931439558,-0.6101491495319141,0.06341238575637023,-2.785748695215698
1784114970732674048,0.48751115798950195,2.9288806915283203,0.4948762357234955,-0.1434590071439743,0.058584313839673996,0.5496326088905334,-0.8333498239517212,0.3465975522994995,-0.07151371240615845,0.1897341012954712,-0.15893967583485835,0.017479606040163565,-0.2881311473242946,0.9441468310310366,-0.5819244184355845,0.07018431919669932,-2.7870106018322556
1784114970742594304,0.49743127822875977,2.8444600105285645,0.4678661823272705,-0.2176634669303894,0.06467249244451523,0.5261965394020081,-0.8479001522064209,0.3129367530345917,-0.14994531869888306,0.2231595516204834,-0.1579962399998348,0.011806854984856683,-0.2755186421706194,0.9481493645460528,-0.5541215810852389,0.07612631760347922,-2.7896960689542123
1784114970752514048,0.5073511600494385,2.664963483810425,0.41565772891044617,-0.28390616178512573,0.06970897316932678,0.5033631920814514,-0.8612584471702576,0.2746361196041107,-0.2052217721939087,0.25669002532958984,-0.15666553148162926,0.006718433758889277,-0.2632976286872014,0.9518849564731466,-0.527486634962815,0.08076245615448589,-2.7935287413516603
1784114970762434304,0.5172712802886963,2.6578478813171387,0.3761151134967804,-0.36850598454475403,0.07376015931367874,0.4812142848968506,-0.8734943270683289,0.20626911520957947,-0.2712228298187256,0.31119269132614136,-0.15493834601057171,0.0021830489005032856,-0.2514917143885162,0.9553750096842365,-0.502039390727813,0.08424278063455597,-2.798427211865832
1784114970772354048,0.527191162109375,2.610673666000366,0.3744008541107178,-0.49600639939308167,0.0768030509352684,0.45865947008132935,-0.885286808013916,0.124399334192276,-0.32213911414146423,0.3226342797279358,-0.15263483194215335,-0.0019271848469129872,-0.239484598771301,0.958825314928961,-0.476486056125762,0.08653831643960005,-2.8048343955576356
1784114970782273024,0.5371100902557373,2.574622631072998,0.49775955080986023,-0.6610336899757385,0.07950691133737564,0.4365508258342743,-0.8961595892906189,0.036383599042892456,-0.3183715045452118,0.3033098578453064,-0.14951381219266963,-0.005920859918250995,-0.22778311073102986,0.9621462395217489,-0.45176131117573015,0.0884879040866611,-2.8129190891994087
1784114970792193280,0.5470302104949951,2.8563411235809326,0.6757598519325256,-0.8313600420951843,0.0829593762755394,0.41320016980171204,-0.9068535566329956,-0.0355655774474144,-0.30814340710639954,0.1983574628829956,-0.14528241424399452,-0.010526305434477542,-0.21555143868750917,0.9655670803217338,-0.4259654727327808,0.09122653829089776,-2.8231646485629653
1784114970802113024,0.5569500923156738,3.2919716835021973,0.7675023078918457,-0.960191547870636,0.08711118251085281,0.3862711489200592,-0.9182626008987427,-0.03089781105518341,-0.2390848696231842,0.16789638996124268,-0.14013734323048158,-0.015797433187747963,-0.2015418724646123,0.9692744123715233,-0.39658552579027107,0.09458216364002668,-2.8354049796462824
1784114970812033280,0.5668702125549316,3.8323190212249756,0.8206286430358887,-0.935750424861908,0.09189218282699585,0.354536771774292,-0.930515706539154,0.03159718215465546,-0.175459623336792,0.18233150243759155,-0.13454446588848687,-0.021616131834851476,-0.18513475196521176,0.9732193025573627,-0.36241860615862836,0.09843487526782042,-2.8487913814113
1784114970821953024,0.5767900943756104,4.271947860717773,0.8542518615722656,-0.9854647517204285,0.0976109728217125,0.3177078366279602,-0.9431509971618652,0.04450938105583191,-0.1459701657295227,0.20300817489624023,-0.12882867994112857,-0.028025869905145846,-0.166249938768188,0.9772301656593039,-0.32331109456625323,0.1031273727629655,-2.8626111069007765
1784114970831872256,0.5867092609405518,4.318183898925781,0.7666371464729309,-1.2578601837158203,0.10279563814401627,0.2780960202217102,-0.955036997795105,-0.016354598104953766,-0.1432541012763977,0.325154185295105,-0.12223498426083342,-0.03419924087245454,-0.1459860059523667,0.9811101337403499,-0.28181136071064117,0.10722244351218026,-2.878469817784754
1784114970841792000,0.5966291427612305,3.8586862087249756,0.738383412361145,-1.528625726699829,0.10725770890712738,0.24048665165901184,-0.9647082090377808,-0.057620882987976074,-0.15633444488048553,0.5084094405174255,-0.11423806209643377,-0.03976465524094433,-0.1267464395077188,0.9845323041323557,-0.24286718779439168,0.11072675428121714,-2.8970341304758898
1784114970851712256,0.6065492630004883,3.17930006980896,0.910656750202179,-1.7423547506332397,0.11195913702249527,0.20853817462921143,-0.9715847969055176,-0.05196157842874527,-0.18929684162139893,0.6156735420227051,-0.10499604828053627,-0.044959752108031985,-0.11039126091936943,0.9873035273747965,-0.2100800289729279,0.11472749448112263,-2.91758790906627
1784114970861632000,0.616469144821167,2.705103874206543,1.0476880073547363,-2.033514976501465,0.11905848979949951,0.18248608708381653,-0.9759733080863953,0.02141392230987549,-0.17450574040412903,0.5639707446098328,-0.094634914094469,-0.05087823887779275,-0.09708114180369737,0.9894599428631496,-0.1835144056222055,0.12138971302807464,-2.939703402638409
1784114970871552256,0.6263892650604248,2.449648380279541,1.3825503587722778,-2.4862306118011475,0.1276303231716156,0.16123726963996887,-0.9786281585693359,0.1028842180967331,-0.18256905674934387,0.5021877288818359,-0.082313501702309,-0.05723112040886065,-0.08608442136965659,0.9912307956018412,-0.16194419952069164,0.1296856266024702,-2.965350807100482
1784114970881471232,0.6363081932067871,2.1672070026397705,1.571874976158142,-2.6753501892089844,0.13862808048725128,0.14183303713798523,-0.9801355004310608,0.17483319342136383,-0.3196589946746826,0.38324224948883057,-0.06800472558124866,-0.06462692592874958,-0.07586566179516059,0.9926949063560299,-0.14231292970045464,0.1405056982479533,-2.994764844011237
1784114970891391232,0.6462283134460449,1.6122121810913086,1.7472283840179443,-2.6645259857177734,0.15174274146556854,0.1275985836982727,-0.9801493287086487,0.24410074949264526,-0.2824600338935852,0.31660568714141846,-0.05368959913728288,-0.07267994769296107,-0.06813922039396281,0.9935753691220985,-0.12794739654632556,0.15359655797760777,-3.023765240539416
1784114970901311232,0.6561481952667236,1.195475459098816,1.7268472909927368,-2.8993101119995117,0.1658112108707428,0.11802703142166138,-0.9790690541267395,0.1378539353609085,-0.2601321339607239,0.18661916255950928,-0.03902863790246752,-0.08095111268261382,-0.06254899567915907,0.9939876185283951,-0.11830279024905661,0.16776416788976425,-3.053145197344734
1784114970911231232,0.6660683155059814,0.24775676429271698,2.038684844970703,-3.1531169414520264,0.1812533140182495,0.11628398299217224,-0.9765374064445496,0.03690159320831299,-0.11173686385154724,0.22730034589767456,-0.023192861810465593,-0.08977366028623811,-0.06059698342814083,0.9938464981927696,-0.11654765560970806,0.18351973911310812,-3.084191636571453
1784114970921151232,0.6759881973266602,0.14008408784866333,2.238877296447754,-3.369870662689209,0.19864608347415924,0.12138431519269943,-0.9725253582000732,0.00898025929927826,-0.012833289802074432,0.10018038749694824,-0.00634625756766482,-0.0996197871065027,-0.06175123693466919,0.9930873504399633,-0.12168439531694213,0.20148641134314896,-3.1164964042455616
1784114970931071232,0.685908317565918,-0.007321739569306374,2.389971971511841,-3.591618537902832,0.21724262833595276,0.12754669785499573,-0.9677486419677734,0.13978250324726105,-0.06886139512062073,-0.04458039999008179,0.011455172149815427,-0.11024304746368521,-0.06302488359894204,0.9918382830845434,-0.12789507227619862,0.22082181149648747,3.13269260157421
1784114970940990208,0.6958272457122803,-0.0014297617599368095,2.352139949798584,-3.7411911487579346,0.2355363667011261,0.13624054193496704,-0.9622687697410583,0.1897718608379364,-0.02117401361465454,-0.17719656229019165,0.03031251342623523,-0.12094395114070007,-0.06510137179575975,0.9900583730776172,-0.13666557775889376,0.24005209918128245,3.096885970866573
1784114970950910208,0.705747127532959,0.4060136377811432,2.312298059463501,-3.764688491821289,0.2529144287109375,0.1435665339231491,-0.9567773938179016,0.3085479736328125,-0.11846581101417542,-0.3547918200492859,0.049578349873053484,-0.13132301858511933,-0.06607248348799377,0.9878921114917874,-0.14406434209311428,0.2584288249577495,3.0600561890554787
1784114970960830208,0.7156672477722168,0.7976732850074768,2.260530710220337,-3.5963621139526367,0.26958218216896057,0.14742544293403625,-0.9516255259513855,0.29853305220603943,-0.25791433453559875,-0.4456522464752197,0.06880183179961591,-0.14131728170053828,-0.06493572243050585,0.9854334815892102,-0.14796476793410385,0.27605317509613675,3.0227718123167806
1784114970970750208,0.7255871295928955,1.3496555089950562,2.186474561691284,-3.605942487716675,0.28587257862091064,0.14728617668151855,-0.9468809962272644,0.26620566844940186,-0.40049052238464355,-0.4780305027961731,0.08776093211559928,-0.1509381782292247,-0.061458618784190504,0.982719960291318,-0.1478239582806783,0.2932079180492635,2.985324135267035
1784114970980670208,0.7355072498321533,1.873199224472046,2.0925710201263428,-3.499321699142456,0.3018144369125366,0.1429758220911026,-0.942584753036499,0.14090406894683838,-0.4693002700805664,-0.4663965702056885,0.10694591684967872,-0.16008817890458038,-0.055492413695525204,0.9797219280603832,-0.14346748018383643,0.30988319457692814,2.9465810132621404
1784114970990589184,0.7454261779785156,2.2491507530212402,2.0395522117614746,-3.2420403957366943,0.317258358001709,0.13394783437252045,-0.9388318061828613,0.10756158828735352,-0.5062623023986816,-0.48742246627807617,0.12548635160146315,-0.1684676294835741,-0.046933659777873074,0.9765598121151561,-0.13435164640415562,0.32588082308285893,2.908116052874929
1784114971000509184,0.7553462982177734,2.357987880706787,2.1308388710021973,-3.1738061904907227,0.33364158868789673,0.12249673157930374,-0.9347073435783386,0.005042463541030884,-0.5034629106521606,-0.4490664005279541,0.1433742068974314,-0.1768783654177485,-0.03688311547913068,0.9730352483254623,-0.122805173975263,0.3428508031635898,2.8702898088396576
1784114971010429184,0.7652661800384521,2.8002207279205322,1.795836329460144,-2.9950108528137207,0.348846971988678,0.10936558991670609,-0.9307765364646912,0.02104133367538452,-0.4440518617630005,-0.46338850259780884,0.16076245955824137,-0.18423645754068943,-0.025858322183341054,0.9693007190857018,-0.10958479181856341,0.3585877005762378,2.832757245213894
1784114971020349184,0.77518630027771,2.7711827754974365,1.7536264657974243,-2.8479714393615723,0.36332178115844727,0.09406647086143494,-0.9269027709960938,0.03734347224235535,-0.30135712027549744,-0.423576295375824,0.17741629488981364,-0.19068712282532493,-0.013675565925586629,0.9653884962086478,-0.09420575353622554,0.3735682974101451,2.7959109128055917
1784114971030269184,0.7851061820983887,3.0334291458129883,1.6787365674972534,-2.9222099781036377,0.3770740032196045,0.07840891927480698,-0.9228581786155701,-0.1632373332977295,-0.3884522318840027,-0.45130258798599243,0.19403764580494198,-0.1963914338655404,-0.001141494172173461,0.9611340381553707,-0.07848948633415764,0.3878926699383452,2.758603846852828
1784114971040188160,0.795025110244751,3.1082849502563477,1.3779841661453247,-2.769796133041382,0.3899135887622833,0.06095217913389206,-0.918832004070282,-0.12033659219741821,-0.31000614166259766,-0.452566921710968,0.21057531371411364,-0.20107255371688829,0.01240318661157495,0.95659496969074,-0.0609899848195059,0.40132664616827757,2.7206529867834237
1784114971050108160,0.8049452304840088,3.0525197982788086,1.0154541730880737,-2.683675527572632,0.4000237286090851,0.043961040675640106,-0.915449857711792,-0.10708549618721008,-0.2520909309387207,-0.4272472858428955,0.2263099335687743,-0.20403270853559327,0.025411109899751504,0.9521075161632785,-0.04397521195153116,0.4119651348743678,2.6840562577343126
1784114971060028160,0.8148651123046875,3.2976250648498535,0.8029078245162964,-2.7123212814331055,0.4082574248313904,0.025942718610167503,-0.9124981164932251,-0.21611878275871277,-0.30775728821754456,-0.4628222584724426,0.2420745225509721,-0.20553268953411888,0.03882328935296144,0.9474433868843739,-0.025945628762334597,0.4206949297206347,2.6468302624391042
1784114971069948160,0.8247852325439453,3.532787561416626,0.5807559490203857,-2.670097589492798,0.41509607434272766,0.006079298444092274,-0.9097572565078735,-0.25458890199661255,-0.2556368112564087,-0.4066947102546692,0.2580578618372589,-0.20567648030457128,0.053090070627775474,0.9424885471795228,-0.006079335850902651,0.42805683847768383,2.608404636458627
1784114971079868160,0.834705114364624,3.5424466133117676,0.247947096824646,-2.6406874656677246,0.4196087121963501,-0.014896668493747711,-0.9075828790664673,-0.2704387903213501,-0.08806964010000229,-0.3498786687850952,0.2739184231773039,-0.20406452142869086,0.06757400635371683,0.9374220893505522,0.014897219581557463,0.4330655004043745,2.569737141775443
1784114971089787136,0.8446242809295654,4.0031890869140625,-0.029114333912730217,-2.546797037124634,0.42183127999305725,-0.03775271773338318,-0.905888020992279,-0.26310935616493225,0.009508710354566574,-0.46953922510147095,0.28963149158154816,-0.20059440617862917,0.0825703920291127,0.932232658401229,0.0377616917158977,0.4357960846153733,2.530768307184058
1784114971099707136,0.8545441627502441,4.1511549949646,-0.3210047781467438,-2.6483662128448486,0.4223422706127167,-0.0639476329088211,-0.9041779041290283,-0.27945899963378906,0.0686473473906517,-0.5050627589225769,0.3056570964509236,-0.19526191853446423,0.09891323064352511,0.9266405135102447,0.06399129544084504,0.4369836374007037,2.4901458499163196
1784114971109627136,0.864464282989502,3.9609365463256836,-0.44021639227867126,-2.713660478591919,0.42156538367271423,-0.08879675716161728,-0.9024398922920227,-0.30825361609458923,-0.006585940718650818,-0.5384170413017273,0.3221218392430232,-0.18895682332439345,0.1143476148305916,0.9205745034658227,0.08891386628723204,0.43701543733402953,2.448640378515172
1784114971119547136,0.8743841648101807,3.8890187740325928,-0.6170233488082886,-2.6826140880584717,0.42034074664115906,-0.11239230632781982,-0.9003785848617554,-0.30289387702941895,-0.051471829414367676,-0.5895505547523499,0.3383443933114479,-0.18219364005208918,0.12890377642532394,0.9141729957764424,0.11263028883743532,0.4367767918760238,2.407618628529694
1784114971129467136,0.8843042850494385,3.8136539459228516,-0.85906982421875,-2.5646824836730957,0.4177473187446594,-0.13536059856414795,-0.898423433303833,-0.22481518983840942,-0.06781017780303955,-0.5858142375946045,0.35415954717085624,-0.17447032546566182,0.14264773862976615,0.9076248257213636,0.13577739792962076,0.43523974192709786,2.3674578397633463
1784114971139386112,0.8942232131958008,3.8209824562072754,-1.152637243270874,-2.5006985664367676,0.413042277097702,-0.1583881676197052,-0.8968328833580017,-0.2922232151031494,-0.1115856021642685,-0.5176873803138733,0.3695255546705715,-0.16534815996927538,0.15570335222119874,0.9010368080730013,0.15905799388913522,0.4315980164971175,2.328269666691773
1784114971149306112,0.9041430950164795,4.027713775634766,-1.433245062828064,-2.4809651374816895,0.40646788477897644,-0.18206433951854706,-0.8953415155410767,-0.34021419286727905,-0.07092636823654175,-0.39192044734954834,0.38476602282794753,-0.15481047206818646,0.16841303255037957,0.8942180854663828,0.18308547324752772,0.4261594323700136,2.289201598881949
1784114971159226112,0.9140632152557373,4.553328990936279,-1.7427150011062622,-2.5044753551483154,0.3976699411869049,-0.20894746482372284,-0.8934201598167419,-0.3559981882572174,-0.02991361916065216,-0.33472925424575806,0.40051715245137254,-0.14203935264421863,0.18197458092257673,0.886733366289326,0.2104985500972162,0.41877969111031754,2.248206895058123
1784114971169146112,0.923983097076416,4.996214866638184,-2.0039753913879395,-2.339669942855835,0.38638836145401,-0.2397451400756836,-0.8906325101852417,-0.2951255738735199,0.07612515985965729,-0.21460729837417603,0.416298860992878,-0.12677839591409096,0.1964967430083037,0.8786418959500593,0.24210332442631596,0.409330859628216,2.2061682217837695
1784114971179066112,0.9339032173156738,5.658638954162598,-2.374951124191284,-2.2388880252838135,0.3721708357334137,-0.2761933505535126,-0.8861185908317566,-0.2867826521396637,0.09169930219650269,-0.13025414943695068,0.43173721550084215,-0.10842098564536327,0.2125690655693782,0.8698633633872627,0.2798311139508955,0.3976289914301632,2.1634470112749886
1784114971188985088,0.9438221454620361,6.257837772369385,-2.576798677444458,-2.1259899139404297,0.3559257984161377,-0.3190242052078247,-0.8783737421035767,-0.3106682002544403,0.1700221300125122,-0.02468717098236084,0.4469139339457077,-0.08703793395103297,0.2307326044822576,0.8599155947862167,0.32469970713297525,0.38498964023532456,2.11917061786866
1784114971198905344,0.953742265701294,6.8423261642456055,-2.6954939365386963,-1.8732490539550781,0.3390229642391205,-0.36797192692756653,-0.8658291101455688,-0.314868301153183,0.23219922184944153,0.04183924198150635,0.4611049860259753,-0.06327273051759598,0.25116129611357924,0.8487029653961421,0.37682697450794617,0.3732083117602102,2.074246598824348
1784114971208825088,0.9636621475219727,7.409513473510742,-2.7756950855255127,-1.7468856573104858,0.3221433758735657,-0.42239615321159363,-0.8472338318824768,-0.30403122305870056,0.22519156336784363,0.1297655701637268,0.4739992154671374,-0.03741011267681828,0.2738312962189937,0.8360272901402727,0.436087248234566,0.3633476412958201,2.028683045108648
1784114971218745344,0.9735822677612305,7.422494411468506,-2.747387647628784,-1.6890678405761719,0.30663207173347473,-0.478546679019928,-0.8227817416191101,-0.305304616689682,0.19259700179100037,0.3025639057159424,0.4858776433601901,-0.010680015228130356,0.29748120161046376,0.8217747024981019,0.4989988317091683,0.35673276033545886,1.981854301716509
1784114971228665088,0.9835021495819092,7.202930450439453,-2.753387451171875,-1.5873057842254639,0.2925329804420471,-0.5323001742362976,-0.7944060564041138,-0.3124762177467346,0.07174414396286011,0.41200554370880127,0.49660252064038585,0.01581980988091612,0.32022915194715595,0.8065909647726627,0.5613153748837482,0.3528319544203689,1.9351654365246607
1784114971238584320,0.9934213161468506,6.549256324768066,-2.7524499893188477,-1.5819883346557617,0.2796872854232788,-0.5812112092971802,-0.7641783952713013,-0.3455899655818939,0.050098538398742676,0.46264946460723877,0.5064309941925345,0.041448228966633194,0.34087073259353745,0.7909594467192951,0.6202162986016772,0.35085468396521785,1.8891011326283829
1784114971248504064,1.0033411979675293,5.764728546142578,-2.68003511428833,-1.4753543138504028,0.2684294581413269,-0.6227091550827026,-0.7349686622619629,-0.335949569940567,0.13458049297332764,0.5142960548400879,0.5154592470292305,0.06498524920904108,0.35817952661167474,0.7757487646218337,0.6722003262676763,0.3501739961001623,1.845192991280476
1784114971258424320,1.013261318206787,5.14453649520874,-2.6578290462493896,-1.5151997804641724,0.2586092948913574,-0.6579445004463196,-0.7072696685791016,-0.29710718989372253,0.16047745943069458,0.47908973693847656,0.5238699303601865,0.08660787116975921,0.3726449265938649,0.761048817178379,0.7180859617683157,0.3505435211526518,1.8031293245287325
1784114971268344064,1.0231812000274658,4.378273010253906,-2.619047164916992,-1.5219731330871582,0.2505001425743103,-0.686822235584259,-0.6822938323020935,-0.2366604208946228,0.25138217210769653,0.475552499294281,0.532257926090401,0.10608723883176054,0.3841856094922106,0.7468924686468081,0.7571078386093253,0.35186557826986986,1.7621110925404204
1784114971278264320,1.0331013202667236,4.029952526092529,-2.518512487411499,-1.360061764717102,0.2432650625705719,-0.711182177066803,-0.6595771312713623,-0.1663302332162857,0.19519102573394775,0.4350440502166748,0.5400802667891305,0.1239154977181035,0.39351795091591635,0.7335543084545451,0.7911784234606092,0.35334137484524913,1.7234694897527518
1784114971288183296,1.043020248413086,3.721191644668579,-2.524252414703369,-1.2752183675765991,0.23635250329971313,-0.733069896697998,-0.6377663612365723,-0.12201842665672302,0.13898426294326782,0.43966156244277954,0.5472229672523107,0.1409296882731001,0.401566469072193,0.7207150205894657,0.8228245763552741,0.3549024382177905,1.6865915996614727
1784114971298103040,1.0529401302337646,3.5503382682800293,-2.528129816055298,-1.2302091121673584,0.22969788312911987,-0.7527007460594177,-0.6169931292533875,-0.11962096393108368,0.11039727926254272,0.4267312288284302,0.5540539735133837,0.15730992390584442,0.4083589467128849,0.7081813473001921,0.8521547443956934,0.35638913381027515,1.6506768551450115
1784114971308023296,1.0628602504730225,3.7994463443756104,-2.5080649852752686,-1.1169507503509521,0.22334185242652893,-0.7720492482185364,-0.5950281023979187,-0.10899248719215393,0.07981902360916138,0.3405420184135437,0.5602840123167778,0.17382297201447136,0.41505605007707314,0.6954106268610946,0.882059160341812,0.3590746223808845,1.614268713474505
1784114971317943040,1.0727801322937012,4.032259941101074,-2.498502016067505,-1.1280382871627808,0.21742047369480133,-0.7924478650093079,-0.5698724389076233,-0.09623520076274872,0.14347636699676514,0.30894726514816284,0.5656720005061027,0.19110620455215993,0.4225425241518394,0.6818734017877777,0.9148119057643301,0.36447872847904106,1.5756260622346292
1784114971327863296,1.082700252532959,3.8738040924072266,-2.495882511138916,-1.111839771270752,0.21250605583190918,-0.8120056390762329,-0.5435879826545715,-0.13427425920963287,0.24175423383712769,0.2953886389732361,0.5707816537559828,0.20831931599919573,0.4298942398160852,0.6678339886211367,0.9475803527273131,0.37266494015902546,1.5344623280319192
1784114971337782272,1.0926191806793213,3.489561080932617,-2.4961531162261963,-1.0456063747406006,0.2080334573984146,-0.8293144702911377,-0.5186131596565247,-0.19282042980194092,0.1819298267364502,0.21589404344558716,0.5756507426596904,0.22474920992994987,0.436097703877944,0.6541657497329627,0.9778797221825437,0.3814837267289551,1.4935697998234283
1784114971347702272,1.102539300918579,2.8274617195129395,-2.554551362991333,-1.0050486326217651,0.20372901856899261,-0.8432129621505737,-0.49747994542121887,-0.20115028321743011,0.074093759059906,0.16525039076805115,0.5807955705742143,0.2397755198818317,0.44019055274575414,0.6414175064364428,1.0032322404516034,0.3886879996781405,1.454865440452782
1784114971357622272,1.1124591827392578,2.3868610858917236,-2.633309841156006,-1.0041053295135498,0.19946198165416718,-0.8537485003471375,-0.48096612095832825,-0.13571079075336456,-0.013728857040405273,0.08155205845832825,0.586450674484278,0.25326332639703786,0.4420120265531663,0.6297290033309982,1.0231424879481619,0.3931236689708183,1.4192658390823094
1784114971367542272,1.1223793029785156,2.506490707397461,-2.6288869380950928,-0.8932000994682312,0.19524022936820984,-0.8632358908653259,-0.46551573276519775,-0.04571938514709473,-0.0060877203941345215,0.0019080042839050293,0.5920763820015109,0.26639024529652416,0.44303314684510653,0.6182259011299527,1.0416451699706883,0.3971231984130944,1.3841643403166464
1784114971377462272,1.1322991847991943,3.066591501235962,-2.629615068435669,-0.8142054080963135,0.1904885172843933,-0.8741869926452637,-0.4466668367385864,0.0651267021894455,0.011332988739013672,0.0020714998245239258,0.5966414081517437,0.2807293129563359,0.4448119038925599,0.6060961031813807,1.0637590070553702,0.40311226206069084,1.347192481958073
1784114971387380992,1.1422181129455566,3.6463239192962646,-2.582146167755127,-0.7554438710212708,0.18609367311000824,-0.8872610926628113,-0.4220626652240753,0.13084663450717926,-0.08798909187316895,0.03519132733345032,0.5999008149930444,0.2967473771055638,0.44822947342384056,0.5925794285021506,1.0913731001332394,0.41527302565002383,1.304064026936474
1784114971397301248,1.1521382331848145,4.05180549621582,-2.4904849529266357,-0.650736391544342,0.18202172219753265,-0.9016128182411194,-0.3923804759979248,0.17900119721889496,-0.2730697989463806,0.026627302169799805,0.6017246542350194,0.3140727621866766,0.4529548181968007,0.5780291712033495,1.123483886354428,0.43434536327657,1.254648714428112
1784114971407220992,1.1620581150054932,4.242782115936279,-2.3806750774383545,-0.5210736393928528,0.17814578115940094,-0.9161058664321899,-0.35918542742729187,0.22343502938747406,-0.37007272243499756,-0.027487516403198242,0.6021781192480096,0.3320826911551377,0.45839760632948856,0.563004697402003,1.158257509789956,0.4604197182813188,1.1994349710425987
1784114971417141248,1.171978235244751,4.340332508087158,-2.351426839828491,-0.4318995773792267,0.17436745762825012,-0.9298849701881409,-0.32389798760414124,0.20060203969478607,-0.34069907665252686,-0.12493932247161865,0.6016028480001745,0.3504143130185822,0.46396208051983817,0.5477435588160197,1.1941000384320462,0.4938476372861394,1.1377211074866167
1784114971427060992,1.1818981170654297,4.555554389953613,-2.3821794986724854,-0.3051728904247284,0.17059281468391418,-0.9427160620689392,-0.28667864203453064,0.2031102031469345,-0.2788110375404358,-0.22269022464752197,0.6001428807210106,0.3691565358683097,0.46945088036961663,0.5321352241336044,1.2306805005183392,0.5367839193437998,1.0667733255259888
1784114971436980224,1.191817283630371,4.906289100646973,-2.3531336784362793,-0.1565599888563156,0.16641797125339508,-0.954872727394104,-0.2460143268108368,0.20327195525169373,-0.2521432042121887,-0.2350495457649231,0.5973714401985812,0.38888672155304943,0.4751420388454565,0.5159016338821845,1.2692310571630026,0.5947495675033065,0.9808870674875216
1784114971446900224,1.2017371654510498,5.163318157196045,-2.296480178833008,-0.005746545270085335,0.1619386225938797,-0.9659677147865295,-0.2016986459493637,0.1646757870912552,-0.23566198348999023,-0.14736142754554749,0.5930667336207563,0.4094673701465006,0.48113111502502215,0.4991204750277586,1.3091589024178554,0.676490993770437,0.8718307211572603
1784114971456820224,1.2116572856903076,5.419640064239502,-2.2629096508026123,0.18231311440467834,0.15706248581409454,-0.97547447681427,-0.1542101502418518,0.10172656178474426,-0.2330062985420227,-0.0737714022397995,0.5872633901202778,0.43074673829565624,0.4871880264688847,0.4818990631616016,1.348866498740663,0.7945613729014023,0.7270037021858456
1784114971466740224,1.2215771675109863,5.650650978088379,-2.204479932785034,0.3578610420227051,0.15151740610599518,-0.9830049872398376,-0.10365170985460281,0.008684635162353516,-0.20797395706176758,-0.029237091541290283,0.5798956553196533,0.4527653740978253,0.49313046913411057,0.46427029960947397,1.386170490497593,0.9708274310693762,0.5243690049266291
1784114971476660224,1.2314972877502441,5.768111705780029,-2.1776583194732666,0.5098385810852051,0.1455685943365097,-0.988034725189209,-0.050959911197423935,-0.03607158362865448,-0.18214643001556396,-0.05043476074934006,0.5711204723849844,0.47508999486204045,0.4988081203228994,0.44643168954794904,1.415946791939564,1.2340547919327496,0.23542332039162167
1784114971486579200,1.2414162158966064,5.853765964508057,-2.194934844970703,0.668343722820282,0.1391589641571045,-0.9902647137641907,0.0032288506627082825,-0.031615033745765686,-0.21058660745620728,-0.09052443504333496,0.5611806957157647,0.4977194077593296,0.5038748023815934,0.4283243266972862,1.43114591244502,1.593994770781239,-0.15029488740433716
1784114971496498944,1.2513360977172852,5.764352798461914,-2.2191762924194336,0.6894306540489197,0.13308587670326233,-0.9894346594810486,0.05750960484147072,-0.01904168725013733,-0.24573391675949097,-0.10499488562345505,0.5505912453094741,0.5201216594981325,0.5081616485635545,0.40999333425112516,1.4253039533576919,1.9786855550195415,-0.5610010782795085
1784114971506419200,1.261256217956543,5.482010841369629,-2.1103932857513428,0.77959144115448,0.12765125930309296,-0.9857078194618225,0.1099332943558693,0.044055864214897156,-0.27779620885849,-0.07860696315765381,0.5397569569545948,0.5415303697347337,0.5115774682425535,0.3920405532627996,1.401525073715082,2.2817568585762475,-0.8895051409554122
1784114971516338944,1.2711760997772217,5.323146820068359,-2.067880392074585,0.8506799936294556,0.12242737412452698,-0.9794708490371704,0.16015230119228363,0.1292358934879303,-0.29053354263305664,-0.10834871232509613,0.5286585811187765,0.5619170734904906,0.5141258120459247,0.3747587431925621,1.367819598143757,2.4889116460191776,-1.1211986239148373
1784114971526259200,1.2810962200164795,5.063472270965576,-2.0567386150360107,0.9261435866355896,0.1176062673330307,-0.9709864258766174,0.20821698009967804,0.1567925661802292,-0.25434011220932007,-0.09952867031097412,0.5175076607532254,0.5814774893151825,0.5157445325276125,0.35787905367610046,1.3293218873980919,2.6274383886906714,-1.2841467513564757
1784114971536178176,1.2910151481628418,4.665344715118408,-2.0294764041900635,0.9177985787391663,0.1133388951420784,-0.9608821868896484,0.2527047097682953,0.1367679089307785,-0.18519020080566406,-0.06770718097686768,0.5068125333998253,0.5998356073291901,0.5162844197120786,0.34174357676281536,1.2901700545786305,2.7199840857169537,-1.4009397778018446
1784114971546098176,1.3009352684020996,4.187885284423828,-2.024266004562378,0.8773360252380371,0.11024904251098633,-0.9498774409294128,0.29253748059272766,0.13245727121829987,-0.13847100734710693,-0.04409384727478027,0.4970931627585253,0.6165366099992348,0.5158985808990912,0.3265420619966757,1.252843624221002,2.7811822091782847,-1.485909221710629
1784114971556018176,1.3108551502227783,3.7914299964904785,-1.9334931373596191,0.878906786441803,0.10817675292491913,-0.938528835773468,0.32781320810317993,0.12397047132253647,-0.14751547574996948,0.008566737174987793,0.48841900113808084,0.6316846868086079,0.5146659765674957,0.3123144634849707,1.21834363111674,2.8228495138396137,-1.5508985879833763
1784114971565938176,1.3207752704620361,3.366441249847412,-1.8249473571777344,0.9166941046714783,0.10621458292007446,-0.9272642135620117,0.3590254485607147,0.18982113897800446,-0.23278510570526123,0.0673660933971405,0.48048152576825587,0.6454789531414368,0.5127081527006097,0.29937382611596197,1.1870385005220923,2.853955469352461,-1.6042835861084253
1784114971575858176,1.3306951522827148,3.023679733276367,-1.6155248880386353,0.9502078890800476,0.10405141860246658,-0.916432797908783,0.386425256729126,0.2751447558403015,-0.3265024423599243,0.09030508995056152,0.4731620241882252,0.6578844797685715,0.5102946581231658,0.28793253256089313,1.1590736087792226,2.878564504061013,-1.6494258978403729
1784114971585777408,1.3406143188476562,2.752676486968994,-1.4200470447540283,0.9855585098266602,0.10131724923849106,-0.9058822393417358,0.41123300790786743,0.37637442350387573,-0.3712480068206787,0.07535463571548462,0.4660336926915163,0.6692312375996289,0.507686960489089,0.277842090285205,1.1334581269944168,2.900029305539899,-1.689444758237153
1784114971595697152,1.350534200668335,2.5823781490325928,-1.334296464920044,1.0474690198898315,0.09806650876998901,-0.8957549929618835,0.4335966408252716,0.4856279492378235,-0.35125428438186646,0.05404376983642578,0.4592456500593793,0.6797340567498025,0.504737494670072,0.26887757188673106,1.110126664972276,2.919164961498899,-1.7258821249683718
1784114971605617408,1.3604543209075928,2.73860239982605,-1.178918719291687,1.2203398942947388,0.09396122395992279,-0.8850347399711609,0.455944299697876,0.5760369896888733,-0.35817527770996094,-0.029384732246398926,0.45190753987856735,0.6901614654791708,0.5016465972023381,0.26039887483201246,1.086568671817589,2.9383573773637455,-1.761545042994486
1784114971615537152,1.3703742027282715,3.216312885284424,-1.1538615226745605,1.5555940866470337,0.08797318488359451,-0.8723195195198059,0.48095670342445374,0.6006253957748413,-0.4218393564224243,-0.06425443291664124,0.4428571822398957,0.701602436638219,0.4982292387076477,0.2517918891532118,1.0599264404522803,2.9606796679042935,-1.8004262163009155
1784114971625457152,1.3802940845489502,3.87088942527771,-1.1611311435699463,1.8350551128387451,0.08089705556631088,-0.8560231924057007,0.5105682015419006,0.5675251483917236,-0.4596506357192993,-0.06788027286529541,0.43149058094163073,0.7146946735733775,0.49446500055661646,0.24193333126104885,1.0275268981802497,2.9844538069263544,-1.8423160344732892
1784114971635376128,1.3902132511138916,4.230195999145508,-1.0468610525131226,2.063007116317749,0.07095654308795929,-0.8361063599586487,0.543958842754364,0.481579452753067,-0.5050495266914368,-0.055509746074676514,0.41743860160823903,0.7292546448874676,0.49006843447830106,0.23187402844792948,0.9901465180438613,3.0118803740662767,-1.888099115915199
1784114971645296640,1.4001336097717285,4.299440383911133,-0.8737555742263794,2.3483901023864746,0.0586177334189415,-0.8137115240097046,0.578305721282959,0.4851139783859253,-0.5553375482559204,-0.061963558197021484,0.4017353623191791,0.7442853669092269,0.48496612541138284,0.22238671182867029,0.950509122054452,3.040576505882452,-1.9345987493719723
1784114971655216640,1.4100537300109863,4.1365766525268555,-0.6829363703727722,2.614790678024292,0.043632619082927704,-0.7899953722953796,0.6115580201148987,0.5456770658493042,-0.5399147272109985,-0.07093912363052368,0.38516464395070094,0.7592732059900347,0.4788352668581251,0.21417074239114603,0.9108014902122906,3.0703666930144915,-1.9813964559513597
1784114971665136640,1.419973611831665,3.8156542778015137,-0.6272117495536804,2.799731492996216,0.027009740471839905,-0.7661934494972229,0.642041802406311,0.593824565410614,-0.4799611568450928,-0.05775243043899536,0.36879517092209346,0.7737489998928238,0.4715224178822022,0.20728985848470116,0.8728964247173326,3.0995489379363925,-2.0273741679692185
1784114971675056640,1.4298937320709229,3.407195806503296,-0.5130001902580261,2.9215340614318848,0.009482290595769882,-0.7433137893676758,0.6688759922981262,0.5593653917312622,-0.3850279450416565,-0.04695814847946167,0.3533284565338052,0.7873794574430838,0.463110770025767,0.20179478519543873,0.8380106250661392,3.127417148450516,-2.0719322993964346
1784114971684975616,1.4398126602172852,3.049276113510132,-0.34144923090934753,2.987931489944458,-0.008989600464701653,-0.7215877771377563,0.6922643184661865,0.5064108371734619,-0.3057405948638916,-0.07811343669891357,0.33874236579967076,0.8000716740212077,0.4538914747563207,0.1977911199425324,0.8060929519371084,-3.1286075905790205,-2.1150522515523154
1784114971694895616,1.4497325420379639,2.7001421451568604,-0.2726685702800751,3.012315511703491,-0.027713961899280548,-0.7012253999710083,0.7124005556106567,0.48512670397758484,-0.27339911460876465,-0.07049393653869629,0.32520252306449865,0.8117050174714406,0.44422430679567865,0.19504603622121142,0.7771148738811622,-3.1027100415898983,-2.1560171791753664
1784114971704815616,1.4596526622772217,2.6435155868530273,-0.2630501091480255,3.121946096420288,-0.046600792557001114,-0.6811982989311218,0.7306141257286072,0.5199284553527832,-0.2566372752189636,-0.10273021459579468,0.3121771252360672,0.8227873692462512,0.43396774139770883,0.19297233198643346,0.7493982260840537,-3.0778958963427216,-2.1959407501140618
1784114971714735616,1.4695725440979004,2.807523012161255,-0.22864262759685516,3.220496416091919,-0.06568733602762222,-0.6595103740692139,0.7488200068473816,0.531843364238739,-0.24876904487609863,-0.10994970798492432,0.2985764659667826,0.8338793135399112,0.42314925117336083,0.19089821797884426,0.720167184386346,-3.054095498104067,-2.235378957725159
1784114971724655616,1.4794926643371582,3.0165627002716064,-0.16228851675987244,3.2223281860351562,-0.08470635861158371,-0.6354008316993713,0.7675225138664246,0.5177507996559143,-0.23349565267562866,-0.12105333805084229,0.28397750201602007,0.8449025276502512,0.41219044980762765,0.1886679115641896,0.6885275108452987,-3.0316741243468988,-2.273267678314533
1784114971734574592,1.4894115924835205,3.3572332859039307,-0.1667032390832901,3.2454752922058105,-0.10303489863872528,-0.6079992055892944,0.7872236371040344,0.5454787611961365,-0.24594372510910034,-0.16007202863693237,0.26802026230551196,0.8558688309911245,0.40137310999736053,0.18588546437453635,0.6535380936994609,-3.0114485437051446,-2.3087294686700397
1784114971744494592,1.4993317127227783,3.573082447052002,-0.21433718502521515,3.335580348968506,-0.12071788311004639,-0.5769374966621399,0.8078181743621826,0.5324000120162964,-0.2928439974784851,-0.17549407482147217,0.2506064422226291,0.8669345112161586,0.39029942824412045,0.18244803034969206,0.6149742263383376,-2.9932534107130486,-2.3427258566584936
1784114971754414592,1.509251594543457,3.664855718612671,-0.23374736309051514,3.3859591484069824,-0.13729147613048553,-0.5433472394943237,0.8282057642936707,0.47754722833633423,-0.308413565158844,-0.15617817640304565,0.23246704989846992,0.8778789412865002,0.37872344550394965,0.17848299372117973,0.574419137931914,-2.977316759885616,-2.3756452916246946
1784114971764334592,1.5191717147827148,3.6581244468688965,-0.1914847493171692,3.3438732624053955,-0.15279509127140045,-0.508203387260437,0.8475747108459473,0.40339019894599915,-0.2987881302833557,-0.17490631341934204,0.21399314022926022,0.8883130977367263,0.3669975481221667,0.17441204542045138,0.5330974396040864,-2.963235003410723,-2.4068477643409394
1784114971774254592,1.5290915966033936,3.2747344970703125,-0.18649983406066895,3.3526854515075684,-0.1671750843524933,-0.4735986590385437,0.8647292256355286,0.3731687664985657,-0.24994254112243652,-0.14918363094329834,0.19624475237365824,0.8979818367216217,0.3549552459248386,0.1706556172303812,0.4933722568243976,-2.9506220683260813,-2.436955701590735
1784114971784173568,1.5390105247497559,2.915165901184082,-0.1160462275147438,3.352879524230957,-0.1808653175830841,-0.4412430226802826,0.878972589969635,0.4012022316455841,-0.29490208625793457,-0.20235192775726318,0.17997827033804106,0.9067710926863014,0.3424214910163695,0.16769512126501954,0.45698334814015684,-2.9386561695886275,-2.4667959218846534
1784114971794093568,1.5489306449890137,2.3972878456115723,-0.08502040058374405,3.334313154220581,-0.19373977184295654,-0.41204389929771423,0.8903284668922424,0.46826061606407166,-0.31877586245536804,-0.22390079498291016,0.16560751723523526,0.9146675490499286,0.32946551103979815,0.16555944730227581,0.42469610173037886,-2.9273280932821675,-2.496487388543408
1784114971804013568,1.5588505268096924,1.9946235418319702,-0.07903612405061722,3.3559789657592773,-0.20596592128276825,-0.38624879717826843,0.8991050124168396,0.48709386587142944,-0.35021665692329407,-0.23797225952148438,0.15319948174088427,0.9217765849158489,0.3160386704650734,0.16424795908374706,0.39656131048071264,-2.916399333221173,-2.5264263850787145
1784114971813933568,1.5687706470489502,1.5933756828308105,-0.1373300552368164,3.3763644695281982,-0.21712571382522583,-0.3635162115097046,0.9059318900108337,0.42838361859321594,-0.3193146586418152,-0.24930036067962646,0.14265883978024652,0.9283247122828645,0.3019589032778594,0.16334797650156885,0.37203954752485047,-2.906358664804499,-2.5571031411850202
1784114971823853568,1.578690528869629,1.2793411016464233,-0.1659305840730667,3.3390285968780518,-0.22703586518764496,-0.34354954957962036,0.9112781882286072,0.36886632442474365,-0.27679643034935,-0.2648550868034363,0.13378364748512375,0.9343170488748201,0.28755999780329844,0.16267364234193366,0.35069389393548095,-2.897423552122384,-2.5879104637789343
1784114971833772544,1.5886096954345703,1.1545076370239258,-0.10422753542661667,3.2954185009002686,-0.23651309311389923,-0.32547059655189514,0.9154948592185974,0.36511412262916565,-0.24323982000350952,-0.24592375755310059,0.1259682651604968,0.9397823977677823,0.27305034110778376,0.1624335879369146,0.331509394398105,-2.888775864056655,-2.61858402624064
1784114971843692544,1.598529577255249,1.0769457817077637,-0.1485581248998642,3.2771148681640625,-0.2452450394630432,-0.3079487085342407,0.9192509055137634,0.3726864457130432,-0.2365611493587494,-0.23355156183242798,0.11856081391075987,0.9448564068212001,0.25859587231427267,0.16222767139388197,0.3130362005722902,-2.8808770648876005,-2.6486724839682845
1784114971853612544,1.6084496974945068,1.0156850814819336,-0.16752968728542328,3.299987316131592,-0.2529313862323761,-0.29093459248542786,0.9227041602134705,0.3630540668964386,-0.26315781474113464,-0.24335229396820068,0.11160065806819361,0.9496456061600833,0.24397808176380914,0.16184333631214967,0.295203551528249,-2.8740450255421575,-2.6786539183247022
1784114971863532544,1.6183695793151855,1.0642770528793335,-0.143439382314682,3.336136817932129,-0.2603585422039032,-0.2736419439315796,0.925923228263855,0.3117195963859558,-0.2569824755191803,-0.20827174186706543,0.10458441156575585,0.9541613870985474,0.22921093283904648,0.1615566890923561,0.27717745929234266,-2.8674826257407604,-2.708552297907156
1784114971873452544,1.6282896995544434,1.048240303993225,-0.09952226281166077,3.4427683353424072,-0.26760441064834595,-0.2558247447013855,0.9289462566375732,0.24254953861236572,-0.19900918006896973,-0.19005489349365234,0.09742918416149929,0.9584771624920299,0.21399686594683498,0.1613515197933031,0.2587007313568644,-2.8611135804126793,-2.7389835716163735
1784114971883371520,1.6382086277008057,0.9563800096511841,-0.13770230114459991,3.538764238357544,-0.27442869544029236,-0.23798571527004242,0.931692898273468,0.11399781703948975,-0.1549891084432602,-0.1938542127609253,0.0904259730684253,0.9625728189362904,0.19824230757476055,0.161172842034763,0.24029145727859572,-2.855144764204408,-2.770188503456545
1784114971893291520,1.6481285095214844,0.9047330617904663,-0.152602419257164,3.5838639736175537,-0.2807885408401489,-0.2206246554851532,0.934067964553833,0.029460996389389038,-0.1411002278327942,-0.23837387561798096,0.08381647567816775,0.9663906273379496,0.18199761713184334,0.16106185053907537,0.22245486442597343,-2.8495779302698185,-2.8021443202304113
1784114971903211520,1.6580486297607422,0.778689444065094,-0.022332746535539627,3.5797922611236572,-0.2867691218852997,-0.20405130088329315,0.936016321182251,-0.0031326115131378174,-0.10803671181201935,-0.298107385635376,0.07770439474211228,0.9698530812777981,0.16550877298659067,0.16110204826407495,0.2054945177267955,-2.8443003565413085,-2.834421534843643
1784114971913131520,1.667968511581421,0.5767557621002197,-0.05483955144882202,3.456897020339966,-0.2926458716392517,-0.18915234506130219,0.9373257160186768,0.020123958587646484,0.006687775254249573,-0.3164610266685486,0.07244732356198641,0.9728336541376765,0.14918956930948823,0.16151920807817974,0.19029884256499338,-2.8389686832745427,-2.866354414882257
1784114971923051520,1.6778886318206787,0.10571606457233429,-0.2125004380941391,3.3136560916900635,-0.2964402437210083,-0.17883546650409698,0.938158392906189,0.0603715181350708,0.16937501728534698,-0.31495893001556396,0.06960087077575923,0.9753452242699657,0.13334495991063464,0.16148235874724176,0.17980271377939624,-2.8355396094661476,-2.897650627856142
1784114971932970496,1.687807559967041,-0.2477988600730896,-0.289450079202652,3.1520421504974365,-0.2969813644886017,-0.17699603736400604,0.9383358955383301,-0.019394338130950928,0.26011067628860474,-0.33486616611480713,0.07114569147913932,0.977349952383577,0.1181313965517382,0.16053126075386,0.17793346016006784,-2.835069713095838,-2.9285783593351447
1784114971942890752,1.6977276802062988,-0.9018542766571045,-0.4009609520435333,2.92895245552063,-0.2978295385837555,-0.17653131484985352,0.9381548762321472,-0.11676707863807678,0.34115833044052124,-0.2939286231994629,0.0733228340596309,0.9790009810118404,0.10312381303068943,0.15983242238886614,0.17746129535876046,-2.8341926733583627,-2.9592584455114332
1784114971952810496,1.7076475620269775,-1.2255828380584717,-0.4424141049385071,2.6310014724731445,-0.29840177297592163,-0.1798563301563263,0.9373409748077393,-0.17385774850845337,0.3723764717578888,-0.27068448066711426,0.07733839281894651,0.9802063180853772,0.0886907516152424,0.1592114674987468,0.18084039962766946,-2.833387856382009,-2.9892862479103997
1784114971962730752,1.7175676822662354,-1.0498371124267578,-0.6335407495498657,2.419879674911499,-0.2976713478565216,-0.18419544398784637,0.9367306232452393,-0.19099140167236328,0.4547337293624878,-0.25573062896728516,0.08172356955323991,0.9811614889179198,0.0754151670032388,0.15797488931312403,0.18525323723430187,-2.8339076024722343,-3.016975288607714
1784114971972650496,1.727487564086914,-0.5064018368721008,-0.6843349933624268,2.240368127822876,-0.29564422369003296,-0.18531286716461182,0.9371517300605774,-0.22199487686157227,0.3808695375919342,-0.23961156606674194,0.08431349330046281,0.982133499806908,0.06316358743725514,0.15593363746678898,0.18639023570898888,-2.8360033752654883,-3.041928832261743
1784114971982569728,1.7374067306518555,0.26374551653862,-0.8307543992996216,1.9971041679382324,-0.29240450263023376,-0.18079528212547302,0.9390487670898438,-0.20574915409088135,0.2627960443496704,-0.18537145853042603,0.08376408832223971,0.9832451035646037,0.05247330162047653,0.15316387632876804,0.1817950045423396,-2.839725065743073,-3.0626827879221046
1784114971992489472,1.7473266124725342,0.5907691717147827,-1.0069184303283691,1.7900105714797974,-0.2869545817375183,-0.17174069583415985,0.9424234628677368,-0.2227347195148468,0.19832153618335724,-0.10285449028015137,0.08065222505172233,0.9845488670969945,0.043304196294252,0.14927635390603902,0.17259634969581283,-2.846025532008013,-3.0794385001858693
1784114972002409728,1.757246732711792,0.8050341606140137,-0.994536817073822,1.6793664693832397,-0.28080469369888306,-0.16049452126026154,0.9462505578994751,-0.38579073548316956,0.31402847170829773,-0.09734314680099487,0.07623914974423626,0.985848182281649,0.03505192936212105,0.1451285066698246,0.1611916501081794,-2.8531154711585467,-3.093974793591487
1784114972012329472,1.7671666145324707,0.8596206903457642,-1.0376867055892944,1.520329475402832,-0.2734431326389313,-0.14882570505142212,0.9503050446510315,-0.47463423013687134,0.6078405976295471,-0.17753899097442627,0.07146096327945647,0.9871133432675465,0.02756388603369642,0.1405019076048196,0.14938063928614898,-2.8614188752082117,-3.1068624168973833
1784114972022249728,1.7770867347717285,0.9013020992279053,-1.1625622510910034,1.2160567045211792,-0.2653520405292511,-0.13672062754631042,0.9544086456298828,-0.5935499668121338,0.8349323272705078,-0.2491016387939453,0.06630104037402491,0.9883156584268057,0.020892265277671393,0.13564613344344773,0.13715018836327336,-2.8704138042184386,-3.118060178904212
1784114972032168704,1.7870056629180908,0.9654954671859741,-1.291237711906433,0.6636377573013306,-0.2551637291908264,-0.12625984847545624,0.9586191773414612,-0.7065062522888184,0.7971124649047852,-0.27873289585113525,0.06162903618661289,0.9894624115501106,0.01654451091949069,0.12997107287203963,0.12659773770529148,-2.881446147259337,-3.1247366137418067
1784114972042088448,1.7969255447387695,1.3265912532806396,-1.1118054389953613,0.49633684754371643,-0.24394331872463226,-0.11412151157855988,0.9630512595176697,-0.5854023694992065,0.5826884508132935,-0.35617882013320923,0.055795673752862866,0.9906146278375352,0.014432341592269742,0.12394014466443616,0.11437069175876498,-2.8935081564871634,-3.1267318907052393
1784114972052008704,1.8068456649780273,1.4525065422058105,-1.2553086280822754,0.6420205235481262,-0.23410624265670776,-0.09950397908687592,0.967105507850647,-0.28644734621047974,0.4647383689880371,-0.24374741315841675,0.04874653619332479,0.9916708946688094,0.011898966291498635,0.118621163545595,0.09966891554631378,-2.9040922935642484,-3.1294973566367577
1784114972061928448,1.816765546798706,1.811990737915039,-1.5846385955810547,0.46687594056129456,-0.22030973434448242,-0.08320297300815582,0.971875011920929,-0.4125027656555176,0.5098997354507446,-0.18424677848815918,0.04077514781277313,0.9928932617771369,0.010023069230336329,0.1113549308697532,0.08329927437447457,-2.9186747329594396,-3.1307321355616615
1784114972071848704,1.8266856670379639,2.4515111446380615,-1.6274973154067993,0.1846359819173813,-0.20479412376880646,-0.06158186122775078,0.9768663048744202,-0.542901873588562,0.5547916889190674,-0.2274763584136963,0.03000785896204038,0.9941564428530059,0.009279953917606243,0.10327904865702932,0.06162085192588402,-2.9349414851300293,-3.1293159638955865
1784114972081767680,1.8366045951843262,2.735729694366455,-1.1890889406204224,0.17462408542633057,-0.19087374210357666,-0.03697000816464424,0.9809179902076721,-0.6246017217636108,0.6530436277389526,-0.016700029373168945,0.01764303576811329,0.9951712740910862,0.009650791570199348,0.09607104307908775,0.03697843483149686,-2.94940742104554,-3.125762757447082
1784114972091687680,1.846524715423584,2.6346960067749023,-0.6813215613365173,0.39370104670524597,-0.1824595034122467,-0.009386998601257801,0.9831685423851013,-0.5470021367073059,0.47352883219718933,0.06604105234146118,0.0038687519751265187,0.9957409402635605,0.009178102346651248,0.09165562774386153,0.009387136785417183,-2.9580970977667187,-3.1240221359596414
1784114972101607680,1.8564445972442627,1.7764251232147217,-1.3242990970611572,0.07665842026472092,-0.1731450855731964,0.011700336821377277,0.9848269820213318,-0.5838587284088135,0.4586213231086731,0.1702176332473755,-0.006649339827046144,0.9961596985789252,0.008908049057393522,0.08684683186223965,-0.011700604013318502,-2.967558545813373,-3.1226876095643714
1784114972111527680,1.8663647174835205,1.1469159126281738,-1.456130862236023,-0.3484113812446594,-0.1587439477443695,0.026263287290930748,0.9869706034660339,-0.4999932646751404,0.443417489528656,0.03089761734008789,-0.014018278256411892,0.9966812957156558,0.010569097848182248,0.07948761119127601,-0.02626630695780827,-2.982118864284792,-3.118285906545964
1784114972121447680,1.8762845993041992,-0.143074169754982,-0.8335434794425964,0.00892883725464344,-0.14929310977458954,0.031208673492074013,0.9883002042770386,-0.48547250032424927,0.31869062781333923,0.2700157165527344,-0.016495977559343143,0.9970069824590435,0.011277753012330995,0.07468405052786821,-0.03121374139892841,-2.991665714543276,-3.116625926562014
1784114972131366400,1.8862035274505615,-1.0402790307998657,-0.7926905751228333,-0.04199985787272453,-0.14104531705379486,0.026413997635245323,0.9896507263183594,-0.616675615310669,-6.206706166267395e-05,0.028766632080078125,-0.014052056084961077,0.9973436096484113,0.011449175626376375,0.07054917921263722,-0.026417069260242364,-3.0000257228143257,-3.116761192722544
1784114972141286656,1.8961236476898193,-2.162456750869751,-0.8521444201469421,0.40277379751205444,-0.13374470174312592,0.009941352531313896,0.9909661412239075,-0.6029648780822754,0.007041679695248604,0.19703757762908936,-0.005630580836062956,0.9976922135809714,0.009659341449575034,0.06697251990179102,-0.00994151619995263,-3.0074393326400526,-3.121562039611399
1784114972151206400,1.906043529510498,-2.903533697128296,-0.2697259783744812,0.46927371621131897,-0.12885896861553192,-0.0143507719039917,0.9915592670440674,-0.7361923456192017,0.1859511137008667,0.17875945568084717,0.00674499906958716,0.9978638407133098,0.006883892550358808,0.06461394404624038,0.014351264873660907,-3.012361020517606,-3.1287242426772
1784114972161126656,1.9159636497497559,-3.0301196575164795,-0.49453216791152954,0.2007659524679184,-0.1262698918581009,-0.044648177921772,0.9909906387329102,-0.7246212363243103,0.3019113540649414,0.07385921478271484,0.022130254118280016,0.9977376975046487,0.0038492195842125734,0.06336348101243312,0.044663024862681845,-3.0148577197102977,-3.136711243333558
1784114972171046400,1.9258835315704346,-3.8567311763763428,0.2771837115287781,0.2787840664386749,-0.12332438677549362,-0.07862634211778641,0.9892467856407166,-0.40835288166999817,0.4875161051750183,0.16532480716705322,0.039299577384315595,0.9973062079765826,0.0019297020449520338,0.06190478802499683,0.07870757945904411,-3.017567584011143,3.14057283998794
1784114972180965632,1.935802698135376,-3.1700098514556885,0.03028431534767151,-0.39413413405418396,-0.12359993904829025,-0.11427486687898636,0.9857301115989685,-0.42222219705581665,0.31379881501197815,-0.2074863314628601,0.0573130492540365,0.996426028904469,0.0004709105885638748,0.06204871817452051,0.11452505435406807,-3.016854437454559,3.1353779535892827
1784114972190885632,1.9457225799560547,-2.975156545639038,0.12459031492471695,-0.41975054144859314,-0.12469348311424255,-0.14402514696121216,0.9816865921020508,-0.12289564311504364,0.11349228024482727,-0.20171821117401123,0.07224864123968253,0.9954099559763835,0.001522922708925632,0.06274477021791977,0.14452777527437158,-3.0152495859551185,3.135494453477305
1784114972200805632,1.9556427001953125,-2.6035609245300293,0.26472267508506775,-0.9539058804512024,-0.12493833899497986,-0.1744290143251419,0.9767112731933594,0.43923887610435486,-0.1482791006565094,-0.20486074686050415,0.08748607901021346,0.9941535083164883,0.003797863926704514,0.06317075858179783,0.1753258613305212,-3.014366201976409,3.138036322165835
1784114972210725632,1.9655625820159912,-2.350900650024414,0.2254311740398407,-0.7546439170837402,-0.12607504427433014,-0.1978885978460312,0.9720830917358398,0.822516679763794,-0.0417201966047287,-0.2445439100265503,0.09918337370425222,0.9929706057406501,0.007136245950547458,0.06419658243386271,0.19920344869202536,-3.0126168567098377,-3.1401259509192356
1784114972220645632,1.975482702255249,-1.2802107334136963,-0.4033929109573364,-0.6259647607803345,-0.12412497401237488,-0.21737967431545258,0.9681628346443176,0.8329720497131348,0.18451225757598877,-0.5825121402740479,0.10893396747669101,0.9919591225055074,0.009925266085200068,0.06365553134662233,0.21912915164655372,-3.0140815366240297,-3.135627559777052
1784114972230564608,1.9854016304016113,-0.5345143675804138,-0.5307716131210327,-0.9166631698608398,-0.11754348129034042,-0.22784721851348877,0.9665761590003967,0.8244678974151611,0.2353087067604065,-0.3971942663192749,0.11406156841156215,0.9915150349736502,0.01363900271499185,0.06084368410889133,0.22986616857310815,-3.0205787674515263,-3.128069862750329
1784114972240484352,1.99532151222229,1.530104160308838,-1.0439270734786987,-0.274758905172348,-0.10687029361724854,-0.2240968942642212,0.9686894416809082,0.947705864906311,0.027868881821632385,-0.398499071598053,0.11201861682050086,0.9920024780085606,0.016607062191389608,0.0557412383344389,0.2260162562560246,-3.031712398593585,-3.1205967771631387
1784114972250404608,2.005241632461548,2.5173206329345703,-0.9248839616775513,0.5284131765365601,-0.09671308845281601,-0.2040163278579712,0.9741783738136292,1.1407041549682617,0.24651211500167847,-0.06440383195877075,0.10189101301811386,0.9933995105690143,0.01570300839533909,0.0502884684324525,0.20545879363368433,-3.042640315121925,-3.120190062835567
1784114972260324352,2.0151615142822266,3.6289114952087402,-1.762736201286316,-0.08252308517694473,-0.08515745401382446,-0.1729014366865158,0.9812507629394531,0.5496960282325745,0.5194438099861145,-0.21057522296905518,0.08621915129590456,0.9951936443538724,0.0146628795747422,0.04405468993509529,0.17377471852000004,-3.055024952622636,-3.119672695604983
1784114972270243584,2.025080680847168,4.078779697418213,-2.1989312171936035,-0.4555477797985077,-0.06569463014602661,-0.13474521040916443,0.9887000322341919,0.1468103528022766,0.3068491220474243,0.029579877853393555,0.06701617398318509,0.997037736910945,0.01630256191553586,0.034040686248704356,0.13515632264541833,-3.0752447232992632,-3.113385719976996
1784114972280163584,2.0350005626678467,4.350004196166992,-1.5237916707992554,-0.13061514496803284,-0.04837460815906525,-0.09168276190757751,0.9946126937866211,0.07671017199754715,-0.15267148613929749,0.23988449573516846,0.045470523797888955,0.9984980491988746,0.017549977212653403,0.02502289304918216,0.09181169271628542,-3.0929943235839508,-3.1086764774844484
1784114972290083584,2.0449206829071045,3.5279998779296875,-0.9659315943717957,-0.5909119248390198,-0.03788549453020096,-0.052069779485464096,0.9979248046875,-0.01535242423415184,-0.1003197580575943,0.5255739688873291,0.025667412513417632,0.9992844926856566,0.01982191276892485,0.019465452798492492,0.052093337487703346,-3.1036465980912897,-3.102914359684603
1784114972300003584,2.054840564727783,2.3609890937805176,-0.9724849462509155,-0.483298122882843,-0.028498325496912003,-0.02271943911910057,0.999335527420044,0.1627756655216217,-0.14074796438217163,0.4916311502456665,0.011031319466659313,0.9995701729512689,0.022961507115291435,0.01450869444295442,0.022721393776274183,-3.113083106173091,-3.0959818925390423
1784114972309923584,2.064760684967041,2.0230138301849365,-0.543358325958252,0.6319407820701599,-0.022001544013619423,-0.002029942348599434,0.9997557401657104,0.6329634785652161,-0.3422998785972595,0.4024810194969177,0.0007678974834786026,0.9996871203243228,0.022439322757612404,0.011021451573201373,0.0020299436602644223,-3.1195892852969185,-3.0967298296306667
1784114972319842560,2.0746796131134033,1.2357338666915894,-0.8395307660102844,0.6380594372749329,-0.014648386277258396,0.014521719887852669,0.9997872710227966,0.5698699355125427,-0.410319447517395,0.41282564401626587,-0.007402773281063624,0.9997564633982765,0.019509870993390938,0.007181514785203522,-0.014522230454983439,-3.12694219868078,-3.1024619772454463
1784114972329762816,2.084599733352661,0.744116485118866,-0.16959448158740997,0.6151341795921326,-0.010678393766283989,0.02480216883122921,0.9996355175971985,0.28791531920433044,-0.43624013662338257,0.42011868953704834,-0.012488903613785546,0.999771881168966,0.01655157177379929,0.005133656916999271,-0.024804712674137468,-3.1309107729598784,-3.1083524960103763
1784114972339682560,2.09451961517334,-0.16189247369766235,-0.15431833267211914,0.3098682165145874,-0.009042400866746902,0.027612533420324326,0.9995781779289246,0.1399475485086441,-0.2625826299190521,0.4263254404067993,-0.013872680439557774,0.9997865604427909,0.01469395329985038,0.004318277417580952,-0.027616043864645546,-3.132546683771293,-3.1120756787596013
1784114972349602816,2.1044397354125977,0.49809765815734863,-0.16012321412563324,1.2918620109558105,-0.007097158581018448,0.027669375762343407,0.9995919466018677,0.33802977204322815,-0.30490630865097046,0.15464389324188232,-0.013874615826434431,0.9998364620361982,0.011091559281141675,0.0033952435332300123,-0.02767290831368684,-3.1344927168816654,-3.119308572212973
1784114972359522560,2.1143596172332764,1.2822939157485962,0.14733153581619263,1.2086066007614136,-0.006622643675655127,0.03826550766825676,0.9992455244064331,0.39759859442710876,-0.15609388053417206,-0.030755043029785156,-0.0191501827249992,0.9998024418991258,0.004223156784914615,0.003231085994896187,-0.03827485266831305,-3.134965106391772,-3.133017870524764
1784114972369441536,2.1242785453796387,0.6642802953720093,0.17231491208076477,0.8856521844863892,-0.007997737266123295,0.04754329472780228,0.9988372921943665,0.3415701389312744,0.13406682014465332,0.18094182014465332,-0.023776164043151738,0.9997091088298037,-0.0005976864355226443,0.004014247045745229,-0.04756122316360003,-3.1335857777680705,3.1405873784387897
1784114972379361536,2.1341986656188965,0.7440449595451355,-0.1857018917798996,0.6212735772132874,-0.007587298285216093,0.05412546545267105,0.9985056519508362,0.23697267472743988,0.10567983984947205,0.041625261306762695,-0.027056306411339645,0.9996171290193853,-0.00429156336287641,0.003911260466481025,-0.054151927772041766,-3.1339941465312986,3.133212081686035
1784114972389281536,2.144118547439575,0.8216524124145508,-0.1713770031929016,0.3411814570426941,-0.005533425137400627,0.06171567365527153,0.9980785250663757,0.19423887133598328,0.06851809471845627,0.03549087047576904,-0.03085506703860662,0.9995006216162148,-0.0061456726686337755,0.0029578147337557723,-0.06175491755291859,-3.1360486325318795,3.1294665628272194
1784114972399201536,2.154038667678833,1.5520647764205933,-0.16300801932811737,1.0660079717636108,-0.003675279673188925,0.07403481751680374,0.9972488284111023,0.46270543336868286,-0.11122050136327744,-0.13805699348449707,-0.03702326888988215,0.9992647429694452,-0.009715191554056044,0.0021989447736967082,-0.07410262096315738,-3.1379072513655997,3.122285197332587
1784114972409121536,2.1639585494995117,0.41000086069107056,-0.5235822200775146,0.38491091132164,0.00046213733730837703,0.08449329435825348,0.9964237213134766,0.327784925699234,0.14164194464683533,0.13277220726013184,-0.042283700842469685,0.999012982319349,-0.013598275350124063,0.0003442565226555438,-0.08459415369526323,3.141128857608161,3.1143512818587524
1784114972419040768,2.173877716064453,0.5720602869987488,-0.38331931829452515,0.17708978056907654,0.004590759053826332,0.0880996435880661,0.9961010217666626,0.11703705042600632,0.1892440915107727,-0.017997443675994873,-0.04412116411987074,0.998922672737751,-0.014283033190366813,-0.001666991294349026,-0.08821400780479735,3.1369839579897185,3.112794318623318
1784114972428960512,2.183797597885132,1.2785775661468506,0.1290276050567627,0.4931151270866394,0.005949441809207201,0.09828179329633713,0.9951410889625549,0.09463649243116379,0.18566903471946716,-0.2447289228439331,-0.04924326780587864,0.998647601987839,-0.016537880286445674,-0.0021632671316353293,-0.09844070502303379,3.1356142341395987,3.1081806332054023
1784114972438880768,2.1937177181243896,0.8794620037078857,-0.5392001867294312,-0.36802059412002563,0.008839651942253113,0.10926710069179535,0.9939731359481812,0.04682441055774689,0.48970139026641846,-0.08226048946380615,-0.054782933032085576,0.9983500941864307,-0.01684181769201414,-0.0035029613025835777,-0.10948570554660861,3.132699637600172,3.107369232326221
1784114972448800512,2.2036375999450684,1.3611758947372437,-0.48271140456199646,-0.46687471866607666,0.013528288342058659,0.11952662467956543,0.9927389025688171,0.15190750360488892,0.5017502307891846,-0.21072590351104736,-0.05996338584044145,0.998079773640071,-0.014359776595665948,-0.005914440187550604,-0.11981307561315886,3.1279662600680025,3.1120025316330637
1784114972458720768,2.213557720184326,2.2398934364318848,-0.6749294400215149,-0.5724285840988159,0.018238605931401253,0.13750001788139343,0.9903336763381958,0.1960253119468689,0.3278167247772217,-0.2795184254646301,-0.06902073159514795,0.9975097555736374,-0.011880232198000565,-0.008320039554658935,-0.13793701479530032,3.1231781088725987,3.116501919697379
1784114972468639488,2.2234766483306885,2.7034718990325928,-0.7440770864486694,-0.10684306919574738,0.023622771725058556,0.16250260174274445,0.9864252209663391,0.4248330295085907,0.29286542534828186,-0.2071894407272339,-0.08164249709791853,0.9965510612694061,-0.009929786320051977,-0.011038765520257964,-0.1632264477522515,3.1176493714456988,3.1197064767477687
1784114972478559488,2.233396530151367,1.6617401838302612,-0.8765676021575928,-0.6095227599143982,0.03152230754494667,0.1843205690383911,0.9823607206344604,0.17228934168815613,0.3097285032272339,0.0230562686920166,-0.0926910540488783,0.9955496274038138,-0.007830304369927177,-0.015102566517760346,-0.1853805466110085,3.109515338912,3.122880311077012
1784114972488479488,2.243316650390625,-0.053372856229543686,-0.5855831503868103,-0.17496301233768463,0.03761616349220276,0.1928151696920395,0.9805139303207397,0.33912333846092224,-0.0827687531709671,-0.0918114185333252,-0.09698302145796975,0.9951015534959924,-0.005464454218893261,-0.018368097097803206,-0.19403034616069564,3.1032477370569014,3.1268778514445814
1784114972498399488,2.2532365322113037,-1.6297231912612915,-0.5734423398971558,-0.261267751455307,0.043146807700395584,0.18337178230285645,0.9820966124534607,0.2805684208869934,-0.6488410830497742,-0.036371827125549316,-0.0921922896835808,0.9955047013869041,-0.004323666178868308,-0.02127041214562319,-0.18441530407741616,3.0976875226132092,3.12884578157328
1784114972508319744,2.2631566524505615,-1.7425479888916016,-0.569595456123352,-0.20577387511730194,0.04819924756884575,0.16716250777244568,0.9847506284713745,0.24623435735702515,-0.7933831810951233,-0.41407179832458496,-0.08396502394662733,0.9961769229222679,-0.002618300165024204,-0.023971423555127696,-0.16795097714527368,3.0926860443387008,3.1322185167340337
1784114972518238464,2.273075580596924,-2.7142584323883057,-0.4643774628639221,-0.24225695431232452,0.05324762687087059,0.14609365165233612,0.9878367185592651,0.2300470471382141,-0.10477283596992493,-0.15418803691864014,-0.0733037394359006,0.9969537464632837,-0.001263157907743496,-0.0266122868806043,-0.1466183880099741,3.08774150294164,3.135102797290281
1784114972528158720,2.2829957008361816,-3.223761796951294,-0.5311122536659241,-0.6531528234481812,0.057832662016153336,0.11603136360645294,0.9915606379508972,0.09600645303726196,0.47118788957595825,0.02069234848022461,-0.05809535759245009,0.9978868259576683,0.0014825823307143093,-0.02906387915410466,-0.11629331371565056,3.083333768129628,3.141171756577472
1784114972538078464,2.2929155826568604,-2.3146910667419434,-0.14693066477775574,-0.6388105750083923,0.060488011687994,0.08906113356351852,0.9941878318786621,0.2649972140789032,0.4251447916030884,-0.11668539047241211,-0.04443309238775366,0.9985316779250645,0.005330525411082033,-0.030525678190378155,-0.08917929577144461,3.0808259294684897,-3.133628224648185
1784114972547998720,2.302835702896118,-2.3863089084625244,-0.3336438238620758,-0.680681586265564,0.062400054186582565,0.06746728718280792,0.9957684278488159,0.38350754976272583,0.25701087713241577,-0.06708788871765137,-0.033489329903282475,0.9989017782652795,0.008914159072852411,-0.03153318743617894,-0.06751857453163677,3.079009261554618,-3.125859472884315
1784114972557918464,2.312755584716797,-2.9159138202667236,-0.3678567707538605,-0.5092711448669434,0.06599786877632141,0.04137201979756355,0.996961772441864,0.4448816478252411,-0.06458063423633575,-0.09925663471221924,-0.020290673693570887,0.9991633423899693,0.012389857551899496,-0.033278173909611596,-0.04138382982310014,3.0754901090543103,-3.1181619425973546
1784114972567837440,2.322674512863159,-3.9578115940093994,-0.32948222756385803,-0.4912564754486084,0.06909006834030151,0.008218544535338879,0.9975764155387878,0.296983540058136,-0.27002885937690735,-0.03477752208709717,-0.003580388680588476,0.9992760444883462,0.015349450973123176,-0.034625059146329726,-0.008218637094913259,3.072445150350072,-3.1111581886883597
1784114972577757696,2.332594633102417,-4.925961017608643,-0.3770707845687866,-0.2771168649196625,0.07251939177513123,-0.03653472661972046,0.9966977834701538,0.22623243927955627,-0.27622467279434204,-0.03740811347961426,0.018940786040918173,0.9990081693376572,0.018209438425139505,-0.03595045330791566,0.036542857405109354,3.0689609817529693,-3.1038138438938505
1784114972587677440,2.3425145149230957,-5.302613735198975,-0.5479834079742432,-0.21933692693710327,0.07736693322658539,-0.08630142360925674,0.99326092004776,0.159266397356987,-0.26039355993270874,-0.09950745105743408,0.043999676077639174,0.998108952124735,0.020223264014959122,-0.03786525603984093,0.08640891158130241,3.0638577540598444,-3.0977127721597855
1784114972597597696,2.3524346351623535,-5.609976768493652,-0.6537656784057617,-0.4868764877319336,0.08335059136152267,-0.1403205841779709,0.9865913391113281,0.12946373224258423,0.12890703976154327,-0.04329317808151245,0.07133801406301511,0.9963795746253739,0.02287818564429328,-0.04018870972500801,0.14078520155739294,3.057309398573998,-3.0897318468613406
1784114972607517440,2.3623545169830322,-4.816174030303955,-0.47029411792755127,-0.5890222787857056,0.09021765738725662,-0.1911517232656479,0.977405846118927,0.08441919833421707,0.3423052430152893,-0.23909389972686768,0.09728467273094385,0.9939887423195441,0.026254423350934197,-0.042812029731270254,0.19233537771684014,3.0495502880855696,-3.079893434345815
1784114972617436672,2.3722736835479736,-3.4900169372558594,-0.3769633173942566,-0.6625759601593018,0.09586820006370544,-0.2309340387582779,0.968234658241272,0.15079009532928467,0.5063247084617615,-0.3659704923629761,0.1178133520026276,0.9915662261722938,0.030228237088460178,-0.04475022332110291,0.23303756372137271,3.0429009331572145,-3.0690798149286107
1784114972627356416,2.3821935653686523,-2.1971282958984375,-0.6763917803764343,-0.7732657194137573,0.10268707573413849,-0.25714781880378723,0.9609010219573975,0.2378280758857727,0.48409172892570496,-0.42717885971069336,0.13156243682244453,0.9895865512777656,0.034190392829140936,-0.047338322826115026,0.2600695922877938,3.035131294219423,-3.058584601263134
1784114972637276672,2.39211368560791,-1.8356881141662598,-0.8020265102386475,-0.9363036155700684,0.11265337467193604,-0.2750955820083618,0.9547941088676453,0.27435529232025146,0.3542581796646118,-0.2802640199661255,0.14123475631625793,0.9878896509775199,0.03835481117418312,-0.05153374562379385,0.2786891105920013,3.0241485389285754,-3.047491113834669
1784114972647196416,2.402033567428589,-0.4740133583545685,-0.7771462202072144,-1.1063462495803833,0.12308340519666672,-0.28552505373954773,0.9504349231719971,0.17725537717342377,0.15976202487945557,-0.46561717987060547,0.14714817236762778,0.9865892693844845,0.04311707035630379,-0.05594739889180272,0.28955422951026866,3.012807220307909,-3.035439936120523
1784114972657116416,2.4119534492492676,0.8073701858520508,-0.8853087425231934,-1.1781364679336548,0.1340876966714859,-0.2819964587688446,0.9499992728233337,0.1954716593027115,0.3182970881462097,-0.43489301204681396,0.14592881267210295,0.9862513520054415,0.048040826375458326,-0.06087018746512738,0.28587439741455883,3.001373858847399,-3.024035996510358
1784114972667035392,2.42187237739563,1.8476961851119995,-0.8150079846382141,-1.2454286813735962,0.1456628143787384,-0.26775673031806946,0.9524121284484863,0.2180456966161728,0.48527076840400696,-0.3684581518173218,0.13925925007637627,0.9866088189248725,0.05300109981515409,-0.0663388724003531,0.2710640045072814,2.9898277196152003,-3.0135199233243446
1784114972676955392,2.4317924976348877,3.062130928039551,-0.941230833530426,-1.2451163530349731,0.15696114301681519,-0.24243339896202087,0.9573864340782166,0.21120288968086243,0.23809993267059326,-0.40279072523117065,0.12693491888541628,0.9876151300666554,0.057528907571244826,-0.07207072800692939,0.24487328547352047,2.9790907885991227,-3.005183824259347
1784114972686875392,2.4417123794555664,3.215817928314209,-0.8702783584594727,-1.2407582998275757,0.1683374047279358,-0.20990368723869324,0.9631213545799255,0.11121883988380432,0.04826737940311432,-0.10640150308609009,0.11105106177351959,0.9887883017420817,0.06211572094076667,-0.07814684587491207,0.21147645036784496,2.9685573745206906,-2.997707069172207
1784114972696795392,2.451632499694824,3.2559618949890137,-0.9974392652511597,-1.073968768119812,0.1795043647289276,-0.17695735394954681,0.9677108526229858,0.1631164848804474,-0.017424359917640686,0.00627291202545166,0.09502664559715891,0.9896952196033849,0.06602129275229096,-0.08434758523251688,0.17789415993233323,2.958183470826679,-2.991970101985917
1784114972706715392,2.461552381515503,3.2799432277679443,-0.9715021252632141,-1.2991344928741455,0.1909409612417221,-0.14293693006038666,0.9711387157440186,0.0934218019247055,-0.04183173179626465,0.0705634355545044,0.0785742993331362,0.9903006602618052,0.06981376624309292,-0.09086625273811094,0.14342818371526397,2.947453498101989,-2.9868402674613757
1784114972716634624,2.4714715480804443,2.9064552783966064,-0.8451473116874695,-1.2446693181991577,0.20166422426700592,-0.11068443953990936,0.9731805324554443,0.15859577059745789,-0.12633033096790314,0.1801397204399109,0.06316873976701738,0.9904788323543886,0.07444421715994756,-0.09705363047648523,0.11091169120828491,2.9372627877658797,-2.9801726670333104
1784114972726554368,2.481391429901123,1.9490652084350586,-0.9198921322822571,-0.9054934978485107,0.2116808295249939,-0.08463913947343826,0.9736670851707458,0.2874341905117035,-0.19944900274276733,0.4327203035354614,0.050858067639362355,0.9903105792407425,0.07822088199546684,-0.10285889299682233,0.08474052143406945,2.927518176676258,-2.97483695186357
1784114972736474624,2.491311550140381,1.5905414819717407,-0.8060414791107178,-0.7962876558303833,0.2213963270187378,-0.06602723151445389,0.9729464054107666,0.14624899625778198,-0.6019567847251892,0.298004150390625,0.04223093648982268,0.989895452924015,0.0811184017115252,-0.10836746460762745,0.0660753026566931,2.9178500897821156,-2.9706396135211315
1784114972746394368,2.5012314319610596,0.8508703708648682,-0.6251401305198669,-0.7752809524536133,0.2286064475774765,-0.05220099166035652,0.972118616104126,0.17340166866779327,-0.545211136341095,0.3440742492675781,0.03595537973733018,0.9894250031403784,0.08424657360615322,-0.11246340719052468,0.05222472657001173,2.9106261197699874,-2.96564903847442
1784114972756314624,2.5111515522003174,-0.19228413701057434,-0.8252109885215759,-0.6363933086395264,0.23613278567790985,-0.047048959881067276,0.9705811738967896,0.31756287813186646,-0.282449334859848,0.44578540325164795,0.03402404059401849,0.9888050034188933,0.08692094462086351,-0.11641222785092188,0.04706633681251565,2.9029390922086034,-2.9605892229045474
1784114972766233344,2.5210704803466797,-0.3863050043582916,-0.7428828477859497,-0.5748732089996338,0.24440480768680573,-0.04948151856660843,0.9684100151062012,0.24933908879756927,-0.15136992931365967,0.31198549270629883,0.03601508559476943,0.9879767520074433,0.09003859030298512,-0.12040734140872457,0.04950173422362633,2.8943776920838564,-2.9536747496202667
1784114972776153344,2.5309903621673584,-0.3978501260280609,-0.6650500297546387,-0.6143319010734558,0.25201869010925293,-0.051386117935180664,0.9663572907447815,0.19053202867507935,-0.047078851610422134,0.27862274646759033,0.0377188742110712,0.9871813307458156,0.09301439215738926,-0.1240916426994705,0.051408760814225025,2.8864824555346282,-2.9471083152964903
1784114972786073344,2.540910482406616,-0.5721601843833923,-0.5413541793823242,-0.5632266402244568,0.25820600986480713,-0.05444473400712013,0.9645547270774841,0.28116169571876526,0.09901565313339233,0.3445732593536377,0.03994617830562912,0.9864455357833933,0.09592994393284782,-0.1269922887207881,0.05447166596558943,2.8800308791543907,-2.9405396765412273
1784114972795993344,2.550830364227295,0.03396211564540863,-0.33879363536834717,-0.44656145572662354,0.2632918655872345,-0.056398656219244,0.9630663990974426,0.3552231788635254,0.050081513822078705,0.1931990385055542,0.041552298971349495,0.9858004904721865,0.0986437601789954,-0.12938424631904794,0.05642859804701718,2.8747246980710144,-2.934550913286319
1784114972805913344,2.5607504844665527,0.4737485647201538,-0.31484490633010864,-0.31247663497924805,0.2664623558521271,-0.052198376506567,0.9624307155609131,0.35212889313697815,-0.005754493176937103,0.1259785294532776,0.03979055235760477,0.9855032472103774,0.09999361095738925,-0.13115367965350194,0.05222211008320063,2.8714943908815025,-2.9322584023005662
1784114972815832320,2.570669412612915,-0.0006224242970347404,-0.04733343794941902,-0.13348020613193512,0.26888149976730347,-0.0495653860270977,0.9618968367576599,0.20449182391166687,-0.1445111334323883,0.352525532245636,0.03872590856280996,0.9852712989636153,0.10093994270760202,-0.13248306306280658,0.04958570412063254,2.869017437187581,-2.930605795284242
1784114972825752576,2.580589532852173,-0.08831179887056351,0.2914307713508606,-0.2629561722278595,0.2681969702243805,-0.049458447843790054,0.9620938897132874,0.1314154863357544,-0.40058428049087524,0.23314249515533447,0.038753499564487835,0.9852298808078284,0.10182838819786284,-0.13210345836858306,0.049478632956987914,2.869730629871816,-2.9288453595175095
1784114972835672320,2.5905094146728516,-0.23628108203411102,0.4822397828102112,-0.08273623138666153,0.26441556215286255,-0.05050221085548401,0.9630858898162842,0.24368691444396973,-0.2762342393398285,0.3306155204772949,0.0392307235683036,0.9853534971398681,0.10306030477226678,-0.13006971821112678,0.050523703826176956,2.8736445284531493,-2.9263549954596306
1784114972845592576,2.6004295349121094,-0.09915971755981445,0.47251924872398376,-0.022350922226905823,0.260111927986145,-0.05231936275959015,0.9641599655151367,0.2481277883052826,-0.09590450674295425,0.4740113615989685,0.039947412359513386,0.9855895335410784,0.10340813705242481,-0.12776624775112716,0.05234326226435101,2.878085052064104,-2.9255792595673857
1784114972855511552,2.6103484630584717,0.07859503477811813,0.5209465026855469,-0.013146404176950455,0.255804181098938,-0.052256204187870026,0.9653153419494629,0.1800326406955719,-0.003087427467107773,0.47076570987701416,0.03970405284664886,0.985857284525461,0.10364891918904957,-0.12556260558222296,0.05228001476430531,2.882551171835841,-2.9252796759350916
1784114972865431296,2.6202683448791504,0.5382654070854187,0.7574924826622009,0.1288573443889618,0.25046461820602417,-0.04948124289512634,0.9668607115745544,0.2053307294845581,-0.11137691140174866,0.39254510402679443,0.03797591176655311,0.9862781364497838,0.10337212484317526,-0.12299437189828938,0.04950145771211442,2.8881152747880177,-2.9264257785589796
1784114972875351552,2.630188465118408,0.6509700417518616,0.8261050581932068,0.054859910160303116,0.2444327473640442,-0.04358106106519699,0.9686862826347351,0.22620929777622223,-0.1484965682029724,0.43095654249191284,0.03459694096871756,0.9868105099617592,0.10270421824449172,-0.1202491467698677,0.04359486814717137,2.8944182376406937,-2.9287692778248093
1784114972885271296,2.640108346939087,0.32449260354042053,0.8739489912986755,0.1853151172399521,0.23728187382221222,-0.03873163461685181,0.9706685543060303,0.23482508957386017,-0.2357739806175232,0.5319560766220093,0.031679459660366456,0.9873926949556536,0.10193101477682982,-0.11688542867205805,0.03874132373463165,2.9018424036418833,-2.931189373216668
1784114972895191552,2.6500284671783447,-0.4528655707836151,1.0440870523452759,0.409138947725296,0.22829602658748627,-0.040118925273418427,0.9727651476860046,0.205984428524971,-0.3640100955963135,0.7226392030715942,0.031749603138206725,0.9880470824913722,0.10072503172041983,-0.11229225477760962,0.04012969354411355,2.911076653995866,-2.9337610290659426
1784114972905110272,2.659947395324707,-0.8699530959129333,1.15055513381958,0.6843950748443604,0.21782949566841125,-0.047819584608078,0.9748145341873169,0.22052496671676636,-0.5362563133239746,0.6343467235565186,0.034806274374743706,0.9887914334732298,0.09848225210397817,-0.10668270525778863,0.04783782943942858,2.9217469879859976,-2.937769451154249
1784114972915030528,2.669867515563965,-1.1750468015670776,1.3795276880264282,0.5117690563201904,0.20578515529632568,-0.05934128910303116,0.9767963886260986,0.16691076755523682,-0.6258851289749146,0.5373027324676514,0.03972819561214865,0.9895077809564938,0.09629405397183405,-0.10011744603668775,0.05937617045050734,2.933955446468083,-2.9413849854030505
1784114972924950272,2.6797873973846436,-1.2314168214797974,1.596789002418518,0.621932864189148,0.19131453335285187,-0.07217229157686234,0.9788717031478882,0.21815505623817444,-0.5759600400924683,0.522226870059967,0.045253391286719874,0.9902016765839319,0.09453295028902783,-0.09228355180597989,0.07223509799437175,2.948581743003179,-2.9442369962388444
1784114972934870528,2.6897075176239014,-1.268057942390442,1.5612324476242065,0.5837761163711548,0.17575706541538239,-0.08564946800470352,0.9807007908821106,0.2409604787826538,-0.3813305199146271,0.5318115949630737,0.0510449289737496,0.9908658345443498,0.09238662334456116,-0.08392928706633226,0.08575453096827208,2.9642594197872967,-2.948025496499766
1784114972944790272,2.69962739944458,-0.8925783634185791,1.7432688474655151,0.4777258336544037,0.15922634303569794,-0.09727536141872406,0.9824379682540894,0.18780428171157837,-0.14202821254730225,0.43115144968032837,0.0559381560564751,0.9914552183559187,0.09074978573561142,-0.075179183225449,0.09742943216049087,2.9809171161211907,-2.95118720447706
1784114972954709504,2.7095465660095215,-0.5182986259460449,1.7732659578323364,0.541827380657196,0.1417284905910492,-0.10488399863243103,0.9843335151672363,0.2036084234714508,0.05701717734336853,0.40627622604370117,0.0587935924986323,0.9920931506141176,0.08898279032860865,-0.06615571345031042,0.10507725785456981,2.998591234983918,-2.955154608980213
1784114972964629504,2.7194664478302,-0.40145400166511536,1.8374061584472656,0.5472442507743835,0.12362039089202881,-0.11004484444856644,0.9862088561058044,0.1848665475845337,0.10301054269075394,0.401974618434906,0.060421433015056564,0.9927347970645348,0.08707496960201798,-0.05696284793448803,0.1102681654594371,3.016893945556991,-2.9597249884751653
1784114972974549504,2.729386568069458,-0.5285099148750305,1.9951938390731812,0.6801574230194092,0.1043681725859642,-0.11517880856990814,0.9878469109535217,0.1750507950782776,-0.01728276163339615,0.4666973352432251,0.062006748141792405,0.9933464880316207,0.08477159298367458,-0.04724200058074315,0.11543500750711097,3.0363309816126094,-2.965238613668312
1784114972984469504,2.7393064498901367,-0.6551728248596191,2.1148529052734375,0.7010014653205872,0.08318763971328735,-0.12142825871706009,0.9891084432601929,0.20520350337028503,-0.2852185070514679,0.40475165843963623,0.06410337550329168,0.9938964235806509,0.08200081758959293,-0.036560441039141016,0.12172866306901878,3.057686457408464,-2.9718405800903427
1784114972994389504,2.7492265701293945,-0.610912561416626,2.215808868408203,0.8059905171394348,0.06154166907072067,-0.12895844876766205,0.9897383451461792,0.30022895336151123,-0.42475247383117676,0.401908814907074,0.06474549400869557,0.9974259953911865,0.0032511395312775407,-0.030639202553905575,0.1293185905909584,3.0794928710243346,-3.131051396127931
1784114973004309504,2.7591464519500732,-0.6348229646682739,2.4234378337860107,0.7217398285865784,0.03694029524922371,-0.1343148648738861,0.9902498722076416,0.2839978039264679,-0.374825119972229,0.3451992869377136,0.06732429347199058,0.9975594745678427,0.00013794810632944177,-0.01850602416467,0.13472203295983776,3.1043059293317405,-3.1388003146643983
1784114973014228224,2.7690653800964355,-0.28181588649749756,2.43131160736084,0.7224586606025696,0.01231162715703249,-0.1398017853498459,0.9901028275489807,0.3751395344734192,-0.09631268680095673,0.34205031394958496,0.06983136177193949,0.9969742107565787,-0.03307323178576581,-0.008491054713941952,0.14026123284180417,3.1291585986212485,3.076143206486772
1784114973024148480,2.7789855003356934,0.1789804995059967,2.516385316848755,0.733859658241272,-0.013400447554886341,-0.14031900465488434,0.9900156259536743,0.34874284267425537,0.17098920047283173,0.2591450810432434,0.07058582882416749,0.9962107317136458,-0.05071492267457266,0.0031323383020026045,0.14078360282375346,-3.128057888285995,3.038910492143782
1784114973034068224,2.788905382156372,1.0261250734329224,2.3759169578552246,0.7599566578865051,-0.03857569396495819,-0.13455066084861755,0.9901555180549622,0.3660903573036194,0.26492175459861755,0.16394293308258057,0.068528682007242,0.995541715283354,-0.063043357213246,0.015034598139184943,0.13495998520008365,-3.102653118685797,3.012478214422461
1784114973043988480,2.79882550239563,1.407677173614502,2.2596933841705322,0.5833907127380371,-0.06189573556184769,-0.12184222042560577,0.9906175136566162,0.3115905523300171,0.16070637106895447,0.10976988077163696,0.06313176715690871,0.9950832744589585,-0.07154044989875429,0.026561989858302115,0.12214571833186451,-3.0791918037718813,2.9942347670944076
1784114973053907456,2.808744430541992,1.5226023197174072,2.238649845123291,0.5508055686950684,-0.084909588098526,-0.10708708316087723,0.9906170964241028,0.3618718981742859,-0.03259183466434479,0.06875461339950562,0.05680741653791338,0.994648383029107,-0.07735074851645182,0.038265480078513985,0.10729281916736653,-3.0560878088451826,2.981776961622828
1784114973063827456,2.81866455078125,1.7722095251083374,2.3140101432800293,0.5837680101394653,-0.10771732032299042,-0.0898657813668251,0.9901115894317627,0.3540704846382141,-0.2814720869064331,0.009461045265197754,0.049386409125918504,0.9940562532525951,-0.08311406596736791,0.05005144701889158,0.08998717801140549,-3.0332257420141344,2.9698747530572014
1784114973073747456,2.8285844326019287,1.603433609008789,2.301666259765625,0.7353532314300537,-0.13087783753871918,-0.07273435592651367,0.9887269139289856,0.27124345302581787,-0.29178285598754883,0.12296748161315918,0.042088885992231706,0.9933298282556758,-0.08751746454269019,0.06217009331436602,0.07279863799345943,-3.0099876868774746,2.9610368459695793
1784114973083667456,2.8385045528411865,1.21969473361969,2.2705180644989014,0.623853862285614,-0.153952956199646,-0.05748371407389641,0.9864044785499573,0.251731276512146,-0.2197379469871521,0.1444089412689209,0.0359053692608035,0.992267392568622,-0.0927774985823648,0.07421917360102466,0.05751542087493627,-2.9867668718681784,2.9506711649005952
1784114973093587456,2.8484244346618652,0.9385691285133362,1.9663747549057007,0.7030202150344849,-0.17496457695960999,-0.04655614122748375,0.9834732413291931,0.2712628245353699,-0.17034754157066345,0.18036019802093506,0.03181974027536581,0.9911249382792781,-0.09699478126870435,0.08515166260136794,0.04657297708848268,-2.9655299432785887,2.9423760218533337
1784114973103506432,2.8583433628082275,1.0032442808151245,2.158574104309082,0.464139461517334,-0.1957607865333557,-0.0348326712846756,0.9800329804420471,0.17748072743415833,-0.2973664402961731,0.025963783264160156,0.02738926982476268,0.9898666600291977,-0.10089843586555393,0.09609057462272612,0.03483972040566494,-2.94443828475353,2.9349857468527336
1784114973113426432,2.8682634830474854,0.45402777194976807,1.9191970825195312,0.5463119745254517,-0.2146708071231842,-0.027372514829039574,0.9763028621673584,0.2553659975528717,0.08297553658485413,0.1387331485748291,0.024865536630140607,0.9887235136197223,-0.10284576194333742,0.10597309310918183,0.027375933793868212,-2.9251555101522824,2.9313262973252394
1784114973123346432,2.878183364868164,0.7143632173538208,1.5929392576217651,0.4980379045009613,-0.23171886801719666,-0.020908869802951813,0.9725578427314758,0.22581379115581512,0.2292523831129074,-0.04045969247817993,0.023007809828447683,0.9873601042522215,-0.106765804630559,0.11485473933629882,0.0209103934925559,-2.9076962391729166,2.9237077587443214
1784114973133266432,2.888103485107422,0.6517510414123535,1.5425245761871338,0.5904250144958496,-0.24722234904766083,-0.012610907666385174,0.9688764810562134,0.1257929652929306,0.20525312423706055,-0.07722938060760498,0.020161839224152912,0.9860419400783736,-0.11027031954856918,0.1231062455642384,0.012611242341232813,-2.89175974626422,2.917271936394511
1784114973143186432,2.8980233669281006,0.5244237184524536,1.337704062461853,0.4952968955039978,-0.26140251755714417,-0.00574159249663353,0.9652128219604492,0.028599172830581665,0.17610597610473633,-0.20314311981201172,0.0180645866554027,0.9846669994508432,-0.11418099190068703,0.1306417630924226,0.005741624036075769,-2.87711321760736,2.9099421282651856
1784114973153105408,2.907942533493042,0.07373856008052826,1.2354633808135986,0.32575634121894836,-0.27363237738609314,-0.0015469870995730162,0.9618332386016846,0.017742455005645752,0.060918934643268585,-0.31818687915802,0.017147063939615598,0.9834323064411231,-0.11737764157284654,0.13707451314960634,0.0015469877481996104,-2.8644248246759085,2.903790670882684
1784114973163025408,2.9178624153137207,-0.3288147449493408,1.0817159414291382,0.086701400578022,-0.2844850420951843,-0.0027545576449483633,0.9586766362190247,-0.10435470938682556,0.1347888559103012,-0.4136478900909424,0.018694262605371617,0.9824104412482678,-0.11919751429948412,0.1425210922833434,0.0027545611624844343,-2.853122334659311,2.899709585712206
1784114973172945408,2.9277825355529785,0.06924820691347122,0.7613832354545593,0.006256354972720146,-0.29329752922058105,-0.004004207439720631,0.9560127854347229,-0.027823656797409058,0.25356170535087585,-0.5802804231643677,0.019925469142258335,0.9816978258340358,-0.11948123338350747,0.14695768880987015,0.004004218343410872,-2.843915937419445,2.8987660338213197
1784114973182865408,2.9377024173736572,-0.23277956247329712,0.5672553181648254,-0.35429251194000244,-0.29949676990509033,-0.004823354538530111,0.9540848731994629,-0.08288842439651489,0.5229508280754089,-0.458357572555542,0.020582636050779562,0.9813271140820101,-0.11848852576432727,0.15011260765804113,0.004823373214294325,-2.837423770414532,2.900530432215699
1784114973192785408,2.947622537612915,0.09340793639421463,0.5409706830978394,-0.18433207273483276,-0.3046165704727173,-0.0068857064470648766,0.9524499773979187,-0.13366156816482544,0.596286952495575,-0.5269741415977478,0.021969611953360987,0.9808919298918377,-0.11864237934375627,0.15261799267497972,0.006885760985669244,-2.8320491736708817,2.899780610576202
1784114973202704384,2.9575414657592773,0.5436848402023315,0.35110220313072205,-0.19662442803382874,-0.3088860511779785,-0.004213500767946243,0.9510897994041443,-0.09538030624389648,0.42419642210006714,-0.546228289604187,0.02090404534304611,0.9805423851474352,-0.11866562063495191,0.1549779295523804,0.004213513037252777,-2.8275682184039947,2.90005618158044
1784114973212624384,2.967461347579956,0.5116852521896362,0.1494121551513672,-0.40123677253723145,-0.3112581670284271,-5.525655524252215e-06,0.950325608253479,-0.07002851366996765,0.3377282917499542,-0.4621967077255249,0.018851558398632347,0.9804151743999056,-0.11810536065032286,0.15646699680359824,5.525655486535117e-06,-2.8250760244813202,2.9018179045834596
1784114973222544384,2.977381467819214,0.8804107904434204,-0.07252663373947144,-0.33922693133354187,-0.311552494764328,0.004951879382133484,0.9502158761024475,-0.10437151789665222,0.16744191944599152,-0.5430810451507568,0.016179656653551328,0.9805359220961894,-0.11686414904317267,0.15694012561847112,-0.004951899588102056,-2.824762156863249,2.905134943507643
1784114973232464384,2.9873013496398926,0.43700358271598816,-0.016642102971673012,-0.5121924877166748,-0.311358243227005,0.010508676990866661,0.9502348899841309,-0.09666189551353455,0.2256821095943451,-0.3467189073562622,0.013131581244930707,0.9807198465616851,-0.11535180535671974,0.15719512147729503,-0.010508870849918998,-2.8249526900032476,2.909107342065387
1784114973242384384,2.9972214698791504,0.6441812515258789,-0.16950833797454834,-0.6022997498512268,-0.31038039922714233,0.013259535655379295,0.9505199790000916,-0.06710678339004517,0.18661534786224365,-0.38873720169067383,0.011330170158852876,0.9810532394671598,-0.11311292493179673,0.15688099082133636,-0.013259923768764132,-2.825970799464993,2.9141216481029018
1784114973252303360,3.0071403980255127,0.35526230931282043,-0.2197628915309906,-0.6049802899360657,-0.30860552191734314,0.01673656329512596,0.9510429501533508,0.02561601996421814,0.11358875036239624,-0.30886149406433105,0.009126614353662507,0.9814361730217478,-0.11092570594910793,0.15618986344509575,-0.016737344253686753,-2.827820588800384,2.9191478438425302
1784114973262223360,3.0170605182647705,0.41761302947998047,-0.17725802958011627,-0.370975524187088,-0.3066791594028473,0.018361927941441536,0.9516360759735107,0.18599733710289001,0.06461536884307861,-0.27440500259399414,0.007844856009200919,0.9818352514384053,-0.10870869580214251,0.15530790643482525,-0.018362959543671255,-2.8298363009181307,2.923937037637242
1784114973272143360,3.026980400085449,0.009378144517540932,-0.3428889513015747,-0.6633417010307312,-0.3040643334388733,0.019122010096907616,0.9524593949317932,0.17621096968650818,0.11318695545196533,-0.23528122901916504,0.007069731483102381,0.9822144404669306,-0.10716573868986055,0.15401374742961277,-0.0191231748403821,-2.832578142651473,2.927218371023068
1784114973282063360,3.036900520324707,0.19409632682800293,-0.4049270451068878,-0.46892672777175903,-0.3007309138774872,0.01801200956106186,0.9535389542579651,0.2987472414970398,0.07404427230358124,-0.2843647003173828,0.007067433480472561,0.9827474724588685,-0.1047706194032012,0.15225171979286803,-0.01801298328539818,-2.8360825545172546,2.9319484185773232
1784114973291983360,3.0468204021453857,0.09432452917098999,-0.37806469202041626,-0.46070989966392517,-0.297011137008667,0.018183838576078415,0.9547010660171509,0.2958819568157196,0.06358800828456879,-0.27403688430786133,0.006536303608992442,0.9832079532791136,-0.10321166724057092,0.15035572714366022,-0.018184841404800083,-2.839980260916448,2.9351734367875757
1784114973301902592,3.056739568710327,-0.019368480890989304,-0.6653143763542175,-0.43948742747306824,-0.291531503200531,0.016701750457286835,0.9564152956008911,0.4060640037059784,0.07584279775619507,-0.28347229957580566,0.006738465568566482,0.9838132609383715,-0.10158298061424129,0.1474682740703153,-0.01670252666812169,-2.8457225867042832,2.938302341821122
1784114973311822336,3.066659450531006,0.2406664937734604,-0.7856737971305847,-0.462986022233963,-0.2844136953353882,0.016316363587975502,0.9585627317428589,0.44116726517677307,0.06328873336315155,-0.39146989583969116,0.006253263399998002,0.9845669947603137,-0.09954499814522076,0.14380369351786806,-0.01631708735654081,-2.85315832438301,2.94243646474167
1784114973321742592,3.0765795707702637,0.386943519115448,-0.8695015907287598,-0.5401872992515564,-0.2766633629798889,0.0181597713381052,0.9607954025268555,0.38162854313850403,0.07433900982141495,-0.4229382276535034,0.00454157505098857,0.985400601600651,-0.09686772059863263,0.13993470808409514,-0.018160769096009687,-2.861225007401414,2.9481792701144056
1784114973331662336,3.0864994525909424,0.27630510926246643,-1.034480094909668,-0.3560136556625366,-0.26723140478134155,0.01999606564640999,0.9634250998497009,0.45538750290870667,0.1306997388601303,-0.3404695987701416,0.002842971434203849,0.9862792133728878,-0.09468821829017118,0.13520157610357375,-0.019997398229402275,-2.871018451511307,2.952890483111081
1784114973341582336,3.096419334411621,0.511070728302002,-1.067821741104126,-0.4000157415866852,-0.2566474676132202,0.02292521484196186,0.96623295545578,0.3353370726108551,0.07305257022380829,-0.43106162548065186,0.0006328025441740217,0.9871487649420173,-0.09302579791954467,0.1299346855582338,-0.02292722369514521,-2.88197092151,2.9566670476731116
1784114973351501568,3.1063385009765625,0.5687859654426575,-1.1562165021896362,-0.40795671939849854,-0.243839293718338,0.02734340913593769,0.9694299697875977,0.3465767502784729,0.05473361909389496,-0.3919917345046997,-0.002435054106762625,0.9881339317233612,-0.09113905031537413,0.12360832017306775,-0.027346817418514687,-2.895175897829583,2.961032796659429
1784114973361421312,3.116258382797241,0.45123618841171265,-1.2686381340026855,-0.4049854576587677,-0.23122817277908325,0.03156202286481857,0.9723872542381287,0.3582576513290405,0.01755601540207863,-0.29498881101608276,-0.005389613524680983,0.9890737520141408,-0.08903224372462723,0.11737641758969253,-0.0315672646725488,-2.9081342638051386,2.9657469365935127
1784114973371341568,3.126178503036499,0.359144926071167,-1.3503427505493164,-0.3126735985279083,-0.218218132853508,0.03464636206626892,0.9752848744392395,0.3082296848297119,0.05158105492591858,-0.20935463905334473,-0.007695574238723428,0.9899413772348244,-0.08751297020569351,0.11089801048663579,-0.03465329845497258,-2.92147011656038,2.9690765761613944
1784114973381261312,3.1360983848571777,0.42927899956703186,-1.2466483116149902,-0.36301612854003906,-0.20514456927776337,0.037929244339466095,0.9779967665672302,0.20142138004302979,0.087086021900177,-0.23182642459869385,-0.01008026698276316,0.9907595097595534,-0.08598825159842931,0.10440381173645878,-0.037938343445594866,-2.9348303659444133,2.9723826917378284
1784114973391181568,3.1460185050964355,0.3782043755054474,-1.342280387878418,-0.2626561224460602,-0.1925177276134491,0.041218243539333344,0.9804273247718811,0.277463436126709,0.07139161229133606,-0.21031635999679565,-0.012424082169872076,0.9915026835616754,-0.08447538169255552,0.09814234010082988,-0.04122992508320464,-2.9476985295899616,2.975614718619768
1784114973401100288,3.155937433242798,0.32295283675193787,-1.4179553985595703,-0.33491459488868713,-0.17897199094295502,0.044180214405059814,0.9828620553016663,0.27897804975509644,-0.04967336729168892,-0.24474835395812988,-0.014606478858898393,0.9922317023604407,-0.08311007569399566,0.09141004028099815,-0.04419459863545633,-2.9614734524709765,2.9784528910145682
1784114973411020544,3.1658575534820557,0.126898393034935,-1.4150850772857666,-0.30198633670806885,-0.16491901874542236,0.045870523899793625,0.9852399826049805,0.27430927753448486,-0.16818496584892273,-0.2614849805831909,-0.016145410515261308,0.9929376151536792,-0.08182231071039346,0.08437646047847273,-0.04588662607444546,-2.9757405807980915,2.980970237187038
1784114973420940288,3.1757774353027344,-0.09932596981525421,-1.4536598920822144,-0.30722102522850037,-0.15070809423923492,0.045762237161397934,0.9875184893608093,0.21284188330173492,-0.20346182584762573,-0.2111513614654541,-0.016758212066178887,0.99360287274196,-0.08070060103407312,0.07720030727649528,-0.04577822517943029,-2.9901482528488823,2.9829817524135405
1784114973430860544,3.185697555541992,-0.186857670545578,-1.3318756818771362,-0.21020753681659698,-0.13671459257602692,0.04387173429131508,0.9896383881568909,0.2192646712064743,-0.12298856675624847,-0.18939131498336792,-0.01643152785524782,0.9942001907373539,-0.07990727456493137,0.07007672300032794,-0.043885821885358445,-3.0043155318812325,2.984208074233677
1784114973440780288,3.195617437362671,-0.22820591926574707,-1.3338778018951416,-0.21849636733531952,-0.12364093959331512,0.04158715531229973,0.9914553165435791,0.20001116394996643,-0.07596520334482193,-0.16902172565460205,-0.015833725578852462,0.9946866438322177,-0.07953700911360938,0.06341679376255398,-0.04159915169493952,-3.0175266347491085,2.984592662474529
1784114973450699264,3.205536365509033,-0.2650119364261627,-1.3502141237258911,-0.19309890270233154,-0.11043331772089005,0.038973286747932434,0.9931191802024841,0.24619075655937195,-0.052690934389829636,-0.10105979442596436,-0.01506183145947013,0.9951195576455037,-0.07935153647235758,0.05668850152846545,-0.03898315845907584,-3.0308491610445807,2.9846090364136892
1784114973460619520,3.215456485748291,-0.23795102536678314,-1.2098407745361328,-0.20492812991142273,-0.09777019917964935,0.036427658051252365,0.994542121887207,0.17424724996089935,-0.056142013520002365,-0.11424732208251953,-0.014314055048587689,0.9955127446729437,-0.0789014698429066,0.05023994037702507,-0.03643571998133355,-3.0436007687447804,2.985195918302166
1784114973470539264,3.2253763675689697,-0.3308025896549225,-1.0792858600616455,-0.13682879507541656,-0.0865338146686554,0.03341788798570633,0.9956881403923035,0.2047589123249054,-0.08258171379566193,-0.11638528108596802,-0.013257251316282958,0.9958071056552384,-0.07881810102471164,0.04449839630356347,-0.033424111376607404,-3.0549019261861083,2.98507186243348
1784114973480459520,3.2352964878082275,-0.4265621602535248,-1.0917315483093262,-0.17082831263542175,-0.07570166140794754,0.029656270518898964,0.9966893196105957,0.22093482315540314,-0.1417168229818344,-0.11605894565582275,-0.011812632859217277,0.9960720324607021,-0.07864589105400957,0.038932771018211514,-0.029660620186393885,-3.065785091233765,2.985132386085945
1784114973490379264,3.2452163696289062,-0.6372440457344055,-1.0826821327209473,-0.26996272802352905,-0.06496048718690872,0.024277860298752785,0.9975924491882324,0.20329667627811432,-0.13726919889450073,-0.1075015664100647,-0.009570978992047603,0.9963454670321429,-0.07805084097675048,0.033349143678597946,-0.024280246074183255,-3.076567194519454,2.9860274463693965
1784114973500298496,3.2551355361938477,-0.7105528712272644,-1.0467733144760132,-0.27448025345802307,-0.05429019778966904,0.01735270395874977,0.9983744025230408,0.15461674332618713,-0.08804667741060257,-0.14308881759643555,-0.006554942889613121,0.9966031732218854,-0.07726127931288038,0.027745789601068632,-0.017353575150228114,-3.087267562147853,2.9873244159316026
1784114973510218496,3.2650554180145264,-0.8855128884315491,-0.8782211542129517,-0.2979370951652527,-0.04450599104166031,0.009331012144684792,0.9989653825759888,0.0920829027891159,-0.06285884231328964,-0.1008484959602356,-0.002949901814083128,0.9968104917497916,-0.07649529718951745,0.022550573511159033,-0.009331147211267817,-3.0970700114444814,2.988620503238264
1784114973520138496,3.274975538253784,-0.9899197220802307,-0.8691323399543762,-0.30315154790878296,-0.03588366135954857,-0.00022046970843803138,0.9993557929992676,0.10154223442077637,-0.08843309432268143,-0.059597671031951904,0.0014672321206178071,0.9969747712918059,-0.0756254001430807,0.017884977121176343,0.00022046971487830848,-3.1057012797354053,2.990168904725294
1784114973530058496,3.284895420074463,-1.063922643661499,-0.8288938403129578,-0.3411729633808136,-0.027270328253507614,-0.010530021972954273,0.9995726346969604,0.10664655268192291,-0.0875992476940155,-0.01615893840789795,0.006270461864382157,0.9970941528608361,-0.0747633383854762,0.013204734730962208,0.010530216226350333,-3.114317430417014,2.991766684741791
1784114973539978496,3.2948155403137207,-1.027533769607544,-0.7696148157119751,-0.33031418919563293,-0.019055914133787155,-0.021075604483485222,0.9995964169502258,0.06660230457782745,-0.07345259934663773,0.032538771629333496,0.011212533144395012,0.9971794312993956,-0.07369795105615952,0.008726229674858815,0.02107716489653575,-3.1225313536962642,2.9938472006365515
1784114973549897472,3.304734468460083,-0.8914220929145813,-0.6512306332588196,-0.3065120279788971,-0.01190205104649067,-0.030626459047198296,0.9994602799415588,0.05285663902759552,-0.020154794678092003,0.07123386859893799,0.0157077954418139,0.9972143303956026,-0.07275790585092978,0.004821590446501522,0.030631249636168013,-3.1296847382861275,2.9957460808242264
1784114973559817216,3.3146543502807617,-0.7619682550430298,-0.5589203834533691,-0.26669272780418396,-0.005699189379811287,-0.03886008262634277,0.9992285966873169,0.06356051564216614,-0.042347196489572525,0.11985111236572266,0.01958846795772197,0.9972169661025386,-0.0719208417889497,0.0014447965549326317,0.03886987033275054,-3.1358891260318806,2.9974880029601616
1784114973569737472,3.3245744705200195,-0.6915420889854431,-0.4900617301464081,-0.19852980971336365,-0.0003456881968304515,-0.04608219861984253,0.9989374279975891,0.09534690529108047,-0.13044673204421997,0.14362525939941406,0.023000944801328083,0.9971924791613249,-0.07124526578272214,-0.0014699913603116882,0.046098523582610886,-3.1412465977108877,2.998935352031643
1784114973579657216,3.3344943523406982,-0.6428200602531433,-0.28674161434173584,-0.11312250792980194,0.0037038405425846577,-0.052613478153944016,0.9986079335212708,0.11774086207151413,-0.2179248332977295,0.19165372848510742,0.02611795807276951,0.9971291953813101,-0.07097416502744884,-0.003716289248407322,0.05263778228923089,3.137883666916953,2.999572955894075
1784114973589577472,3.344414472579956,-0.7224405407905579,-0.17772828042507172,-0.017964661121368408,0.006136931944638491,-0.059382569044828415,0.9982166290283203,0.1657228171825409,-0.23047339916229248,0.28123295307159424,0.029411044859810446,0.9970237821085937,-0.0710767165118883,-0.0051743063197463735,0.05941752328701739,3.135444835236521,2.999438389237167
1784114973599496448,3.3543334007263184,-0.6957412958145142,-0.15655109286308289,0.09912201762199402,0.007740878500044346,-0.06650953739881516,0.9977559447288513,0.26568135619163513,-0.19430893659591675,0.336411714553833,0.03290924204538873,0.9968562290621852,-0.07180269236005868,-0.006253069697655774,0.06655867256645076,3.133834520555473,2.9980410388545202
1784114973609416448,3.364253520965576,-0.40832415223121643,-0.043093491345644,0.18874190747737885,0.008792160078883171,-0.07219488173723221,0.9973517656326294,0.24874567985534668,-0.1742498129606247,0.34436875581741333,0.0357028230792343,0.9966606481131006,-0.07309888745429116,-0.007029390487576952,0.07225774087322066,3.1327773761598197,2.9954858442195134
1784114973619336448,3.374173402786255,-0.10050667822360992,0.025162257254123688,0.38080376386642456,0.008823515847325325,-0.07464361190795898,0.9971715211868286,0.17126071453094482,-0.2122521549463272,0.3995267152786255,0.0369123363641441,0.9964824852126888,-0.07488933501728919,-0.0072014293640075356,0.07471310315061805,3.132744340702402,2.9918980214897974
1784114973629256448,3.3840935230255127,0.25615930557250977,0.2317681610584259,0.33942994475364685,0.007500709034502506,-0.073795385658741,0.9972451329231262,0.12871450185775757,-0.2719840407371521,0.4615103006362915,0.03652216721797159,0.9963164967848146,-0.07730455836715505,-0.006597988124632286,0.07386252782649165,3.1340713659171,2.9870001097119907
1784114973639176448,3.3940134048461914,0.22030863165855408,0.41626957058906555,0.349689781665802,0.004563585855066776,-0.07122249156236649,0.9974499940872192,0.1310412734746933,-0.2470911145210266,0.5820024609565735,0.03534014247170803,0.9962066257540476,-0.07935587493526478,-0.005105608408942861,0.07128284045672058,3.1370174325844467,2.982775391009877
1784114973649094400,3.4039313793182373,0.21654824912548065,0.6364969611167908,0.3642314374446869,-0.00025395789998583496,-0.06932771950960159,0.9975938200950623,0.17322759330272675,-0.20104274153709412,0.6096906065940857,0.034579472759830934,0.9960666897923413,-0.08153556501922388,-0.002703110076753659,0.069383376958922,-3.141338083160855,2.9782329405149057
1784114973659014400,3.413851499557495,0.19065912067890167,0.8973626494407654,0.2336936742067337,-0.005735098849982023,-0.06741669028997421,0.9977084994316101,0.1934487223625183,-0.1504025161266327,0.6253231763839722,0.03384946702429798,0.9959358857649828,-0.08346238025234126,4.256531810275933e-05,0.06746786563460866,-3.135844445992475,2.974183464189052
1784114973668934400,3.423771381378174,0.1805819869041443,1.0832436084747314,0.21256335079669952,-0.015235872939229012,-0.06563875079154968,0.9977274537086487,0.24076077342033386,-0.1427352875471115,0.6562035083770752,0.03336724338722244,0.9958119399230635,-0.08498415366356783,0.00480236228887727,0.06568597445748613,-3.126323263999492,2.970820430865748
1784114973678854400,3.4336915016174316,0.07185177505016327,1.2861061096191406,0.38468238711357117,-0.026909543201327324,-0.0642702728509903,0.9975695610046387,0.26331397891044617,-0.149947851896286,0.6971172094345093,0.03320394659318713,0.9956035657236212,-0.08693852537353433,0.010614736605576065,0.06431460513448617,-3.1146240880070413,2.9665220713244045
1784114973688773376,3.443610429763794,0.10700829327106476,1.4061199426651,0.3435508608818054,-0.040411729365587234,-0.06329543888568878,0.9971764087677002,0.21625401079654694,-0.2599772810935974,0.6869820356369019,0.03334804686152717,0.9953074451372392,-0.0891699637414015,0.017313464389001245,0.06333777658491148,-3.101088659541353,2.9616056959066306
1784114973698693632,3.4535305500030518,0.025480149313807487,1.4791206121444702,0.3967496454715729,-0.054851483553647995,-0.06244172155857086,0.9965401291847229,0.2272758036851883,-0.39614591002464294,0.6976431608200073,0.033627751612288106,0.9949459588821664,-0.09139250529154282,0.02447612098360726,0.06248237085947348,-3.0866062143296498,2.956674410230468
1784114973708613376,3.4634504318237305,-0.2509574294090271,1.6153489351272583,0.4775928854942322,-0.07025692611932755,-0.06307113915681839,0.9955331683158875,0.22511836886405945,-0.4084254503250122,0.7452812194824219,0.034736971864465796,0.9944593810181542,-0.0938995214538817,0.032044221294871736,0.06311303185810438,-3.071137307143776,2.9510805633448896
1784114973718533632,3.4733705520629883,-0.49348220229148865,1.7208908796310425,0.4617699980735779,-0.08705996721982956,-0.066525399684906,0.9939793944358826,0.19442081451416016,-0.308260977268219,0.7407313585281372,0.037379434396888817,0.993797564426705,-0.09672686617668008,0.040163498927120136,0.06657457039780164,-3.0542283080780632,2.94463172473709
1784114973728453376,3.483290433883667,-0.5524750351905823,1.8430452346801758,0.39966660737991333,-0.10483147948980331,-0.07133107632398605,0.9919282793998718,0.1993597000837326,-0.13190071284770966,0.7064356803894043,0.040791990241996735,0.9930160185541105,-0.0994149701322822,0.04870052943126051,0.07139170525093169,-3.0362989742433415,2.938265637594349
1784114973738373632,3.493210554122925,-0.3351480960845947,1.8091237545013428,0.4507601261138916,-0.12307898700237274,-0.0756247490644455,0.9895113706588745,0.21887364983558655,-0.0018746480345726013,0.62050461769104,0.04402159909341133,0.992147929856962,-0.10197138029564429,0.057502060267432945,0.07569701833900386,-3.0178446198710716,2.9320632032324316
