time,seconds_elapsed,rotationRateX,rotationRateY,rotationRateZ,gravityX,gravityY,gravityZ,accelerationX,accelerationY,accelerationZ,quaternionW,quaternionX,quaternionY,quaternionZ,pitch,roll,yaw
1783160550798657024,0.1628880500793457,-0.3929886817932129,0.15542800724506378,-0.10145898163318634,0.03984222188591957,0.7952801585197449,-0.6049314141273499,0.02844085544347763,-0.02901434898376465,0.02392256259918213,0.7068688860036829,-0.36393020262396286,-0.25512566181371005,0.5502744833465242,-0.919469560709386,0.06576739566862724,1.3555170038777147
1783160550808575744,0.172806978225708,-0.334809273481369,0.14155027270317078,-0.23089179396629333,0.040512941777706146,0.7976266145706177,-0.6017892956733704,0.042082902044057846,0.00027066469192504883,0.004407763481140137,0.7066565986063379,-0.36577507582437296,-0.2555659212442657,0.5491183748463888,-0.9233499653551291,0.0672193801717454,1.3546516761668543
1783160550818496000,0.18272709846496582,-0.1694229543209076,0.06995461881160736,-0.4777676463127136,0.040625639259815216,0.7995023727416992,-0.5992875099182129,0.056893281638622284,0.05708026885986328,-0.01580953598022461,0.7069038688169523,-0.3673012798268734,-0.2558241986520566,0.5476592298166153,-0.9264662737832392,0.06768634475478805,1.352099754632826
1783160550828414976,0.19264602661132812,0.11597496271133423,0.00704116839915514,-0.4923582971096039,0.040060870349407196,0.8004650473594666,-0.5980392694473267,0.08921156078577042,0.13315922021865845,-0.04096829891204834,0.7075952634985239,-0.3681299913317084,-0.25585281673068977,0.5461947733660679,-0.9280706505008726,0.06688709591921857,1.3482298981210834
1783160550838334976,0.20256614685058594,0.5061935186386108,0.07923722267150879,-0.20263610780239105,0.04230806231498718,0.7996784448623657,-0.5989360213279724,0.13452604413032532,0.14416921138763428,-0.06884956359863281,0.7081633924026933,-0.36861869046791657,-0.254268061745787,0.5458685888685055,-0.9267594440261466,0.07052155898044558,1.348638253886294
1783160550848254976,0.21248602867126465,0.528678297996521,0.092018261551857,-0.2617172598838806,0.044530805200338364,0.7971784472465515,-0.6020992994308472,0.14515119791030884,0.07055836915969849,-0.05042755603790283,0.709137747859779,-0.3680330011935109,-0.2519961372808215,0.546052594489625,-0.9226073123372104,0.0738248229196884,1.349095801499749
1783160550858173952,0.22240495681762695,0.5395224690437317,0.11584164202213287,-0.4898207187652588,0.045574456453323364,0.7945843935012817,-0.6054409146308899,0.13702745735645294,0.06863582134246826,0.005724728107452393,0.7106279271380783,-0.3672020831455364,-0.24988432681203804,0.5456450797588897,-0.918322795566249,0.0751331285753216,1.3467960348667236
1783160550868093952,0.23232507705688477,0.5785290002822876,0.1441129595041275,-0.5476616621017456,0.045802488923072815,0.791917622089386,-0.6089077591896057,0.169743150472641,0.07295048236846924,-0.026254594326019287,0.7125529001847157,-0.366231534723646,-0.24783175188142428,0.5447222848642318,-0.913943073849505,0.07507934363556458,1.3423187032574193
1783160550878012928,0.24224400520324707,0.6453028321266174,0.1450863778591156,-0.5561346411705017,0.04596385732293129,0.7889174818992615,-0.6127777695655823,0.197688490152359,0.1280595064163208,-0.053405702114105225,0.7146655543716326,-0.3650868811714578,-0.24560676579268564,0.5437298176815771,-0.9090453711303215,0.0748688102483625,1.337373875203462
1783160550887932928,0.2521641254425049,0.7490662336349487,0.1258527636528015,-0.5975974202156067,0.04570552706718445,0.7852940559387207,-0.6174336671829224,0.20911625027656555,0.1673121452331543,-0.09336650371551514,0.7170289448366162,-0.363468110076638,-0.24325727698980965,0.5427581291136261,-0.9031709139721187,0.07389022934409237,1.3317242376843341
1783160550897852928,0.2620840072631836,0.8135175704956055,0.09465913474559784,-0.7272027730941772,0.044299568980932236,0.781093955039978,-0.6228399872779846,0.22465184330940247,0.1761966347694397,-0.1351555585861206,0.7198044949047808,-0.3612349096170078,-0.2410172871802769,0.5415731016153869,-0.8964159191288026,0.07100554196974246,1.3242105548934673
1783160550907771904,0.2720029354095459,0.8319647908210754,0.04078018665313721,-0.8659204244613647,0.04130614176392555,0.776562511920929,-0.6286846399307251,0.26954594254493713,0.16020500659942627,-0.1639941930770874,0.7230393862088896,-0.3584420269872554,-0.23911712393752482,0.5399594783863703,-0.8891913530476274,0.06560818792002981,1.3141533650767527
1783160550917691904,0.2819230556488037,0.8382598757743835,-0.026912536472082138,-0.9554662108421326,0.036948252469301224,0.7718580365180969,-0.634720504283905,0.3356713652610779,0.14134997129440308,-0.17321717739105225,0.7265524868862328,-0.35521347566898076,-0.2376197436393062,0.5380351685200445,-0.881758356791116,0.05814622963054172,1.3022704123395334
1783160550927611904,0.2918429374694824,0.9299131035804749,-0.07977095991373062,-1.0210422277450562,0.0316728837788105,0.7667523622512817,-0.6411612629890442,0.3764234185218811,0.13212764263153076,-0.1820809245109558,0.7302630366919521,-0.3515239411958013,-0.23632664772503523,0.5360006399728441,-0.8737666580932202,0.049359123250600566,1.2893958618363377
1783160550937530880,0.30176210403442383,1.1256924867630005,-0.11040203273296356,-1.1375000476837158,0.025540120899677277,0.7605875134468079,-0.6487329006195068,0.38002321124076843,0.12977808713912964,-0.18421387672424316,0.7344099107380216,-0.34706522227304915,-0.23490269220900736,0.5338619778082632,-0.8642175612244122,0.039348918616393176,1.2752882249631408
1783160550947450880,0.31168198585510254,1.3852455615997314,-0.18201549351215363,-1.199267864227295,0.01842455379664898,0.752739429473877,-0.6580607295036316,0.39093825221061707,0.13845014572143555,-0.1543934941291809,0.7391780027704057,-0.3414855168066615,-0.23314648277294678,0.5316448842247559,-0.8522134971098381,0.027990944457837518,1.2597483047703364
1783160550957370112,0.32160115242004395,1.458864688873291,-0.25791263580322266,-0.8824837803840637,0.01151646301150322,0.7435715794563293,-0.6685571670532227,0.3999215066432953,0.16641682386398315,-0.10369014739990234,0.7436980490601958,-0.33507966061698075,-0.2311774762179896,0.5302753065504385,-0.8383960624486335,0.01722414277969981,1.2465039403225657
1783160550967289856,0.33152103424072266,1.7235913276672363,-0.035660676658153534,-1.5363481044769287,0.004857404623180628,0.7330706119537354,-0.6801353096961975,0.2676492929458618,0.08840155601501465,-0.06910181045532227,0.7489571674533058,-0.32830967915796605,-0.22835304697200007,0.5283284793331884,-0.822825626681762,0.007141699826410362,1.2318232754965655
1783160550977210112,0.34144115447998047,1.816127896308899,-0.1447017937898636,-1.5725339651107788,-0.004809203092008829,0.7211257219314575,-0.6927874684333801,0.3878658413887024,0.0025070905685424805,-0.019767403602600098,0.755618493934037,-0.3204017178270868,-0.22571883024805292,0.5248184128121022,-0.8054258274438493,-0.006941704162395465,1.2111669129735103
1783160550987129088,0.3513600826263428,1.9487594366073608,-0.28905177116394043,-1.2448116540908813,-0.013349073007702827,0.7080789804458618,-0.7060070037841797,0.6405463218688965,0.08548480272293091,0.03890800476074219,0.7615648534043264,-0.31199932612624776,-0.22282934870244847,0.5225154360130908,-0.7867740222253394,-0.01890559467682788,1.19483594600751
1783160550997048832,0.3612799644470215,2.1729824542999268,-0.3014962077140808,-1.2923237085342407,-0.0211065374314785,0.6935398578643799,-0.7201090455055237,0.5397985577583313,0.10724139213562012,-0.05621236562728882,0.7672546852888561,-0.3029612993698377,-0.21945369334670398,0.5209365232869898,-0.7663910968377454,-0.029301806056332803,1.1811197753413214
1783160551006968064,0.3711991310119629,2.3596441745758057,-0.18805672228336334,-1.3485411405563354,-0.02868017926812172,0.6770190596580505,-0.7354064583778381,0.39365512132644653,0.04618650674819946,-0.06757199764251709,0.7734141111129027,-0.29314529192290045,-0.21531975530339295,0.5191666111934928,-0.7437046776020454,-0.038979329827279995,1.1671567768659394
1783160551016887808,0.3811190128326416,2.300206184387207,-0.17466506361961365,-1.28963041305542,-0.03549824655056,0.6595689654350281,-0.7508053183555603,0.4041810929775238,-0.02750420570373535,-0.029971599578857422,0.7796434114416589,-0.28322210060147496,-0.21067172104866785,0.5172608209918296,-0.720245132526172,-0.04724504290925116,1.153763446898324
1783160551026808064,0.3910391330718994,2.0573318004608154,-0.19799888134002686,-1.1965782642364502,-0.04156958684325218,0.6429291367530823,-0.7647968530654907,0.433979868888855,-0.091400146484375,0.018092751502990723,0.785311349886467,-0.27395367188702374,-0.2062788642720969,0.5154460542022119,-0.6983164294301645,-0.054300334676529186,1.1418914334363983
1783160551036727040,0.4009580612182617,1.6884362697601318,-0.17756082117557526,-1.2037023305892944,-0.0470595620572567,0.6282903552055359,-0.77655428647995,0.3722396194934845,-0.1950017809867859,0.013813197612762451,0.7903432432027346,-0.2659092341652443,-0.20252193451095496,0.5134536314356112,-0.6793537398657478,-0.06052645768002474,1.1308767424025576
1783160551046646784,0.41087794303894043,1.1173573732376099,-0.14234744012355804,-1.3049348592758179,-0.05226469412446022,0.6169404983520508,-0.785272479057312,0.2952303886413574,-0.2853364944458008,0.015130877494812012,0.7948758802917107,-0.25973618113050756,-0.1997520608157711,0.5106941517924823,-0.6648492141198756,-0.06645811153507572,1.1191939943847757
1783160551056566016,0.42079710960388184,0.37985649704933167,-0.15221089124679565,-1.4870750904083252,-0.05787946656346321,0.6104525923728943,-0.7899352312088013,0.2567472457885742,-0.3379458785057068,0.03287041187286377,0.7988972226972755,-0.2560774924690541,-0.19863713943591446,0.5066861756933961,-0.656631866639542,-0.07314045582827475,1.105496399638793
1783160551066485760,0.43071699142456055,-0.38866281509399414,-0.1573507934808731,-1.684215784072876,-0.06448593735694885,0.609666645526886,-0.7900304794311523,0.22784654796123505,-0.366441547870636,0.012305259704589844,0.802381367869311,-0.255227467624597,-0.19960887051113066,0.5011978903741136,-0.655639936376367,-0.08144406813094421,1.0889659163963563
1783160551076406016,0.44063711166381836,-0.9484832286834717,-0.0538327619433403,-1.8330836296081543,-0.07149255275726318,0.6138442754745483,-0.78618323802948,0.19302880764007568,-0.35221707820892334,-0.00831139087677002,0.8054481984498225,-0.2570173437003531,-0.20211500831791712,0.49431253383338036,-0.6609211292101587,-0.0906868189344103,1.0697526353284654
1783160551086324992,0.45055603981018066,-1.289016604423523,0.09087622165679932,-1.9646222591400146,-0.07816511392593384,0.6210812926292419,-0.7798386216163635,0.12488752603530884,-0.2796964645385742,0.018058836460113525,0.8083484717935704,-0.2607191566528574,-0.20519799275008244,0.48630460181572815,-0.6701216317079074,-0.0998987726952022,1.0483852160316605
1783160551096244736,0.4604759216308594,-1.468927264213562,0.24332715570926666,-2.1020407676696777,-0.0844346135854721,0.6300082802772522,-0.7719846963882446,0.029304608702659607,-0.1416659951210022,0.04398787021636963,0.8112897546160124,-0.2657019597657131,-0.20835093104617475,0.4772854070481864,-0.6815638649660625,-0.10894040437688016,1.024885488288034
1783160551106164992,0.4703960418701172,-1.416555404663086,0.36258459091186523,-2.231231212615967,-0.09064776450395584,0.6391250491142273,-0.763742208480835,-0.06468669325113297,-0.014872729778289795,0.010843038558959961,0.8144625052709846,-0.27111045028474534,-0.21125347482909662,0.467463181063261,-0.6933600844646028,-0.11813629194805586,0.9993716164910291
1783160551116083968,0.4803149700164795,-1.148353099822998,0.45036011934280396,-2.4017608165740967,-0.09746358543634415,0.6466801762580872,-0.7565087676048279,-0.14136697351932526,0.043184876441955566,-0.11362361907958984,0.8181785489609371,-0.2758655136895957,-0.21364415641074358,0.4569881642658835,-0.7032240091270416,-0.12812759976760332,0.9716971878036048
1783160551126003968,0.4902350902557373,-0.8290930986404419,0.5095299482345581,-2.6256155967712402,-0.10571664571762085,0.6515408158302307,-0.751211404800415,-0.19045644998550415,0.027109086513519287,-0.24599623680114746,0.8227289720189366,-0.2791866434618557,-0.21552059082739722,0.44578318805940914,-0.7096137333453608,-0.13981009526359345,0.9412348625750643
1783160551135922944,0.5001540184020996,-0.6947174668312073,0.5297956466674805,-2.8882861137390137,-0.11602415889501572,0.6540858745574951,-0.7474691271781921,-0.1927221566438675,-0.04072833061218262,-0.32928258180618286,0.8280816947960853,-0.2811652778388181,-0.2172821585065665,0.4336072301191089,-0.7129734924789953,-0.1539937543085276,0.9072979161679554
1783160551145842944,0.5100741386413574,-0.7705837488174438,0.5355001091957092,-3.16007399559021,-0.12866124510765076,0.6557716727256775,-0.7439151406288147,-0.15048302710056305,-0.11680072546005249,-0.3687556982040405,0.8339238953891052,-0.28258615911268226,-0.2195164683872221,0.4201529298647348,-0.7152043096832803,-0.17125735864938432,0.8692799174186012
1783160551155762944,0.5199940204620361,-0.8036016225814819,0.5486317873001099,-3.370753049850464,-0.14328579604625702,0.6570864319801331,-0.7400720119476318,-0.09302707016468048,-0.18427765369415283,-0.37894654273986816,0.8400362360580711,-0.28382951816209073,-0.22227191529109788,0.4054319889771971,-0.7169471459369239,-0.19124443838637992,0.8274806636542682
1783160551165681920,0.5299129486083984,-0.8231539726257324,0.5574790835380554,-3.4971461296081543,-0.1592831015586853,0.6576842665672302,-0.7362610101699829,-0.029941141605377197,-0.21295160055160522,-0.3728240728378296,0.8462653725329036,-0.28479732107351113,-0.22529973571110343,0.3898274492210223,-0.7177404726708217,-0.2130571104214052,0.783159702831483
1783160551175601920,0.5398330688476562,-0.8318879008293152,0.5821902751922607,-3.5729076862335205,-0.17603012919425964,0.6576201319694519,-0.732495129108429,0.02452564239501953,-0.17663264274597168,-0.32426750659942627,0.8524510067749769,-0.28561385393615474,-0.2284231976605875,0.37359713674114026,-0.7176553500753049,-0.23584353198871638,0.7372896049093108
1783160551185520896,0.5497519969940186,-0.6700979471206665,0.5813109278678894,-3.622833490371704,-0.19317491352558136,0.6562541723251343,-0.7293928265571594,0.05229048430919647,-0.13351857662200928,-0.2458115816116333,0.8586142827386556,-0.28593729710821336,-0.2313945525073337,0.3570405664918563,-0.715843598355378,-0.2588994324836868,0.6908575888772985
1783160551195440896,0.5596721172332764,-0.4911559224128723,0.5250751972198486,-3.7015726566314697,-0.21093019843101501,0.6527507901191711,-0.7276158928871155,0.06566649675369263,-0.11825066804885864,-0.19903510808944702,0.8648534560868878,-0.2852162429951972,-0.23418741118639624,0.34034769448304447,-0.711209850085396,-0.28215801693887277,0.6444419454628548
1783160551205360896,0.5695919990539551,-0.4785408079624176,0.47988805174827576,-3.8286561965942383,-0.22970475256443024,0.6477058529853821,-0.7264385223388672,0.06515394151210785,-0.10667496919631958,-0.1646137237548828,0.8710458891554017,-0.28377876184299294,-0.23717156749003016,0.3232621933811799,-0.7045694401125089,-0.3062582424478933,0.5973754012229596
1783160551215279872,0.5795109272003174,-0.4412420392036438,0.4576343595981598,-3.924654960632324,-0.24928854405879974,0.6415723562240601,-0.7254241108894348,0.06648825109004974,-0.13101327419281006,-0.13657540082931519,0.8771136718603811,-0.28199007074604004,-0.2403529655159939,0.30558736045208623,-0.6965463449453165,-0.33100238583380576,0.5493603460832802
1783160551225199872,0.5894310474395752,-0.42298632860183716,0.4109869599342346,-3.9781792163848877,-0.269345760345459,0.6342352032661438,-0.7247058153152466,0.07574230432510376,-0.21008670330047607,-0.10929375886917114,0.8829765820360911,-0.2797898047682649,-0.24364885186111807,0.28758497225652335,-0.687018889544528,-0.3558411987579671,0.5012643338318916
1783160551235118848,0.5993499755859375,-0.5395197868347168,0.3681139647960663,-4.049194812774658,-0.28982675075531006,0.6262872815132141,-0.7237158417701721,0.07455578446388245,-0.2756098508834839,-0.1295403242111206,0.8884762110326737,-0.2775517929559278,-0.24719844854313536,0.2691986162807167,-0.6767816764210522,-0.3809118110574521,0.45290324892068845
1783160551245039104,0.6092700958251953,-0.7438928484916687,0.36156392097473145,-4.128896236419678,-0.31080472469329834,0.6185352206230164,-0.7216747999191284,0.05712735652923584,-0.32172131538391113,-0.14700806140899658,0.8575524018143988,-0.24414979718076282,-0.2820522411479964,0.35417686454990427,-0.6668772024678289,-0.4066645847765057,0.6407521732097027
1783160551254958848,0.619189977645874,-0.9842983484268188,0.32620862126350403,-4.203327178955078,-0.33208373188972473,0.6112313866615295,-0.7184125781059265,0.054800987243652344,-0.3584085702896118,-0.1909807324409485,0.8603440633810944,-0.23935196402035233,-0.2889711894254987,0.3449847897810302,-0.6576155485681671,-0.4329913422684532,0.6129048548703251
1783160551264878080,0.6291091442108154,-1.2840254306793213,0.23036891222000122,-4.312436103820801,-0.35422107577323914,0.6045918464660645,-0.7134396433830261,0.07175037264823914,-0.37003374099731445,-0.2022860050201416,0.8654214266508223,-0.23750131593527932,-0.29474275348929413,0.3282767551446033,-0.6492533545703798,-0.460841745985201,0.5675501517248909
1783160551274797824,0.6390290260314941,-1.640479326248169,0.12192320823669434,-4.422661781311035,-0.37758806347846985,0.5988485813140869,-0.7062631249427795,0.10646989941596985,-0.3613607883453369,-0.19647735357284546,0.8702865236911365,-0.2369747795711246,-0.3011833108556003,0.3094073781918354,-0.642062623468055,-0.49096476020860286,0.5169349245328397
1783160551284718080,0.648949146270752,-1.8830336332321167,0.009068024344742298,-4.481852054595947,-0.40211281180381775,0.5937647819519043,-0.6969567537307739,0.14762672781944275,-0.3632655143737793,-0.17769229412078857,0.8739253731718469,-0.23680942786835613,-0.30893835377414147,0.2910891946276368,-0.6357296393790018,-0.5233023846363535,0.46728591403923025
1783160551294637056,0.6588680744171143,-1.8954379558563232,-0.10247813910245895,-4.4859466552734375,-0.42742255330085754,0.5881602168083191,-0.6865693926811218,0.17543894052505493,-0.3924357295036316,-0.17585736513137817,0.8770448953676183,-0.23687792641312114,-0.317181587887962,0.27217064639844263,-0.6287820547747094,-0.5568342998956596,0.41644285230481604
1783160551304556800,0.668787956237793,-1.7037532329559326,-0.17211446166038513,-4.450014114379883,-0.45295923948287964,0.5806378722190857,-0.6765260696411133,0.16464442014694214,-0.4137372374534607,-0.18568706512451172,0.879771558844939,-0.23620332515132653,-0.3254918468869657,0.25350551263870114,-0.6195119649625912,-0.5899871235749341,0.36720313974465235
1783160551314476032,0.6787071228027344,-1.4130133390426636,-0.20229315757751465,-4.443935394287109,-0.4782763719558716,0.5702589750289917,-0.6678745150566101,0.12279239296913147,-0.3985366225242615,-0.1545894742012024,0.8824672692484647,-0.23435632486449517,-0.3333764565558534,0.23492272739772918,-0.606821092743029,-0.6214611266587112,0.3199487940173759
1783160551324395776,0.6886270046234131,-1.0670852661132812,-0.2215651124715805,-4.494649887084961,-0.5033650994300842,0.5563492774963379,-0.661134660243988,0.0832754373550415,-0.3466477394104004,-0.12434208393096924,0.8851087152906094,-0.23064289417565778,-0.3409348029825463,0.21714003373140886,-0.5899858448283858,-0.6507354550139416,0.27684506847870366
1783160551334316032,0.6985471248626709,-0.6662660837173462,-0.26175472140312195,-4.544271945953369,-0.5282366871833801,0.538506805896759,-0.6564879417419434,0.08148980140686035,-0.2925809621810913,-0.08875131607055664,0.888061557640219,-0.22524867098770004,-0.34787792824346625,0.19897419463323612,-0.5686640530024825,-0.6775640045742631,0.2355933074843927
1783160551344235008,0.7084660530090332,-0.28671368956565857,-0.3317532539367676,-4.56209135055542,-0.552760899066925,0.5166922211647034,-0.6538230776786804,0.12417197227478027,-0.2720479965209961,-0.03065568208694458,0.8911731913241038,-0.2179629341812564,-0.35437355540987747,0.18089210318494853,-0.5429829502438757,-0.7018342634952767,0.19742270752648536
1783160551354154752,0.7183859348297119,-0.04799100384116173,-0.44518348574638367,-4.571361541748047,-0.5768442153930664,0.49160441756248474,-0.6523617506027222,0.1968088150024414,-0.28124678134918213,0.025057673454284668,0.8943266662862024,-0.20939636348272508,-0.3605166970886948,0.16235992342955416,-0.5139312356085495,-0.724039272871025,0.16079868712277393
1783160551364073984,0.7283051013946533,-0.03495056927204132,-0.6274622082710266,-4.5694193840026855,-0.600600004196167,0.46451708674430847,-0.6507715582847595,0.2814318537712097,-0.31926870346069336,0.02249091863632202,0.8969468330042286,-0.19983190577909646,-0.3669896812396291,0.14447258666128704,-0.4830892165001308,-0.7453263648005939,0.1273772697534451
1783160551373993984,0.738224983215332,-0.2262635976076126,-0.8293864727020264,-4.549098491668701,-0.6240885257720947,0.4368780553340912,-0.647804856300354,0.3606760501861572,-0.3652532994747162,-0.0002359151840209961,0.8988710812045966,-0.1905082356553145,-0.3739039950311613,0.12622674476995735,-0.4521250612869325,-0.7667538534970898,0.09403246825560482
1783160551383913984,0.7481451034545898,-0.5181969404220581,-0.9825446009635925,-4.517553806304932,-0.6468577980995178,0.40970495343208313,-0.6432083249092102,0.3962017297744751,-0.40167883038520813,0.008305370807647705,0.8999998884213829,-0.18199281167963835,-0.38114887272429293,0.10772421847379744,-0.4221305955100956,-0.7882270902187501,0.0605168305315787
1783160551393832960,0.7580640316009521,-0.7863418459892273,-1.1030879020690918,-4.473400115966797,-0.6678076386451721,0.38298526406288147,-0.6382438540458679,0.3972540497779846,-0.42076602578163147,0.029006242752075195,0.9006395058478933,-0.17415711327771646,-0.3880043389357977,0.08927696295117837,-0.39302578980507075,-0.8080302895348307,0.02778724517080197
1783160551403752960,0.76798415184021,-0.985034704208374,-1.1890904903411865,-4.4414238929748535,-0.6809219717979431,0.354964941740036,-0.6405819654464722,0.3771805167198181,-0.4006650447845459,0.14064300060272217,0.9029383838261996,-0.16603561708259396,-0.390052814603109,0.0706636198744933,-0.36287657676124474,-0.8159145212370467,-0.0020489605220139484
1783160551413671936,0.7779030799865723,-0.9938462972640991,-1.2111119031906128,-4.408157825469971,-0.6998567581176758,0.3296336233615875,-0.6336736083030701,0.3548402786254883,-0.3471049666404724,0.20761775970458984,0.9023202827681344,-0.15999109071653211,-0.3969458809427966,0.051527444432735645,-0.3359154856619789,-0.8349874927201597,-0.03604929698319481
1783160551423591936,0.787822961807251,-0.7208883166313171,-1.1958913803100586,-4.354195594787598,-0.7197878956794739,0.30369624495506287,-0.6242387294769287,0.32771337032318115,-0.27752745151519775,0.2936875820159912,0.9005935675226864,-0.15402678904707048,-0.4051621733559288,0.0324131698986421,-0.3085697518930419,-0.8563704888390862,-0.06977915812601349
1783160551433511936,0.7977430820465088,-0.19413122534751892,-1.1838455200195312,-4.27535343170166,-0.7387034296989441,0.2750285267829895,-0.61536705493927,0.2998759150505066,-0.206928551197052,0.3274794816970825,0.8986019160701564,-0.14655665078322314,-0.41332509222147773,0.014076505492767327,-0.2786193665108886,-0.8762331655954373,-0.09986336028883853
1783160551443430912,0.8076620101928711,0.46094244718551636,-1.2070637941360474,-4.16210412979126,-0.7562208771705627,0.24270205199718475,-0.607639491558075,0.28927141427993774,-0.15537600219249725,0.28760164976119995,0.8965564068254749,-0.1365393351386759,-0.4213517224656444,-0.00252566506380294,-0.2451502083252547,-0.8939120247244793,-0.12359123755999073
1783160551453350912,0.8175821304321289,1.0092737674713135,-1.3440542221069336,-4.046024322509766,-0.7725646495819092,0.20693935453891754,-0.600266695022583,0.3072326183319092,-0.13384976983070374,0.263322114944458,0.8943421488938986,-0.12381066222153309,-0.42957838108827806,-0.01689893847813218,-0.2084455517341701,-0.9102509170429326,-0.14007958528947786
1783160551463270912,0.8275020122528076,1.2435890436172485,-1.526121735572815,-4.015055179595947,-0.7882197499275208,0.1688239723443985,-0.591783881187439,0.35558730363845825,-0.1528327763080597,0.23538434505462646,0.8916242118597308,-0.10940622305989825,-0.43833587840620697,-0.02997073797063371,-0.16963639597899566,-0.9267927487928156,-0.15211970547886697
1783160551473189888,0.8374209403991699,1.2061904668807983,-1.6640346050262451,-3.9841835498809814,-0.8031535744667053,0.1299133598804474,-0.5814351439476013,0.4153820276260376,-0.23684696853160858,0.2010793685913086,0.888202544929193,-0.09459405397265455,-0.4475873001608313,-0.04258833490620749,-0.13028160198074493,-0.9441831545289225,-0.16241582067155325
1783160551483109888,0.8473410606384277,1.0867009162902832,-1.8116480112075806,-3.88454008102417,-0.8171457052230835,0.09155880659818649,-0.5691132545471191,0.482627272605896,-0.3584197759628296,0.22308969497680664,0.8840318965410047,-0.08031742163792355,-0.4571569575465133,-0.05517526829048817,-0.0916872177333822,-0.9624469100777576,-0.1725651561497993
1783160551493028864,0.85725998878479,1.0465449094772339,-1.9500945806503296,-3.721938133239746,-0.8301926851272583,0.05440608784556389,-0.5548153519630432,0.5474625825881958,-0.455590158700943,0.2375851273536682,0.8791056705146083,-0.06690052489926092,-0.46702959833661656,-0.06768219258498258,-0.05443296351739128,-0.9816658239478167,-0.18277378510512413
1783160551502949120,0.8671801090240479,1.1562062501907349,-2.0499117374420166,-3.568197011947632,-0.842160701751709,0.01808328367769718,-0.5389232635498047,0.5915046334266663,-0.47801369428634644,0.24595457315444946,0.8735944549763783,-0.05368132686551062,-0.47713381871593974,-0.0793363757292645,-0.01808426884084076,-1.001533315589431,-0.1910328288951008
1783160551512868864,0.8770999908447266,1.391484260559082,-2.2075421810150146,-3.4145421981811523,-0.8531556725502014,-0.018160346895456314,-0.5213401317596436,0.6130434274673462,-0.4059576690196991,0.27809983491897583,0.8675551493400192,-0.03985930344364367,-0.4875870868401423,-0.08954362887599392,0.018161344750576597,-1.0222748923873353,-0.19551308856089666
1783160551522788096,0.887019157409668,1.6008821725845337,-2.363736867904663,-3.2662534713745117,-0.8634248375892639,-0.05440127104520798,-0.5015356540679932,0.5809541344642639,-0.2950707674026489,0.32114624977111816,0.8608930979339879,-0.025240998050561122,-0.49859308193075647,-0.09813701517003225,0.05442814088835025,-1.0445634429059112,-0.1956751563164239
1783160551532707840,0.8969390392303467,1.5761226415634155,-2.3933823108673096,-3.208427906036377,-0.8725553750991821,-0.0902962014079094,-0.48009753227233887,0.4665800929069519,-0.2238364815711975,0.38231924176216125,0.8536394977930429,-0.010723409383194691,-0.5097413452932738,-0.10652859142202638,0.09041935938306511,-1.06778412767115,-0.19482740737237225
1783160551542626816,0.906857967376709,1.3451192378997803,-2.3185715675354004,-3.145451068878174,-0.8799947500228882,-0.12502145767211914,-0.4582345485687256,0.3514760732650757,-0.23723745346069336,0.4644448757171631,0.8461049896258265,0.0031456931278299838,-0.520454443219529,-0.11499400958339047,0.12534946060777682,-1.0907071452613364,-0.19404809981206173
1783160551552547072,0.9167780876159668,0.9430309534072876,-2.2362589836120605,-3.0187692642211914,-0.8856326937675476,-0.15742389857769012,-0.4368896782398224,0.29446130990982056,-0.32376205921173096,0.4793701171875,0.8385159044206427,0.015538366989743974,-0.530390162782597,-0.12383861709093101,0.15808148503149916,-1.1125166484332887,-0.1948431325063455
1783160551562466816,0.9266979694366455,0.33991527557373047,-2.1560568809509277,-2.9075753688812256,-0.88975989818573,-0.18643878400325775,-0.4166146218776703,0.29275989532470703,-0.40439674258232117,0.5166360139846802,0.8309460066476146,0.025477672648035028,-0.5394845517040296,-0.13355122809089473,0.1875361260527883,-1.1328840325713951,-0.1992441203141023
1783160551572386048,0.9366171360015869,-0.19574971497058868,-2.049769878387451,-2.843984365463257,-0.8924282789230347,-0.21236065030097961,-0.3980887532234192,0.29910552501678467,-0.453288733959198,0.5420860052108765,0.8233184291040401,0.03213546375241877,-0.5476521997289899,-0.14557159658298655,0.21399007751937055,-1.151212329220009,-0.210837376778791
1783160551582305792,0.9465370178222656,-0.5116053819656372,-1.9391180276870728,-2.763768434524536,-0.8937753438949585,-0.23605111241340637,-0.3813733458518982,0.291404128074646,-0.4699883460998535,0.5031232237815857,0.8159771099208851,0.03740286408434915,-0.5549003058395569,-0.15769620536294887,0.23830010070882568,-1.1674871897073449,-0.22398849709024743
1783160551592226048,0.9564571380615234,-0.4673828184604645,-1.9013843536376953,-2.643732786178589,-0.8941676616668701,-0.2584168314933777,-0.3656294047832489,0.2593715786933899,-0.44641709327697754,0.4537794291973114,0.808736145298889,0.04199522884737661,-0.5616241656345746,-0.16958914705014358,0.2613830232652911,-1.1826370965264676,-0.23734296298599353
1783160551602145024,0.9663760662078857,-0.1904955506324768,-1.798301100730896,-2.5458226203918457,-0.8936979174613953,-0.28046464920043945,-0.3502050042152405,0.22606492042541504,-0.42560526728630066,0.43266353011131287,0.8013777155473076,0.04641182152729923,-0.5681051363766855,-0.1813729823228822,0.2842781483274251,-1.1973263053443255,-0.2505255092140675
1783160551612064768,0.9762959480285645,0.16315266489982605,-1.6969066858291626,-2.47110652923584,-0.8922212719917297,-0.30291420221328735,-0.3349389433860779,0.184076189994812,-0.42091691493988037,0.44577881693840027,0.7941392393767438,0.05196477194252075,-0.5743084495951021,-0.19186526636608936,0.3077490563717182,-1.2116759357336362,-0.2600494153135505
1783160551621984000,0.9862151145935059,0.5048050880432129,-1.656812071800232,-2.388284683227539,-0.8899469375610352,-0.32575562596321106,-0.3191828727722168,0.18647104501724243,-0.43509337306022644,0.5153651237487793,0.7868930803676688,0.058732003587995824,-0.580481800781238,-0.200974448899231,0.3318108473726496,-1.2264330042217955,-0.26552820041446534
1783160551631904000,0.9961349964141846,0.7662806510925293,-1.552200436592102,-2.336104393005371,-0.8868783712387085,-0.3488229513168335,-0.3029344379901886,0.17542213201522827,-0.452431321144104,0.5667893886566162,0.7796348796618604,0.0665352273822552,-0.5866053624563735,-0.20889392627098366,0.35631488601529887,-1.2416477747418755,-0.2674373078775656
1783160551641824000,1.0060551166534424,0.9657026529312134,-1.4257357120513916,-2.2940468788146973,-0.8827818632125854,-0.3720370829105377,-0.2868526875972748,0.12585443258285522,-0.455462247133255,0.5711544752120972,0.7725360011229297,0.07523484602635032,-0.5923794129971538,-0.21590372468577732,0.38120269110125504,-1.2566171040652916,-0.26649926648168154
1783160551651742976,1.0159740447998047,0.8723593354225159,-0.5110923051834106,-0.9850699305534363,-0.8799207210540771,-0.3873625099658966,-0.27511823177337646,0.0609966516494751,-0.47662073373794556,0.5622886419296265,0.7677269190718989,0.08179421007292038,-0.5964483087357273,-0.2194417043529547,0.3977690139392384,-1.2677633901608654,-0.26265087418089783
1783160551661662720,1.0258939266204834,0.8825163841247559,-0.8582228422164917,-2.145195484161377,-0.8748441934585571,-0.4047546982765198,-0.2661226987838745,-0.32147538661956787,-0.5053405165672302,0.647790789604187,0.7636743533091518,0.08983973730348865,-0.5990554850068606,-0.2232999352497433,0.41671056817333135,-1.2754959287523244,-0.2581196443164023
1783160551671581952,1.0358130931854248,0.6152151823043823,-1.0964009761810303,-1.2885189056396484,-0.8696308732032776,-0.42294931411743164,-0.2546682059764862,0.32469379901885986,-0.3552183508872986,0.6112661361694336,0.7583211280221077,0.09714601293561727,-0.602684447824556,-0.22865495718704237,0.43669762809936996,-1.2859153748045888,-0.25627519673382093
1783160551681501952,1.0457329750061035,1.0363810062408447,-1.2515878677368164,-1.5605114698410034,-0.8671544790267944,-0.43554189801216125,-0.24154971539974213,0.4268011450767517,-0.48865240812301636,0.5756866335868835,0.7531167469794762,0.10251049293297297,-0.607220504495569,-0.23149511254052094,0.45064018313422116,-1.2991286173983827,-0.2517058671226934
1783160551691421952,1.0556530952453613,0.7092695236206055,-1.360493779182434,-2.3848135471343994,-0.8607524037361145,-0.45609191060066223,-0.22602064907550812,0.04385793209075928,-0.5121086835861206,0.5241315960884094,0.7460666996425647,0.11081969318739217,-0.6121345221354355,-0.23747570030831455,0.47359879156402507,-1.314008502807,-0.24826013588141863
1783160551701340928,1.0655720233917236,0.14710524678230286,-0.8746877312660217,-2.9967875480651855,-0.8498159050941467,-0.48088783025741577,-0.21577706933021545,0.201210618019104,-0.33699849247932434,0.5938135385513306,0.7395838636750168,0.12003248146683508,-0.6145760072013745,-0.24678775419983187,0.5016670411753829,-1.322140715992711,-0.2506862660373885
1783160551711260928,1.0754921436309814,-0.10489383339881897,-0.7828724384307861,-2.9146194458007812,-0.8369788527488708,-0.5059078335762024,-0.20862248539924622,0.1710396409034729,-0.010266363620758057,0.6181836128234863,0.7331219532468555,0.12783075757314827,-0.6159123779526507,-0.25854065320939434,0.5304341095932636,-1.3265174888242914,-0.2598369692436705
1783160551721179904,1.0854110717773438,0.6196713447570801,-0.46666252613067627,-2.4362003803253174,-0.8246406316757202,-0.5283755660057068,-0.20195820927619934,0.00910419225692749,-0.1797543168067932,0.49109703302383423,0.7274968188064828,0.13605821651411168,-0.6168541602541149,-0.2678199807423126,0.5566861122361538,-1.3306191428220544,-0.26433666003797335
1783160551731099904,1.0953309535980225,0.4563773274421692,-0.28484904766082764,-2.4711873531341553,-0.8117597699165344,-0.550195574760437,-0.19578227400779724,-0.1786881685256958,-0.32811546325683594,0.5534178018569946,0.7225263518309659,0.14548628683841133,-0.6172054777630243,-0.27540281077058537,0.5825984599789714,-1.3341335209119585,-0.26460058389294333
1783160551741019904,1.1052510738372803,-0.08265364170074463,0.04776618629693985,-2.228820562362671,-0.7988485097885132,-0.5694881081581116,-0.19371166825294495,-0.15449005365371704,-0.39646947383880615,0.6988996267318726,0.7187454148590874,0.15330377526442157,-0.616151053403176,-0.28330338841528624,0.605883011831318,-1.3328996127747108,-0.26883427214634076
1783160551750938880,1.1151700019836426,-0.2906557619571686,0.24912607669830322,-2.240903377532959,-0.785423994064331,-0.587016224861145,-0.19626761972904205,-0.19423598051071167,-0.4077804684638977,0.6316771507263184,0.7161549254571402,0.15971487341674442,-0.6134797087458528,-0.2919860442094188,0.6273682740720706,-1.3259235823352984,-0.27809851512655437
1783160551760859136,1.1250901222229004,-0.2336587905883789,0.43271002173423767,-2.3436193466186523,-0.7709493041038513,-0.6045874357223511,-0.20027783513069153,-0.15715128183364868,-0.4454308748245239,0.5250154137611389,0.7139465366250962,0.1664783285210916,-0.6100377440328563,-0.3006979448797945,0.6492478296916611,-1.3166335855237572,-0.2880044007517623
1783160551770778880,1.135010004043579,-0.5863273739814758,0.5285309553146362,-2.5179386138916016,-0.7548795938491821,-0.622636079788208,-0.20610979199409485,-0.11046159267425537,-0.3832080364227295,0.47867757081985474,0.711935561222791,0.17339968065955563,-0.6057042641281543,-0.31016561331712567,0.6721069328180348,-1.3042563410049408,-0.30044150177449414
1783160551780697856,1.1449289321899414,-1.2957029342651367,0.5679816603660583,-2.476005792617798,-0.7376980781555176,-0.6396468877792358,-0.21599382162094116,-0.059314191341400146,-0.3652663826942444,0.49921220541000366,0.7103818924348371,0.17864614996268172,-0.6000738613383764,-0.3214878301171481,0.6940387697631452,-1.2859632636517087,-0.32076617778679506
1783160551790617856,1.1548490524291992,-1.3624693155288696,0.6816564798355103,-2.3520212173461914,-0.7205796241760254,-0.6544073820114136,-0.2291640192270279,-0.03694295883178711,-0.2964745759963989,0.6016157865524292,0.7094090720698728,0.18209341417487732,-0.5935149346669598,-0.3336478370810528,0.7133986240369881,-1.2628838225028354,-0.34712353734204787
1783160551800536832,1.1647679805755615,-0.8643069267272949,0.8493354916572571,-2.3355813026428223,-0.7031204104423523,-0.6686884164810181,-0.24182136356830597,-0.09938514232635498,-0.26177728176116943,0.4715271592140198,0.7086609114962396,0.18651440452056825,-0.5867722690983515,-0.34454379379940686,0.7324434289941458,-1.2395428805356699,-0.37082229775394354
1783160551810457088,1.1746881008148193,-0.6606644988059998,1.21517014503479,-2.1309432983398438,-0.6851301193237305,-0.6827563643455505,-0.2538510859012604,-0.14316266775131226,-0.09525871276855469,0.34975263476371765,0.7083992991794882,0.19247988703892543,-0.5796774477621829,-0.35368904368903054,0.7515285119068111,-1.2159633626154307,-0.39025225195846824
1783160551820376832,1.184607982635498,-0.7854090929031372,1.0405807495117188,-2.0761117935180664,-0.6677289605140686,-0.6949269771575928,-0.26686063408851624,0.0714612603187561,0.05050253868103027,0.4204708933830261,0.7088041537745351,0.1980209054354054,-0.5721515537929941,-0.36197655488535885,0.7683183456052664,-1.1905881358621933,-0.40986794161468465
1783160551830296064,1.1945271492004395,-0.7867065072059631,0.9411652684211731,-2.5891425609588623,-0.6485835909843445,-0.7082672119140625,-0.2787413001060486,0.09836697578430176,0.056152403354644775,0.33017870783805847,0.7080678302442212,0.2037581970237717,-0.564899944516036,-0.3714976081680767,0.7870406006050664,-1.1648930055189044,-0.4324908615851859
1783160551840215808,1.2044470310211182,-0.5483272075653076,0.9712629914283752,-2.92643141746521,-0.6253533363342285,-0.724789023399353,-0.28916114568710327,-0.10236889123916626,-0.028140664100646973,0.03783363103866577,0.7059168130411816,0.21136163938182925,-0.5574456821503027,-0.3824422565878249,0.8107281476141673,-1.1376814842891336,-0.457462121760212
1783160551850134784,1.2143659591674805,-1.3017034530639648,1.018951416015625,-2.674440383911133,-0.6019797325134277,-0.739580512046814,-0.30106639862060547,0.021886348724365234,-0.24383312463760376,-0.04138660430908203,0.7040212864879857,0.2181034635854854,-0.5494521636329469,-0.3935570705932945,0.8324469239171974,-1.1070470063009306,-0.48614288522993054
1783160551860055040,1.2242860794067383,-1.9573420286178589,0.8351459503173828,-2.7022366523742676,-0.5787811279296875,-0.7505604028701782,-0.318859726190567,0.17037969827651978,-0.09471547603607178,0.1876952052116394,0.7029533841188029,0.22163309959370683,-0.5398600761180259,-0.40655433161560184,0.8489097007466339,-1.067250200010427,-0.5268779893211355
1783160551869974784,1.234205961227417,-2.025766134262085,0.8286229372024536,-2.9134926795959473,-0.5547278523445129,-0.7601044178009033,-0.3384055495262146,0.20858222246170044,-0.04470515251159668,0.1502951979637146,0.7014422197439107,0.22389929630126176,-0.5297795118046045,-0.4209294249076766,0.8634737787473742,-1.0230279719018611,-0.574810126056152
1783160551879894016,1.2441251277923584,-1.3577507734298706,0.8463044762611389,-2.702418327331543,-0.530150294303894,-0.7695666551589966,-0.35596033930778503,0.11024373769760132,0.11861151456832886,0.1309085190296173,0.6995279835966599,0.227200130245646,-0.51999993419411,-0.434327877037205,0.8781622177370825,-0.9795013062938409,-0.6206376703274571
1783160551889814016,1.254045009613037,-0.36560824513435364,0.8466590642929077,-2.8142645359039307,-0.5059293508529663,-0.7806227207183838,-0.366965651512146,0.08706033229827881,0.1539900302886963,0.119132399559021,0.6967062639403254,0.2331390016097202,-0.5120189198669716,-0.44506549511663723,0.8956615361687014,-0.9432719356107061,-0.65639396970342
1783160551899734016,1.263965129852295,0.10348707437515259,1.0952305793762207,-3.0788633823394775,-0.47880178689956665,-0.7951151132583618,-0.37221062183380127,-0.18918222188949585,0.1580302119255066,0.08703914284706116,0.6925300632741722,0.24271699410127076,-0.5049585614957385,-0.4544308389245612,0.9191973726771666,-0.910001462191582,-0.6862783353563695
1783160551909652992,1.2738840579986572,0.42475125193595886,1.3243160247802734,-3.109917640686035,-0.4492305517196655,-0.8106587529182434,-0.37553220987319946,-0.20875892043113708,0.1633198857307434,0.10290342569351196,0.6880381102005988,0.25427968080731544,-0.49756982644420106,-0.4630009023734884,0.9452763610727574,-0.874518480792764,-0.715462111701045
1783160551919572736,1.283803939819336,0.7212185859680176,1.4541324377059937,-3.106391191482544,-0.4184952974319458,-0.8265507221221924,-0.3763981759548187,-0.03481277823448181,-0.004214048385620117,0.08248335123062134,0.6832850595924973,0.26728443752123265,-0.4902651805431861,-0.47044722007820655,0.9729516930582741,-0.8383082093433687,-0.7431016786002054
1783160551929491968,1.2937231063842773,1.0131441354751587,1.716769814491272,-2.952256917953491,-0.3871447443962097,-0.8421441316604614,-0.3753827214241028,0.12251156568527222,-0.14725100994110107,0.08645755052566528,0.6786514056202532,0.2813899230291761,-0.4828336626724071,-0.47657490317475626,1.001247108105522,-0.8008219665063382,-0.769315052084213
1783160551939411968,1.303642988204956,1.347201943397522,1.440454363822937,-2.741774082183838,-0.35700511932373047,-0.8573049306869507,-0.37091192603111267,0.23606395721435547,-0.24968969821929932,0.025132477283477783,0.6738757274026177,0.29615506301355515,-0.4762732638947476,-0.48098596277241323,1.0300115315265936,-0.7662955829861637,-0.7912476443312283
1783160551949331968,1.3135631084442139,1.9308956861495972,1.6183984279632568,-2.6784720420837402,-0.3280222713947296,-0.8725776672363281,-0.36195242404937744,0.2303202748298645,-0.3677024245262146,-0.03761422634124756,0.668497157018078,0.3117656094524845,-0.4709840634012214,-0.48382618350087775,1.0604547176631118,-0.7362618158305235,-0.8082295295797711
1783160551959250944,1.3234820365905762,2.2499265670776367,1.5844459533691406,-2.7546465396881104,-0.2981433570384979,-0.8886197209358215,-0.34851914644241333,0.05191224813461304,-0.36200588941574097,0.04311448335647583,0.6622767105984317,0.3290885877816579,-0.4663058285638122,-0.48543711434037795,1.0943268783053188,-0.7076539533340994,-0.8223657505403978
1783160551969170944,1.333402156829834,2.6561601161956787,1.7365776300430298,-2.5911591053009033,-0.2682272493839264,-0.9047274589538574,-0.33094167709350586,-0.05559477210044861,-0.2552304267883301,-0.0010285377502441406,0.6553815131632684,0.34761270438093367,-0.4622710998929452,-0.48574263212142355,1.1307394648601112,-0.6811088776035807,-0.8333412353353923
1783160551979089920,1.3433210849761963,3.1564130783081055,1.7834136486053467,-2.500612497329712,-0.23930245637893677,-0.9204506874084473,-0.30903881788253784,-0.03904837369918823,-0.20210790634155273,-0.07088977098464966,0.6480413667351148,0.3671335459161255,-0.4590136638077573,-0.4843158944806684,1.169231965050646,-0.6589002915139826,-0.838561638657317
1783160551989009920,1.353240966796875,3.7631313800811768,1.5869758129119873,-2.3837554454803467,-0.21136808395385742,-0.9363110065460205,-0.2804373502731323,0.09733916819095612,-0.3638293147087097,-0.2200509011745453,0.6393431876074611,0.3880975208667027,-0.4573419250936891,-0.48110176548389305,1.2119739683018176,-0.6458704742832653,-0.8344459535474248
1783160551998929920,1.3631610870361328,4.095808506011963,1.4062381982803345,-2.1720669269561768,-0.18565385043621063,-0.9513024687767029,-0.24608144164085388,0.3034822344779968,-0.48197072744369507,-0.26485905051231384,0.629320136931798,0.4094601059226429,-0.4574950262649686,-0.4764417892098946,1.2574339862962567,-0.6463370948843586,-0.8182652418700916
1783160552008848896,1.3730800151824951,4.54762077331543,1.1883491277694702,-1.8472477197647095,-0.16307489573955536,-0.964619517326355,-0.20716114342212677,0.36314815282821655,-0.54041588306427,-0.22750073671340942,0.6184144651433233,0.43063606390859815,-0.4593168927566585,-0.47025964015289645,1.3039964583004322,-0.6668801735631631,-0.7832980972236778
1783160552018769152,1.383000135421753,5.802740097045898,0.9058055281639099,-1.4529976844787598,-0.14477123320102692,-0.976619303226471,-0.15892216563224792,0.4161640405654907,-0.5430493950843811,-0.2973308563232422,0.60560090082443,0.4527244382393717,-0.46430539311627717,-0.4612036109234601,1.35412893719075,-0.7388357288399158,-0.6982623390256861
1783160552028688896,1.3929200172424316,7.00137186050415,0.5879864692687988,-1.0944374799728394,-0.13072969019412994,-0.9866517186164856,-0.09709770977497101,0.48242953419685364,-0.5877805352210999,-0.4234558343887329,0.5894071657401471,0.47662852045708964,-0.47357829230443155,-0.44849517923589444,1.4072230435712476,-0.9319601068448442,-0.49426434622975124
1783160552038607872,1.402838945388794,8.460905075073242,0.18869131803512573,-0.6082766652107239,-0.12144963443279266,-0.9923673272132874,-0.021379072219133377,0.5532581210136414,-0.6013978719711304,-0.4373459219932556,0.5694621704500591,0.5019493792240369,-0.4871932727174098,-0.4317433797452811,1.4471644273650446,-1.3965491071524692,-0.021331381695756473
1783160552048527872,1.4127590656280518,10.003722190856934,-0.025741925463080406,-0.20413196086883545,-0.11674092710018158,-0.9906978607177734,0.06992214918136597,0.5828969478607178,-0.613092303276062,-0.3247743844985962,0.5448608883324448,0.5289014449582935,-0.5051973239208516,-0.4100797986455106,1.4342928359358993,-2.110444479523065,0.6986708783392213
1783160552058446848,1.422677993774414,11.19715690612793,-0.1527230441570282,0.22617042064666748,-0.1159353256225586,-0.9778052568435669,0.17451582849025726,0.5666036605834961,-0.5418632626533508,-0.16835129261016846,0.5156690245784717,0.5570061167953997,-0.5263098907281195,-0.3831807929025469,1.359716692681507,-2.5552125751115446,1.1486984116905632
1783160552068367104,1.4325981140136719,11.975943565368652,-0.23198354244232178,0.5685369968414307,-0.11823366582393646,-0.9508044123649597,0.28634223341941833,0.5233545303344727,-0.47819650173187256,0.12666741013526917,0.48257401256167237,0.5846041054462998,-0.5490074345890716,-0.3520671258070446,1.2558223368484496,-2.7500064762731813,1.347594044757234
1783160552078286848,1.4425179958343506,12.418801307678223,0.04302911087870598,0.9473087787628174,-0.12358374893665314,-0.9080480337142944,0.40021955966949463,0.42476174235343933,-0.5145288109779358,0.3059419095516205,0.4466425350009472,0.610913723052755,-0.5717466243915185,-0.31686059711274683,1.1386002099130208,-2.8420913852459964,1.4444834771043018
1783160552088205824,1.452436923980713,11.375679016113281,0.4087262451648712,1.3183917999267578,-0.13326410949230194,-0.8525351285934448,0.5053955316543579,0.38031917810440063,-0.4433785676956177,0.3725799322128296,0.4113933286717952,0.6338292701397935,-0.5924172632913569,-0.27938825375384846,1.0208165951104007,-2.883778075922107,1.4934135160139699
1783160552098125824,1.4623570442199707,9.55907917022705,0.776838481426239,1.4412987232208252,-0.14612004160881042,-0.7932152152061462,0.5911504030227661,0.3273486793041229,-0.40694963932037354,0.6280878782272339,0.3807274125065893,0.6514980365314741,-0.6092007045825919,-0.2438677926075631,0.9160709468932792,-2.899270679035059,1.5179627115204732
1783160552108044800,1.472275972366333,7.232787132263184,1.134922981262207,1.4945200681686401,-0.16077551245689392,-0.7385179996490479,0.6547842621803284,0.22452671825885773,-0.5256268978118896,0.7632912397384644,0.35675277418213686,0.6640365340083059,-0.6216491135415957,-0.2129209458678675,0.8308696324135606,-2.9008163303297074,1.5300865820723593
1783160552117965056,1.4821960926055908,5.405065536499023,1.4694578647613525,1.745272159576416,-0.17665362358093262,-0.6924473643302917,0.6995070576667786,0.17515826225280762,-0.6162379384040833,0.6601577997207642,0.33944215083083906,0.6721786325669037,-0.6308164609675491,-0.187150976389377,0.7648757406956629,-2.8942246879621063,1.534333710636772
1783160552127884800,1.4921159744262695,3.9694902896881104,1.6472198963165283,2.034778594970703,-0.18005196750164032,-0.6499079465866089,0.7383776307106018,0.14278997480869293,-0.7515052556991577,0.5536605715751648,0.3201793476270504,0.6796028647534864,-0.6382231218360462,-0.16821571238925906,0.7074632719487013,-2.902412358566242,1.5448901396376167
1783160552137804032,1.502035140991211,3.137216806411743,1.894418716430664,2.3960866928100586,-0.20400959253311157,-0.6186008453369141,0.7587578892707825,0.09973101317882538,-0.8318082094192505,0.5633247494697571,0.31410428929156803,0.6801185486759626,-0.6456142105833294,-0.14818797918368917,0.6669606793083174,-2.878931434531974,1.531384386806663
1783160552147724032,1.5119550228118896,2.9239399433135986,2.1887550354003906,2.822946310043335,-0.23388157784938812,-0.5897860527038574,0.772950291633606,0.12519322335720062,-0.8298154473304749,0.5569143295288086,0.3117263106663792,0.678020772685074,-0.6532709848683076,-0.12787360678965723,0.630793896148112,-2.847767863422114,1.5114812932371362
1783160552157644032,1.5218751430511475,3.109973192214966,2.2996628284454346,3.1995303630828857,-0.2676186263561249,-0.558765709400177,0.7849594354629517,0.20537802577018738,-0.8053242564201355,0.41413724422454834,0.3102858053575544,0.6742939360486783,-0.6616701592241238,-0.10603320629479565,0.5928967237985056,-2.81301800726493,1.4885050133775755
1783160552167563008,1.5317940711975098,3.0298166275024414,2.386000871658325,3.4885590076446533,-0.3032630383968353,-0.5248087048530579,0.7953661680221558,0.3055366277694702,-0.7856771349906921,0.29946720600128174,0.30891299096484903,0.6692351313419381,-0.67067684900881,-0.08300411496838435,0.5524903950627245,-2.7773212396221125,1.4643132984164131
1783160552177482752,1.5417139530181885,2.528174877166748,2.4094078540802,3.8498260974884033,-0.3402273952960968,-0.4907406270503998,0.8021342754364014,0.38019004464149475,-0.7603733539581299,0.27693694829940796,0.308726790378315,0.6622280427166527,-0.6800890801879942,-0.060172667849003256,0.512939566944749,-2.740439934661841,1.4376525037358794
1783160552187401984,1.5516331195831299,1.4305487871170044,2.418473720550537,4.144853591918945,-0.3778549134731293,-0.4602759778499603,0.8033504486083984,0.4654403328895569,-0.8323876857757568,0.1740666627883911,0.31108277153362485,0.6524111332729647,-0.6899528442544751,-0.039399982540541334,0.47830604818639777,-2.701946112133815,1.4060299119901096
1783160552197321984,1.5615530014038086,0.08126778155565262,2.3269596099853516,4.3658270835876465,-0.41521888971328735,-0.4374758303165436,0.7976263761520386,0.5234647989273071,-0.9375088214874268,0.20190036296844482,0.3172819467577691,0.6391397794784699,-0.7002239152671762,-0.02277900444487804,0.45278972083014307,-2.6616262540937172,1.367035143124062
1783160552207241984,1.5714731216430664,-1.3397597074508667,2.129500150680542,4.452127933502197,-0.4510655999183655,-0.42346397042274475,0.7856323719024658,0.5902562737464905,-0.9798258543014526,0.19701838493347168,0.32719686680195564,0.6227223086286546,-0.7106568085456516,-0.011227923792956446,0.4372656603602761,-2.620402390286023,1.3207333639700587
1783160552217160960,1.5813920497894287,-2.5739939212799072,1.7388933897018433,4.554723262786865,-0.4843311011791229,-0.4180278182029724,0.7685543298721313,0.6878376603126526,-0.9312458038330078,0.0899965763092041,0.3401419816377062,0.6036484572975195,-0.7210310051234351,-0.005114513186184976,0.4312732558046254,-2.5792737857837933,1.2676789752839002
1783160552227080704,1.5913119316101074,-2.7492692470550537,1.41759192943573,4.769317150115967,-0.5150348544120789,-0.41570600867271423,0.7496185898780823,0.7805835008621216,-0.7594802379608154,0.021575987339019775,0.3538159608690326,0.5827996045187964,-0.7315421544694944,-0.002254412243714263,0.42871891613566376,-2.5396024446810106,1.2104603490745174
1783160552237000960,1.6012320518493652,-1.6807307004928589,1.004999041557312,5.065105438232422,-0.5433831214904785,-0.40693601965904236,0.7342600226402283,0.785982608795166,-0.44525209069252014,-0.19809675216674805,0.3645101628711661,0.5612925909829942,-0.7430213002183648,0.00151925684146705,0.41909728410212416,-2.5044953187526695,1.1538813213672265
1783160552246919936,1.6111509799957275,-0.0056129200384020805,0.6989470720291138,5.25922966003418,-0.5692914724349976,-0.384694367647171,0.7265790700912476,0.7121443748474121,-0.23346960544586182,-0.4260268211364746,0.3696040066071672,0.5411770548192053,-0.7552595159463451,0.01016077704532315,0.39487668697490225,-2.476979704103717,1.1056334731769524
1783160552256839936,1.6210711002349854,1.5831018686294556,0.4948248267173767,5.250670433044434,-0.5922223329544067,-0.3488205373287201,0.7263585329055786,0.567274272441864,-0.15355980396270752,-0.4730626940727234,0.36908282000454157,0.5234312619308321,-0.7675929798153611,0.02446507015955604,0.3563123012609975,-2.4575734501935913,1.0689353922923794
1783160552266758912,1.6309900283813477,2.620654344558716,0.47916582226753235,5.187561511993408,-0.6119837760925293,-0.3026389181613922,0.7306745648384094,0.45339930057525635,-0.1765938401222229,-0.401451051235199,0.3644042851894673,0.5077971472432494,-0.7794096120508669,0.04326864561237215,0.3074601979048229,-2.4443651306752927,1.0423603069052338
1783160552276678912,1.6409101486206055,3.2724735736846924,0.5627831816673279,5.401516437530518,-0.6294463276863098,-0.24918954074382782,0.736004114151001,0.3294432759284973,-0.2728593945503235,-0.4302637577056885,0.3574157679122736,0.49284318016401957,-0.7906374935234791,0.06520707039144931,0.25184330393153337,-2.4340751889878653,1.021391710243147
1783160552286598912,1.6508300304412842,3.5845048427581787,0.6623480319976807,5.550970077514648,-0.6452031135559082,-0.18964670598506927,0.740099310874939,0.28802549839019775,-0.36954212188720703,-0.4433310627937317,0.3491366007169141,0.4775503238715664,-0.801246114556704,0.08974389357827861,0.19080230541732998,-2.4245897624197714,1.003281062332332
1783160552296517888,1.6607489585876465,3.5751535892486572,0.5125705003738403,5.955867290496826,-0.6577883362770081,-0.12690426409244537,0.7424352169036865,0.2972078323364258,-0.4161865711212158,-0.34212082624435425,0.33998476590258947,0.46085104286413425,-0.8116858606393482,0.11485995202479135,0.12724738803545016,-2.4165734486468393,0.9844508624937934
1783160552306437888,1.6706690788269043,3.0633888244628906,0.4584818184375763,6.03578519821167,-0.6663966178894043,-0.06337697803974152,0.7428992390632629,0.3376917243003845,-0.5135883688926697,-0.3282873034477234,0.33040256548179814,0.4423221575728871,-0.8220709908018382,0.13922871560401448,0.06341947885613257,-2.410425528807921,0.9629742267733671
1783160552316357888,1.680588960647583,1.6665239334106445,0.5574310421943665,5.597781658172607,-0.6714048981666565,-0.007984031923115253,0.7410481572151184,0.30737578868865967,-0.5083581209182739,-0.2357683777809143,0.3227600373857417,0.4223742934520105,-0.8319399199400153,0.15906620587774561,0.007984117150327106,-2.4054612055918922,0.936495303480391
1783160552326277120,1.6905081272125244,0.35784024000167847,0.3114074468612671,5.282628059387207,-0.6732878684997559,0.03424059972167015,0.738587498664856,0.33609896898269653,-0.5787962675094604,-0.33088773488998413,0.31796350891242936,0.40151247881053337,-0.8414757822992335,0.1720627260419585,-0.03424729498467339,-2.402411867303234,0.9036749719045094
1783160552336196864,1.7004280090332031,-0.8058793544769287,-0.25400614738464355,5.212735652923584,-0.6698508262634277,0.06578497588634491,0.7395759224891663,0.4352772831916809,-0.6030774712562561,-0.4638037085533142,0.3137131493466748,0.3794068564750361,-0.8519615077496994,0.17831487183602418,-0.06583251631234054,-2.4056247450572643,0.863322029804829
1783160552346115840,1.7103469371795654,-1.2354727983474731,-0.5249593257904053,5.401365756988525,-0.6610618829727173,0.08980593085289001,0.7449374198913574,0.44748473167419434,-0.4175799787044525,-0.2675663232803345,0.30877326370594216,0.35628814884407506,-0.8634393174967656,0.17941645334039372,-0.08992708690524732,-2.415779336225445,0.8168747462573942
1783160552356035840,1.7202670574188232,-0.8518132567405701,-0.5116720199584961,5.325064659118652,-0.6486170887947083,0.1099436804652214,0.7531325817108154,0.2603265047073364,-0.2232401818037033,-0.1759839653968811,0.3028544542988751,0.33301146691001565,-0.8750255139821842,0.1780814882404991,-0.11016638568604682,-2.4306175041482603,0.7682321270751028
1783160552365955840,1.730186939239502,0.1437869668006897,-0.3524942100048065,5.186409950256348,-0.6327416300773621,0.12767021358013153,0.7637658715248108,0.02185600996017456,-0.042419373989105225,-0.27995550632476807,0.2951284035189194,0.31221484286278123,-0.8856663246716061,0.17611438219074688,-0.12801961856980468,-2.4497434526835007,0.7240309168255071
1783160552375875072,1.7401061058044434,0.5856102108955383,-0.24862828850746155,5.10109281539917,-0.6196522116661072,0.15377627313137054,0.769665002822876,-0.013114571571350098,0.018342867493629456,-0.3212853670120239,0.287943307395951,0.29092738237377985,-0.894535506747799,0.17960017135422782,-0.15438887828877862,-2.4637536830006335,0.6833952986126655
1783160552385794816,1.750025987625122,1.0393153429031372,-0.31804707646369934,4.930226802825928,-0.6075575947761536,0.18786263465881348,0.7717393636703491,0.07467478513717651,0.10531976819038391,-0.21053624153137207,0.2806828222123302,0.26941431613189387,-0.9018234903561951,0.18800939206439404,-0.18898557787329792,-2.474669993789426,0.6462441423904045
1783160552395714048,1.7599451541900635,0.08291701227426529,-0.5013580918312073,4.544399738311768,-0.59437495470047,0.21940205991268158,0.7736799716949463,0.09747254848480225,0.05734656751155853,-0.3781418800354004,0.27361349478603564,0.24868948211784886,-0.9082915457523308,0.19569248620087515,-0.22120156033373284,-2.486517287257277,0.6099300452422616
1783160552405634048,1.7698650360107422,-1.2168165445327759,-0.9217689633369446,4.2427449226379395,-0.5787476897239685,0.23879513144493103,0.7797614336013794,0.09167200326919556,0.1371813863515854,-0.2277899980545044,0.26710793694577545,0.22782462903426112,-0.9154106407544711,0.19690761805894894,-0.24112489016531738,-2.503094994313281,0.567893743991427
1783160552415554048,1.77978515625,-1.5097219944000244,-0.9773060083389282,4.0308918952941895,-0.5611464381217957,0.2504626512527466,0.7889125347137451,0.03189539909362793,0.06479915976524353,-0.5530117154121399,0.26043995164558803,0.20723983989899217,-0.9227718597655279,0.19420278607077116,-0.25315812236180363,-2.5233289174953937,0.5230780995764799
1783160552425473024,1.7897040843963623,-2.0766544342041016,-1.2073237895965576,4.1598029136657715,-0.541854739189148,0.2582255005836487,0.7998206615447998,0.07871997356414795,-0.03427225351333618,-0.5101020336151123,0.253374673979353,0.18596373873985036,-0.9302299792136591,0.18944911796785346,-0.2611849498381429,-2.546147832524353,0.4751788415966842
1783160552435392768,1.799623966217041,-2.134232521057129,-1.33506178855896,3.779479742050171,-0.521247386932373,0.2617257535457611,0.81228107213974,0.1432415246963501,-0.002311110496520996,-0.26934289932250977,0.2458437640982548,0.16485641678691312,-0.9375302079868564,0.18281202380112224,-0.2648098440315324,-2.571068599355261,0.4261989345786893
1783160552445313024,1.8095440864562988,-2.14579439163208,-1.4685057401657104,3.5985560417175293,-0.5003539323806763,0.2629435360431671,0.8249282836914062,0.08882439136505127,-0.059864312410354614,-0.30377960205078125,0.2379236177797435,0.1452769112748713,-0.944117976866884,0.17586421783174172,-0.2660718194911444,-2.5963764672358307,0.38014884099797647
1783160552455232000,1.8194630146026611,-2.7015910148620605,-1.2643637657165527,3.236851930618286,-0.4801746606826782,0.2593858242034912,0.8379443287849426,0.15087488293647766,-0.0713823139667511,-0.31838279962539673,0.23048327333373153,0.12605738730598923,-0.9503061102812875,0.16704830978373025,-0.26238620302650967,-2.621233466425231,0.33398410679681695
1783160552465152000,1.829383134841919,-3.039350748062134,-1.637455701828003,2.7577476501464844,-0.460581511259079,0.24885329604148865,0.8520190715789795,0.10491448640823364,0.025804877281188965,-0.20178115367889404,0.22316757321666517,0.10875670257904085,-0.9561284056479672,0.1555205537220258,-0.25149612857528075,-2.646013137711905,0.29046175766643423
1783160552475070976,1.8393020629882812,-3.412219524383545,-1.6870572566986084,2.7064807415008545,-0.4392516314983368,0.23360231518745422,0.8674606084823608,0.03361201286315918,0.09261532127857208,-0.2554611563682556,0.21451426465452564,0.09356225319348183,-0.96175694456863,0.14231412144939418,-0.23578086138340446,-2.672866088714957,0.2504949541805998
1783160552484990720,1.84922194480896,-4.743744850158691,-1.5987399816513062,2.1299173831939697,-0.4198618233203888,0.208814799785614,0.8832395076751709,-0.08523458242416382,0.2678545117378235,-0.2567901015281677,0.20691688165186672,0.07858378198306483,-0.9671837249325221,0.12476193512460501,-0.21036289031035982,-2.697845954044596,0.20976598756745932
1783160552494910976,1.8591420650482178,-5.673978805541992,-1.5383602380752563,1.3752342462539673,-0.4026816487312317,0.16888968646526337,0.8996239900588989,-0.21777114272117615,0.40007999539375305,-0.2641414403915405,0.20026273678453865,0.06587310911561381,-0.9723542268929078,0.1004127626059029,-0.16970306812853322,-2.7207271667870168,0.17161622343877367
1783160552504829952,1.86906099319458,-6.251092433929443,-1.4743623733520508,1.070035457611084,-0.3872365951538086,0.11972136795520782,0.9141740798950195,-0.05653467774391174,0.2960958778858185,-0.29794806241989136,0.19422414852653286,0.054109352180325365,-0.9768107374888827,0.07204059353597207,-0.12000922394182538,-2.740915401881289,0.13507213483975222
1783160552514749952,1.878981113433838,-6.106196880340576,-1.4563229084014893,0.7214930653572083,-0.3732272982597351,0.06579732149839401,0.9254037141799927,0.09231299161911011,0.3308396339416504,-0.10588467121124268,0.1885172028600751,0.04358300714823661,-0.9802052761601707,0.0419451001867503,-0.06584489248074818,-2.758233556271015,0.10165019315890987
1783160552524669952,1.8889009952545166,-5.038206577301025,-1.7076377868652344,0.4002370238304138,-0.3583585321903229,0.015932200476527214,0.9334483742713928,0.10820585489273071,0.31138408184051514,-0.16596150398254395,0.18182552200951804,0.035505897522410096,-0.982580024685013,0.014677662815496016,-0.015932873982256294,-2.775034958357538,0.07519268939343111
1783160552534588928,1.898819923400879,-3.572568416595459,-1.6224786043167114,0.4681822657585144,-0.3421822488307953,-0.022963866591453552,0.9393529891967773,0.20045864582061768,0.32238709926605225,-0.16193288564682007,0.1740144284569173,0.029106829471073695,-0.984291254913324,-0.006519335648016367,0.022965885491762147,-2.7922582362930704,0.055072628973004495
1783160552544508928,1.9087400436401367,-2.0780041217803955,-1.1197260618209839,0.2629510462284088,-0.3293718099594116,-0.048254936933517456,0.9429665803909302,0.08166059851646423,0.38678643107414246,-0.048618316650390625,0.1676315479605852,0.023977495986712213,-0.9853468255289417,-0.020407112578003855,0.04827368363098939,-2.8055476461090283,0.04046872360603299
1783160552554427904,1.918658971786499,-0.7842851281166077,-1.0723631381988525,-0.159251868724823,-0.31988325715065,-0.06141693890094757,0.9454643130302429,-0.1441212296485901,0.5631869435310364,-0.020293354988098145,0.16281176521949806,0.021630838986454688,-0.9860346097637006,-0.02757176513313445,0.06145561638787038,-2.8153477444553103,0.03374960336753017
1783160552564347904,1.9285790920257568,-0.5251370668411255,-1.1244949102401733,-0.5904754996299744,-0.30932557582855225,-0.06812114268541336,0.9485132694244385,-0.31138670444488525,0.8111631274223328,-0.056011319160461426,0.15742448642387047,0.022045670842453156,-0.9867981694220914,-0.030999289222952583,0.06817393677183121,-2.826351479263094,0.03383419572502148
1783160552574267904,1.9384989738464355,-0.817705512046814,-0.8156483173370361,-0.9338043928146362,-0.29924383759498596,-0.07661522924900055,0.9510959386825562,-0.5379906892776489,1.0951241254806519,-0.0229494571685791,0.15238777257270525,0.024130404839924714,-0.9874035044012004,-0.03507222384063571,0.07669038330125803,-2.836767967925044,0.03708120029345971
1783160552584187136,1.948418140411377,-0.9798430800437927,-0.5124713182449341,-1.6525827646255493,-0.2922743558883667,-0.08935224264860153,0.952151358127594,-0.6492539644241333,1.3361784219741821,-0.10197722911834717,0.1491830253794569,0.029050716992454668,-0.9875382199046586,-0.0408513278049187,0.0894715674017488,-2.843760935533414,0.04538579402827387
1783160552594106880,1.9583380222320557,-0.3215487599372864,-1.3615748882293701,-1.6128116846084595,-0.2826612591743469,-0.10105488449335098,0.9538819193840027,-0.37364980578422546,1.4157216548919678,-0.3180786371231079,0.1447461913245624,0.03579142447997216,-0.9877549995424773,-0.045908923037027684,0.10122767340498036,-2.8535087054201718,0.057743550782380075
1783160552604027136,1.9682581424713135,0.6704077124595642,-1.9770087003707886,-1.3562042713165283,-0.26512882113456726,-0.10251600295305252,0.9587478637695312,-0.04457885026931763,1.1662824153900146,-0.4907606840133667,0.13604057811096762,0.04221524120495387,-0.9887324265023606,-0.04603370437214271,0.1026964245117343,-2.871798501731751,0.07139069151739824
1783160552613945856,1.9781770706176758,1.368495225906372,-1.5212483406066895,-1.045629858970642,-0.2485359162092209,-0.09562383592128754,0.9638912081718445,-0.12309190630912781,0.7806824445724487,-0.1344386339187622,0.12755993555404552,0.04717401820906195,-0.9898081693070196,-0.0422247502424514,0.09577016725963265,-2.889242852328542,0.08308997781546114
1783160552623865856,1.9880969524383545,2.1054677963256836,-1.5371061563491821,-1.4857786893844604,-0.2330259531736374,-0.08216124773025513,0.9689933657646179,-0.5726838707923889,0.6877215504646301,-0.033370375633239746,0.11948455847895394,0.05339181893342625,-0.9907804974334208,-0.03502402965884798,0.08225396665674978,-2.9055914998766688,0.09791639544049575
1783160552633785088,1.998016119003296,2.802093267440796,-1.440804123878479,-1.8618208169937134,-0.2169467657804489,-0.0624198392033577,0.9741856455802917,-0.7895992398262024,0.9014090895652771,-0.0653417706489563,0.1109238320140848,0.06183995079914786,-0.9915990323624251,-0.024556695248258133,0.06246044409478327,-2.922472746164742,0.11769352289729125
1783160552643704832,2.0079360008239746,3.6716744899749756,-1.0545638799667358,-1.6923729181289673,-0.203954815864563,-0.034492507576942444,0.9783728122711182,-0.9969729781150818,1.0675125122070312,-0.08312416076660156,0.10351936950126975,0.07197996902074086,-0.9919704039734817,-0.009874218503066677,0.03449935019785885,-2.936072719112136,0.1413133154604976
1783160552653625088,2.0178561210632324,2.5917696952819824,-1.475427269935608,-1.5744271278381348,-0.19255128502845764,-0.004844862502068281,0.9812750816345215,-0.6459802389144897,1.0323412418365479,0.013277649879455566,0.09661036549301528,0.0803353750361604,-0.9920603715161758,0.005381525900063339,0.0048448816749065,-2.9478289570372307,0.16113315859495386
1783160552663544576,2.027775764465332,1.2053446769714355,-0.73521488904953,-1.700170636177063,-0.1811726689338684,0.008025788702070713,0.9834184050559998,-0.6293894648551941,1.1888583898544312,0.8000439405441284,0.09024501003020244,0.08859555618607763,-0.99189718059233,0.012106296499682019,-0.008025875181353512,-2.959407965137573,0.17889890716206786
1783160552673464576,2.0376956462860107,2.1240880489349365,-0.20897585153579712,-2.107980966567993,-0.17593079805374146,0.020889848470687866,0.9841809272766113,-0.5844756960868835,0.7897332906723022,0.7734179496765137,0.08685300352164244,0.0981077857598253,-0.9911938952621137,0.019134379702880337,-0.020891368615358865,-2.9647024278141165,0.1991687769713901
1783160552683384576,2.0476157665252686,2.7489278316497803,0.2340298444032669,-1.9089220762252808,-0.1768592894077301,0.041568491607904434,0.9833580851554871,-0.4480034112930298,0.37575939297676086,0.6192115545272827,0.08599862194596003,0.10845387746462543,-0.9899074764886205,0.03041812518912464,-0.0415804717017401,-2.963642717840309,0.2219587257651617
1783160552693303552,2.057534694671631,3.1571056842803955,1.3354159593582153,-1.3648444414138794,-0.18644164502620697,0.06802287697792053,0.980108380317688,0.09508727490901947,0.11059650778770447,0.639367938041687,0.0890263234739919,0.11683086028423334,-0.9881319504407339,0.044945879554850986,-0.06807544310805816,-2.9536130435693444,0.24179516895608072
1783160552703223552,2.0674545764923096,4.263789653778076,0.4608873724937439,-0.6848787665367126,-0.19821631908416748,0.1014171838760376,0.9748972058296204,0.6037338972091675,-0.1565624624490738,0.3648242950439453,0.0926818242611706,0.122542590334023,-0.986119630849443,0.06293969010777574,-0.10159184943293688,-2.9410066228718317,0.2574992861751498
1783160552713142528,2.077373743057251,3.712859630584717,-0.20407678186893463,0.3273427188396454,-0.2002825289964676,0.14131757616996765,0.9694925546646118,1.2599749565124512,-0.524465799331665,-0.07999694347381592,0.0911687835879668,0.12467074165202745,-0.9844813198977836,0.08331785370528368,-0.14179222701615998,-2.9378735418204744,0.26644802394506345
1783160552723062528,2.0872936248779297,2.5801563262939453,-0.7935115098953247,-0.22136345505714417,-0.19540587067604065,0.17171090841293335,0.9655731916427612,1.1269092559814453,-0.5263862609863281,0.15639013051986694,0.08692761877402762,0.12420709197301782,-0.9835441956946366,0.0982695874030907,-0.17256611297968694,-2.941916477978861,0.26856918604234165
1783160552732982528,2.0972137451171875,0.8114103674888611,-0.555439829826355,-1.4587846994400024,-0.19124284386634827,0.18602801859378815,0.9637528657913208,0.7509351968765259,-0.45462846755981445,0.06285834312438965,0.08334457166936095,0.13005778863410272,-0.9823244912309542,0.10572231876159424,-0.1871180470626007,-2.9457018048984493,0.28170432028241815
1783160552742901504,2.10713267326355,0.9050577282905579,-0.6197073459625244,-0.37740781903266907,-0.18659421801567078,0.19082656502723694,0.9637259840965271,0.8912909030914307,-0.3304445147514343,-0.0850791335105896,0.0801186099779974,0.1353590885091956,-0.9816011924426772,0.10824973127613158,-0.19200411781457594,-2.95034157395289,0.2925369320275988
1783160552752821504,2.1170525550842285,1.122523546218872,-1.281366229057312,0.5685606002807617,-0.17768312990665436,0.20217394828796387,0.9630960822105408,0.6787360310554504,-0.36594659090042114,-0.4643474817276001,0.0748489716861396,0.13572809906732683,-0.981389789281705,0.11335565633439887,-0.2035772037986067,-2.959152514310009,0.29354626619349733
1783160552762741504,2.1269726753234863,0.7778212428092957,-1.1157981157302856,0.26708289980888367,-0.1634846031665802,0.211812362074852,0.9635396599769592,0.3389148712158203,-0.2004750669002533,-0.1685565710067749,0.06726616177674452,0.13415708138977103,-0.9817187481712121,0.11707061367728351,-0.21342903375744635,-2.9735224012134864,0.2896740738804696
1783160552772660480,2.1368916034698486,1.2740501165390015,-0.9126428961753845,-0.21676819026470184,-0.15452399849891663,0.22094054520130157,0.9629681706428528,-0.29123103618621826,0.2589178681373596,0.11605715751647949,0.06197171386089177,0.1357565887011539,-0.9813532703374787,0.12114224752644148,-0.2227787423392546,-2.9824827000547383,0.2927613208713541
1783160552782580736,2.1468117237091064,1.785201072692871,-1.6833637952804565,0.6352866291999817,-0.14265455305576324,0.2367900013923645,0.9610304236412048,-0.17915326356887817,0.09769783914089203,-0.035981953144073486,0.054931576722109715,0.13597399438017813,-0.9808293893949843,0.12832432322233037,-0.23906055531682835,-2.994229547687268,0.29323759009525147
1783160552792499456,2.1567306518554688,2.2293026447296143,-0.05025457590818405,-1.1205804347991943,-0.13614521920681,0.25514110922813416,0.957271158695221,0.09635025262832642,-0.09843328595161438,0.10738062858581543,0.05022603903105271,0.1374556641910801,-0.9796639779394856,0.13726584620782115,-0.2579936329596765,-3.0003178867715325,0.2971537821622534
1783160552802419712,2.1666507720947266,1.6197758913040161,-0.5179151892662048,-0.4660046100616455,-0.1380818486213684,0.2726258933544159,0.9521602988243103,-0.18491624295711517,0.03413686156272888,0.2923163175582886,0.04912095698397222,0.14336311081948516,-0.9775107036789643,0.14665320422850459,-0.27612125211700494,-2.9975771038184034,0.3112907154068203
1783160552812339456,2.1765706539154053,1.301853060722351,-0.7420052886009216,0.22920478880405426,-0.13108086585998535,0.28651195764541626,0.9490671157836914,0.33280208706855774,0.10113754868507385,0.06193429231643677,0.044438986032606535,0.1444728807270348,-0.9765557510420358,0.15326948773280827,-0.2905841586705729,-3.0043454755931793,0.31386510850640753
1783160552822258432,2.1864895820617676,0.6982920169830322,-0.6574253439903259,-0.11562550067901611,-0.12485238164663315,0.29583728313446045,0.9470438957214355,0.15997812151908875,0.14213570952415466,0.15593761205673218,0.040640282314204884,0.1444466492706814,-0.9760415483223369,0.157563976594821,-0.30033190374786556,-3.0105147586319947,0.31371225445331985
1783160552832178688,2.1964097023010254,0.8099554181098938,-0.5063519477844238,-1.026808261871338,-0.12030559033155441,0.3020752966403961,0.9456622004508972,0.021627023816108704,0.157412588596344,0.206650972366333,0.037328265469297676,0.14794146297476626,-0.9751637990274821,0.16054743133377425,-0.30686889518313903,-3.0150540346399906,0.32071723397027024
1783160552842098432,2.206329584121704,0.19583484530448914,-0.4700618088245392,-0.6180131435394287,-0.11845002323389053,0.3063749372959137,0.9445129036903381,0.27062588930130005,0.02576318383216858,0.16666293144226074,0.03527400641957817,0.15273726875676846,-0.9741292436719448,0.16278653080731695,-0.31138248300170723,-3.0168353858130774,0.3306617199206233
1783160552852017664,2.2162487506866455,-0.12043390423059464,-0.5811521410942078,-0.3917483687400818,-0.11402228474617004,0.30626705288887024,0.9450924396514893,0.6506586074829102,-0.06331658363342285,0.2191990613937378,0.03260330240608778,0.15549566193986428,-0.9738415279394929,0.16245271992944266,-0.3112691722975138,-3.021526255212663,0.33553271237670745
1783160552861937408,2.226168632507324,-0.4999406337738037,-0.9619380831718445,-0.3037903606891632,-0.10844532400369644,0.30295586585998535,0.9468144178390503,0.5475627183914185,-0.17879506945610046,0.07073330879211426,0.029675366128370975,0.1579168025149937,-0.9738939808001991,0.16035027324001577,-0.30779274709180704,-3.027552561376067,0.3392105518660782
1783160552871856384,2.2360875606536865,-0.8100497126579285,-0.580325722694397,-0.24185214936733246,-0.10146164894104004,0.2967889606952667,0.9495378136634827,0.46838971972465515,-0.20285582542419434,-0.02870035171508789,0.026436151498188336,0.15944101326734533,-0.9743446400265564,0.15662783221990936,-0.3013283471229672,-3.035142849154425,0.3405788479509793
1783160552881776640,2.2460076808929443,-0.5657720565795898,-0.21559171378612518,-0.603984534740448,-0.098187655210495,0.2897692620754242,0.9520467519760132,0.079510897397995,-0.2726336419582367,0.10228979587554932,0.024945807734654078,0.16217108913403092,-0.9745377963523181,0.15282128007082663,-0.29398573457617694,-3.0388227707365343,0.3450236959777445
1783160552891696384,2.255927562713623,-0.13446144759655,-0.31690263748168945,-0.11113274842500687,-0.09694119542837143,0.28562748432159424,0.9534248113632202,0.05928253382444382,-0.189710795879364,0.2982076406478882,0.02438082842217125,0.16402793898480142,-0.9745805399190517,0.1506421226625819,-0.2896611298057511,-3.0402640653697888,0.34827822755269133
1783160552901615616,2.2658467292785645,0.6278115510940552,-0.4865296185016632,-0.02987058088183403,-0.09379608184099197,0.28852128982543945,0.9528679847717285,0.11862214654684067,0.11318153142929077,0.11218005418777466,0.02248761779427192,0.16454558958104426,-0.9743504272465103,0.15185592443519863,-0.29268209336721257,-3.043473201901102,0.34907104443462117
1783160552911535616,2.275766611099243,0.3842979669570923,-0.6317379474639893,0.18803778290748596,-0.08807729929685593,0.2935899496078491,0.9518649578094482,0.15571953356266022,0.3360028862953186,0.062050819396972656,0.019157599516576678,0.16484869164171523,-0.9740417764741285,0.15394932947146445,-0.2979801265306194,-3.0493240963414,0.34916583832938325
1783160552921455616,2.285686731338501,0.5744054317474365,-0.6107737421989441,-0.008318884298205376,-0.08280998468399048,0.2978973388671875,0.9509991407394409,0.2704320549964905,0.17440789937973022,0.14549726247787476,0.01619538806075474,0.1646460772927322,-0.9738538091616475,0.1556857659334358,-0.3024892271195008,-3.0547349200048948,0.3482114838290065
1783160552931374592,2.2956056594848633,0.6464005708694458,-0.6439670920372009,0.16315700113773346,-0.07710100710391998,0.30410152673721313,0.9495144486427307,0.20617510378360748,-0.06388241052627563,0.11759364604949951,0.012764883281710923,0.16496539628718143,-0.973418533800601,0.15836612532606295,-0.30899513401761164,-3.0605699571387657,0.34837541793363264
1783160552941294592,2.305525779724121,0.24032381176948547,-0.4874897301197052,0.44339609146118164,-0.0701182410120964,0.30837979912757874,0.9486754536628723,0.1716044545173645,-0.14437836408615112,0.19266659021377563,0.009059779179117745,0.16406829414984728,-0.9733546757186889,0.15993791895542364,-0.3134893497220869,-3.067815080763592,0.3456448342705967
1783160552951213568,2.3154447078704834,0.04381421580910683,-0.5622444152832031,0.26494351029396057,-0.06417827308177948,0.3100283145904541,0.9485586881637573,0.04444865882396698,-0.2125093936920166,0.061481595039367676,0.006200503326769203,0.16256715017086792,-0.9735765366616457,0.16025669006214766,-0.31522280977647393,-3.074036882758789,0.341646329512429
1783160552961133568,2.325364589691162,0.9546162486076355,-0.5216130018234253,-0.46873825788497925,-0.05746603384613991,0.31316474080085754,0.9479587078094482,0.1745619773864746,-0.08255863189697266,-0.01740133762359619,0.002412191041928794,0.16358818571059391,-0.9732513794675064,0.16129128876116752,-0.3185235573957436,-3.081045925971374,0.3427832272396567
1783160552971053568,2.33528470993042,2.4994890689849854,-0.696765124797821,-0.21655474603176117,-0.0538579523563385,0.3298381268978119,0.9424996376037598,0.10257929563522339,-0.031025350093841553,-0.47123223543167114,-0.0012441882888200864,0.16595111416115152,-0.9714474001001068,0.1695537899704142,-0.33613209987263404,-3.0845109922764236,0.3480783274500641
1783160552980972544,2.3452036380767822,3.1786277294158936,-1.0560098886489868,0.3507269024848938,-0.04526409134268761,0.356785386800766,0.9330888390541077,0.2260349839925766,0.26072245836257935,-0.5769490003585815,-0.00800550473678337,0.16630317890860946,-0.9689621700075417,0.18273298786625547,-0.3648245389880255,-3.0931207049229053,0.3488912082375416
1783160552990892544,2.35512375831604,3.408214569091797,-0.8292512893676758,0.1593521386384964,-0.03512876108288765,0.3874994218349457,0.9212002754211426,0.24048155546188354,0.38602957129478455,-0.22658979892730713,-0.015749893371240012,0.16565985290767435,-0.9660004845582145,0.19786800764516657,-0.3979175464345059,-3.103477435976332,0.34736265641239555
1783160553000812544,2.3650436401367188,3.6439480781555176,-0.8829866647720337,-0.26066622138023376,-0.027595939114689827,0.4199939966201782,0.9071069955825806,0.19681592285633087,0.2584269344806671,0.06763947010040283,-0.022807010575748472,0.16678075255662647,-0.9621526267825029,0.21430407517649147,-0.43343870702953324,-3.1111801099318073,0.34996813612576166
1783160553010731520,2.374962568283081,2.7166550159454346,-0.5245251655578613,-0.02486460469663143,-0.021626170724630356,0.4487113058567047,0.8934153914451599,0.12315813452005386,0.06218358874320984,0.19053876399993896,-0.0288046734887156,0.16773857310745233,-0.9584213428287254,0.22904748812873296,-0.4653228092519025,-3.117391204160796,0.35225629475629205
1783160553020651520,2.384882688522339,2.1298301219940186,-0.5317890644073486,0.19977399706840515,-0.016710447147488594,0.4698617160320282,0.8825821280479431,0.0023824293166399,-0.07957229018211365,0.3748948574066162,-0.033369471666620104,0.16768611198301744,-0.9556005669517232,0.23999071051165238,-0.48913411378752214,-3.12266132822821,0.3521420375441103
1783160553030570496,2.394801616668701,1.7033876180648804,-0.4563148021697998,0.5052266120910645,-0.010735804215073586,0.4867275357246399,0.8734878301620483,0.10712558031082153,-0.3982418477535248,0.23365932703018188,-0.0377431793142727,0.16630976327892666,-0.9534594738034521,0.24865944913765775,-0.5083396731068635,-3.1293025405617594,0.34857353429261745
1783160553040490752,2.404721736907959,1.447563648223877,-0.4411560297012329,0.845764696598053,-0.003602954326197505,0.5004223585128784,0.8657739758491516,0.14906498789787292,-0.5183208584785461,0.20896363258361816,-0.0419883269235807,0.16340301026554901,-0.9519382597833623,0.25563649018331086,-0.5240865311842077,-3.1374311361696074,0.3411086525590246
1783160553050410496,2.4146416187286377,1.080688714981079,-0.4963412284851074,0.6515472531318665,0.004093160852789879,0.5111572742462158,0.859477698802948,0.18915939331054688,-0.42537230253219604,0.18497133255004883,-0.046088303350693964,0.1600450140858129,-0.9508545866058318,0.26103090036158083,-0.5365307107173379,3.1368303077467887,0.3321989110967452
1783160553060329472,2.424560546875,0.9916714429855347,-0.1338515430688858,0.5301812291145325,0.009672938846051693,0.5198134779930115,0.8542252779006958,0.08653371781110764,-0.3951948881149292,0.2341691255569458,-0.04911110024570078,0.157507933898454,-0.9498967712609037,0.26547237945746466,-0.5466326096753477,3.1302694976537766,0.32546723963415086
1783160553070249472,2.434480667114258,1.0610637664794922,0.19903665781021118,0.9719831347465515,0.012561678886413574,0.5279695987701416,0.8491706848144531,0.08063899725675583,-0.39682018756866455,0.2927209734916687,-0.05035763971448504,0.15379035582754408,-0.9491753559561015,0.26996095470500714,-0.5562080164879373,3.1268008537052085,0.3170355110836337
1783160553080169472,2.4444005489349365,0.62147057056427,0.02722393348813057,1.5296111106872559,0.01830419711768627,0.5355131030082703,0.8443283438682556,0.18385949730873108,-0.49550461769104004,0.22947824001312256,-0.05220526619121407,0.14736229792817668,-0.94891966953613,0.27406267559930353,-0.5651151929410916,3.119917046728048,0.30183512551331176
1783160553090088704,2.454319715499878,-0.15292128920555115,0.46322521567344666,1.35858952999115,0.02478163316845894,0.5369746088981628,0.8432342410087585,0.23275619745254517,-0.4960505962371826,0.3799865245819092,-0.053590693012446976,0.1401265662034065,-0.9497271546799638,0.2747924282414716,-0.566846720932369,3.1122123204425143,0.28441628707548383
1783160553100008448,2.4642395973205566,0.1263449788093567,0.6710240244865417,1.6624137163162231,0.027906509116292,0.5361589193344116,0.8436552882194519,0.16847410798072815,-0.6222034096717834,0.4556303024291992,-0.052892228934183196,0.13238125093352598,-0.9509484004305288,0.2745443607157471,-0.56588008722845,3.108526616539997,0.2670270442600358
1783160553109927680,2.474158763885498,-0.25365933775901794,0.4427953362464905,1.6652088165283203,0.032416053116321564,0.5358354449272156,0.8436998724937439,0.24369174242019653,-0.6797105669975281,0.30519533157348633,-0.05264086802722368,0.12352482855190594,-0.9521510109315097,0.27455232958640907,-0.5654969459120381,3.103190234328218,0.24686525846619325
1783160553119847424,2.4840786457061768,-1.4241414070129395,0.45627278089523315,1.8253815174102783,0.038396500051021576,0.5281831622123718,0.8482617735862732,0.21145090460777283,-0.4802401661872864,0.41940778493881226,-0.05272702089522853,0.11512629351065773,-0.9543986683918643,0.270349605822685,-0.5564594674230258,3.0963586101944713,0.2271714189946366
1783160553129767680,2.4939987659454346,-2.291156053543091,0.48708397150039673,1.715406060218811,0.04341263324022293,0.5114161372184753,0.8582361340522766,0.19880539178848267,-0.4259667992591858,0.22539740800857544,-0.05168784757675405,0.10648586144568312,-0.9580077412709448,0.26117121697011964,-0.5368319419947898,3.091052178524627,0.20749403317037365
1783160553139686656,2.503917694091797,-2.81794810295105,0.4058173894882202,1.2915393114089966,0.04687608778476715,0.48852264881134033,0.8712912201881409,0.14141736924648285,-0.32931238412857056,0.1560678482055664,-0.050022659135650606,0.09928668216598006,-0.9621786620328898,0.2487009368456193,-0.5103957955608543,3.0878437613884255,0.1916255456437438
1783160553149606400,2.5138375759124756,-3.273399829864502,0.465652734041214,1.2294578552246094,0.049115266650915146,0.46135082840919495,0.8858575820922852,0.10664644837379456,-0.15907415747642517,0.15181660652160645,-0.048035560586096725,0.09345704210100143,-0.966537407159697,0.23401696774144354,-0.4795171421680414,3.0862056102800635,0.17924274082559405
1783160553159526656,2.5237576961517334,-3.6408565044403076,0.4345971643924713,0.9700954556465149,0.05068575218319893,0.4296383857727051,0.9015774726867676,0.10326016694307327,0.03549528121948242,0.12437772750854492,-0.04587701954271463,0.08849254205387341,-0.9710601462056611,0.21704053838496415,-0.44409227636162807,3.085432804388269,0.1690753144500402
1783160553169445632,2.5336766242980957,-3.5790393352508545,0.34403902292251587,0.9750012755393982,0.050644464790821075,0.39645689725875854,0.916655421257019,0.09118597954511642,0.031414806842803955,0.04748642444610596,-0.043245903813447964,0.08448451770693155,-0.9752897337091728,0.19950464612684615,-0.4076542368605359,3.086399580511467,0.16140763854577098
1783160553179365632,2.5435967445373535,-3.6123900413513184,0.24837777018547058,1.0650420188903809,0.05164716765284538,0.3630179762840271,0.9303497076034546,0.1749153435230255,-0.1151542067527771,0.00870668888092041,-0.041226837165094246,0.07991469791880222,-0.9791774615112544,0.1820041394277358,-0.37150477288540984,3.0861358616882546,0.15244330797325722
1783160553189284608,2.553515672683716,-3.4895389080047607,0.21186743676662445,0.9406699538230896,0.05309325084090233,0.32919633388519287,0.9427675604820251,0.16631287336349487,-0.11015644669532776,-0.007663309574127197,-0.03961863892715219,0.0753190642521029,-0.9827058721193577,0.1644582907771205,-0.33545234314407196,3.085335705963263,0.1434623245811871
1783160553199204352,2.5634355545043945,-2.870776891708374,0.032082147896289825,0.69171142578125,0.053815003484487534,0.2985617220401764,0.9528720378875732,0.14454925060272217,-0.001701951026916504,-0.1947542428970337,-0.038174405072921594,0.07205925154103725,-0.9855168616191711,0.14868343872472825,-0.3031852730583744,3.0851759514425,0.13735599237507137
1783160553209124608,2.5733556747436523,-2.013723611831665,-0.2095528393983841,0.570216715335846,0.05647784844040871,0.27436068654060364,0.9599668979644775,0.2075907588005066,0.19147488474845886,-0.27919602394104004,-0.038181178732316995,0.06947778265611934,-0.9875000250658604,0.13623046987679632,-0.2779247993943262,3.0828272746648557,0.13226152367750396
1783160553219043584,2.5832746028900146,-0.9730004072189331,-0.23284633457660675,0.6232907176017761,0.06006595492362976,0.259993314743042,0.9637404084205627,0.22791317105293274,0.4077465236186981,-0.40011125802993774,-0.03907064728651364,0.06669639458761613,-0.9886464441533851,0.1288537387359657,-0.2630152889861206,3.0793473036520354,0.12648466345153744
1783160553228963584,2.5931947231292725,-0.5573573708534241,-0.6406551003456116,0.07065499573945999,0.06590797752141953,0.25270864367485046,0.9652947187423706,0.17096945643424988,0.6627270579338074,-0.368966281414032,-0.04160074927829162,0.06555822776525023,-0.9891155058420015,0.12498747385287773,-0.25547874083101413,3.0734208879648013,0.1236064462739856
1783160553238883584,2.603114604949951,-0.1831570863723755,-0.7316035032272339,-0.08742142468690872,0.07232480496168137,0.24889340996742249,0.9658266305923462,0.16418641805648804,0.8940814137458801,-0.31363552808761597,-0.04479117666512027,0.06632592130429917,-0.9891987613810206,0.12280230253258449,-0.2515375352503131,3.0668483232426613,0.12444515472620378
1783160553248802560,2.6130337715148926,0.49161896109580994,-0.934974730014801,-0.10605902969837189,0.07991690188646317,0.2502272129058838,0.9648832082748413,0.15575508773326874,0.8792741298675537,-0.3630461096763611,-0.0487892425371197,0.06728157089737481,-0.9888957493865682,0.12319901936652805,-0.25291492055335835,3.0589558084909925,0.12535276613012236
1783160553258722560,2.6229536533355713,0.8206139802932739,-0.7787101864814758,-0.341251403093338,0.08750239759683609,0.25676482915878296,0.9625047445297241,0.0789709985256195,0.6023813486099243,-0.25529026985168457,-0.05301919838262527,0.06846506638422419,-0.9882129818805611,0.12624045688277194,-0.2596733247927506,3.0509307383534656,0.1264965146205305
1783160553268641536,2.6328725814819336,0.4757031798362732,-0.8062416911125183,-0.1833227574825287,0.09465108066797256,0.26385360956192017,0.9599074125289917,0.04200662672519684,0.20182934403419495,-0.19818878173828125,-0.05715219522234698,0.07031203654038236,-0.9874259108017774,0.12953712161005204,-0.2670152058309026,3.0433059902483754,0.12896384315138498
1783160553278561536,2.6427927017211914,-0.2850261330604553,-0.7656521797180176,-0.558412492275238,0.10066931694746017,0.2650696635246277,0.9589595794677734,0.13321739435195923,-0.02889418601989746,-0.006994426250457764,-0.060534959902222345,0.07251782955414608,-0.9870263190379245,0.12982932799223265,-0.26827616088592604,3.0369981105750794,0.1325509673214438
1783160553288481536,2.65271258354187,-0.6894401907920837,-0.9497966766357422,-0.4664902687072754,0.10822813957929611,0.26065194606781006,0.9593476057052612,0.16903933882713318,-0.10588198900222778,0.011538863182067871,-0.06458943215921886,0.07575150915689081,-0.9868817070067981,0.1271005744073031,-0.26369744223452324,3.0292533191346434,0.13830284012877872
1783160553298400768,2.6626317501068115,-0.7275235652923584,-1.0096338987350464,-0.4864037334918976,0.11654321849346161,0.25422483682632446,0.9600974917411804,0.2510562539100647,-0.07623112201690674,-0.005843460559844971,-0.06891855093928524,0.07898567260087705,-0.9868181264332324,0.12329408455381238,-0.25704611668223293,3.0207967829056215,0.14411116735676996
1783160553308320512,2.6725516319274902,-0.965912938117981,-0.932773768901825,-0.4999706745147705,0.12481050938367844,0.24688154458999634,0.9609748125076294,0.12972140312194824,0.09355738759040833,0.07125210762023926,-0.07315946404579336,0.08224210448350588,-0.9867743565384491,0.1189978057999355,-0.24946085916140695,3.0124365774812163,0.15008849505479302
1783160553318240768,2.682471752166748,-1.4535843133926392,-0.696931779384613,-0.6406854391098022,0.13166314363479614,0.23621036112308502,0.9627407789230347,0.05402107536792755,0.30736875534057617,0.17310833930969238,-0.07654760890126851,0.08595765896553269,-0.9869050963386331,0.1130051193744826,-0.23846399124024784,3.005677146747905,0.15745045910788258
1783160553328159488,2.6923906803131104,-1.3091506958007812,-0.6128978729248047,-0.66715407371521,0.13672876358032227,0.2233056128025055,0.9651113152503967,0.06384800374507904,0.4099493622779846,0.20917457342147827,-0.07891843686454669,0.09007049594585549,-0.9871387713430315,0.10590667257050623,-0.22520440552620188,3.000857721817225,0.16604372973231238
1783160553338079488,2.702310562133789,-0.6300303339958191,-0.6621170043945312,-0.830888569355011,0.14124740660190582,0.21487703919410706,0.9663733243942261,0.18439042568206787,0.36048614978790283,0.13042855262756348,-0.08121747141883781,0.0944033968732273,-0.9870535225790075,0.10107994302898697,-0.21656592517780246,2.9964579975452725,0.17489844441927432
1783160553347999488,2.712230682373047,0.7628748416900635,-0.5850019454956055,-0.8239406943321228,0.1456671506166458,0.2162710279226303,0.9654058814048767,0.24553769826889038,0.44695228338241577,-0.020428776741027832,-0.08397818002767801,0.09880377665391675,-0.986377587722043,0.1012169720838671,-0.2179934808935392,2.9918353814410406,0.1832522821777619
1783160553357918464,2.722149610519409,2.642582893371582,-0.5696519017219543,-0.47570425271987915,0.14974947273731232,0.23356662690639496,0.9607401490211487,0.2279970794916153,0.42411768436431885,-0.21737778186798096,-0.0873363487064867,0.1017089922692453,-0.9848986489809114,0.10955484661426362,-0.2357441575559597,2.9869679818524104,0.1874605644256503
1783160553367838720,2.732069730758667,3.6371755599975586,-0.5230748057365417,-0.4877451956272125,0.1539922058582306,0.26512378454208374,0.9518378973007202,0.253295361995697,0.3384528160095215,-0.16663610935211182,-0.09147365891821302,0.10274447256392578,-0.9825286326333036,0.12535357952731518,-0.2683323021418209,2.9811983426085074,0.18669033386709433
1783160553377757440,2.7419886589050293,3.389098644256592,-0.36129891872406006,-0.4705694913864136,0.15668922662734985,0.2994215786457062,0.9411671161651611,0.09685082733631134,0.1331040859222412,0.19132506847381592,-0.09510521874932758,0.10389537285812363,-0.9796883802742091,0.14272884740481098,-0.3040863534207282,2.9766217614791333,0.18597512354109616
1783160553387677696,2.751908779144287,2.564772844314575,-0.19393762946128845,-0.5351998805999756,0.15748721361160278,0.3279983103275299,0.9314585328102112,0.19468562304973602,-0.1339370310306549,0.5548086166381836,-0.09750045387558241,0.10499717681173819,-0.9770899890271344,0.15736716462282904,-0.3341838786977438,2.9741007422305072,0.18578228044320144
1783160553397597440,2.761828660964966,1.3963531255722046,-0.27647149562835693,-0.4975684881210327,0.15808983147144318,0.34757199883461,0.92423015832901,0.19487649202346802,-0.2162395715713501,0.6692605018615723,-0.09941423029474067,0.1068932256490622,-0.9750327775100087,0.16733723154283786,-0.3549803994768908,2.9721818881280044,0.18792958551764624
1783160553407516416,2.771747589111328,0.17357966303825378,-0.08292920142412186,-0.46446406841278076,0.1583710014820099,0.355305939912796,0.9212363362312317,0.23956294357776642,-0.09930926561355591,0.9058510661125183,-0.10041735239301365,0.10881869927800017,-0.9740516769031351,0.17116719189251864,-0.3632413557299731,2.9713454080449275,0.19117440303291372
1783160553417436672,2.781667709350586,-0.7583878040313721,0.14043547213077545,-0.6023761034011841,0.15653064846992493,0.3535648286342621,0.9222201704978943,0.19074411690235138,-0.11461222171783447,0.9607449173927307,-0.09982177049777978,0.11148790247987722,-0.9740023260176536,0.17007504605734675,-0.3613793430663155,2.973462580204256,0.1971508866492601
1783160553427356416,2.7915875911712646,-1.6787824630737305,0.2782213091850281,-0.5139071941375732,0.15345023572444916,0.3432311415672302,0.9266314506530762,0.22414377331733704,-0.15481549501419067,0.8940322399139404,-0.09805154815141273,0.1145869241870178,-0.9747746251159851,0.16453048216117758,-0.35035485691987817,2.9774819221281956,0.20492089950831957
1783160553437275648,2.801506757736206,-2.160334825515747,0.4278452396392822,-0.37959256768226624,0.14897309243679047,0.3257639408111572,0.9336406588554382,0.23791350424289703,-0.20811867713928223,0.7516772747039795,-0.09498002547371387,0.11733373203117231,-0.9762444033946618,0.1554299433132944,-0.33181963873749126,2.9833649975180387,0.21268133772861111
1783160553447195648,2.8114266395568848,-2.307935953140259,0.5070617198944092,-0.33089375495910645,0.14369814097881317,0.3055003881454468,0.9412863850593567,0.22062069177627563,-0.25354424118995667,0.614682674407959,-0.09122955194014418,0.11973444799793025,-0.9779094265003682,0.14503067932470046,-0.3104638851145424,2.9901008436357315,0.21991415971924333
1783160553457114368,2.821345567703247,-2.1763806343078613,0.6019349098205566,-0.4662160575389862,0.13749860227108002,0.2847481369972229,0.9486900568008423,0.23719623684883118,-0.1319160759449005,0.5647835731506348,-0.08698090732544744,0.12228702518529319,-0.9794850246235934,0.13449663172812443,-0.28874368759289015,2.9976596746204933,0.2274503435657659
1783160553467034624,2.831265687942505,-1.7675223350524902,0.8759347796440125,-0.32269299030303955,0.1294686645269394,0.2666531503200531,0.9550570845603943,0.1582663208246231,0.0100497305393219,0.562048077583313,-0.08194368737784441,0.12457776579093574,-0.9808205289835271,0.12552573746189274,-0.269918785279461,3.006852823133518,0.23435184993092284
1783160553476954368,2.8411855697631836,-1.2690494060516357,1.3429957628250122,-0.34154701232910156,0.1180364191532135,0.2525148391723633,0.9603663086891174,0.1503198742866516,0.13855260610580444,0.680044949054718,-0.07535214000821745,0.12595861054631635,-0.9819967305939358,0.11890687905080716,-0.2552784396274193,3.019298290853477,0.23942836946594193
1783160553486873600,2.851104736328125,-0.6501486897468567,1.4136775732040405,-0.4697459936141968,0.10385342687368393,0.2439788579940796,0.9642035961151123,0.15095308423042297,0.18374022841453552,0.7078086137771606,-0.06781010547991279,0.12759135541219135,-0.9827625561939686,0.11532536138769384,-0.24646659342129074,3.0342972742808216,0.24491194805932068
1783160553496793600,2.8610246181488037,-0.5146204233169556,1.7778538465499878,-0.4830811321735382,0.08748135715723038,0.23923029005527496,0.9670142531394958,0.22338595986366272,0.1907166689634323,0.7486385107040405,-0.05943128546295759,0.12909496902789616,-0.9832810500178906,0.11384625844882236,-0.24157305216913944,3.0513728149782824,0.25012878612095446
1783160553506713600,2.8709447383880615,-0.45758163928985596,1.9226051568984985,-0.43116945028305054,0.06849981099367142,0.234839528799057,0.9696176052093506,0.21040034294128418,0.122582346200943,0.8981192111968994,-0.04977420249286475,0.13051058243510108,-0.9837559565082752,0.11275530929008001,-0.2370534827410446,3.0710636153749773,0.2553884542136537
1783160553516632576,2.880863666534424,-0.6227883696556091,2.194101572036743,-0.26512569189071655,0.04794447124004364,0.23001287877559662,0.9720056056976318,0.25527817010879517,-0.1207599937915802,0.8223361372947693,-0.03923352651467256,0.1312031083092144,-0.9842705662691483,0.111614508688089,-0.23209091009447025,3.0923072961966285,0.2592909110053206
1783160553526552320,2.8907835483551025,-0.8506444692611694,2.320793867111206,-0.10725139081478119,0.025651635602116585,0.22288577258586884,0.9745068550109863,0.24510031938552856,-0.2572028338909149,0.7289078831672668,-0.027586574177119655,0.1310305605696413,-0.9849286303016055,0.10947819061065518,-0.22477371712578414,3.1152760458182813,0.26154760464274857
1783160553536471552,2.900702714920044,-1.1481482982635498,2.4148566722869873,-0.08494578301906586,0.002366092521697283,0.21346966922283173,0.9769467711448669,0.2382192313671112,-0.3341514468193054,0.6145906448364258,-0.015238702971722426,0.13020091537926887,-0.9856576956156761,0.1062749713254215,-0.2151251270748455,3.1391707324305256,0.262408657945093
1783160553546391552,2.9106225967407227,-1.4577900171279907,2.4955928325653076,-0.02352370321750641,-0.021465841680765152,0.20045781135559082,0.9794670939445496,0.24618202447891235,-0.2158692181110382,0.48961853981018066,-0.0024044170086362417,0.12937134992711274,-0.9864059020593148,0.10129485203444968,-0.2018251885042727,-3.119680324395922,0.2630387026994773
1783160553556311552,2.9205427169799805,-1.1476340293884277,2.569700241088867,0.05999961867928505,-0.046219587326049805,0.18720558285713196,0.981232762336731,0.2872779369354248,0.025654509663581848,0.32340890169143677,0.0109338417002673,0.12797627621892,-0.9870351811254545,0.09624992354500671,-0.18831665549874158,-3.0945238530684644,0.2623217588694931
1783160553566230528,2.9304616451263428,-0.4456770718097687,2.4143595695495605,0.1588124930858612,-0.07001197338104248,0.17966783046722412,0.9812330603599548,0.2753952741622925,0.19388259947299957,0.1740710735321045,0.02343610567810139,0.12627330161008088,-0.9872545683452293,0.09399122946837973,-0.1806487786362866,-3.070362356203987,0.260879694955363
1783160553576150528,2.9403817653656006,-0.15393154323101044,2.4118247032165527,0.18047605454921722,-0.09298720955848694,0.17717626690864563,0.9797764420509338,0.29023757576942444,0.275246798992157,0.10013377666473389,0.03525390089664403,0.12415799804526745,-0.9871540004237976,0.09417495995561531,-0.17811658335537167,-3.0469695183413528,0.2586889932545659
1783160553586070528,2.9503016471862793,-0.1117502748966217,2.4006757736206055,0.14799454808235168,-0.11602860689163208,0.176270991563797,0.9774792194366455,0.20922932028770447,0.13751071691513062,0.12592941522598267,0.047002103097005525,0.12226790924498976,-0.9868080706157314,0.09513739114597569,-0.17719683052918617,-3.0234436278357744,0.2570557157609225
1783160553595989504,2.9602205753326416,0.03397516906261444,2.577129602432251,0.1536334902048111,-0.13983328640460968,0.17591159045696259,0.9744238257408142,0.24250969290733337,-0.01392430067062378,0.1365533471107483,0.05913884722244144,0.12023192585480173,-0.9862840358549891,0.09638823026811191,-0.17683172277275452,-2.9990621693280497,0.2552670224848547
1783160553605909504,2.9701406955718994,0.23485048115253448,2.428821086883545,0.003353983163833618,-0.16401445865631104,0.17745736241340637,0.9703648686408997,0.19723288714885712,0.02331775426864624,0.001360476016998291,0.07133745666812119,0.11870745513710768,-0.9854394765399602,0.09863311898124749,-0.17840220232531856,-2.9741517182714357,0.2547780231166905
1783160553615828480,2.9800596237182617,0.38578248023986816,2.325167179107666,-0.0834227204322815,-0.18686895072460175,0.1801161915063858,0.9657317996025085,0.27672797441482544,0.0971817672252655,-0.031894028186798096,0.0827843639329299,0.11779551629974935,-0.9843729510413556,0.10139421513289386,-0.1811045735966943,-2.9504549885353413,0.2556063815424526
1783160553625748736,2.9899797439575195,0.851438045501709,2.2809839248657227,-0.18490780889987946,-0.20911110937595367,0.18571700155735016,0.9600948691368103,0.302204966545105,0.04955826699733734,-0.17583870887756348,0.09372095297372546,0.11763012924927226,-0.9829601170908835,0.10568374984328864,-0.18680151311029183,-2.927139324470448,0.258371019344013
1783160553635668480,2.9998996257781982,0.8543314933776855,2.025569200515747,-0.10203495621681213,-0.2296629697084427,0.193760484457016,0.9537878632545471,0.22172844409942627,-0.09128248691558838,-0.24115687608718872,0.103698852127142,0.1175542224541197,-0.9813638209357994,0.11114173787300545,-0.19499383339636592,-2.905300457048634,0.2616551708716368
1783160553645587456,3.0098185539245605,0.7050559520721436,1.71295166015625,-0.04847719147801399,-0.24698646366596222,0.2009851038455963,0.9479466676712036,0.16313938796520233,-0.036098599433898926,-0.12551307678222656,0.11213050380345492,0.11740196766807733,-0.9798929127617257,0.11598909805519945,-0.20236344448792729,-2.8867105173491323,0.26450259049187785
1783160553655507456,3.0197386741638184,0.6999790668487549,1.84121835231781,0.29103508591651917,-0.26353919506073,0.20776312053203583,0.9420095086097717,0.0696457028388977,-0.011580824851989746,-0.1619495153427124,0.1203739937313462,0.11607018990241894,-0.9785358851853704,0.1204384996119372,-0.20928762581291555,-2.8688039600206983,0.26495638628583323
1783160553665427456,3.029658555984497,0.5535395741462708,1.4573191404342651,-0.043274737894535065,-0.2779485583305359,0.21427159011363983,0.9363932609558105,-0.09842473268508911,-0.013084456324577332,-0.19963788986206055,0.12756698409737463,0.11482835187315547,-0.9772466832405875,0.12461961142792366,-0.21594603934055026,-2.853047685910227,0.2654240850397761
1783160553675346432,3.0395774841308594,0.7050601243972778,1.6963554620742798,0.007446762174367905,-0.29316678643226624,0.21961772441864014,0.9304949641227722,-0.11236599087715149,-0.07038679718971252,-0.11137288808822632,0.1351704426117779,0.11439281523688503,-0.9757877739076454,0.12837974746328012,-0.2214226077401519,-2.8363723382482644,0.26758978237805003
1783160553685266432,3.049497604370117,0.5357725620269775,1.429428219795227,0.3390316069126129,-0.3070177733898163,0.2264951765537262,0.9243595004081726,-0.2209821343421936,-0.1675046682357788,-0.24851703643798828,0.14217686632041512,0.11283875785117332,-0.9743958021274932,0.13268801937684954,-0.22847783199826835,-2.82091549734092,0.2676889395484374
1783160553695186432,3.059417486190796,0.10795611888170242,1.448527455329895,-0.24959442019462585,-0.3205917775630951,0.2290882021188736,0.919097363948822,-0.2320663332939148,-0.022453665733337402,-0.2214500904083252,0.149228875753749,0.11176905502799571,-0.9731682024985953,0.1348413058835919,-0.23114086997792357,-2.8059769838650994,0.26802505456092157
1783160553705105664,3.0693366527557373,0.3941660523414612,1.0684731006622314,-0.10367289930582047,-0.3320716917514801,0.23110637068748474,0.9145047068595886,-0.19209828972816467,0.03638024628162384,-0.18350160121917725,0.1550413878180534,0.11218335664500204,-0.9719399349365797,0.13678442883073033,-0.23321468519523103,-2.7932809101392366,0.271039787523878
1783160553715025408,3.079256534576416,-0.09032953530550003,1.0548291206359863,0.044594064354896545,-0.34171345829963684,0.23210056126117706,0.9106927514076233,-0.09130045771598816,0.10994045436382294,-0.30072271823883057,0.16013259487910234,0.11140130225518405,-0.9710489871393483,0.1378810581393056,-0.23423666601205997,-2.7826259389461687,0.27113438718995075
1783160553724944384,3.0891754627227783,0.5317950248718262,1.1019772291183472,-0.06507251411676407,-0.3518140912055969,0.23411792516708374,0.9063200354576111,-0.21300533413887024,0.36250078678131104,-0.26795315742492676,0.16537911401061067,0.11098548169820512,-0.9699702234597654,0.13960597911302464,-0.23631117784043087,-2.7713184274320177,0.27230873345630935
1783160553734864384,3.099095582962036,0.7103948593139648,0.8563387989997864,0.23296956717967987,-0.3607598841190338,0.24055062234401703,0.9011036157608032,-0.1395758092403412,0.10641898214817047,-0.3833881616592407,0.16982594797059405,0.11058317875725387,-0.9686708259203543,0.14355258489753567,-0.24293308388407026,-2.7607816697873937,0.2743812246243831
1783160553744784384,3.109015464782715,0.1852644979953766,1.0741592645645142,0.16525229811668396,-0.3689061403274536,0.24515926837921143,0.8965520858764648,0.08909037709236145,0.013706132769584656,-0.19400668144226074,0.17417348589289136,0.10875525437271638,-0.9677026107443606,0.14624525975627092,-0.247683978597989,-2.7512358404428405,0.2730386941715867
1783160553754703616,3.1189346313476562,0.18170490860939026,0.6467481255531311,-0.3061651587486267,-0.3770187795162201,0.24622610211372375,0.8928773403167725,0.11255338788032532,-0.09406542778015137,-0.2053619623184204,0.17835723081493615,0.10909198692438349,-0.9667148463185792,0.14747926688248408,-0.2487845418086033,-2.7420523170971114,0.2753677418202552
1783160553764623360,3.128854513168335,-0.00630068127065897,0.3860638439655304,0.7243878841400146,-0.37956297397613525,0.24812394380569458,0.891272246837616,0.35919255018234253,-0.049424007534980774,-0.310934841632843,0.17983730204221415,0.10765388466064583,-0.9664609471554946,0.1483993319455005,-0.2507431617037981,-2.7389883045074805,0.2732915948806473
1783160553774543616,3.1387746334075928,-0.17718906700611115,0.3741432726383209,0.10368800908327103,-0.3818366527557373,0.249163419008255,0.8900102972984314,0.0908057689666748,0.057675570249557495,-0.38462400436401367,0.18140138521130217,0.1050151751231836,-0.966424831289538,0.14862160666902022,-0.25181634130117325,-2.736317747606842,0.2684787037390702
1783160553784462336,3.148693561553955,-0.05701472610235214,0.4844343662261963,-0.19334447383880615,-0.38620275259017944,0.24764597415924072,0.8885485529899597,0.005953848361968994,0.141254723072052,-0.34437453746795654,0.18380360836138424,0.10488137202717603,-0.9660611653688463,0.14812784751836316,-0.25024978645964735,-2.731581454084933,0.2685797675608478
1783160553794382336,3.158613443374634,0.12845347821712494,0.074017733335495,0.08242536336183548,-0.3886488676071167,0.24804605543613434,0.8873699903488159,0.10453015565872192,0.05928124487400055,-0.43007922172546387,0.1850787797650624,0.10492438022459731,-0.9657514474049808,0.1485292135069787,-0.2506627518095309,-2.7287807481213138,0.26919180559859274
1783160553804301568,3.168532609939575,0.08150193840265274,0.16536442935466766,-0.07394053786993027,-0.3894074559211731,0.2489897906780243,0.8867731690406799,0.14525145292282104,0.05131848156452179,-0.39905619621276855,0.18545856495449928,0.10481210262203486,-0.9656091318762791,0.1490594850275316,-0.25163706081388704,-2.727816079192487,0.26932805289975037
1783160553814221312,3.178452491760254,0.08799093216657639,-0.06805472820997238,0.014815263450145721,-0.3902926445007324,0.24964004755020142,0.8862007856369019,0.09149497747421265,-0.04494336247444153,-0.4039161205291748,0.18585445916756416,0.10511400787516087,-0.9654281036871754,0.1495253057079134,-0.2523085187455119,-2.726741416003089,0.27027169239447
1783160553824141568,3.1883726119995117,0.02127715013921261,-0.3282895088195801,-0.014464328996837139,-0.38800835609436035,0.2501154839992523,0.8870691061019897,0.2911456227302551,-0.15250501036643982,-0.4627833366394043,0.1845973143759891,0.10526069551391443,-0.9656369554268417,0.14963033029473852,-0.252799513642298,-2.7292620391927236,0.2702961113731056
1783160553834060544,3.198291540145874,0.029376354068517685,-0.48223260045051575,0.08680729568004608,-0.3845660984516144,0.2503994107246399,0.8884868621826172,0.37408334016799927,-0.18364223837852478,-0.49867063760757446,0.18270966755224405,0.10556971904006558,-0.9659702144352182,0.14957844014993488,-0.25309279557778186,-2.7331064432338543,0.27040641524308956
1783160553843980288,3.2082114219665527,-0.5138205885887146,-0.515884280204773,0.23581062257289886,-0.3795900046825409,0.24909035861492157,0.8909914493560791,0.3489045202732086,-0.17357458174228668,-0.502273678779602,0.18020710849383212,0.10506054147420264,-0.9666736834386085,0.1484242701146746,-0.25174089575134173,-2.7388490389989517,0.26816694740219366
1783160553853900544,3.2181315422058105,-0.46139249205589294,-0.47023749351501465,0.11110987514257431,-0.3748508393764496,0.2449645698070526,0.8941360116004944,0.2814823091030121,-0.1579284518957138,-0.4041610360145569,0.17803114476402296,0.10405110424108893,-0.9675956647200503,0.14572886854849956,-0.24748314737360774,-2.744617298470823,0.26427111607682113
1783160553863819264,3.228050470352173,-0.3749009966850281,-0.6121285557746887,0.14423958957195282,-0.369794636964798,0.24194560945034027,0.8970588445663452,0.2829720973968506,-0.21258766949176788,-0.47881531715393066,0.17558925903349926,0.10338685830652732,-0.9684216972179953,0.1436630631320769,-0.2443705369376291,-2.7505877668598533,0.2613364030350318
1783160553873739520,3.2379705905914307,-0.4474118947982788,-0.7117911577224731,0.0354568250477314,-0.36357390880584717,0.2386227399110794,0.9004849195480347,0.31321990489959717,-0.0684262067079544,-0.3570432662963867,0.17252243410312992,0.10290914947111686,-0.9693565791015087,0.14139844099835733,-0.2409473783614767,-2.75785473936955,0.2585575408421441
1783160553883659264,3.2478904724121094,-0.2078682780265808,-0.7484676837921143,0.10247500985860825,-0.3567746579647064,0.23571045696735382,0.9039647579193115,0.2428068220615387,-0.048271507024765015,-0.3575780987739563,0.1690656025943116,0.1029464098161663,-0.9702496630147154,0.13940734190309176,-0.23794956152995364,-2.7656829343015663,0.2568799215165308
1783160553893578496,3.257809638977051,-0.18696719408035278,-0.8859333992004395,0.14848953485488892,-0.3488381803035736,0.23449745774269104,0.907371461391449,0.2574380040168762,-0.03772006928920746,-0.3420485258102417,0.16498204404303096,0.1027381491809362,-0.9711491206589674,0.13818544739807445,-0.23670157297185446,-2.7745636668058604,0.2549281147089577
1783160553903498496,3.2677295207977295,-0.07199134677648544,-1.0251424312591553,0.036336902529001236,-0.3397104740142822,0.23348137736320496,0.9110891222953796,0.2717478275299072,0.00397588312625885,-0.31485188007354736,0.16022140366393456,0.10292243246938064,-0.972086170533977,0.13705684987150663,-0.23565649230913835,-2.7846977431444877,0.2536655370522575
1783160553913417216,3.277648448944092,-0.30514103174209595,-1.119201898574829,0.040326282382011414,-0.32925844192504883,0.23228323459625244,0.9152228832244873,0.282780259847641,0.005311310291290283,-0.3341073989868164,0.1547560866027114,0.10336360050168886,-0.9731019444842876,0.13579026104452405,-0.23442447586614318,-2.7962516209237105,0.25271565198337187
1783160553923337472,3.2875685691833496,-0.49982956051826477,-1.1147346496582031,0.0829768031835556,-0.31695041060447693,0.22847525775432587,0.9205113649368286,0.2525736391544342,0.06226566433906555,-0.18905097246170044,0.14850214247698623,0.10351358143268968,-0.9744437436642748,0.13300882825243251,-0.23051123272815185,-2.8099869580753,0.25040335841045025
1783160553933257216,3.2974884510040283,-0.565287709236145,-1.2668792009353638,0.09381770342588425,-0.3044620752334595,0.22387942671775818,0.9258405566215515,0.25661054253578186,-0.056398987770080566,-0.1972029209136963,0.14226298539397142,0.10330576681473753,-0.9758320497057282,0.12977264209830544,-0.2257931328219868,-2.8238830731678637,0.24726646704277708
1783160553943176448,3.3074076175689697,-0.7264129519462585,-1.3215246200561523,-0.017831062898039818,-0.2918621897697449,0.2178499400615692,0.9313207864761353,0.24193540215492249,-0.023407161235809326,-0.16200292110443115,0.13599455740306818,0.10356178978113016,-0.9772079328704057,0.12587782435127684,-0.21961095394944025,-2.8379015055475385,0.2449044483980393
1783160553953096448,3.3173274993896484,-0.6190231442451477,-1.3331187963485718,-0.019790085032582283,-0.27936023473739624,0.21150581538677216,0.9366019368171692,0.21786728501319885,0.06287772953510284,-0.13463056087493896,0.12981108133567357,0.10386826566347576,-0.9785255948981225,0.12185287607107573,-0.21311537086803925,-2.8517237968769042,0.24272505621027265
1783160553963016448,3.3272476196289062,-0.2501726746559143,-1.387735366821289,-0.14159002900123596,-0.2664296329021454,0.20710009336471558,0.9413419365882874,0.17684531211853027,0.08866098523139954,-0.18142378330230713,0.12326279401397829,0.10482078737765307,-0.9796344110402453,0.11889185139161904,-0.20860985225223871,-2.865774863965294,0.24224502044876142
1783160553972935424,3.3371665477752686,0.07748842239379883,-1.431718111038208,-0.145751953125,-0.25311851501464844,0.20602811872959137,0.9452428221702576,0.10677140951156616,0.12104406952857971,-0.1906648874282837,0.11631848549293866,0.10632854005212647,-0.9804670532758131,0.11768068303126972,-0.20751424752632378,-2.879949750780493,0.24344929932365467
1783160553982855424,3.3470864295959473,0.24655920267105103,-1.3479137420654297,-0.12671780586242676,-0.2401912361383438,0.20737551152706146,0.9483163356781006,0.02905532717704773,0.039664313197135925,-0.13331377506256104,0.10947078779358232,0.10784440665046376,-0.9810849861159049,0.11772024432613255,-0.20889137682833572,-2.893527665368708,0.2451047560407801
1783160553992774400,3.3570055961608887,0.23082278668880463,-1.2954862117767334,-0.06403513997793198,-0.2278556525707245,0.20944887399673462,0.9509008526802063,0.0044823139905929565,-0.1328497976064682,-0.10278713703155518,0.10291309949213745,0.10927052685380888,-0.9815856462668491,0.11814537586763085,-0.21101129724170825,-2.9064062183775636,0.24674802645897087
1783160554002694400,3.3669254779815674,0.08440804481506348,-1.2299554347991943,-0.010825985111296177,-0.21566027402877808,0.2110901176929474,0.953379213809967,0.09848800301551819,-0.2408905029296875,-0.10976636409759521,0.09651788097547231,0.11021938579798546,-0.9821106387648761,0.11829949970545604,-0.21269006722213482,-2.9191304527344712,0.2473635001919515
1783160554012614400,3.376845598220825,-0.1324620097875595,-1.1593127250671387,0.017219863831996918,-0.20424653589725494,0.21078360080718994,0.9559570550918579,0.12020109593868256,-0.27668628096580505,-0.02105093002319336,0.09065994550856993,0.11093498461787991,-0.9826860911431068,0.11748325372849647,-0.21237649997862895,-2.931100884474207,0.24734566071533354
1783160554022533376,3.3867645263671875,-0.313825398683548,-1.198052167892456,0.05538589507341385,-0.19273820519447327,0.20886237919330597,0.9587640166282654,0.18188923597335815,-0.25033581256866455,0.055777549743652344,0.08489915959639845,0.11124358258427972,-0.9833650789419947,0.11580203691636408,-0.21041154406930024,-2.943209038627607,0.24630968174986545
1783160554032453632,3.3966846466064453,-0.45276984572410583,-1.090975284576416,-0.010039519518613815,-0.18165060877799988,0.20507360994815826,0.9617419838905334,0.17612694203853607,-0.14179542660713196,0.0912516713142395,0.07945214062249406,0.11163626656604544,-0.9840774077136789,0.11320912631283804,-0.20653891143236666,-2.9549151457873526,0.24532197000765552
1783160554042373376,3.406604528427124,-0.5131101012229919,-0.9993042945861816,0.08257963508367538,-0.17139703035354614,0.2006329745054245,0.9645565748214722,0.09847529232501984,-0.0909680724143982,0.10278040170669556,0.07449269456946173,0.11185176595167128,-0.9847677193850197,0.11032919359319276,-0.20200399373619113,-2.9657331155493853,0.24406278329689074
1783160554052292352,3.4165234565734863,-0.5626453757286072,-0.8676186203956604,0.12074289470911026,-0.16219177842140198,0.19564023613929749,0.967170774936676,0.0909331738948822,-0.10149343311786652,0.16060662269592285,0.07015414438357688,0.11157587061032889,-0.9854624323903713,0.10720614395618658,-0.19691025887787023,-2.975441506542553,0.24193246659422352
1783160554062212352,3.426443576812744,-0.6890547275543213,-0.8350694179534912,0.08300057798624039,-0.15375323593616486,0.1898249238729477,0.9697043299674988,0.10710710287094116,-0.1468561440706253,0.158744215965271,0.06625273537126693,0.11127978743108007,-0.9861384105255308,0.10372281498919979,-0.19098382445180614,-2.984344856176433,0.23982979813221417
1783160554072131328,3.4363625049591064,-0.8320974111557007,-0.8723729848861694,0.046647198498249054,-0.14532652497291565,0.1825075000524521,0.9724050164222717,0.13228023052215576,-0.1398438811302185,0.1405254602432251,0.062417594298158234,0.11122633352260013,-0.9868288591801596,0.09950685080626498,-0.18353618872583252,-2.993240037594412,0.23815165145848793
1783160554082051584,3.4462826251983643,-0.9148412942886353,-0.8261937499046326,0.06505896151065826,-0.13678014278411865,0.17421285808086395,0.9751624464988708,0.11953768134117126,-0.13084734976291656,0.08102071285247803,0.05858982978631075,0.11108195977448825,-0.9875434231534634,0.09479553295777997,-0.17510635175313932,-3.0022378302390598,0.23627652708630753
1783160554091971328,3.456202507019043,-0.8657953143119812,-0.7205917835235596,0.09417366981506348,-0.12894228100776672,0.1654088944196701,0.9777597784996033,0.04747559130191803,-0.0732000321149826,0.054344892501831055,0.055157774991664306,0.1108489313632744,-0.9882269049974959,0.08987675851682307,-0.1661726091317755,-3.010474047462791,0.23434007617042343
1783160554101890304,3.4661214351654053,-0.8183974027633667,-0.6754392385482788,0.17449140548706055,-0.12183759361505508,0.15755407512187958,0.9799656271934509,0.06136699020862579,-0.07584324479103088,0.014037847518920898,0.052076481029077366,0.11024613043412483,-0.988852161823504,0.08547108286431346,-0.15821329475176268,-3.0178989440275577,0.23187887218057182
1783160554111810560,3.476041555404663,-0.8885623812675476,-0.714146614074707,0.1930367350578308,-0.11469786614179611,0.1494216024875641,0.9820986986160278,0.12438718229532242,-0.0978468805551529,0.08293437957763672,0.04900919210760822,0.10942506133349213,-0.9894824477679901,0.08092476532333996,-0.14998328187052812,-3.025330801398191,0.22902613415745077
1783160554121730304,3.485961437225342,-0.927385151386261,-0.6260268688201904,0.21834474802017212,-0.10773331671953201,0.14077219367027283,0.9841628670692444,0.1633516103029251,-0.13492809236049652,0.17124778032302856,0.046063698484908114,0.10847180838929338,-0.9901087377381937,0.07613578788213374,-0.14124133068855768,-3.0325598305954724,0.22596094200876757
