time,seconds_elapsed,rotationRateX,rotationRateY,rotationRateZ,gravityX,gravityY,gravityZ,accelerationX,accelerationY,accelerationZ,quaternionW,quaternionX,quaternionY,quaternionZ,pitch,roll,yaw
1782818728488766208,0.1759662628173828,0.1572715789079666,0.14925915002822876,-0.1837480664253235,0.1414610594511032,0.6124665141105652,-0.7777361869812012,0.01503308117389679,-0.021188437938690186,-0.03342103958129883,0.8818197868575612,-0.3303475239507782,-0.04474842298974164,0.33355956150217064,-0.6591770179883562,0.17992130918373872,0.7849479716147133
1782818728498685440,0.18588542938232422,0.20766179263591766,0.11924158036708832,-0.17305147647857666,0.14166255295276642,0.6103711724281311,-0.7793450355529785,0.017349272966384888,-0.02371656894683838,-0.01853698492050171,0.8825855236143366,-0.32924556241546343,-0.04387288847185117,0.33273904813066846,-0.6565291002651713,0.17980810930279983,0.7824409336057834
1782818728508605184,0.19580531120300293,0.28632259368896484,0.11434061080217361,-0.17646947503089905,0.1421184539794922,0.6070783734321594,-0.7818300127983093,0.008333206176757812,-0.011833012104034424,-0.017196476459503174,0.8835278125149741,-0.3275109579123031,-0.042679723045876826,0.33210477104066005,-0.6523787294379897,0.17981331583129057,0.7800639396125997
1782818728518525440,0.20572543144226074,0.3432926535606384,0.14102867245674133,-0.18949313461780548,0.1426975429058075,0.6029468178749084,-0.7849156260490417,-0.002499803900718689,0.0018200278282165527,-0.026897728443145752,0.884640934143395,-0.32533217263037617,-0.04124507751602043,0.3314638614556908,-0.6471897438180745,0.1798357577373816,0.7774519631587412
1782818728528444416,0.21564435958862305,0.3000635504722595,0.15166842937469482,-0.2125706970691681,0.14312924444675446,0.5987601280212402,-0.7880357503890991,0.007673352956771851,-0.009755611419677734,-0.02354872226715088,0.8858172569629614,-0.3231038345161676,-0.03982496014099843,0.3306746915816124,-0.6419521549384833,0.17966925886561302,0.7744356450811276
1782818728538361600,0.22556161880493164,0.21505732834339142,0.1150054931640625,-0.23617376387119293,0.14335304498672485,0.595079779624939,-0.7907780408859253,0.02713342010974884,-0.058107733726501465,-0.016503453254699707,0.8869169634079865,-0.321125245694035,-0.03859463217042989,0.32979890127548944,-0.6373649276850499,0.179333459442511,0.7713187960687968
1782818728548280832,0.23548078536987305,0.1446966677904129,0.06096389889717102,-0.2472815066576004,0.14353086054325104,0.5915536880493164,-0.7933871150016785,0.05327700078487396,-0.0720987319946289,-0.013650238513946533,0.8879478711620428,-0.3192231846121019,-0.03745663996465087,0.3290017026857138,-0.6329845029996416,0.1789732530494049,0.7684269311618959
1782818728558200576,0.24540066719055176,0.15719568729400635,0.019590893760323524,-0.27533549070358276,0.14389817416667938,0.587848961353302,-0.7960696220397949,0.06647473573684692,-0.04263722896575928,-0.012081563472747803,0.8889540932466543,-0.3172570454789041,-0.03623740302859862,0.3283220312800681,-0.628397297236271,0.17882975863391598,0.7658420065000087
1782818728568120832,0.25532078742980957,0.24937447905540466,-0.004883593879640102,-0.24798144400119781,0.1446095108985901,0.5838092565536499,-0.798908531665802,0.0680522471666336,-0.0029529333114624023,-0.009669959545135498,0.8899578111348615,-0.31517080295548083,-0.03482966743872799,0.3277641387450209,-0.6234126668999418,0.17906994569176177,0.7635897554498174
1782818728578039552,0.2652397155761719,0.41613444685935974,-0.027084503322839737,-0.2241980880498886,0.14571134746074677,0.5791891813278198,-0.8020648956298828,0.08587127923965454,0.025196194648742676,0.004304945468902588,0.8909847473940198,-0.31283664980332904,-0.03317812106953159,0.327381318872945,-0.6177336799182959,0.1797103247112197,0.7617290615232484
1782818728587959808,0.2751598358154297,0.5941217541694641,-0.05578238517045975,-0.1419488787651062,0.14730897545814514,0.5737546682357788,-0.8056709170341492,0.10417111217975616,0.03746664524078369,0.025901079177856445,0.8920527321830632,-0.3101466924033531,-0.031201991544067935,0.3272267963674338,-0.6110828307297375,0.18084256255872447,0.7603492732153586
1782818728597878784,0.285078763961792,0.6570940613746643,-0.10023374110460281,-0.20974630117416382,0.1491549015045166,0.56791090965271,-0.8094627857208252,0.1561734676361084,0.04414963722229004,0.053221940994262695,0.8931072705560472,-0.3072823258102954,-0.02908924000087465,0.32724714602371513,-0.6039655078737255,0.1822200952432589,0.7593499331369735
1782818728607798528,0.2949986457824707,0.6762886047363281,-0.1120995283126831,-0.39560559391975403,0.15067701041698456,0.562606930732727,-0.8128774762153625,0.14189502596855164,0.04782092571258545,0.10178744792938232,0.8942549298957283,-0.3046777672612197,-0.02706857466623163,0.3267212773253214,-0.5975357761573773,0.1832822476856209,0.7571695780015879
1782818728617718784,0.3049187660217285,0.7612383961677551,-0.04257744178175926,-0.5538506507873535,0.15185680985450745,0.5577621459960938,-0.8159908056259155,0.13963182270526886,0.06310278177261353,0.13637959957122803,0.8956324093391113,-0.30228842590073374,-0.02502632063949055,0.3253276719259963,-0.5916871255300489,0.18399625357604504,0.7530619821089806
1782818728627637504,0.3148376941680908,0.8241710066795349,-0.00474640354514122,-0.7013990879058838,0.1529538780450821,0.5532140135765076,-0.8188769221305847,0.1818239390850067,0.055260658264160156,0.18673580884933472,0.8972229307449581,-0.3000665849298229,-0.022838502890592475,0.32315549668838434,-0.5862174996511691,0.18465709031877184,0.7472916512046481
1782818728637557760,0.32475781440734863,0.8475279808044434,-0.02689325250685215,-0.8591351509094238,0.15367987751960754,0.5490666627883911,-0.8215280175209045,0.23863884806632996,0.04337108135223389,0.25748687982559204,0.8990063588425827,-0.2980071528327524,-0.020681606822526153,0.3202367301071863,-0.5812471096987744,0.1849285630808309,0.7398506377084659
1782818728647476736,0.33467674255371094,0.8594301342964172,-0.09126124531030655,-0.9879211783409119,0.1526658535003662,0.5451762676239014,-0.8243033289909363,0.2956678867340088,0.023045778274536133,0.3198172450065613,0.9010426441074844,-0.29576786896090757,-0.01922775909364142,0.31666034545767235,-0.5765993574883747,0.18313085774567323,0.7303585366408698
1782818728657396480,0.34459662437438965,0.9627647399902344,-0.1104876697063446,-1.163329005241394,0.14893501996994019,0.540473997592926,-0.8280737996101379,0.3294280171394348,-0.013084471225738525,0.32901984453201294,0.9035896368933263,-0.2925957290793995,-0.018730665804367254,0.3123502322509368,-0.5710003720952795,0.1779545943694948,0.7179963166353333
1782818728667316736,0.35451674461364746,1.0559157133102417,-0.04616517946124077,-1.3593076467514038,0.1439133584499359,0.5349200963973999,-0.8325560092926025,0.3554152250289917,0.03351563215255737,0.32491135597229004,0.9066303344062853,-0.28875950490628505,-0.01843776371833126,0.3070822511759635,-0.5644131452043473,0.1711658650510034,0.7028984620598354
1782818728677235712,0.36443567276000977,1.2107694149017334,0.01646704412996769,-1.535327434539795,0.13842692971229553,0.5285511612892151,-0.83753901720047,0.42469868063926697,0.10902202129364014,0.29870539903640747,0.9100791851399502,-0.2844416022083993,-0.017984944586462374,0.30087437231385095,-0.5568929579499257,0.16379741689309324,0.6855030613357217
1782818728687155712,0.3743557929992676,1.4253922700881958,0.04522579535841942,-1.7130495309829712,0.1327056735754013,0.5208154916763306,-0.8432914018630981,0.5146026611328125,0.15691882371902466,0.23658668994903564,0.9139679402479349,-0.27938899145956864,-0.017207199802441283,0.29378274464486415,-0.5478059827314752,0.1560862786183596,0.6659480144625849
1782818728697074688,0.3842747211456299,1.6809321641921997,0.016407998278737068,-1.8607529401779175,0.12677577137947083,0.5114158391952515,-0.849930465221405,0.6201267242431641,0.21780169010162354,0.19886839389801025,0.9182488797506494,-0.2734493508012946,-0.016131788204247342,0.28597940826400126,-0.5368315851058065,0.14806850370329472,0.6446333751961991
1782818728706994688,0.3941948413848877,1.9889116287231445,-0.048235177993774414,-2.031963586807251,0.12089019268751144,0.5001083016395569,-0.8574830889701843,0.7105764746665955,0.27871549129486084,0.17660540342330933,0.9228716312564573,-0.26653928616476597,-0.014671970308751765,0.2775780008586603,-0.5237238619052311,0.14005952170860694,0.6219331710653118
1782818728716914688,0.4041147232055664,2.2504396438598633,-0.09417895972728729,-2.168958902359009,0.11638578772544861,0.4874003231525421,-0.8653873801231384,0.768837571144104,0.3287312686443329,0.18426555395126343,0.9276373906746783,-0.2591418280225602,-0.012321946658216915,0.26866829285805477,-0.5091100229491076,0.1336876425495072,0.5986594741395352
1782818728726833664,0.4140336513519287,2.3785741329193115,-0.1317742019891739,-2.328005313873291,0.11885171383619308,0.4768471121788025,-0.8709139823913574,0.7893361449241638,0.34152752161026,0.16714811325073242,0.9316802574546461,-0.25395680845049434,-0.0069973469373542,0.25967072409512915,-0.49706423674128064,0.13562998083901634,0.5780978784986888
1782818728736753664,0.4239537715911865,2.3164875507354736,-0.13809014856815338,-2.5109145641326904,0.125543013215065,0.4687671661376953,-0.8743547797203064,0.7673250436782837,0.2821941375732422,0.1742052435874939,0.9352083463829569,-0.2506443648280932,8.444539917204477e-05,0.2501254557804531,-0.48789457414833987,0.14260892305087797,0.5582276336443474
1782818728746672640,0.43387269973754883,1.9082566499710083,-0.17424093186855316,-2.7386090755462646,0.12229928374290466,0.45835039019584656,-0.8803168535232544,0.7341612577438354,0.19146040081977844,0.2089301347732544,0.9397346909674336,-0.24460821754168413,0.002895480001361881,0.2388662936892325,-0.4761382524219287,0.13804285672417757,0.5313759964453971
1782818728756592640,0.44379281997680664,1.3679003715515137,-0.21655936539173126,-3.032630205154419,0.11453290283679962,0.4507973790168762,-0.8852479457855225,0.6732020974159241,0.10167759656906128,0.22176527976989746,0.9441841611539313,-0.23951037664773128,0.0032864575509709572,0.22614231125525394,-0.46765844989454775,0.12866472847597954,0.5008509032708526
1782818728766512640,0.45371270179748535,0.8400383591651917,-0.18686583638191223,-3.3535850048065186,0.10489021241664886,0.4477042853832245,-0.8880084156990051,0.6045213937759399,0.06332781910896301,0.21662169694900513,0.9482152123234219,-0.23662176157573597,0.0024363557061829687,0.2118778738177273,-0.46419629524366796,0.11757371191941711,0.46749540181500954
1782818728776431616,0.46363162994384766,0.49268999695777893,-0.10888155549764633,-3.640265464782715,0.09430501610040665,0.44844383001327515,-0.888822078704834,0.5431613922119141,0.11268287897109985,0.22309637069702148,0.9518235541106167,-0.23577110303718923,0.0009719909787526725,0.19606873701212998,-0.4650235204552074,0.10570563849659084,0.4313547354185464
1782818728786351616,0.47355175018310547,0.2733426094055176,0.026691831648349762,-3.891127347946167,0.08325126767158508,0.45152172446250916,-0.888367772102356,0.5019842982292175,0.13662827014923096,0.19154471158981323,0.9550942427938292,-0.23625341290972776,-0.0006519935294621161,0.17882640865364133,-0.46847008965316256,0.09343972019737354,0.3924939693002459
1782818728796270592,0.4834706783294678,0.2352095991373062,0.19766651093959808,-4.142281532287598,0.07192328572273254,0.45553135871887207,-0.8873095512390137,0.47655391693115234,0.09196925163269043,0.10210752487182617,0.9581298417344791,-0.23736189801699945,-0.002136752634015877,0.1601307051961886,-0.47296900373180184,0.08088088622611411,0.3506975593030707
1782818728806190848,0.4933907985687256,0.32793012261390686,0.296138197183609,-4.340549945831299,0.060008540749549866,0.4586052894592285,-0.8866115808486938,0.5037121772766113,0.010068416595458984,-0.011978507041931152,0.961082551944683,-0.2380799277353927,-0.003484695347610411,0.14009307779764268,-0.4764250763923655,0.06757993853139567,0.3059087925122649
1782818728816110592,0.5033106803894043,0.3855801224708557,0.26836809515953064,-4.488490104675293,0.04677954688668251,0.46018117666244507,-0.8865917921066284,0.5677681565284729,-0.07218071818351746,-0.07597839832305908,0.9639016071484172,-0.23807043981948145,-0.005155398816174626,0.11912050465398157,-0.4781992668259242,0.052714462485792896,0.2587689952103978
1782818728826029824,0.5132298469543457,0.5015732049942017,0.22459661960601807,-4.650244235992432,0.03193039819598198,0.46009159088134766,-0.8872971534729004,0.5982118248939514,-0.17066287994384766,-0.10818624496459961,0.9665251434002556,-0.23726979877381715,-0.007380946147693021,0.0973536036922349,-0.47809833679691704,0.03597061932276618,0.20954084135711726
1782818728835949568,0.5231497287750244,0.5774024724960327,0.09189503639936447,-4.744253635406494,0.015520083718001842,0.4581400454044342,-0.8887445330619812,0.5743541717529297,-0.2665659487247467,-0.0867651104927063,0.9688885552668641,-0.23563315881718466,-0.010234555444108702,0.07501569717180698,-0.4759015985999602,0.01746115571574085,0.1587759134642608
1782818728845868544,0.5330686569213867,0.6032427549362183,0.011251432821154594,-4.839902400970459,-0.0021182980854064226,0.45483359694480896,-0.8905739188194275,0.5201389193534851,-0.31050071120262146,-0.03729778528213501,0.9708474333642172,-0.23350747101882416,-0.013685875469752522,0.0523655535637279,-0.4721853539969188,-0.0023785720107825734,0.10719929226935664
1782818728855788800,0.5429887771606445,0.6669130921363831,-0.0031046029180288315,-4.890825271606445,-0.019983511418104172,0.4503284692764282,-0.8926393389701843,0.4482366740703583,-0.3571735918521881,0.03941357135772705,0.9723454416983718,-0.23104633636078878,-0.0172607938428627,0.029395396401618333,-0.4671331998177111,-0.022383255440595353,0.05511908378542915
1782818728865708544,0.5529086589813232,0.7003164887428284,-0.02312689647078514,-4.874671936035156,-0.03684535250067711,0.4448131322860718,-0.8948652148246765,0.4237472116947174,-0.4229625463485718,0.126142680644989,0.9733399133937806,-0.22836191431453456,-0.020450828200970602,0.006493773563712445,-0.4609656108750736,-0.04115095018571677,0.003685617026409741
1782818728875627776,0.5628278255462646,0.8657709360122681,-0.059852421283721924,-4.877084732055664,-0.05091346800327301,0.43864500522613525,-0.8972170352935791,0.4322763979434967,-0.5082708597183228,0.1645052433013916,0.9738338510180451,-0.225584204497585,-0.022433462238823372,-0.016004084468570805,-0.454090334627591,-0.05668519749751881,-0.04596447153254832
1782818728885547520,0.5727477073669434,1.0992070436477661,-0.12879039347171783,-4.874985694885254,-0.050202883780002594,0.4353262484073639,-0.8988719582557678,0.445222407579422,-0.6014944314956665,0.16774708032608032,0.9736983781360041,-0.22419590746577084,-0.017327120684681604,-0.03670920002931051,-0.45040063907808625,-0.05579302157616443,-0.08815045289388579
1782818728895467776,0.5826678276062012,1.3365635871887207,-0.2771007716655731,-4.7833662033081055,-0.061671506613492966,0.4251753091812134,-0.9030075073242188,0.46071934700012207,-0.6854749917984009,0.22881323099136353,0.9736968468150448,-0.2194408182522535,-0.018492246907803003,-0.05846637911084594,-0.4391555725451194,-0.06818978348379037,-0.13517147602657975
1782818728905386752,0.5925867557525635,1.4934194087982178,-0.5860031843185425,-4.685519695281982,-0.0808967873454094,0.41013917326927185,-0.9084280729293823,0.4434303343296051,-0.7838269472122192,0.3213003873825073,0.9735381090335483,-0.21262359326101068,-0.024024142159520236,-0.08023557932751278,-0.4226066407334318,-0.0888171128120022,-0.18352498247234467
1782818728915306496,0.6025066375732422,1.3481892347335815,-1.386659860610962,-4.468841075897217,-0.10878439247608185,0.3928440809249878,-0.9131481051445007,0.26889485120773315,-0.8900364637374878,0.34163016080856323,0.972822378659851,-0.20549855259582642,-0.034587355739903056,-0.10094884524163057,-0.40372226989444715,-0.11857232735811706,-0.23109084177509506
1782818728925225728,0.6124258041381836,1.2796940803527832,-0.9013449549674988,-4.381591320037842,-0.13404697179794312,0.3764440715312958,-0.9166904091835022,0.15406648814678192,-0.9814855456352234,0.4443698525428772,0.9715026317150849,-0.19923576333650544,-0.044270891881059586,-0.12053154606890878,-0.3859550009512678,-0.14520016509787095,-0.27529424879503744
1782818728935145728,0.6223456859588623,1.4354405403137207,-0.5089777112007141,-4.2552618980407715,-0.15446589887142181,0.35824981331825256,-0.9207591414451599,0.07208369672298431,-0.9950295686721802,0.4618815779685974,0.9699096768397019,-0.19217681509634973,-0.05185087569715103,-0.14019526946102837,-0.36639260170073706,-0.1662115787342472,-0.31796411076860065
1782818728945064448,0.6322646141052246,1.4141812324523926,-0.44246548414230347,-4.2265238761901855,-0.17270046472549438,0.3380987048149109,-0.9251291155815125,0.13891750574111938,-0.9587652087211609,0.5244180560112,0.9680219589569677,-0.18433255498958923,-0.05879595229582258,-0.159681299490231,-0.3448958833872244,-0.18455293557567687,-0.3592019489795159
1782818728954984704,0.6421847343444824,1.6425589323043823,-0.31131571531295776,-3.8993098735809326,-0.18860071897506714,0.31721967458724976,-0.9294092059135437,0.012987315654754639,-1.0171709060668945,0.6441003680229187,0.9658913486978994,-0.1762249838993337,-0.06511650618947312,-0.1782090727025251,-0.32279629584660674,-0.2002068451406984,-0.3976037228910597
1782818728964904448,0.6521046161651611,1.8133314847946167,-0.062245000153779984,-3.933065414428711,-0.20160391926765442,0.2934125065803528,-0.934486448764801,-0.08899971842765808,-0.9179090261459351,0.678932249546051,0.963744377425552,-0.16660823362875918,-0.07069982075325155,-0.1960611723452092,-0.2977945233248524,-0.21248111892269306,-0.43338764437665556
1782818728974823680,0.6620237827301025,2.3270657062530518,0.3110257685184479,-3.8859665393829346,-0.2107764482498169,0.2663964331150055,-0.9405350685119629,-0.1300896406173706,-0.6272667646408081,0.7480912208557129,0.9615001814964312,-0.1552360037745931,-0.07506160848222246,-0.21397402852205633,-0.2696524085920299,-0.22046021185500592,-0.46797169940422223
1782818728984743680,0.6719436645507812,2.667285680770874,0.6834213137626648,-4.002537727355957,-0.21543654799461365,0.23391100764274597,-0.9480890035629272,-0.21362534165382385,-0.5692534446716309,0.6465600728988647,0.9592333032033946,-0.14085556609844574,-0.07819985363794947,-0.2321979404817079,-0.23609835410203145,-0.22343827140734468,-0.501604537346501
1782818728994663680,0.6818637847900391,2.6224141120910645,0.9849396347999573,-4.138189792633057,-0.21572311222553253,0.20044958591461182,-0.9556586742401123,-0.006536409258842468,-0.6491647958755493,0.5856177806854248,0.956437620751498,-0.12573148611511947,-0.07976373136806245,-0.25111071714303607,-0.20181680449237674,-0.22201142835966348,-0.5360774212970634
1782818729004582656,0.6917827129364014,2.7163803577423096,1.2280395030975342,-3.695250988006592,-0.21202883124351501,0.16672983765602112,-0.9629355669021606,0.07971987128257751,-0.7655915021896362,0.44579994678497314,0.9533328751182916,-0.11008432710249673,-0.0800852599685457,-0.26948891458595403,-0.1675121455291952,-0.2167315734933009,-0.5692520071152772
1782818729014502656,0.7017028331756592,3.129544973373413,1.1883962154388428,-3.242894172668457,-0.20508436858654022,0.131618931889534,-0.9698540568351746,0.18034987151622772,-0.5614284873008728,0.28822869062423706,0.9506776522944748,-0.09317709393929198,-0.07994378869013687,-0.284849098075154,-0.132001940683568,-0.20838916272403074,-0.5960536261874768
1782818729024421632,0.7116217613220215,3.293133497238159,1.395882248878479,-3.386837959289551,-0.19517186284065247,0.09338299930095673,-0.9763132333755493,-0.07760949432849884,-0.4931938052177429,0.2508952021598816,0.9667071093874492,-0.06854879732299395,-0.0845247720422402,-0.2315902161209391,-0.09351925696403497,-0.19730613979551598,-0.47953198511842465
1782818729034341632,0.7215416431427002,2.9687769412994385,1.4077093601226807,-3.3896498680114746,-0.1837083101272583,0.05685072019696236,-0.981335461139679,-0.2428969293832779,-0.40974074602127075,0.33070069551467896,0.9680221737198109,-0.04924185189873457,-0.08311147600953243,-0.23151849991514628,-0.05688138877806469,-0.1850603945828605,-0.4747932415554438
1782818729044261632,0.731461763381958,3.0325891971588135,1.4220260381698608,-3.3320260047912598,-0.17099051177501678,0.021559037268161774,-0.9850367903709412,-0.271300733089447,-0.4913924038410187,0.28108781576156616,0.9668996947673622,-0.03117901101363744,-0.08068134639071531,-0.24004877053293217,-0.021560706879941795,-0.17187523765098625,-0.48855041725468656
1782818729054180608,0.7413806915283203,2.999504566192627,1.3795467615127563,-3.3919270038604736,-0.1573614627122879,-0.013589021749794483,-0.9874475598335266,-0.1860375702381134,-0.5838078260421753,0.08305919170379639,0.9641405859776001,-0.013462817226775508,-0.07807026326932343,-0.2532918228590814,0.01358943987224736,-0.15803296906138342,-0.5127382872472289
1782818729064100864,0.7513008117675781,3.025094985961914,1.468888521194458,-3.035914182662964,-0.14215242862701416,-0.04796327278017998,-0.9886820316314697,-0.21319423615932465,-0.4980419874191284,-0.137157142162323,0.9609084901520984,0.004129231518632814,-0.07511271616807963,-0.266450524900235,0.04798168133319726,-0.14280105526576115,-0.537555901702429
1782818729074019584,0.7612197399139404,3.3533830642700195,1.3071520328521729,-3.0611681938171387,-0.12626881897449493,-0.0832274928689003,-0.9884985685348511,-0.22839121520519257,-0.4738556444644928,-0.3831139802932739,0.9571866876495244,0.022323167071859492,-0.07247347314120846,-0.2793616200117599,0.08332387473733448,-0.1270499450113225,-0.5626356579571767
1782818729083939584,0.7711396217346191,3.4355828762054443,1.0652389526367188,-3.142895221710205,-0.11099996417760849,-0.12049490213394165,-0.9864886999130249,-0.3774338662624359,-0.44675058126449585,-0.5306164026260376,0.952667438405351,0.04143124632449921,-0.07098658043545897,-0.2926926609330118,0.12078840052066703,-0.11204896655436668,-0.5893795280032156
1782818729093859584,0.781059741973877,3.40293550491333,0.7798725366592407,-3.209869623184204,-0.09739522635936737,-0.15767857432365417,-0.9826757311820984,-0.42349404096603394,-0.34589195251464844,-0.38637328147888184,0.9475063396208468,0.060327089515895244,-0.07087146484730379,-0.3058915843661756,0.1583393704277735,-0.0987896365740422,-0.6167075865162401
1782818729103778560,0.7909786701202393,3.360755681991577,0.5541144609451294,-3.1557421684265137,-0.08541414886713028,-0.19382020831108093,-0.9773116707801819,-0.3678787052631378,-0.5046966671943665,-0.38932645320892334,0.9413789356170322,0.07844867330843582,-0.07204134870804046,-0.3200963505789654,0.19505470489660592,-0.0871755328884964,-0.646995074826012
1782818729113698816,0.8008987903594971,3.5085413455963135,0.2947366535663605,-3.20174503326416,-0.07444065064191818,-0.22920064628124237,-0.9705285429954529,-0.4867165684700012,-0.3551957309246063,-0.2911749482154846,0.9346822277580968,0.09609499425933285,-0.07417194996293161,-0.33411602732431855,0.23125638295251197,-0.07655126162826308,-0.6777235757794052
1782818729123617536,0.8108177185058594,3.756453037261963,0.13019965589046478,-3.2029876708984375,-0.06456147134304047,-0.2666955888271332,-0.9616159796714783,-0.48719632625579834,-0.14408627152442932,-0.25371605157852173,0.9274274419368834,0.11465656634645102,-0.07775527214843253,-0.34739954611476254,0.26996280034630704,-0.06703790876517715,-0.7077044401627063
1782818729133537792,0.8207378387451172,3.710707187652588,0.060835231095552444,-3.1461341381073,-0.05453730374574661,-0.3043428957462311,-0.9510000348091125,-0.520505428314209,-0.21621069312095642,-0.08063143491744995,0.9190944971164904,0.1332641913993912,-0.08210139525552097,-0.3616146836959595,0.30924854032973637,-0.057284578633194534,-0.7407571215999086
1782818729143457536,0.8306577205657959,3.235344409942627,0.0067140161991119385,-2.969801664352417,-0.044196974486112595,-0.3385678827762604,-0.9399033784866333,-0.3801957368850708,-0.44393330812454224,0.035545527935028076,0.9105590103983459,0.15036824684171793,-0.08624203067745756,-0.37527850940727037,0.3453944790990765,-0.04698827629445285,-0.7736592489670909
1782818729153376512,0.8405766487121582,2.7612199783325195,-0.09575909376144409,-2.6914420127868652,-0.03450014069676399,-0.3676324188709259,-0.9293310046195984,-0.3810729682445526,-0.4100775122642517,0.06673645973205566,0.9023958522755905,0.16501711171882516,-0.09002132764931804,-0.38774647379893035,0.37646187070928194,-0.03710658759259838,-0.8045963276960584
1782818729163296768,0.850496768951416,2.513460159301758,-0.3234294652938843,-2.7858529090881348,-0.025999153032898903,-0.39323702454566956,-0.9190694689750671,-0.39204588532447815,-0.38534268736839294,-0.02956944704055786,0.8943602547102616,0.17785034438568909,-0.0939921517392069,-0.3995677846061963,0.40414961846632286,-0.028281019628966526,-0.8345245105650585
1782818729173215744,0.8604156970977783,1.9508843421936035,-0.21988709270954132,-2.5346004962921143,-0.017594270408153534,-0.41459962725639343,-0.9098338484764099,-0.36143404245376587,-0.3425719738006592,-0.10022175312042236,0.8864439670235829,0.18864654560785377,-0.09744522221887078,-0.4112590240610053,0.42750280304610605,-0.01933548434734658,-0.8645784003580881
1782818729183135744,0.8703358173370361,1.3554823398590088,-0.2556025981903076,-2.4143168926239014,-0.009317650459706783,-0.4299105405807495,-0.9028233885765076,-0.30376216769218445,-0.2912350594997406,0.060858726501464844,0.8791469601234193,0.19655936301831425,-0.09976327352141884,-0.42250723700323567,0.44439369412168883,-0.010320201736162589,-0.8936634674113623
1782818729193055744,0.8802556991577148,0.9965236783027649,-0.4650583565235138,-2.28749418258667,-0.002670240355655551,-0.4403124153614044,-0.897840678691864,-0.4754639267921448,-0.2525433897972107,0.08669871091842651,0.8724067621973285,0.2017947600344565,-0.10177695624733198,-0.4333897700575284,0.4559465990118062,-0.0029740606565666974,-0.9214383137752681
1782818729202974464,0.8901746273040771,1.5164259672164917,-0.6639941930770874,-2.1561872959136963,0.0024297067429870367,-0.45146989822387695,-0.892283022403717,-0.43355152010917664,-0.08431193232536316,0.031855225563049316,0.8656262446874596,0.20709488511480972,-0.10473865397589514,-0.4436583793109897,0.46841199309548787,0.0027230157109372744,-0.9478903709607428
1782818729212894720,0.900094747543335,2.3963065147399902,-0.9953121542930603,-2.088890790939331,0.004886820912361145,-0.46872881054878235,-0.8833286166191101,-0.36252233386039734,0.15867021679878235,-0.029894649982452393,0.85796741677294,0.21471010162688445,-0.11061317448397695,-0.4533830006154947,0.48785115714255667,0.005532223567400633,-0.9736542393944663
1782818729222813696,0.9100136756896973,2.9995172023773193,-1.2513998746871948,-2.046234130859375,0.005094526335597038,-0.49243825674057007,-0.8703324794769287,-0.3825359344482422,0.11130422353744507,-0.10333085060119629,0.8492118508457605,0.22484833272775723,-0.1194863546749059,-0.4626073505335067,0.5148890298764655,0.005853473348818871,-0.9991469066799085
1782818729232733696,0.9199337959289551,3.6614418029785156,-1.5090113878250122,-1.930050015449524,0.003352387808263302,-0.5209594368934631,-0.8535748720169067,-0.2818710505962372,-0.08711856603622437,-0.11995112895965576,0.8396493148299691,0.236840653502744,-0.13083982829217464,-0.4709316766692917,0.5479745642112714,0.00392744745424325,-1.0234003491941597
1782818729242653696,0.9298536777496338,4.246123790740967,-1.712196707725525,-1.9716545343399048,0.0003396354441065341,-0.554183840751648,-0.8323942422866821,-0.2772256135940552,-0.14122021198272705,-0.19099748134613037,0.8287780705749488,0.2507419000006052,-0.14467681072754612,-0.47887802466395357,0.5873821811502737,0.000408022313155115,-1.0480137474092786
1782818729252572672,0.9397728443145752,4.778985500335693,-1.9283188581466675,-1.8739783763885498,-0.003478987142443657,-0.5911519527435303,-0.8065527677536011,-0.307891845703125,-0.05272316932678223,-0.19273006916046143,0.8166797075814153,0.2663030484125598,-0.16064342698121986,-0.48611810538586586,0.6324863178932483,-0.004313376472569916,-1.0724088473406026
1782818729262492672,0.9496927261352539,5.08488130569458,-2.0735788345336914,-1.8702759742736816,-0.007859662175178528,-0.630211353302002,-0.7763838768005371,-0.24557355046272278,-0.13339948654174805,-0.1839280128479004,0.8031768131940228,0.2827631426661388,-0.1784742783099462,-0.49305072052601334,0.6818253816948192,-0.01012307635702683,-1.0975283266580658
1782818729272411648,0.9596116542816162,5.301865577697754,-2.138108015060425,-1.8478643894195557,-0.011748562566936016,-0.6698761582374573,-0.742379903793335,-0.1863410323858261,-0.17564386129379272,-0.16744065284729004,0.7886384167580711,0.2998340138013765,-0.19725523162963926,-0.4992387966803709,0.7340419981951534,-0.01582421933243745,-1.122634865732595
1782818729282331648,0.969531774520874,5.425067901611328,-2.2323336601257324,-1.7701294422149658,-0.014983796514570713,-0.7087040543556213,-0.7053468823432922,-0.18818695843219757,-0.16321367025375366,-0.15442490577697754,0.7734430457013811,0.31699338686300005,-0.21642958737990153,-0.5044397384155741,0.7876595733754442,-0.021239965582691606,-1.147014727489118
1782818729292251648,0.9794516563415527,5.633203983306885,-2.4241509437561035,-1.7096681594848633,-0.01817311905324459,-0.7466720938682556,-0.664944052696228,-0.16339120268821716,-0.18472439050674438,-0.17500650882720947,0.7572703902038863,0.3340555051306335,-0.2365056188785834,-0.5089338162284177,0.8430450162781854,-0.02732349653787153,-1.171206818570718
1782818729302170880,0.9893708229064941,6.0727858543396,-2.5741047859191895,-1.6030919551849365,-0.021502798423171043,-0.784416675567627,-0.619861364364624,-0.1345793604850769,-0.21369123458862305,-0.19889473915100098,0.7396857588861196,0.3513873335917454,-0.25806253944938556,-0.5126359683334827,0.9017551038239445,-0.0346757868776584,-1.195297484398176
1782818729312090624,0.9992907047271729,6.754208087921143,-2.77571702003479,-1.4452089071273804,-0.025013349950313568,-0.8226072192192078,-0.5680595636367798,-0.11619147658348083,-0.19039326906204224,-0.24820935726165771,0.7207364317151493,0.36989478571057127,-0.2813326372290879,-0.5143624988174111,0.9659811649149092,-0.04400454231447678,-1.216593782722616
1782818729322009600,1.0092096328735352,7.506314754486084,-2.95646071434021,-1.2057054042816162,-0.029164062812924385,-0.8611591458320618,-0.5074982047080994,-0.09272316098213196,-0.24760550260543823,-0.2716766595840454,0.6996635462342977,0.3897388800910063,-0.30717180112665593,-0.5140233381121923,1.0375455197003478,-0.05740320673781675,-1.2344583093954054
1782818729331929600,1.019129753112793,8.287373542785645,-3.144958257675171,-0.9871355295181274,-0.033953141421079636,-0.8985711932182312,-0.43751221895217896,-0.10683970153331757,-0.2810552716255188,-0.29742735624313354,0.6763509168117591,0.410704886641503,-0.3355076441092915,-0.5111805048616502,1.1165026056195408,-0.07744978094644606,-1.2460116883164627
1782818729341849600,1.0290496349334717,9.170815467834473,-3.3013064861297607,-0.7580580115318298,-0.03862926363945007,-0.9333309531211853,-0.35693302750587463,-0.051489125937223434,-0.3040042519569397,-0.365479052066803,0.650191059649892,0.4328210015843304,-0.3663324468203519,-0.5056858363157312,1.2035816699075208,-0.10780592377947933,-1.2479757348190381
1782818729351768832,1.038968801498413,10.205127716064453,-3.4126079082489014,-0.42086824774742126,-0.04353906959295273,-0.9634953141212463,-0.264161080121994,0.055685073137283325,-0.30934709310531616,-0.3925008773803711,0.6209211148278782,0.4561415069118467,-0.3998179314759711,-0.4965254366369162,1.299765132217292,-0.16335152471535122,-1.2247995522224768
1782818729361688576,1.0488886833190918,11.150132179260254,-3.502842903137207,-0.052564606070518494,-0.04846115782856941,-0.986118495464325,-0.15881413221359253,0.1236870214343071,-0.33352261781692505,-0.30291682481765747,0.5882682513246861,0.48039841226150204,-0.4356722375178481,-0.4830606454902958,1.4039806017279872,-0.2961692172186352,-1.124028404689851
1782818729371607808,1.0588078498840332,11.708649635314941,-3.479494333267212,0.5578239560127258,-0.05431411787867546,-0.9975440502166748,-0.04422764480113983,0.14797255396842957,-0.29652345180511475,-0.14055627584457397,0.5530099719229237,0.5040965909536109,-0.4730463024488843,-0.4650740910992188,1.500696905832247,-0.8874002568582736,-0.5642685279104321
1782818729381527552,1.068727731704712,12.596370697021484,-3.469102382659912,0.8156760334968567,-0.060794878751039505,-0.9950842261314392,0.07817421108484268,0.2100258320569992,-0.43434375524520874,-0.01031840592622757,0.5149958537880435,0.5267485941217716,-0.5114909826524864,-0.44237098899199595,1.4716015172352284,-2.4806075791845332,0.9978301782484793
1782818729391447808,1.0786478519439697,14.233513832092285,-3.459657669067383,1.0037524700164795,-0.06559327989816666,-0.9748150110244751,0.21315090358257294,0.26133301854133606,-0.2682422399520874,-0.07556235790252686,0.47175190036779907,0.5499866380070347,-0.5514436973306921,-0.4133699890310483,1.3458901419945157,-2.843057769435476,1.3295561355678749
1782818729401366784,1.088566780090332,14.690241813659668,-3.0928800106048584,1.2638506889343262,-0.0666641891002655,-0.9331546425819397,0.3532393276691437,0.4090103507041931,0.08540695905685425,0.06686565279960632,0.42405522904314097,0.5727788704369612,-0.5903761718655561,-0.3788896916816613,1.2030908946588137,-2.955064041230029,1.412309216360344
1782818729411286528,1.0984866619110107,14.163690567016602,-2.669987201690674,1.860725998878479,-0.06826534122228622,-0.871366560459137,0.48585984110832214,0.5397771596908569,-0.2658250331878662,0.3238324224948883,0.37587688028116056,0.5918575827119935,-0.6266055506408856,-0.34027420330073654,1.057980796818162,-3.0020022433688145,1.4320892992541188
1782818729421205760,1.1084058284759521,12.77160358428955,-2.1659412384033203,2.2662665843963623,-0.07218634337186813,-0.7970029711723328,0.5996461510658264,0.6887787580490112,-0.5403841137886047,0.45041799545288086,0.33121175167693095,0.6051237926606405,-0.6585197561771212,-0.3007918611086365,0.9223167024325609,-3.021787598326249,1.4267516437897396
1782818729431125760,1.1183257102966309,11.195443153381348,-1.5416488647460938,2.5615830421447754,-0.07772893458604813,-0.7177357077598572,0.6919638514518738,0.6689155101776123,-0.4936596155166626,0.4431222677230835,0.2916135728435767,0.6131963869306608,-0.6855451270371506,-0.26263983073475405,0.8005450017900128,-3.029730660973007,1.4121268908342204
1782818729441045760,1.1282458305358887,9.510228157043457,-1.0396254062652588,2.708240032196045,-0.08430315554141998,-0.6400439143180847,0.7636995911598206,0.6851332187652588,-0.3129134178161621,0.421114981174469,0.25777961086643847,0.6171027299814161,-0.7078375590913132,-0.22737626455432616,0.6945554310006233,-3.0316499307105804,1.394217286770713
1782818729450964736,1.138164758682251,7.494666576385498,-0.4114917814731598,2.792405605316162,-0.08817916363477707,-0.5678811073303223,0.8183736205101013,0.7087236046791077,-0.30408239364624023,0.4257516860961914,0.2282467296925859,0.6181174515410554,-0.7260286711417937,-0.19676533623714743,0.6039293334500673,-3.0342574865382925,1.377112354791287
1782818729460884480,1.1480846405029297,5.234583854675293,0.08621937781572342,2.9773054122924805,-0.1001427099108696,-0.5117548704147339,0.8532750010490417,0.6942741870880127,-0.42907148599624634,0.4630395770072937,0.20977758179633973,0.6147333876670709,-0.7407701096907546,-0.17133542525420828,0.5372261837687266,-3.024764330911404,1.3531738077477435
1782818729470804736,1.1580047607421875,3.2711637020111084,0.4150412082672119,3.2292912006378174,-0.11658995598554611,-0.4719755947589874,0.8738685846328735,0.7347387671470642,-0.52378249168396,0.40208685398101807,0.19997404107356548,0.6078715278524868,-0.753277166587014,-0.15190857987826417,0.4915303118653984,-3.008957754115934,1.3246369210471856
1782818729480723712,1.1679236888885498,1.9840900897979736,0.6528986096382141,3.4083445072174072,-0.13563163578510284,-0.4450533986091614,0.8851735591888428,0.8175011277198792,-0.513778567314148,0.3518872857093811,0.19627554858189092,0.598397724848812,-0.7645305282656093,-0.13743840415743633,0.46123388547687755,-2.989549150878821,1.292441179390515
1782818729490643712,1.1778438091278076,1.2587031126022339,0.813025712966919,3.5790903568267822,-0.15654650330543518,-0.42625048756599426,0.8909564018249512,0.8737706542015076,-0.5205115079879761,0.269520103931427,0.19652068266411085,0.5871649872528049,-0.7750583652367421,-0.12610041279432907,0.44034379374962157,-2.96766191615826,1.2576439707202518
1782818729500562688,1.18776273727417,1.4299041032791138,0.8351224064826965,3.724966526031494,-0.17835715413093567,-0.4085262417793274,0.8951505422592163,0.9639559388160706,-0.5364505052566528,0.15903311967849731,0.19784719314457763,0.5748377382963163,-0.7855805826503178,-0.11524353628440026,0.4208388288220528,-2.9449200587589446,1.2212835195616407
1782818729510482432,1.1976826190948486,1.9455634355545044,0.9081505537033081,4.015100479125977,-0.20064379274845123,-0.3864200711250305,0.9002341628074646,0.99446702003479,-0.533669650554657,0.07498550415039062,0.19835795581751714,0.5618498524038126,-0.7965185570390712,-0.10265001628262935,0.39674698517899504,-2.9222973862929047,1.1844053879590075
1782818729520402688,1.2076027393341064,2.5808398723602295,0.921901524066925,3.915496826171875,-0.22303420305252075,-0.3577415645122528,0.906795084476471,0.910259485244751,-0.5440529584884644,0.05241847038269043,0.1974190012653912,0.548736101058738,-0.807642386237022,-0.08734044095924834,0.36584826490266487,-2.9004211011472067,1.1487482554172268
1782818729530321664,1.2175216674804688,2.7545807361602783,0.9943144917488098,4.029424667358398,-0.24434290826320648,-0.3245032727718353,0.9137800335884094,0.8315774202346802,-0.4783378839492798,0.031745970249176025,0.19534910536480524,0.5358709358242578,-0.8183717702676447,-0.0703466743971921,0.3304865434482813,-2.8803076492382695,1.115670665590996
1782818729540243456,1.2274434566497803,2.8394601345062256,1.068831443786621,4.0830278396606445,-0.2654695510864258,-0.28898999094963074,0.9197884798049927,0.8249483108520508,-0.37583544850349426,-0.033146023750305176,0.19324670297499622,0.522317450910484,-0.8289021178475191,-0.05255007974584868,0.29317164940315793,-2.8606084416264905,1.0828070628683457
1782818729550162432,1.2373623847961426,2.554232597351074,1.1139038801193237,4.029205799102783,-0.28548553586006165,-0.25326958298683167,0.9243119359016418,0.7603848576545715,-0.36532172560691833,-0.07238328456878662,0.19136610075244764,0.5084439363405729,-0.838832957173636,-0.034972232054613736,0.2560585517194613,-2.842024839151944,1.050982513914728
1782818729560082432,1.2472825050354004,2.2201740741729736,1.2292243242263794,4.197519779205322,-0.3050726056098938,-0.21984122693538666,0.9266068339347839,0.7629736661911011,-0.42334720492362976,-0.09607112407684326,0.19065798376156434,0.49377370869694853,-0.8482281259694494,-0.01860197249592503,0.22165171796018207,-2.8235339646406987,1.0186510689098967
1782818729570002432,1.257202386856079,2.025681972503662,1.3091180324554443,4.277371883392334,-0.32471010088920593,-0.18750900030136108,0.9270406365394592,0.8322936296463013,-0.4329744577407837,-0.16431450843811035,0.19097513375051292,0.47796204088337707,-0.8573637568968822,-0.002887497443065373,0.18862554937870105,-2.8046815859217107,0.9849621983515552
1782818729579921408,1.2671215534210205,1.977583646774292,1.3240330219268799,4.297239303588867,-0.3431795835494995,-0.1552412509918213,0.9263520836830139,0.839349627494812,-0.4167039394378662,-0.15794992446899414,0.19149295614938047,0.4615584464071993,-0.8661061437178028,0.012428691530918646,0.15587165982302212,-2.786805161280504,0.9512594214629105
1782818729589841408,1.2770414352416992,1.7840569019317627,1.2790850400924683,4.2584309577941895,-0.36011141538619995,-0.12368766963481903,0.9246737360954285,0.7951546907424927,-0.43762215971946716,-0.13873910903930664,0.19217439507526932,0.4449188931525188,-0.8742906046347784,0.027059862189975987,0.12400523842459707,-2.7702166626494993,0.9181472837512168
1782818729599760640,1.2869606018066406,1.6887601613998413,1.2424033880233765,4.330465316772461,-0.3749828338623047,-0.0927206426858902,0.9223833084106445,0.7305126190185547,-0.471671462059021,-0.07870948314666748,0.1927083798408165,0.4277499875715179,-0.8821686978819833,0.04088864806993045,0.0928540149812892,-2.7554637694548916,0.8847991936858383
1782818729609680384,1.2968804836273193,1.443938970565796,1.2574480772018433,4.278796195983887,-0.3886081576347351,-0.06303203850984573,0.9192444682121277,0.6078922748565674,-0.5124379396438599,-0.036172688007354736,0.19359713628460748,0.4101549989545956,-0.8896039074162675,0.05383161171903042,0.06307385512459641,-2.7416315826411974,0.8512272709457653
1782818729619600384,1.306800365447998,1.2114022970199585,1.2620728015899658,4.295809268951416,-0.40093231201171875,-0.0351540632545948,0.9154328107833862,0.5795822143554688,-0.5507833957672119,0.012804985046386719,0.19486478958051273,0.3922984587455016,-0.8965591625750707,0.0656600554658273,0.035161309189678115,-2.728787616265678,0.8175586641178514
1782818729629519360,1.3167195320129395,1.040187120437622,1.2403610944747925,4.369578838348389,-0.41211554408073425,-0.008660047315061092,0.9110902547836304,0.6455292701721191,-0.5114357471466064,0.0435299277305603,0.19647440231461077,0.3737420898868043,-0.9032507825207364,0.07650226436821707,0.008660155399316836,-2.716800879956561,0.7827808026461848
1782818729639439360,1.3266394138336182,1.1741938591003418,1.1852532625198364,4.505808353424072,-0.4215245544910431,0.01831386238336563,0.9066324830055237,0.6744540929794312,-0.4391512870788574,0.02328425645828247,0.19772633921344449,0.35449148514463275,-0.9097538356897329,0.08711063569382659,-0.01831488651571693,-2.706389004187309,0.747165485534709
1782818729649358592,1.3365585803985596,1.2884488105773926,1.1401212215423584,4.452175140380859,-0.4293631911277771,0.04689057171344757,0.9019137024879456,0.6234397888183594,-0.42597994208335876,-0.06792944669723511,0.19848690415492465,0.33503625499595324,-0.9158097795129996,0.09821427687038599,-0.04690777269938654,-2.697281477918464,0.7120223954054821
1782818729659278336,1.3464784622192383,1.3503379821777344,1.0548100471496582,4.559304237365723,-0.4347408711910248,0.07635805010795593,0.897312581539154,0.5446804761886597,-0.42117616534233093,-0.08656734228134155,0.19843941793543263,0.3155455501072433,-0.9214593235847385,0.109387031418842,-0.07643244632663829,-2.690428118914062,0.6773985067205405
1782818729669198592,1.356398582458496,1.3099253177642822,0.9281317591667175,4.534863471984863,-0.43786129355430603,0.10539977252483368,0.8928430080413818,0.5331523418426514,-0.39762082695961,-0.08012926578521729,0.1979327839539777,0.2956726553532325,-0.9268220914338615,0.12000490695250744,-0.10559590579048421,-2.6856444953505885,0.6421439115131279
1782818729679117568,1.3663175106048584,1.5389899015426636,0.7241566777229309,4.505256175994873,-0.4377998411655426,0.1348729431629181,0.8888986110687256,0.5393623113632202,-0.4302525818347931,-0.059064626693725586,0.196252717826145,0.2760781165174558,-0.9317887015763017,0.13052052974026543,-0.1352852382336091,-2.6839473783829955,0.6076499720396606
1782818729689037312,1.376237392425537,1.3178797960281372,0.5950903296470642,4.544478893280029,-0.43411025404930115,0.16335493326187134,0.8859250545501709,0.5091835856437683,-0.4848271310329437,-0.057372987270355225,0.19335117805154745,0.25660584478985443,-0.936544703035576,0.14018819409445085,-0.16409031831800985,-2.685970652840978,0.5729807652775705
1782818729698956544,1.3861565589904785,0.6255303621292114,0.5481910705566406,4.618595123291016,-0.42724403738975525,0.18512186408042908,0.8849814534187317,0.45145976543426514,-0.44134747982025146,-0.09898608922958374,0.1901876094078745,0.2364990819387417,-0.941572568207732,0.14607491238478748,-0.1861958751663612,-2.691822391473739,0.534877755398894
1782818729708876288,1.3960764408111572,-0.20868995785713196,0.5649676322937012,4.523125648498535,-0.4151197671890259,0.1918896585702896,0.8892995119094849,0.31641069054603577,-0.3520916998386383,-0.2733634114265442,0.18621757348880208,0.21638053264661383,-0.947538508155961,0.14378168690523624,-0.1930872214930883,-2.704860862954681,0.4919955732176486
1782818729718796544,1.405996561050415,-0.8558686971664429,0.4586789906024933,4.613819122314453,-0.4074493646621704,0.19958065450191498,0.8911525011062622,0.32659298181533813,-0.3203234076499939,-0.41355228424072266,0.18472100111013767,0.19466353112341578,-0.9527236479762173,0.1424849340123619,-0.20092993964962685,-2.712753941819493,0.44699466510292635
1782818729728715520,1.4159154891967773,-1.2233343124389648,0.1739540547132492,4.5972371101379395,-0.3999902606010437,0.20647865533828735,0.8929582834243774,0.3344079852104187,-0.38454872369766235,-0.34847891330718994,0.18359513699399266,0.1718454081485997,-0.9575741791661767,0.1407612223614589,-0.2079746936292332,-2.7204545245094836,0.39974346454993603
1782818729738635264,1.425835371017456,-1.4110864400863647,0.032919179648160934,4.478207588195801,-0.3908669650554657,0.21103328466415405,0.8959282636642456,0.28820592164993286,-0.30319643020629883,-0.3273249864578247,0.18176547517008737,0.14907578198904115,-0.9621541138495643,0.13782976558431775,-0.21263193763509056,-2.730214753067314,0.35195860539285123
1782818729748554496,1.4357545375823975,-1.908821940422058,-0.09568646550178528,4.432215690612793,-0.3807288706302643,0.21261590719223022,0.8999112248420715,0.29358595609664917,-0.23509210348129272,-0.32988858222961426,0.17950915906395282,0.12647644775663341,-0.9664157103538938,0.13349496813214962,-0.2142513010327903,-2.7413546302322604,0.30388174640105264
1782818729758474240,1.4456744194030762,-2.2066125869750977,-0.1911715567111969,4.519202709197998,-0.3696962594985962,0.20971237123012543,0.9051770567893982,0.2363191843032837,-0.17916427552700043,-0.2889660596847534,0.17696587020242358,0.10323830564251814,-0.9705309777094259,0.1268644114818456,-0.21128077843667384,-2.753845160495336,0.2535808512034551
1782818729768394496,1.455594539642334,-2.364748001098633,-0.4926784038543701,4.297275543212891,-0.3575572669506073,0.20409297943115234,0.9113172292709351,-0.0014972984790802002,0.036294013261795044,-0.322800874710083,0.1736972337773574,0.08021311409861073,-0.9742815096293496,0.1190408355360715,-0.20553709353587352,-2.767696574967969,0.20330178805724353
1782818729778313472,1.4655134677886963,-2.1427111625671387,-0.8184407949447632,4.059262275695801,-0.34303998947143555,0.19747084379196167,0.9183295369148254,-0.14211329817771912,0.1902702897787094,-0.3182011842727661,0.16880940201149497,0.058403365052830565,-0.9776266290943354,0.11107968734874844,-0.1987772909855808,-2.7840957502027766,0.15536735815483083
1782818729788233472,1.475433588027954,-1.8313183784484863,-1.1924618482589722,3.762449264526367,-0.32642287015914917,0.19131805002689362,0.9256598353385925,-0.213463693857193,0.24197055399417877,-0.27810704708099365,0.16238560896898457,0.03843636273661232,-0.9804858795120458,0.10392861622604932,-0.19250483349299727,-2.8025696212668603,0.11140966747013635
1782818729798152448,1.4853525161743164,-1.2740446329116821,-1.3980066776275635,3.6246235370635986,-0.30730485916137695,0.18802322447299957,0.9328511357307434,-0.08576157689094543,0.20965136587619781,-0.23694348335266113,0.15432726767020546,0.019935193614743964,-0.9828673171766996,0.09878052989827044,-0.18914908126066188,-2.8233633434706036,0.07100127257396002
1782818729808072448,1.4952723979949951,-0.9687370657920837,-1.5465679168701172,3.470545530319214,-0.28682199120521545,0.18785256147384644,0.9393851161003113,0.03955334424972534,0.10450582206249237,-0.19672471284866333,0.14538475794311595,0.0025772208512547363,-0.984726312740731,0.09576363493052033,-0.18897532923985122,-2.845253593763718,0.03352384434931296
1782818729817992448,1.505192518234253,-1.1976776123046875,-1.6400485038757324,3.3620309829711914,-0.2655971646308899,0.18671561777591705,0.9458304047584534,0.00804409384727478,0.08473822474479675,-0.1598961353302002,0.1359808536854803,-0.014177085639968081,-0.9862627470593642,0.09270348749627653,-0.18781790131519388,-2.867834428896477,-0.002802146253065324
1782818729827911424,1.5151114463806152,-1.8679734468460083,-1.6521995067596436,3.211500644683838,-0.2440238744020462,0.18039453029632568,0.9528434872627258,-0.16337059438228607,0.2144419401884079,-0.17632341384887695,0.12622780013762225,-0.030419629634501403,-0.987672210710578,0.08743534411385347,-0.18138754199721577,-2.890880456145805,-0.03865940766454231
1782818729837831424,1.525031566619873,-2.754000186920166,-1.6628488302230835,2.8966541290283203,-0.22296017408370972,0.16500644385814667,0.9607612490653992,-0.32330453395843506,0.4260427951812744,-0.1564244031906128,0.11635171595354604,-0.04615413321765707,-0.9890654220307175,0.07798584826894991,-0.16576453782584097,-2.913562790739404,-0.07423616562691913
1782818729847750400,1.5349504947662354,-3.3757882118225098,-1.6121965646743774,2.4015729427337646,-0.20324259996414185,0.14058057963848114,0.9689838886260986,-0.44232627749443054,0.6908251047134399,-0.17932617664337158,0.10653355573666567,-0.060285230224484954,-0.9903825681766778,0.06448810015411412,-0.1410477941309962,-2.9348416675275657,-0.10693418476421798
1782818729857670400,1.544870376586914,-3.783607006072998,-1.5555927753448486,1.7058488130569458,-0.18526612222194672,0.10962539911270142,0.976554274559021,-0.4286711812019348,0.8705992102622986,-0.2341533899307251,0.09691796822021455,-0.07176379780374695,-0.9915276620928251,0.048266426373424404,-0.10984616746139411,-2.954106650629866,-0.134164131310962
1782818729867590400,1.5547904968261719,-4.290562152862549,-1.1401093006134033,1.3405691385269165,-0.17077189683914185,0.07270534336566925,0.9826242923736572,-0.2803694009780884,0.8656033873558044,-0.19459962844848633,0.08843613852260342,-0.08068772386864984,-0.9923717262165349,0.029441548143483747,-0.07276954841986152,-2.969519666340012,-0.15597989505563456
1782818729877509376,1.5647094249725342,-5.1333160400390625,-0.7870447039604187,0.9747936725616455,-0.16074350476264954,0.028559042140841484,0.9865828156471252,-0.22275562584400177,0.6705986857414246,-0.14669346809387207,0.08159524060085908,-0.08833675199208436,-0.9927174902711898,0.0071235399955171365,-0.028562926199222485,-2.980082265274281,-0.1751902489184038
1782818729887429376,1.574629545211792,-5.66925573348999,-0.5790755152702332,0.5637714862823486,-0.15464581549167633,-0.02400951273739338,0.9876781702041626,-0.3106251358985901,0.6194227337837219,-0.03713196516036987,0.07607710771325599,-0.09421035894045467,-0.9924532760656751,-0.01931779384370683,0.024011819662683127,-2.9862785651993846,-0.1911548248769122
1782818729897348352,1.5845484733581543,-5.852237224578857,-0.44741371273994446,0.26748549938201904,-0.14992155134677887,-0.08050944656133652,0.9854145646095276,-0.3211935758590698,0.6595499515533447,0.017438888549804688,0.07088095608302111,-0.09833096725163454,-0.991482877951598,-0.04763018733368182,0.08059667311476446,-2.990609877710901,-0.20380403920753634
1782818729907268608,1.594468593597412,-5.114351749420166,-0.28178027272224426,-0.017192568629980087,-0.1466166377067566,-0.13436518609523773,0.9800253510475159,-0.3800862431526184,0.6599541902542114,0.1176462173461914,0.06644251891686523,-0.10100242911587756,-0.9898541208711424,-0.07465084377499155,0.13477280434634725,-2.9930890922685163,-0.21341219423737373
1782818729917188352,1.6043884754180908,-4.511170864105225,-0.49161648750305176,-0.27290159463882446,-0.1428297758102417,-0.18106573820114136,0.9730442762374878,-0.4690934419631958,0.6510364413261414,0.18149685859680176,0.06215543347261963,-0.10205012633405561,-0.9879817370196593,-0.09805427873626427,0.1820699885364736,-2.9958469603115114,-0.2191811562477448
1782818729927107328,1.6143074035644531,-4.04267692565918,-0.7221908569335938,-0.17180082201957703,-0.13595087826251984,-0.222550630569458,0.9653958082199097,-0.40288275480270386,0.7823650240898132,0.34071099758148193,0.05662027965545914,-0.10230800426157345,-0.9860177437624897,-0.11872810790702985,0.22442993154073632,-3.001688675222414,-0.22256866145317972
1782818729937027328,1.624227523803711,-3.844209909439087,-0.4438681900501251,0.04997798055410385,-0.13029633462429047,-0.2603539228439331,0.9566808938980103,-0.30409085750579834,0.9123162627220154,0.4267875552177429,0.05168145700636793,-0.10386220562639654,-0.9836427657066992,-0.13779871173846786,0.2633887376392981,-3.006229285901836,-0.2283563965856276
1782818729946946304,1.6341464519500732,-3.4006383419036865,-0.21412180364131927,-0.3012189269065857,-0.1264534294605255,-0.29497602581977844,0.9471004605293274,-0.4784812927246094,0.9073264598846436,0.360166072845459,0.047919651279847236,-0.10430149193222583,-0.981158201089951,-0.15541438894224807,0.29943042430837213,-3.008861274628679,-0.23186396570714685
1782818729956866560,1.644066572189331,-3.211254596710205,-0.2108861804008484,-0.6562238931655884,-0.12388120591640472,-0.32578757405281067,0.93729168176651,-0.5260668992996216,0.7966891527175903,0.06594306230545044,0.045333089687162466,-0.10262983668868457,-0.9788324402923995,-0.17116956280826037,0.3318446430764154,-3.010184971265621,-0.2309716718748855
1782818729966786304,1.6539864540100098,-2.343060255050659,-0.46495679020881653,-0.45933884382247925,-0.11874755471944809,-0.3537725806236267,0.9277628660202026,-0.3134576380252838,0.4801306426525116,-0.021848618984222412,0.04166513739726158,-0.10076299871885577,-0.9765901149098848,-0.18542537814194665,0.3616014515472443,-3.0142913704080105,-0.22892985032329033
1782818729976705280,1.663905382156372,-0.5872135162353516,-0.8230854868888855,0.04315442591905594,-0.11187700927257538,-0.36705443263053894,0.9234470725059509,-0.20790144801139832,0.19264647364616394,-0.2547307014465332,0.03752924363829918,-0.1006660309237616,-0.9754946918298215,-0.1920104038974767,0.37584042289776165,-3.0210287217837615,-0.22861544150955235
1782818729986625536,1.6738255023956299,0.787328839302063,-1.1179708242416382,-0.09115304797887802,-0.10276839882135391,-0.36601439118385315,0.9249175190925598,-0.3709559738636017,0.5005968809127808,-0.1738187074661255,0.03275130134156096,-0.10172789781596749,-0.975761336904272,-0.1909677130553108,0.37472258682348014,-3.030935663470401,-0.2287588201535169
1782818729996545280,1.6837453842163086,2.3343780040740967,-0.6591826677322388,-0.6670929789543152,-0.09499649703502655,-0.3513742685317993,0.9314034581184387,-0.6545457243919373,0.6702675819396973,0.13622379302978516,0.029746609015865986,-0.10077104130867948,-0.9775208040602125,-0.18279378914798278,0.35903856854719185,-3.03995126677002,-0.22391160080228395
1782818730006464512,1.69366455078125,2.9217231273651123,-0.4431629776954651,-0.8041129112243652,-0.08590198308229446,-0.3279380202293396,0.9407855868339539,-0.7861683368682861,0.6833609938621521,0.13575243949890137,0.027112729723524763,-0.09634468048461434,-0.9803624348940644,-0.16991794976062047,0.3341200568913588,-3.0505363687826033,-0.2112852965445554
1782818730016384256,1.7035844326019287,2.8821656703948975,-0.6674654483795166,-0.6844782829284668,-0.07779053598642349,-0.3015459477901459,0.9502730965614319,-0.4199206233024597,0.5443133115768433,-0.2476515769958496,0.02487159210694772,-0.092759722321151,-0.9831236836762935,-0.15570783804088842,0.306313677138519,-3.0599135388086007,-0.20076239615125396
1782818730026303488,1.7135035991668701,2.608246326446533,-0.760080099105835,-0.09555218368768692,-0.06959865242242813,-0.2747187316417694,0.9590025544166565,-0.24537327885627747,0.3736109137535095,-0.3107786178588867,0.022229365418242733,-0.09115306342314529,-0.9854909370878712,-0.14143777649693615,0.2782971800143285,-3.069145668380851,-0.19461613259703708
1782818730036223488,1.7234234809875488,2.027782917022705,-0.919502854347229,-0.5389679670333862,-0.060381487011909485,-0.251566082239151,0.9659547805786133,-0.4569067358970642,0.440164715051651,0.11525249481201172,0.018825326937073943,-0.08987358601845608,-0.9873703097102625,-0.12910550248877148,0.2542980348950583,-3.079164239878004,-0.1895294002552602
1782818730046143488,1.7333436012268066,2.2155141830444336,-0.6039184927940369,-0.025532124564051628,-0.0523807555437088,-0.23107437789440155,0.971525251865387,-0.6837337613105774,0.38962841033935547,0.20016682147979736,0.015922681735343645,-0.08831958254358764,-0.9889197529140275,-0.1182537573458687,0.23318180795978272,-3.087728807721381,-0.18445583708870444
1782818730056062464,1.743262529373169,2.6503489017486572,-0.16209572553634644,-0.4555290937423706,-0.0497121661901474,-0.2091304212808609,0.97662353515625,-0.4809885323047638,0.4425898790359497,0.13005077838897705,0.015606964192038402,-0.08787926021469024,-0.9902469390485623,-0.10698012376588929,0.21068563524528888,-3.0907344719627123,-0.1824044419050266
1782818730065982464,1.7531824111938477,1.2779319286346436,-1.0222761631011963,-1.2995306253433228,-0.04120972752571106,-0.18831375241279602,0.9812438488006592,-0.5390515327453613,-0.007715880870819092,-0.09582221508026123,0.012787028858865401,-0.08252495397974681,-0.9918727488466492,-0.09599227690061723,0.18944489370968698,-3.0996198807340556,-0.17000818639193452
1782818730075901440,1.763101577758789,1.6410887241363525,0.18479648232460022,-0.05605734512209892,-0.03733958303928375,-0.17651353776454926,0.9835899472236633,0.5261701345443726,0.46115097403526306,0.2475961446762085,0.011523464517629298,-0.08048457907188422,-0.9926314586614985,-0.08984626790681532,0.17744324279011478,-3.1036483226083895,-0.16518586033074048
1782818730085821440,1.7730214595794678,0.9077511429786682,-0.13225656747817993,-1.2423453330993652,-0.03825695812702179,-0.1629011332988739,0.9859005212783813,0.6066926121711731,-0.2059648185968399,-0.4146419167518616,0.012811333629801294,-0.07713542962610272,-0.9934789245222994,-0.08297988926396212,0.16363034735464121,-3.1028080355378176,-0.15815324145444304
1782818730095741440,1.7829415798187256,0.27262991666793823,-0.5285311937332153,-1.3480124473571777,-0.033307697623968124,-0.15833722054958344,0.9868231415748596,0.671979546546936,-0.17064227163791656,0.1100853681564331,0.011034055299969764,-0.07068140571333938,-0.994190980977175,-0.08041565077566246,0.15900640534578322,-3.107853011613402,-0.1446382806389714
1782818730105660416,1.792860507965088,1.5052034854888916,-0.4137154221534729,-1.1534773111343384,-0.0256809052079916,-0.15240979194641113,0.9879838228225708,0.8431247472763062,-0.20727039873600006,-0.01004791259765625,0.007919831285575038,-0.06433824155177097,-0.9949133133711281,-0.07710666083463873,0.15300609318600986,-3.115605260725067,-0.13114665544365173
1782818730115580416,1.8027803897857666,2.5571627616882324,0.1043536439538002,-0.8210144639015198,-0.02371598593890667,-0.1324843466281891,0.9909011125564575,1.0282173156738281,-0.16338354349136353,-0.4706834554672241,0.00796390281856339,-0.05861646027740302,-0.9959993266450866,-0.06697693901844964,0.1328749973326035,-3.1176634651573036,-0.1191604060358429
1782818730125499392,1.812699556350708,2.497372627258301,-0.9175827503204346,-0.9076985120773315,-0.020855853334069252,-0.10641726851463318,0.9941027164459229,0.840756356716156,-0.03379572927951813,-0.2170947790145874,0.007496778160024121,-0.05491793697852697,-0.9970132215358634,-0.05378097373439892,0.10661915523456857,-3.1206161535136703,-0.11117304121382678
1782818730135419392,1.8226194381713867,3.58414888381958,-0.691026508808136,-0.9637209177017212,-0.01228366419672966,-0.07629313319921494,0.9970099329948425,0.8462070226669312,-0.03585897386074066,0.1734919548034668,0.004182426618058132,-0.05119739345125816,-0.9979397712904658,-0.03843988954877659,0.07636733751849861,-3.129272773619783,-0.10298696189140048
1782818730145339392,1.8325395584106445,3.6733922958374023,-0.7053623199462891,-0.5643979907035828,-0.004723078105598688,-0.04023207724094391,0.9991791248321533,0.642082691192627,0.11347426474094391,0.35868513584136963,0.0014022249145431626,-0.04756066082981984,-0.9986628841783688,-0.02020975183985153,0.04024293795496283,-3.1368657303900447,-0.09527189062542563
1782818730155258368,1.8424584865570068,3.866870641708374,-0.532760500907898,-0.9426289796829224,0.003017860697582364,-0.0032561826519668102,0.999989926815033,0.3408694565296173,0.2094939798116684,0.6278174519538879,-0.0015784112395883505,-0.043553217402684655,-0.9990485926261858,-0.001560831380274318,0.0032561883174123903,3.1385747718127774,-0.08712929389040175
1782818730165178368,1.8523783683776855,2.7613155841827393,-0.2927638590335846,-1.4462677240371704,0.00613397266715765,0.030870558694005013,0.9995046854019165,-0.030776916071772575,-0.13606464862823486,0.7214884757995605,-0.0024781625657241874,-0.03801939825701385,-0.9991530801288012,0.015542661019864179,-0.030875464097145262,3.135455718238661,-0.07616130446402439
1782818730175097344,1.862297534942627,1.9092013835906982,-0.2508472800254822,-1.595018982887268,0.008505037054419518,0.053262170404195786,0.9985441565513611,-0.10252969712018967,-0.03083176165819168,0.8809264898300171,-0.0034376366553437445,-0.030560128744135336,-0.9991687307258982,0.026758382572809748,-0.053287384142287605,3.133075422081972,-0.06137902272431041
1782818730185017344,1.8722174167633057,1.8005369901657104,0.7314264178276062,-1.265221357345581,0.006199310068041086,0.0717812031507492,0.9974009394645691,0.17579226195812225,-0.3377724289894104,0.7192431092262268,-0.0022536185381984764,-0.023574096406046484,-0.9990719352115668,0.03597711863398192,-0.07184299100480909,3.1353772690635444,-0.04740659261524148
1782818730194937344,1.8821375370025635,1.3781768083572388,0.5052529573440552,-1.0591477155685425,-0.00120858708396554,0.08660723268985748,0.996241569519043,0.5158722996711731,-0.5086043477058411,0.5211074352264404,0.0014237040142441755,-0.018876272815335337,-0.998881616881872,0.043325195489617135,-0.08671586895562464,-3.1403795075746537,-0.03773768031209958
1782818730204856320,1.8920564651489258,0.8135498762130737,0.4978991448879242,-1.2494630813598633,-0.006251446437090635,0.09719862043857574,0.9952455163002014,0.43586266040802,-0.36303722858428955,0.42861318588256836,0.0037437713335393046,-0.012615710159080504,-0.9987309925876301,0.0486137700854717,-0.09735232120543744,-3.1353114252721466,-0.02495614917524183
1782818730214776576,1.9019765853881836,0.09989644587039948,0.1918676644563675,-1.0900603532791138,-0.012384913861751556,0.10336216539144516,0.9945665001869202,0.6529488563537598,-0.10742102563381195,0.2899181842803955,0.006598032242466502,-0.007667207045926773,-0.998611262856808,0.051702295152137694,-0.10354710502129859,-3.1291407216639113,-0.01471017028866397
1782818730224695552,1.911895513534546,-0.49422284960746765,0.17825332283973694,-0.6432197690010071,-0.012309350073337555,0.09936314821243286,0.9949752688407898,0.5274613499641418,-0.17924289405345917,0.47513294219970703,0.006318766080583372,-0.0031396450348162457,-0.9987380899297632,0.049724484378388875,-0.09952738383987045,-3.129221770782531,-0.005671066408219748
1782818730234615296,1.9218153953552246,-1.6795382499694824,0.575542151927948,-0.14969342947006226,-0.016604112461209297,0.08946316689252853,0.995851993560791,0.41693368554115295,-0.29260340332984924,0.4228036403656006,0.008374331008520508,-0.0014202251788780233,-0.9989614474406329,0.04476618034244929,-0.08958293412398184,-3.1249209257883623,-0.002096133523586
1782818730244535552,1.9317355155944824,-1.6834334135055542,-0.007448332384228706,-1.0469003915786743,-0.01915484480559826,0.07036193460226059,0.9973374009132385,0.2276204228401184,-0.2603643834590912,-0.009010612964630127,0.00954953016378784,0.000972776022392734,-0.9993336587196213,0.03521372191231328,-0.07042012373390596,-3.12238903305611,0.0026233094444181805
1782818730254454272,1.9416544437408447,0.4259590208530426,-0.6250072717666626,-0.8113019466400146,-0.017653057351708412,0.06384902447462082,0.9978035688400269,0.48577743768692017,-0.6086335778236389,-0.8081672191619873,0.00865065539657475,0.005650358913071038,-0.9994347671828764,0.03199147392358778,-0.06389248594515959,-3.123902581758516,0.011872327715807762
1782818730264374528,1.9515745639801025,1.503840684890747,-0.9855729341506958,-0.7374540567398071,-0.010149654000997543,0.07333240658044815,0.9972562789916992,0.6584040522575378,0.16301101446151733,-1.0788904428482056,0.004733882172782764,0.009374678100859134,-0.999269865469448,0.03673740684060371,-0.07339829541542486,-3.131415426395338,0.01913617562204277
1782818730274293504,1.9614934921264648,2.003305673599243,-1.0220911502838135,-0.6072784066200256,0.0003549628600012511,0.0911688581109047,0.9958351850509644,0.32679346203804016,1.170107364654541,-0.590882420539856,-0.0007519076539899215,0.01257138391435576,-0.9988791493830431,0.045626118203246295,-0.0912956316887812,3.1412362062102943,0.025153367071649568
1782818730284213248,1.9714133739471436,1.7330349683761597,-0.9565313458442688,-0.424010306596756,0.009546813555061817,0.11015276610851288,0.9938687682151794,0.29491180181503296,0.6463169455528259,-0.3643980026245117,-0.005644067270967504,0.01563764138130292,-0.9983435557724009,0.0550793597810562,-0.11037675159931266,3.1319872404972666,0.030793962232963056
1782818730294133504,1.9813334941864014,1.4040181636810303,-1.0517421960830688,-0.814311146736145,0.018754731863737106,0.12472335994243622,0.9920144081115723,0.3441450595855713,-0.3922862112522125,-0.24733960628509521,-0.010570222830723649,0.01877833740969574,-0.9978249241881253,0.06229869178755164,-0.12504900636999752,3.12268920048952,0.036450594592773895
1782818730304052480,1.9912524223327637,1.2413395643234253,-0.8233838081359863,-1.0092809200286865,0.028590306639671326,0.13897618651390076,0.9898828268051147,0.17218483984470367,-0.48004066944122314,-0.2588496208190918,-0.016001135043409172,0.023966081014840594,-0.9971795493311175,0.06930006413451628,-0.1394274891878758,3.112718164822824,0.046042125587983554
1782818730313972480,2.0011725425720215,1.9834240674972534,-0.6086867451667786,-0.5408928990364075,0.034227337688207626,0.15493254363536835,0.9873321652412415,0.042173419147729874,-0.005960971117019653,-0.13004744052886963,-0.01928902963464747,0.027287527379717423,-0.9964544478144571,0.07721368886093538,-0.155559175778706,3.1069400433193954,0.05205457965674883
1782818730323892480,2.0110924243927,2.3957679271698,-0.5896579623222351,-0.6393616795539856,0.0390772819519043,0.1764572709798813,0.9835322499275208,0.1194157600402832,0.4105178117752075,-0.18508565425872803,-0.02228289875854799,0.03003835253050959,-0.9954214283705863,0.08796203303477929,-0.17738607211204677,3.101881970072545,0.056802938322880914
1782818730333811456,2.0210115909576416,2.7346982955932617,-0.662618100643158,-0.4866878092288971,0.043692588806152344,0.20250478386878967,0.978305995464325,0.26816654205322266,0.15423044562339783,-0.05067849159240723,-0.02530105037942446,0.03269915942322431,-0.9940240302231833,0.10102881075512891,-0.2039150186953085,3.0969608376233446,0.06120063572416339
1782818730343731456,2.0309314727783203,2.095475196838379,-0.5955442786216736,-0.47836729884147644,0.04841795563697815,0.22548319399356842,0.9730431437492371,0.30489930510520935,-0.1588175892829895,0.16256165504455566,-0.028347472307644627,0.03490254057513603,-0.9926244964687831,0.11258255487063923,-0.2274389818124705,3.091874350114251,0.06461519912303389
1782818730353650432,2.0408504009246826,1.957255482673645,-0.4630191922187805,-0.3861669898033142,0.05322207137942314,0.24511900544166565,0.9680311679840088,0.10907041281461716,-0.12051570415496826,0.25172603130340576,-0.031407490869012136,0.03693114582096776,-0.9912878885303618,0.12246653267858913,-0.24764244596619547,3.086668241763741,0.0676395328677059
1782818730363570432,2.0507705211639404,1.6092884540557861,-0.57034832239151,-0.3109588027000427,0.05711318552494049,0.261947363615036,0.9633908271789551,0.2173313945531845,-0.17338532209396362,0.23530924320220947,-0.03397292249849895,0.038776578432677324,-0.9900463645119529,0.13095986137727264,-0.2650394871470419,3.0823784541622596,0.07039726419666627
1782818730373490432,2.060690402984619,1.3209941387176514,-0.4716159701347351,-0.34832531213760376,0.061313197016716,0.27614519000053406,0.9591585397720337,0.2297482192516327,-0.20087352395057678,0.1321350336074829,-0.036686690858848424,0.04071216114223778,-0.9888992769680387,0.1381121467456163,-0.27978102315732034,3.0777555662334644,0.07329996825007201
1782818730383409408,2.0706095695495605,0.5176978707313538,-0.7361714243888855,-0.3445127308368683,0.06643515825271606,0.2852892279624939,0.9561362266540527,0.27313393354415894,-0.2435411810874939,0.11281824111938477,-0.03977059049113242,0.04260622737339548,-0.9880550710626247,0.14265413246712744,-0.28930818331536684,3.07222120686133,0.07607980747976713
1782818730393329408,2.0805294513702393,0.5454485416412354,-0.39083829522132874,0.02218776009976864,0.07139197736978531,0.2892214357852936,0.9545959830284119,0.2863655686378479,-0.40032076835632324,0.05214804410934448,-0.04252040511938012,0.04357161301602192,-0.987623167197488,0.14454707494665378,-0.2934134236802602,3.0669439886100327,0.07714238335879313
1782818730403248384,2.0904483795166016,0.27961501479148865,-0.7306171655654907,-0.19019001722335815,0.07734773308038712,0.294021338224411,0.9526638984680176,0.3650045692920685,-0.3830258548259735,-0.21592390537261963,-0.045704113297155756,0.04385107594787985,-0.9871215928815728,0.1468983071699269,-0.29843142942306594,3.060579353435634,0.07660247531397091
1782818730413168384,2.1003684997558594,-0.2706875503063202,-0.7489980459213257,0.029554596170783043,0.08422157913446426,0.2938823699951172,0.9521238803863525,0.23436668515205383,-0.1694316864013672,-0.07037949562072754,-0.04937325425058153,0.04512735315720053,-0.9869272757940866,0.14662995134349627,-0.2982860405808803,3.053365749834626,0.07812127610098701
1782818730423088384,2.110288381576538,-0.005252679344266653,-0.7819448113441467,-0.06772562116384506,0.09168218821287155,0.2925713062286377,0.9518386721611023,0.40628841519355774,-0.08892744779586792,-0.08234691619873047,-0.053208774195874796,0.04573405945047231,-0.9868271077923028,0.14577244021008243,-0.2969146921487306,3.0455677448013847,0.07825077627321042
1782818730433007360,2.1202075481414795,-0.20832456648349762,-0.7321018576622009,-0.05278528481721878,0.09925001114606857,0.29196569323539734,0.951265275478363,0.28252488374710083,-0.14184972643852234,-0.08879268169403076,-0.05714054658887858,0.04648374434362065,-0.9866467906487495,0.14526652030038079,-0.2962814500265198,3.0376340498532204,0.0786282501661227
1782818730442927360,2.130127429962158,-0.35481345653533936,-0.6575064659118652,0.03705545514822006,0.10666809976100922,0.2887924015522003,0.95143061876297,0.2327941507101059,-0.12154090404510498,-0.019729316234588623,-0.06085811267621571,0.04679395296807117,-0.9866740331972018,0.14346015854612815,-0.29296526394385747,3.0299454977649662,0.07829175507928739
1782818730452846592,2.1400465965270996,-0.36658191680908203,-0.8424757719039917,0.032630112022161484,0.11403626948595047,0.28526994585990906,0.9516391754150391,0.2916033864021301,-0.16286391019821167,-0.1458224058151245,-0.06456007883333255,0.04724571204503957,-0.9867053412123035,0.14146552196719914,-0.28928806572186244,3.022329921018934,0.0782993567849192
1782818730462766336,2.1499664783477783,-0.6051814556121826,-0.7763931751251221,-0.03947737067937851,0.12099967896938324,0.28064191341400146,0.9521549344062805,0.29678595066070557,-0.33758774399757385,-0.21741384267807007,-0.06811084490573088,0.0483263923161148,-0.9867836765059135,0.13886468367537533,-0.28446282969360365,3.0151903584838102,0.07974484811212781
1782818730472686592,2.159886598587036,-0.7696208953857422,-0.752944827079773,-0.04910346493124962,0.127990260720253,0.27447474002838135,0.9530383348464966,0.2736515700817108,-0.25424161553382874,-0.24872320890426636,-0.07155679695075698,0.04892844120126224,-0.9869777924419278,0.1355007209109002,-0.2780434105580871,3.008094329821355,0.08035999756603429
1782818730482605568,2.1698055267333984,-1.010693907737732,-0.7534979581832886,-0.10516992956399918,0.13501957058906555,0.2660394310951233,0.9544592499732971,0.18945856392383575,-0.22619876265525818,-0.22876667976379395,-0.07501822742843141,0.05005955749656293,-0.9872809531065535,0.13092963141967692,-0.26928204216227086,3.0010632523695264,0.08225515907062239
1782818730492525312,2.179725408554077,-0.9954530000686646,-0.49319761991500854,-0.09843213111162186,0.14015671610832214,0.2564045786857605,0.9563538432121277,0.17489148676395416,-0.2796742618083954,-0.17810988426208496,-0.07749759692491781,0.051407617143890964,-0.9876913370450047,0.12576633349866134,-0.259300572937189,2.9960753525998958,0.08499690986272485
1782818730502444544,2.1896445751190186,-1.292184829711914,-0.6254288554191589,-0.04248231276869774,0.14550721645355225,0.24556027352809906,0.9583985805511475,0.21696531772613525,-0.04522763192653656,-0.10791945457458496,-0.07999891144952136,0.05247766311153777,-0.9881525170194521,0.12000372355258535,-0.24809762179395958,2.990920023878678,0.08729171487128244
1782818730512364288,2.1995644569396973,-0.9530259966850281,-0.460513174533844,-0.15629546344280243,0.1505916565656662,0.23502163589000702,0.9602535963058472,0.2110111266374588,0.19207186996936798,-0.05206573009490967,-0.08237800504614015,0.05366838761492358,-0.9885577931778593,0.11439869971476198,-0.23724083335959562,2.986034789042604,0.08989635866601603
1782818730522284544,2.209484577178955,-0.7661218643188477,-0.5833413004875183,-0.01669176109135151,0.15531812608242035,0.22698751091957092,0.9614329934120178,0.21728625893592834,0.20547711849212646,-0.1045907735824585,-0.08465005084503205,0.05488640872938692,-0.9887891460951005,0.11008172916146233,-0.22898333417360292,2.9814278438402937,0.09244658198714623
1782818730532203520,2.2194035053253174,-0.45723339915275574,-0.4262286126613617,-0.053989000618457794,0.1600334197282791,0.22124041616916656,0.9619991183280945,0.3013466000556946,0.17374862730503082,-0.08423709869384766,-0.08694472733509628,0.0557351327943446,-0.988884805105463,0.10696324740891726,-0.22308621871570183,2.9767471807652117,0.094098667733839
1782818730542123264,2.229323387145996,-0.5581466555595398,-0.4937991499900818,-0.04223034530878067,0.16416718065738678,0.21675516664981842,0.9623235464096069,0.24876618385314941,-0.005039438605308533,-0.08266949653625488,-0.0889634402685596,0.05640173125733206,-0.9889290305456185,0.10451699940865318,-0.21848938969173093,2.9726246804718777,0.09536653472338777
1782818730552043264,2.239243268966675,-0.6819858551025391,-0.443654328584671,0.01329626515507698,0.16852585971355438,0.21112976968288422,0.962820827960968,0.2794264554977417,-0.02935175597667694,0.01870107650756836,-0.0910298489036325,0.05682809490575014,-0.9890303308588759,0.1015053083295784,-0.2127306333120087,2.9683145307788252,0.0962440900368385
1782818730561962240,2.249162197113037,-0.8893433213233948,-0.264972984790802,-0.04972691088914871,0.17184461653232574,0.20364050567150116,0.9638463854789734,0.18318161368370056,-0.12545450031757355,0.09375548362731934,-0.09252104239656563,0.0574502865192154,-0.9892535887453803,0.09755323739437373,-0.20507491037772133,2.9651560905365364,0.09781667157359901
1782818730571882240,2.259082317352295,-1.172445297241211,-0.223684161901474,-0.22488409280776978,0.17394067347049713,0.19398874044418335,0.9654601812362671,0.19918249547481537,-0.21774663031101227,0.14525771141052246,-0.09337859038780087,0.0587825165729282,-0.9895831021047928,0.09246857573722962,-0.19522649983407722,2.9633413607595656,0.10116207950827429
1782818730581801216,2.2690012454986572,-1.289810299873352,-0.2139444500207901,-0.22133995592594147,0.17595915496349335,0.18251125514507294,0.9673307538032532,0.29202795028686523,-0.13913047313690186,0.1863102912902832,-0.0941577541812092,0.06053716264674317,-0.9899498169993356,0.08642416427038133,-0.1835400068189628,2.9616582663973867,0.10554787687629005
1782818730591721216,2.278921365737915,-1.5506750345230103,-0.12288213521242142,-0.18857640027999878,0.17744624614715576,0.16935113072395325,0.9694501161575317,0.265394389629364,-0.07264086604118347,0.29609882831573486,-0.09458640706159412,0.06226342163098939,-0.9903778732625885,0.0795517468182041,-0.17017124834246888,2.9605585955086573,0.11008877463896398
1782818730601641216,2.2888412475585938,-1.4707242250442505,0.13565142452716827,-0.2659638822078705,0.17715947329998016,0.15484435856342316,0.9719247817993164,0.19417841732501984,-0.018110349774360657,0.3839864730834961,-0.09405950257262016,0.06415599834275511,-0.990881626048495,0.07204463027987573,-0.15546991471099955,2.961295110846529,0.11523061064674454
1782818730611560448,2.298760414123535,-1.5312457084655762,0.14059968292713165,-0.22224627435207367,0.17566485702991486,0.14067776501178741,0.9743468761444092,0.29566389322280884,0.01296299695968628,0.33638322353363037,-0.09291009247448945,0.06602232500366427,-0.9913700022140477,0.06476365196475001,-0.14114595346815698,2.963218961414187,0.1203550557881623
1782818730621480192,2.308680295944214,-1.662073016166687,0.344906210899353,-0.06311601400375366,0.17351582646369934,0.12545974552631378,0.9768072366714478,0.36907148361206055,-0.003786131739616394,0.3544611930847168,-0.09133499050781375,0.06727462146693872,-0.991906121714049,0.05704708110013444,-0.12579123093429687,2.9657907666057266,0.12433948130113154
1782818730631399168,2.318599224090576,-1.832956314086914,0.33617961406707764,-0.10057167708873749,0.1704564094543457,0.10841535776853561,0.9793826341629028,0.3026880919933319,-0.1042192205786705,0.35599011182785034,-0.08922141532676368,0.06853929425340977,-0.9924684846059363,0.04845746398591434,-0.10862887234311999,2.9692740064453105,0.12850808851897366
1782818730641319168,2.328519344329834,-2.105695962905884,0.25391560792922974,0.0557502806186676,0.16771669685840607,0.08928592503070831,0.9817834496498108,0.25774407386779785,-0.2049170583486557,0.3432132601737976,-0.08716159718866157,0.06932340730352982,-0.9930186225703568,0.038872002103147694,-0.08940498025022306,2.9723972721863894,0.13180882762188323
1782818730651239168,2.3384392261505127,-1.974857211112976,0.5435876250267029,0.15747378766536713,0.16428813338279724,0.06866409629583359,0.9840196967124939,0.17909565567970276,-0.12997391819953918,0.4385267496109009,-0.08468015291523552,0.06955805138003031,-0.9935650521724659,0.028626068742763744,-0.0687181663860362,2.9761623317112162,0.1340897671853136
1782818730661158400,2.348358392715454,-1.8108280897140503,0.6971462965011597,0.217220738530159,0.1585308313369751,0.049621108919382095,0.9861062169075012,0.07045780122280121,-0.2210536003112793,0.46668297052383423,-0.08108087142796455,0.06929274832586313,-0.9941084524650771,0.019305980130207817,-0.04964149479222996,2.982192102530719,0.135216043806088
1782818730671078144,2.358278274536133,-1.6019645929336548,0.9022437334060669,0.09960871934890747,0.1513272374868393,0.0323922224342823,0.9879528284072876,0.1068667322397232,-0.1657387763261795,0.5724567174911499,-0.07683706491753527,0.06919992072681934,-0.9945792023343752,0.0109382859749433,-0.032397888380369375,2.9896014396757993,0.13646320832909964
1782818730680997120,2.368197202682495,-1.3141908645629883,1.1080650091171265,0.13191738724708557,0.14217303693294525,0.017675921320915222,0.9896840453147888,0.15975263714790344,-0.03185133635997772,0.6036845445632935,-0.07171287335463561,0.06901957270841644,-0.9950267922186561,0.003907803534018294,-0.01767684275180338,2.998913815746381,0.13724398999562973
1782818730690917376,2.378117322921753,-1.2228918075561523,1.1409190893173218,0.1922159045934677,0.13227501511573792,0.004448707215487957,0.9912030696868896,0.16228064894676208,0.04097671061754227,0.5430071353912354,-0.0662797182968996,0.06866471115801548,-0.995432921661766,-0.00233739929794957,-0.00444872167467255,3.008927516332615,0.1374457754888821
1782818730700837120,2.3880372047424316,-1.5029947757720947,1.3508331775665283,0.21048013865947723,0.1236891821026802,-0.011806375347077847,0.992250919342041,0.24366620182991028,-0.24051296710968018,0.33511126041412354,-0.06141935843496143,0.06784517696475324,-0.9957522295975058,-0.010113153318884707,0.011806649746889738,3.01757722441051,0.13679197412478458
1782818730710756352,2.397956371307373,-1.4444434642791748,1.3033561706542969,0.11472984403371811,0.11259010434150696,-0.027910619974136353,0.993249773979187,0.30031275749206543,-0.25864943861961365,0.2293761968612671,-0.05531467840936607,0.06757826308966698,-0.9960211130427402,-0.017764061449480357,0.02791424574621806,3.02871918149303,0.13706598628610592
1782818730720676096,2.4078762531280518,-0.8499245047569275,1.4629197120666504,0.07405830919742584,0.09976188093423843,-0.04000428318977356,0.9942069053649902,0.30731210112571716,0.11411622166633606,0.43380212783813477,-0.048483058316416375,0.06758322826058467,-0.9962609849201651,-0.023366148845738986,0.04001495951561283,3.0415842325492757,0.13746905518708322
1782818730730596352,2.4177963733673096,-0.14147216081619263,1.752167820930481,0.10336203873157501,0.08473896235227585,-0.045366205275058746,0.9953699111938477,0.16971659660339355,0.41903868317604065,0.5729131698608398,-0.040788141692655135,0.06745462267809661,-0.9965614976567859,-0.02552220972234921,0.04538178141207714,3.056664294546012,0.13709714453256105
1782818730740515328,2.427715301513672,-0.05377081409096718,1.834120750427246,0.1228257492184639,0.06703249365091324,-0.04612969979643822,0.9966837763786316,0.19151242077350616,0.18074274063110352,0.6435749530792236,-0.031921662739109104,0.06696029528064171,-0.9969243695601121,-0.02528008580170931,0.04614607523673438,3.0744382585127896,0.13568259314891618
1782818730750435328,2.4376354217529297,-0.12869885563850403,1.7463990449905396,0.17335137724876404,0.049428995698690414,-0.047212325036525726,0.9976611137390137,0.3130893111228943,-0.13468769192695618,0.754398763179779,-0.023100363319964783,0.0665848962093341,-0.997194574406555,-0.025215035860464422,0.04722988034067614,3.092088259375422,0.13451599842084438
1782818730760354304,2.447554349899292,-0.02869395725429058,1.67648446559906,0.15066950023174286,0.032895009964704514,-0.04866660386323929,0.9982736706733704,0.3732481896877289,-0.2199796587228775,0.6675440073013306,-0.01481057677873697,0.06602902954687603,-0.997385076748464,-0.025377589806934334,0.04868583383494771,3.108652674179122,0.13301347528925983
1782818730770274048,2.4574742317199707,0.23234795033931732,1.7410467863082886,0.3010452389717102,0.016078518703579903,-0.047839678823947906,0.998725414276123,0.25996822118759155,-0.147701695561409,0.5417101383209229,-0.006466770062933054,0.0650921475150445,-0.99755988125224,-0.02440031459514963,0.04785794470245997,3.1254950060177475,0.13070326212378378
1782818730780194304,2.4673943519592285,0.6822975873947144,1.8260890245437622,0.3229460120201111,-0.0017562382854521275,-0.043424930423498154,0.9990549683570862,0.2094893902540207,-0.11502233147621155,0.4653308391571045,0.0022607281328378714,0.06372069047167778,-0.9977310031473964,-0.021617459229339414,0.04343858838260546,-3.1398347558798623,0.1275197642108525
1782818730790113280,2.477313280105591,0.8256929516792297,2.007631540298462,0.5465850830078125,-0.020567886531352997,-0.03570500388741493,0.9991507530212402,0.1810140609741211,-0.16064509749412537,0.34856653213500977,0.011370072125423127,0.06179191778790951,-0.9978763149041104,-0.017186421509789693,0.03571259380878707,-3.1210101912497783,0.12332133855135652
1782818730800033280,2.4872334003448486,0.6757345795631409,2.2270255088806152,0.6249975562095642,-0.041771214455366135,-0.027983438223600388,0.9987354874610901,0.22873716056346893,-0.305161714553833,0.30007755756378174,0.02168409720976632,0.05917769808481814,-0.9979307246062545,-0.012734856359941881,0.02798709225198437,-3.0997929121670147,0.1178770477804128
1782818730809952256,2.497152328491211,0.5033503174781799,2.32659912109375,0.6303247213363647,-0.06419266760349274,-0.022048352286219597,0.9976937770843506,0.27778521180152893,-0.32264769077301025,0.2899037003517151,0.03268413574877191,0.0561807110239387,-0.9978429763450429,-0.009207819657229038,0.022050139100538678,-3.0773401663714255,0.11177688511917108
1782818730819872256,2.5070722103118896,0.46941930055618286,2.181201219558716,0.5508866310119629,-0.08664537221193314,-0.016839461401104927,0.9960970282554626,0.31462693214416504,-0.3589387536048889,0.2790038585662842,0.04375426270487084,0.05352178096772475,-0.9975890585219079,-0.006092613314125144,0.016840256845124565,-3.0548261769477985,0.10646843056205563
1782818730829792256,2.5169923305511475,0.31650203466415405,2.109074831008911,0.5583566427230835,-0.10790275782346725,-0.012435558252036572,0.9940834641456604,0.35105159878730774,-0.30323827266693115,0.2795369029045105,0.05427836498428236,0.05085115758150694,-0.9972240933888856,-0.0034672863986433752,0.012435878987531726,-3.0334709921553276,0.10122418988532969
1782818730839711232,2.5269112586975098,0.13074630498886108,2.2492783069610596,0.6087673306465149,-0.1288766711950302,-0.009380307979881763,0.9916160702705383,0.2946634292602539,-0.1387520134449005,0.28899282217025757,0.0647253824889385,0.04814499799018568,-0.996739739510017,-0.0015790988433441952,0.009380445527179546,-3.0123507945525767,0.09592289708907271
1782818730849631232,2.5368313789367676,0.18772822618484497,2.104419708251953,0.6585721969604492,-0.15060675144195557,-0.007196384947746992,0.9885673522949219,0.24933114647865295,-0.09895900636911392,0.2658421993255615,0.07560541653648672,0.04487382643701072,-0.9961275109770517,-0.0002062870115373227,0.007196447129205724,-2.990406676527791,0.08949062836213689
1782818730859551232,2.5467512607574463,0.30024731159210205,1.7381749153137207,0.48091086745262146,-0.1692570000886917,-0.004041831474751234,0.9855635762214661,0.3123386800289154,-0.03375418856739998,0.25727999210357666,0.08494518766146371,0.04226361202583389,-0.9954876058116472,0.0015762876101591662,0.0040418423562659875,-2.971515490237171,0.08451486519443786
1782818730869470464,2.5566704273223877,0.3772891163825989,1.6921058893203735,0.5211265683174133,-0.18598686158657074,0.00017255989951081574,0.9825521111488342,0.25547540187835693,0.053950365632772446,0.2728646397590637,0.09332316783954578,0.03991720693797123,-0.99482796578227,0.0038312957440754893,-0.00017255989811781726,-2.9545164797174492,0.0802226261079692
1782818730879390208,2.5665903091430664,0.5468363165855408,1.7625603675842285,0.5460154414176941,-0.2023240178823471,0.0053879087790846825,0.9793038368225098,0.10301980376243591,0.15060269832611084,0.22057104110717773,0.10151513082650218,0.037505619893692034,-0.9941052445835251,0.006539893277242079,-0.005387934659813612,-2.93785922138413,0.07597102269453136
1782818730889309184,2.5765092372894287,0.9460695385932922,1.6740554571151733,0.45547226071357727,-0.21897143125534058,0.013685480691492558,0.9756350517272949,0.09520745277404785,0.17196820676326752,0.16132760047912598,0.10984414592155205,0.03535507197688892,-0.9932610650533812,0.010799062194197392,-0.013685907896298255,-2.920811389160879,0.0726768226532141
1782818730899229184,2.5864293575286865,1.1105029582977295,1.6776938438415527,0.5184661149978638,-0.2349657118320465,0.024580582976341248,0.9716929197311401,0.09986436367034912,0.12173594534397125,0.07901215553283691,0.11783893732729409,0.03345433466959563,-0.9923342558648921,0.016357910227699127,-0.024583058812352628,-2.9043363274246827,0.07033015976032181
1782818730909149184,2.5963492393493652,1.0112072229385376,1.458998441696167,0.3055321276187897,-0.2499067485332489,0.03598276525735855,0.9676011204719543,0.10922069847583771,-0.04187265411019325,-0.02122044563293457,0.12533023074117153,0.031861937996877025,-0.9913553271022382,0.022176353670568354,-0.03599053397644576,-2.888841469046655,0.06883061414868713
1782818730919068416,2.6062684059143066,0.573041558265686,1.5898696184158325,0.5492728352546692,-0.264545738697052,0.04456619918346405,0.9633427858352661,0.1547587811946869,-0.24126726388931274,0.014745533466339111,0.13275709176522613,0.030101033950533717,-0.9903359612700872,0.026535667825494772,-0.04458096645464905,-2.8735869483700944,0.06678179977386887
1782818730928988160,2.6161882877349854,0.5177633166313171,1.4313287734985352,0.38395658135414124,-0.2788136303424835,0.05077971890568733,0.9590019583702087,0.09299203753471375,-0.23798979818820953,0.017530202865600586,0.1400807267515221,0.02783657085740278,-0.9893058766163513,0.029605835894305144,-0.05080156933693997,-2.858659132834181,0.06349670313258911
1782818730938907136,2.6261072158813477,0.5200703740119934,1.2926572561264038,0.4273594319820404,-0.29159292578697205,0.05660862848162651,0.9548660516738892,0.0009435117244720459,-0.1342606097459793,-0.09225618839263916,0.14666361676382306,0.02607330666649121,-0.9883082622248766,0.03250839913714157,-0.05663890575821965,-2.8452113169556053,0.0612088308413278
1782818730948827392,2.6360273361206055,0.2229582518339157,1.1497955322265625,0.4177701771259308,-0.3025813102722168,0.06166997179389,0.9511262774467468,0.004424601793289185,-0.1854492723941803,-0.16265898942947388,0.15235538353571218,0.02441199210081473,-0.9874042720741121,0.034995072370686366,-0.061709128522628304,-2.8335873980229795,0.059018914373835434
1782818730958747136,2.645947217941284,0.10383505374193192,1.1360161304473877,0.30688199400901794,-0.31317633390426636,0.06398055702447891,0.9475371837615967,-0.08095815777778625,-0.11033675819635391,-0.1815308928489685,0.15790342089115247,0.022483316146366582,-0.9865409762672023,0.036025335863255056,-0.06402428642097167,-2.822379720112941,0.055881987507486505
1782818730968666368,2.6558663845062256,-0.036032430827617645,1.0792547464370728,0.34298643469810486,-0.32285183668136597,0.0648772194981575,0.9442233443260193,-0.08399328589439392,-0.028103530406951904,-0.309839129447937,0.1630013851169829,0.020614565857932376,-0.9857417135672539,0.03631662714372711,-0.06492282134249867,-2.812131285307508,0.05261566629357839
1782818730978586112,2.6657862663269043,0.4012138843536377,0.8235430717468262,0.47640785574913025,-0.3311338424682617,0.06851564347743988,0.9410932660102844,-0.10648828744888306,0.09345640242099762,-0.3994823694229126,0.167383351692801,0.01835435869265172,-0.9849922574764658,0.03789881128284442,-0.06856936333358522,-2.8032610682529713,0.04897969816334515
1782818730988505344,2.6757054328918457,0.5045346021652222,0.5252780914306641,0.41942697763442993,-0.3366013169288635,0.0742773711681366,0.938713550567627,-0.15872961282730103,0.1629968136548996,-0.4443742036819458,0.17028440202664175,0.01648906618963924,-0.984421093291608,0.04057868852152375,-0.07434584204102147,-2.7972971620567977,0.04642909230815905
1782818730998425344,2.6856253147125244,0.6372420191764832,0.4403333365917206,0.44914597272872925,-0.340595543384552,0.08123492449522018,0.9366942048072815,-0.025691717863082886,0.16696453094482422,-0.49789702892303467,0.1724178050834599,0.014811946613521773,-0.9839348116309209,0.04387618643693483,-0.08132454061383929,-2.7928410111840503,0.044439501920603294
1782818731008345344,2.6955454349517822,0.33703717589378357,-0.07882572710514069,0.253747820854187,-0.34196987748146057,0.08668941259384155,0.9357039928436279,-0.0876719057559967,0.12691839039325714,-0.46786928176879883,0.17317794433348627,0.013554035400712343,-0.983701320867726,0.046449025218378896,-0.08679836306808529,-2.7912048621862735,0.04292888377253788
1782818731018264320,2.7054643630981445,1.0233514308929443,-0.02463492751121521,0.3145395517349243,-0.34118178486824036,0.09315542876720428,0.9353700280189514,0.07158952951431274,0.15794318914413452,-0.4357362389564514,0.1727689831158785,0.013118981864086261,-0.983622334334028,0.04965754089303967,-0.09329068790827658,-2.7918331762488844,0.043167872334960666
1782818731028184064,2.7153842449188232,0.7939584255218506,-0.35831475257873535,0.20328748226165771,-0.33944737911224365,0.10369119793176651,0.9348923563957214,0.034485191106796265,0.022010721266269684,-0.5859695672988892,0.17187759577365377,0.012395884663192672,-0.9835103052808154,0.05488114614863146,-0.10387791299223026,-2.793306833336994,0.043496747532037805
1782818731038104320,2.725304365158081,1.0356621742248535,-0.2565076947212219,0.19719655811786652,-0.33574041724205017,0.11151497066020966,0.9353306889533997,0.09344601631164551,0.29545220732688904,-0.3438692092895508,0.16990848148387808,0.01265629983306066,-0.9836183954496415,0.058872319933527886,-0.1117473971091132,-2.7969636138389404,0.045200975496671035
1782818731048023296,2.7352232933044434,0.8552974462509155,-0.532944917678833,-0.061625245958566666,-0.33176183700561523,0.12084636837244034,0.9355906844139099,0.1279502809047699,-0.02085554599761963,-0.5075360536575317,0.16778136790306883,0.013163152899474232,-0.9836778273654859,0.0636709639156619,-0.12114245418904855,-2.8008244097346573,0.04762914363667256
1782818731057943296,2.745143413543701,0.8896591663360596,-0.7728001475334167,0.05452452972531319,-0.32523980736732483,0.12972459197044373,0.9366914629936218,0.33256399631500244,0.05164138972759247,-0.37506115436553955,0.16430227182296497,0.01399586615465655,-0.9839460552413907,0.06825765214566004,-0.130091217549974,-2.807394887192076,0.050419348144247186
1782818731067862272,2.7550623416900635,0.3546082377433777,-0.6504718065261841,-0.171011820435524,-0.3184014856815338,0.13520604372024536,0.9382646083831787,0.34119802713394165,-0.14657382667064667,-0.4286208152770996,0.16066641221622735,0.014787971884493647,-0.9843340985771074,0.0710926831280193,-0.1356214125971766,-2.814435574002008,0.052462601583259265
1782818731077782272,2.764982223510742,0.23804113268852234,-0.5355098247528076,0.10196191817522049,-0.31336289644241333,0.13751709461212158,0.9396238923072815,0.28005293011665344,-0.1617480367422104,-0.47363555431365967,0.15796677849324348,0.015716686978892683,-0.9846648778820773,0.07235076602139678,-0.13795424785398697,-2.81969369203992,0.05435225627434081
1782818731087702272,2.77490234375,-0.16777661442756653,-0.5638048052787781,0.12751218676567078,-0.30825313925743103,0.1385994553565979,0.9411534667015076,0.3978527784347534,-0.2062416821718216,-0.5124579668045044,0.15534519939018965,0.015148717554974727,-0.9850620554827042,0.0727395861568911,-0.13904707657469226,-2.8250768967870536,0.05298022475041981
1782818731097621248,2.7848212718963623,-0.38387027382850647,-0.8345529437065125,-0.1679799109697342,-0.30140843987464905,0.13456307351589203,0.943952202796936,0.32925575971603394,-0.14504586160182953,-0.41198503971099854,0.15177688973725223,0.015396917653717625,-0.9857682491488045,0.07062353080683577,-0.13497251504526311,-2.8325204846033776,0.052292839440187366
1782818731107541248,2.79474139213562,-0.2815091907978058,-0.8469458818435669,0.04972744360566139,-0.2926000952720642,0.13155314326286316,0.9471428394317627,0.47771966457366943,-0.12372536957263947,-0.5224752426147461,0.1471772382715005,0.015925032767560025,-0.9865687101861114,0.06904777712236772,-0.1319355822122682,-2.8419641890846155,0.05222420420653316
1782818731117460224,2.8046603202819824,-0.44371458888053894,-0.8337534070014954,0.0032949629239737988,-0.28162768483161926,0.1262083351612091,0.9511873722076416,0.3613700866699219,-0.11543561518192291,-0.4348757266998291,0.14152108778300262,0.01584478230554436,-0.9875943665022774,0.0661673893395016,-0.12654581742646553,-2.8537359474889423,0.05044922766949282
1782818731127380224,2.814580202102661,-0.4856349527835846,-0.9535822868347168,-0.08731060475111008,-0.2717743217945099,0.121001236140728,0.9547236561775208,0.36943063139915466,-0.1086111068725586,-0.3915981650352478,0.1364475636908431,0.01593615101809514,-0.9884876680088661,0.06340500507557444,-0.12129846497830363,-2.8642653724531577,0.04918940898962895
1782818731137300224,2.824500322341919,-0.5431517362594604,-1.223671317100525,0.03982258215546608,-0.26096126437187195,0.11642366647720337,0.9583029747009277,0.5002496242523193,-0.11064059287309647,-0.36630779504776,0.130892344995241,0.01602660202320087,-0.9893910459653618,0.060956274095855204,-0.1166882919982313,-2.8757234096461315,0.04801541658298115
1782818731147219200,2.8344192504882812,-0.5653318762779236,-1.1949119567871094,0.046563707292079926,-0.24929611384868622,0.11067358404397964,0.9620827436447144,0.43118083477020264,-0.04693761467933655,-0.3350379467010498,0.12494259256844224,0.01574661105820704,-0.9903501458467401,0.05786258073340876,-0.11090077372599355,-2.888047851728445,0.04594664304461457
1782818731157139200,2.844339370727539,-0.6280333399772644,-1.1873054504394531,0.10125332325696945,-0.23754259943962097,0.10461325943470001,0.9657274484634399,0.31978750228881836,-0.03912254422903061,-0.3588091731071472,0.11896728595768466,0.015416562064024607,-0.991274970651056,0.05461723273719684,-0.10480501777188843,-2.900407956650758,0.04381377879364249
1782818731167059200,2.8542592525482178,-0.7217639088630676,-1.346541404724121,0.12507925927639008,-0.2248012274503708,0.09847916662693024,0.9694152474403381,0.36509060859680176,0.05044659227132797,-0.34375929832458496,0.11251145034870408,0.014914582053622616,-0.9922122629819701,0.05131729134631313,-0.09863904532337595,-2.913726506951474,0.04135719222044711
1782818731176978432,2.864178419113159,-0.6313895583152771,-1.4268423318862915,0.08623438328504562,-0.21091416478157043,0.09207415580749512,0.973158597946167,0.38889268040657043,0.10596966743469238,-0.311934232711792,0.10549057871423655,0.014363662719852514,-0.9931631245891541,0.047879655774657554,-0.09220474911660786,-2.9281620527474104,0.03880717088031307
1782818731186898176,2.874098300933838,-0.6077360510826111,-1.5980126857757568,0.05393586680293083,-0.1959257870912552,0.08646214008331299,0.976799488067627,0.38208305835723877,0.05732141435146332,-0.33115440607070923,0.09791123773044368,0.01406067401027733,-0.9940835118271664,0.0448732613783214,-0.08657023408486907,-2.9436400988651887,0.0368886387023648
1782818731196817152,2.8840172290802,-0.5669268369674683,-1.5725808143615723,0.01607370935380459,-0.180361807346344,0.08077120035886765,0.9802783727645874,0.3849974274635315,0.029671914875507355,-0.2901233434677124,0.09005613312728897,0.013826827223068475,-0.994961315660987,0.04184161881735638,-0.08085928692119154,-2.9596372573759866,0.0351726538742996
1782818731206737152,2.893937349319458,-0.6824241876602173,-1.614062786102295,-0.00985176581889391,-0.16496795415878296,0.07463300973176956,0.9834712147712708,0.32523101568222046,-0.049456000328063965,-0.24844002723693848,0.08229827091955703,0.013837747358837135,-0.9957630931530335,0.03861895298943029,-0.07470247043375079,-2.975399345271764,0.03401619254232894
1782818731216657152,2.9038572311401367,-0.7670101523399353,-1.5738385915756226,-0.10285414755344391,-0.14942018687725067,0.06727441400289536,0.9864824414253235,0.30121463537216187,-0.021803230047225952,-0.18231379985809326,0.07447797472410769,0.01412483140070868,-0.9965147752344843,0.03481051816774756,-0.06732526294705761,-2.99126764503194,0.033418354857311414
1782818731226576384,2.913776397705078,-0.7908782362937927,-1.5825332403182983,-0.01701623573899269,-0.13388971984386444,0.05943978950381279,0.989211916923523,0.26914364099502563,-0.03459848463535309,-0.1650543212890625,0.0666890652288761,0.014393341374259017,-0.9971954641990194,0.030766057358670176,-0.059474845505740545,-3.0070603198361767,0.03287350266174489
1782818731236496128,2.923696279525757,-0.7082533836364746,-1.4914963245391846,-0.14289507269859314,-0.11869476735591888,0.05184498801827431,0.9915761947631836,0.22800874710083008,-0.026133932173252106,-0.19612044095993042,0.05908270591124031,0.01473457846595862,-0.9977830428710726,0.026852583060199463,-0.0518682403874834,-3.022456403183188,0.03262652993268066
1782818731246415104,2.933615207672119,-0.6853998899459839,-1.4033230543136597,-0.09930701553821564,-0.10436137020587921,0.0447523407638073,0.9935320019721985,0.12497600167989731,-0.051588281989097595,-0.20836055278778076,0.05191569200096809,0.015298668940442994,-0.9982644712654254,0.02321069500322101,-0.044767293983881795,-3.0369356706978907,0.032993268980875595
1782818731256335360,2.943535327911377,-0.5256778597831726,-1.334263563156128,-0.21840836107730865,-0.09074639528989792,0.038576431572437286,0.9951266646385193,0.14442679286003113,-0.005571667104959488,-0.178674578666687,0.04511115922514902,0.016110796739544485,-0.9986509735095727,0.02004203008860591,-0.03858600655976959,-3.0506533764375825,0.034018241464654604
1782818731266255104,2.9534552097320557,-0.41397401690483093,-1.274337887763977,-0.20164021849632263,-0.07789816707372665,0.03366118669509888,0.9963929653167725,0.12425436824560165,-0.023514091968536377,-0.15990614891052246,0.038689428504959746,0.0171451455509275,-0.9989507064336008,0.01751230502273725,-0.03366754720277105,-3.0635711881829177,0.03563712663247049
1782818731276174336,2.963374376296997,-0.27643558382987976,-1.1578000783920288,-0.2510506212711334,-0.06576544791460037,0.03027842938899994,0.9973754286766052,0.10414131730794907,-0.007344471290707588,-0.14514172077178955,0.032620956239055796,0.018327749527826634,-0.9991755664459175,0.015750067966394502,-0.030283057102217778,-3.0757494582930938,0.03767903012891029
1782818731286094080,2.973294258117676,-0.36874932050704956,-1.0553650856018066,-0.25073134899139404,-0.05483000725507736,0.026723725721240044,0.9981381893157959,0.07890836894512177,-0.055333949625492096,-0.04814112186431885,0.027160625892718542,0.019581080307149674,-0.9993426281379216,0.013902836334522557,-0.02672690705603869,-3.0867155277291483,0.039916487221340086
1782818731296014336,2.9832143783569336,-0.4309977889060974,-0.8294364213943481,-0.2745533287525177,-0.045431431382894516,0.022721072658896446,0.998708963394165,0.06685477495193481,-0.0979316458106041,0.032327353954315186,0.022480893758422077,0.02086640588220964,-0.9994593855981303,0.011836030630912209,-0.02272302829956582,-3.096133831254645,0.04226591038694459
1782818731305933312,2.993133306503296,-0.5230540037155151,-0.6395555734634399,-0.27457401156425476,-0.03805021569132805,0.01779475435614586,0.999117374420166,0.07741789519786835,-0.10284724831581116,0.10082769393920898,0.018826541853191676,0.02224970998885157,-0.9995317163637291,0.009320626777163622,-0.017795693229355612,-3.1035272230317887,0.04485166765751793
1782818731315853312,3.0030534267425537,-0.5784461498260498,-0.4700182378292084,-0.30310285091400146,-0.03243248909711838,0.012110792100429535,0.9994005560874939,0.13500207662582397,-0.07079609483480453,0.1451154351234436,0.01607143168299783,0.023564970235790104,-0.9995723939719852,0.006436871076578346,-0.012111087715311638,-3.1091520971019784,0.047337834953224384
1782818731325772288,3.012972354888916,-0.719883918762207,-0.3098377585411072,-0.32110539078712463,-0.0286047775298357,0.005467813927680254,0.9995757341384888,0.15506961941719055,-0.08609525859355927,0.20101618766784668,0.014230345000321998,0.02523491139126081,-0.9995754477979372,0.0030943222443788505,-0.005467841341376498,-3.1129835440016493,0.05055875457629308
1782818731335692288,3.0228922367095947,-0.6614624261856079,-0.11621342599391937,-0.3108048141002655,-0.026345251128077507,-0.0015079944860190153,0.9996516704559326,0.21489810943603516,-0.11046099662780762,0.21850311756134033,0.013189200442453093,0.02667407646514874,-0.9995570636796828,-0.00040236572993909345,0.0015079950688612533,-3.115244320819649,0.05333925873563254
1782818731345612288,3.0328123569488525,-0.6003075838088989,0.03991313278675079,-0.19338862597942352,-0.025743627920746803,-0.00806348118931055,0.9996358752250671,0.22477927803993225,-0.054161861538887024,0.19245684146881104,0.012980706253153146,0.027961635952075434,-0.999517922367905,-0.0036705481816363926,0.00806356833366646,-3.1158453388907827,0.05583183603350588
1782818731355531264,3.042731285095215,-0.3356088101863861,0.17905664443969727,-0.04692702740430832,-0.026780467480421066,-0.012788219377398491,0.9995593428611755,0.26205575466156006,-0.05923326313495636,0.23650914430618286,0.013568078116245191,0.028423128469742272,-0.9994857681622092,-0.0060115536262245585,0.012788567629461034,-3.11480678790886,0.05668888542043818
1782818731365451264,3.0526514053344727,0.13159304857254028,0.297076940536499,0.0054166363552212715,-0.028932398185133934,-0.01417197473347187,0.9994807243347168,0.19551260769367218,-0.10039100795984268,0.3078311085700989,0.01466453353276357,0.028549646017002,-0.9994624977317135,-0.006670905868283278,0.014172449402861179,-3.112653305003424,0.05690937531844933
1782818731375370240,3.062570333480835,0.35097014904022217,0.39938655495643616,0.14171509444713593,-0.03242308273911476,-0.011310338973999023,0.9994103312492371,0.13714414834976196,-0.18319344520568848,0.3750404119491577,0.0163671322623614,0.028224415897679107,-0.999454122694073,-0.005196053296808469,0.011310580431948268,-3.109161813235968,0.056281234562885855
1782818731385290240,3.0724902153015137,0.41658642888069153,0.5858818888664246,-0.07017173618078232,-0.03698824718594551,-0.00742445420473814,0.9992880821228027,0.07505892962217331,-0.1688298135995865,0.578180730342865,0.01859392312523411,0.027931955869216058,-0.9994317599096498,-0.003194677739400061,0.007424522281997677,-3.1045949449397514,0.05574376494286733
1782818731395210240,3.0824103355407715,0.12446430325508118,0.8150138854980469,-0.08446012437343597,-0.04342955723404884,-0.004668479319661856,0.9990457892417908,-0.001889057457447052,-0.1981666088104248,0.659996747970581,0.02177751631152308,0.028398290322610875,-0.999358009197436,-0.001716897584915808,0.004668496124536447,-3.098148968026158,0.05671635807579578
1782818731405129216,3.092329263687134,0.05293133109807968,1.0684235095977783,-0.204014852643013,-0.05264708772301674,-0.004221900831907988,0.9986046552658081,0.03548093140125275,-0.15930654108524323,0.743537425994873,0.026383075397154416,0.02912360287077069,-0.9992267762851316,-0.001343619106954573,0.004221913340621951,-3.0889207659623854,0.05816457880490526
1782818731415049216,3.1022493839263916,0.1951899379491806,1.2386929988861084,-0.13531407713890076,-0.0638899877667427,-0.003211879637092352,0.9979517459869385,0.1411605179309845,-0.10253152996301651,0.6648594737052917,0.03199519904723854,0.03001007575399399,-0.9990371718569409,-0.0006463838016289966,0.003211885106979153,-3.077658785494457,0.05995722574654665
1782818731424969216,3.1121692657470703,0.5565429925918579,1.3875302076339722,-0.015632055699825287,-0.0760350301861763,-0.00012009141210000962,0.9971048831939697,0.2722783088684082,-0.013689111918210983,0.6011309623718262,0.03802920961049067,0.030464252921888355,-0.998811486493854,0.0010997928709220585,0.00012009141579363986,-3.065484149123309,0.06097752178782462
1782818731434888448,3.1220884323120117,0.7095080614089966,1.563887119293213,0.16827279329299927,-0.08859198540449142,0.005624455399811268,0.9960522651672363,0.293883740901947,-0.09340827167034149,0.6130787134170532,0.04423422083600998,0.03024585610337055,-0.9985546195513562,0.004156136877250261,-0.005624485254926993,-3.0528829804666486,0.06081039845999625
1782818731444808192,3.1320083141326904,0.8740721940994263,1.6999402046203613,0.19797836244106293,-0.10321804136037827,0.012811746448278427,0.9945761561393738,0.29048916697502136,-0.13956651091575623,0.750220537185669,0.05146776365596516,0.029417042479925225,-0.9982097510314718,0.007934106497527396,-0.012812096677832582,-3.0381819180638274,0.05958559922382551
1782818731454727168,3.1419272422790527,0.9062328338623047,1.7884567975997925,0.3167649209499359,-0.11993017047643661,0.021840987727046013,0.9925422072410583,0.24853122234344482,-0.28650468587875366,0.7935144901275635,0.05974237988347213,0.02833635617267186,-0.9977315088221549,0.012642053311036927,-0.02184272397518008,-3.02134430746122,0.058101219019445274
1782818731464647168,3.1518473625183105,0.7539493441581726,1.8589930534362793,0.37792474031448364,-0.13763760030269623,0.030486859381198883,0.9900132417678833,0.3010287284851074,-0.4019162952899933,0.9053266048431396,0.06855701851401823,0.026728363808583094,-0.9971420227486717,0.017124788460422834,-0.03049158318159153,-3.003452093413179,0.05570668662080571
1782818731474567168,3.1617672443389893,0.47591453790664673,1.8938738107681274,0.31739774346351624,-0.15569457411766052,0.036784131079912186,0.9871198534965515,0.2829071283340454,-0.3438672721385956,0.9533095359802246,0.07761072688624401,0.02505363351326127,-0.996459853225023,0.020408746924951537,-0.036792432835164264,-2.985155306028395,0.05315874730349399
1782818731484486400,3.1716864109039307,0.26163873076438904,1.929321050643921,0.20796151459217072,-0.17410404980182648,0.04078413173556328,0.9838822484016418,0.24003730714321136,-0.34228256344795227,0.9551587700843811,0.08689426748413827,0.023642251842200535,-0.9956817603778286,0.02254379205122064,-0.040795447621095667,-2.966449565274862,0.05106282464938722
1782818731494406144,3.1816062927246094,0.1070488914847374,1.8842580318450928,0.20969390869140625,-0.19232437014579773,0.042945027351379395,0.9803915619850159,0.25001782178878784,-0.3086005449295044,0.9006664752960205,0.0961238755653683,0.022524301131812214,-0.9948308596754222,0.023760457026201495,-0.042958236916035064,-2.9478815436356927,0.04944938587706794
1782818731504325120,3.1915252208709717,-0.03399524465203285,1.8751657009124756,0.17420931160449982,-0.2105352282524109,0.043522898107767105,0.9766170382499695,0.2519933581352234,-0.2548876404762268,0.7433232069015503,0.10539425987835474,0.021335491331904346,-0.9939080978435744,0.024157250689515256,-0.043536649741328745,-2.9292659692717296,0.04756609616547583
1782818731514245376,3.2014453411102295,-0.017891108989715576,1.9371417760849,0.22457768023014069,-0.22878748178482056,0.04360432177782059,0.972499430179596,0.24026209115982056,-0.164240300655365,0.5973248481750488,0.11471912201716294,0.02015586700157094,-0.9928964986724715,0.0242869458292929,-0.04361814980811993,-2.9105369826065863,0.04565700480656279
1782818731524165120,3.211365222930908,0.05447383597493172,1.8706163167953491,0.16182026267051697,-0.24697670340538025,0.0441499762237072,0.9680148959159851,0.25343120098114014,-0.0696321576833725,0.4903588891029358,0.12404017773462797,0.01894132051117284,-0.9917906392363411,0.024626642772851325,-0.04416433363345236,-2.8917847685038853,0.04373761290272469
1782818731534084352,3.2212843894958496,0.22619472444057465,1.914759874343872,0.2024044394493103,-0.26481929421424866,0.045755188912153244,0.9632119536399841,0.25262749195098877,0.039617739617824554,0.42059242725372314,0.13320456117132715,0.017935734733244352,-0.990597941822915,0.025506530277391554,-0.04577116953519071,-2.873288216631456,0.042386445777665975
1782818731544003840,3.231204032897949,0.5074023008346558,2.078310489654541,0.2108505815267563,-0.28350159525871277,0.04995199665427208,0.9576697945594788,0.22377878427505493,0.061223533004522324,0.3616660237312317,0.1428231943112583,0.01689314185879183,-0.9892166222138032,0.027687292971964143,-0.0499727926451967,-2.8537795199582767,0.041394210013213695
1782818731553923840,3.241123914718628,0.541914701461792,2.1021158695220947,0.23306268453598022,-0.30318161845207214,0.05549681931734085,0.9513156414031982,0.18193522095680237,0.060103774070739746,0.35787343978881836,0.15299794293068333,0.015906074750622022,-0.987625842504267,0.030560163373999798,-0.05552534773587016,-2.8330719351203806,0.04084406930088887
1782818731563843072,3.2510430812835693,0.4960985779762268,1.9760247468948364,0.2474375218153,-0.3221588730812073,0.06104912981390953,0.9447150826454163,0.2571869492530823,-0.08129753917455673,0.34852826595306396,0.16287045840133887,0.014786118194691136,-0.9859710484217101,0.033401372470418945,-0.061087114156126124,-2.81294758620229,0.04012314635480337
1782818731573762816,3.260962963104248,0.44109898805618286,1.8348108530044556,0.219323068857193,-0.33972617983818054,0.06621841341257095,0.9381904006004333,0.28833457827568054,-0.25667861104011536,0.2850914001464844,0.1720651060044235,0.013712289801921674,-0.9843308285158113,0.03603322256288609,-0.06626689945540722,-2.794172257657991,0.039491900385394116
1782818731583681792,3.2708818912506104,0.2869584560394287,1.6862678527832031,0.173138827085495,-0.35591429471969604,0.07032662630081177,0.9318686723709106,0.20669859647750854,-0.30741769075393677,0.22338950634002686,0.18059157956321478,0.012672769359610396,-0.9827378849750357,0.03810976437148754,-0.07038472764462755,-2.776754938295327,0.03877833476717748
1782818731593602048,3.280802011489868,0.2035227119922638,1.7129788398742676,0.15701843798160553,-0.3711387515068054,0.07320325821638107,0.9256876111030579,0.10282820463180542,-0.20027846097946167,0.17762970924377441,0.18865130880228573,0.01186192000260508,-0.9811743483737178,0.03958460100464121,-0.07326879414120228,-2.7602821909980286,0.03832477654691909
1782818731603521792,3.290721893310547,0.11990038305521011,1.7389079332351685,0.17026014626026154,-0.3868716359138489,0.07504025101661682,0.919075071811676,0.06504854559898376,-0.12389889359474182,0.13936591148376465,0.19703624229661107,0.010839236925324215,-0.9794998985713133,0.04048580998064598,-0.07511085332972545,-2.7431694271726696,0.03730220576150144
1782818731613441024,3.3006410598754883,0.035422246903181076,1.6589773893356323,0.2558951675891876,-0.40214821696281433,0.07673463225364685,0.9123535752296448,0.09178435802459717,-0.07217225432395935,0.05178844928741455,0.20523684806278675,0.009560009291896113,-0.9777961959683068,0.041245183593304056,-0.07681013999337717,-2.726431552714411,0.035738502384427204
1782818731623360768,3.310560941696167,-0.005533176474273205,1.5205867290496826,0.2998455762863159,-0.41613057255744934,0.07778289169073105,0.9059720635414124,0.09833577275276184,-0.0051968395709991455,-0.004360675811767578,0.21280743395082616,0.007875736137477685,-0.9761782664674301,0.04155743154498861,-0.07786154028228412,-2.7110157700098423,0.03317026479970004
1782818731633279744,3.3204798698425293,0.005791649222373962,1.481094479560852,0.4109004735946655,-0.4292733073234558,0.07950950413942337,0.8996683359146118,0.08601149916648865,-0.08196616172790527,-0.11176526546478271,0.21998568295826984,0.005787216075976143,-0.974577175001726,0.04209811119286709,-0.07959351977523256,-2.69639467616644,0.029901246388617648
1782818731643200000,3.330399990081787,0.05701495334506035,1.328137993812561,0.5072559118270874,-0.44135138392448425,0.08180233091115952,0.8935977816581726,0.06371164321899414,-0.08642574399709702,-0.14153802394866943,0.22664852727205784,0.0032660898091016323,-0.973030435999156,0.042795598768674725,-0.0818938388913998,-2.6828338571189456,0.025844612170909713
1782818731653119744,3.340319871902466,-0.06905616074800491,1.2329518795013428,0.5476323962211609,-0.4519576132297516,0.0839940756559372,0.8880760073661804,0.04225918650627136,-0.1113836020231247,-0.17353761196136475,0.23256203336673903,0.00041063189221299734,-0.9716160982798481,0.04332218774374176,-0.08409315324387417,-2.670836359064537,0.02102398196270857
1782818731663038976,3.3502390384674072,-0.11852377653121948,0.8616988658905029,0.35903626680374146,-0.4608956277370453,0.08535997569561005,0.8833398222923279,-0.027324646711349487,-0.08415453135967255,-0.21579813957214355,0.23757734544379105,-0.0022071212636131645,-0.9703942694163796,0.04344175061605531,-0.0854639771852347,-2.6606851940802114,0.016418656088604006
1782818731672958976,3.360158920288086,0.015932833775877953,0.5307534337043762,0.25842976570129395,-0.46647152304649353,0.08601635694503784,0.8803442120552063,-0.01775100827217102,0.027844741940498352,-0.297061562538147,0.2407116266529801,-0.003740611443203306,-0.9696175115030001,0.043427197612899926,-0.08612278445517438,-2.654332434915595,0.013704156765670775
1782818731682878976,3.3700790405273438,0.1248379498720169,0.6404834985733032,0.22913162410259247,-0.47129762172698975,0.08783593773841858,0.877589762210846,-0.05194157361984253,0.17653784155845642,-0.4280961751937866,0.24344262781200077,-0.00506179320715475,-0.9689010535653986,0.044055799915205814,-0.08794927290819056,-2.6487567543970405,0.011686800870136778
1782818731692797952,3.379997968673706,0.33428919315338135,0.34351226687431335,0.42601272463798523,-0.4754181504249573,0.09150205552577972,0.8749887347221375,-0.21720892190933228,0.22052493691444397,-0.5605049729347229,0.2458120781682717,-0.00638933083548864,-0.9682218416874389,0.04563050779237495,-0.09163022688226054,-2.6438754913002867,0.010103035077321137
1782818731702717952,3.389918088912964,0.013685058802366257,0.2924438714981079,0.35844886302948,-0.4776577353477478,0.09480126947164536,0.8734162449836731,-0.09186136722564697,0.14491431415081024,-0.5781128406524658,0.2471646753792117,-0.00805449646233377,-0.9678033134294534,0.046920534793546624,-0.09494385041952913,-2.641144590896724,0.007638336117930023
1782818731712636928,3.399837017059326,-0.18211454153060913,0.13946844637393951,0.28929272294044495,-0.4789929986000061,0.09540824592113495,0.8726183176040649,-0.12282875180244446,0.04910773038864136,-0.5253588557243347,0.24799541918916493,-0.009813166409971739,-0.9675809291133871,0.04678730176084245,-0.09555358455222883,-2.639583070170776,0.004235340943209319
1782818731722556928,3.409756898880005,-0.24066512286663055,-0.0745021253824234,0.3245283365249634,-0.4791189730167389,0.09510164707899094,0.872582733631134,-0.077994704246521,-0.10788851231336594,-0.5479673147201538,0.2481366840958326,-0.0113851945575129,-0.9675545134161541,0.04622555039976846,-0.09524559032109088,-2.6394549550788984,0.0009130553216320986
1782818731732476928,3.4196770191192627,-0.49562713503837585,-0.34001049399375916,0.29248279333114624,-0.4769655168056488,0.09371806681156158,0.8739113807678223,0.054174959659576416,-0.034376636147499084,-0.4646552801132202,0.24702729793719505,-0.013513501086522465,-0.9678703875017134,0.04496555584569105,-0.0938558011339285,-2.641993230989241,-0.00396063750298421
1782818731742395904,3.429595947265625,-0.302944540977478,-0.5456584692001343,0.09619807451963425,-0.4730710983276367,0.09075125306844711,0.8763378858566284,-0.07661157846450806,0.22284738719463348,-0.46732592582702637,0.24490372622138779,-0.015039823826755856,-0.968474445817169,0.043049476556519056,-0.09087628567895632,-2.646593138930925,-0.008078839761569338
1782818731752315904,3.439516067504883,0.27870795130729675,-0.486811101436615,0.0883401483297348,-0.4682959318161011,0.09107265621423721,0.8788657784461975,-0.1518060863018036,0.3120798170566559,-0.5813955068588257,0.24228417610877623,-0.015178496392877525,-0.9691245994141708,0.04319240037835467,-0.0911990228760867,-2.652018521652246,-0.008525571178060447
1782818731762234880,3.449434995651245,0.3619977831840515,-0.5267739295959473,-0.01710531674325466,-0.4635910391807556,0.09485079348087311,0.8809577822685242,-0.12176656723022461,0.2219216525554657,-0.5542519092559814,0.23975175022324668,-0.015128702546593244,-0.969664891033807,0.045168453996957195,-0.09499359636727613,-2.65717779217604,-0.007715975303798481
1782818731772154880,3.459354877471924,0.570803165435791,-0.8500500321388245,-0.010376041755080223,-0.457602322101593,0.09792737662792206,0.8837480545043945,-0.08986783027648926,0.22169849276542664,-0.4754379987716675,0.23647918823227573,-0.014421949409618023,-0.9703947830578499,0.0469429536764963,-0.09808457264296576,-2.663808817824076,-0.005815892122771425
1782818731782074880,3.4692749977111816,0.2520129978656769,-0.7195693254470825,-0.14116571843624115,-0.4510367214679718,0.1012541726231575,0.8867430686950684,0.03781351447105408,-0.017285063862800598,-0.5463653802871704,0.2328688776397996,-0.013071652757344242,-0.9711851839750792,0.04899488219039352,-0.1014279891826259,-2.6710536176123787,-0.002584510246036673
1782818731791993856,3.479193925857544,-0.13190323114395142,-0.7392040491104126,-0.07099886983633041,-0.44361189007759094,0.10194482654333115,0.8904018998146057,0.1593559980392456,-0.09739772230386734,-0.36229532957077026,0.22879494283509405,-0.012394310622469599,-0.9721354427213367,0.04951641118641527,-0.10212223992009796,-2.6793737652672385,-0.0014472288415555085
