time,seconds_elapsed,rotationRateX,rotationRateY,rotationRateZ,gravityX,gravityY,gravityZ,accelerationX,accelerationY,accelerationZ,quaternionW,quaternionX,quaternionY,quaternionZ,pitch,roll,yaw
1784373783384155392,0.26992058753967285,0.058657899498939514,0.029193822294473648,-0.5062323212623596,0.4169909954071045,0.42219945788383484,-0.8049013018608093,0.1710216999053955,0.20563867688179016,0.0578005313873291,-0.9324998007527966,0.26003099004731633,-0.173012197468995,-0.18136935233103868,-0.43587027986177734,0.4779947256922822,0.4920103277770395
1784373783394075392,0.27984046936035156,0.2629452645778656,0.07324650138616562,-0.6286317110061646,0.41501933336257935,0.4233357906341553,-0.8053234219551086,0.24673908948898315,0.2507059574127197,0.06914788484573364,-0.9331674752248268,0.2598546977663239,-0.17266681802182887,-0.17849439868813985,-0.4371241583372461,0.4758480538803713,0.4856174192990806
1784373783403995392,0.2897605895996094,0.5227386951446533,0.020654205232858658,-0.6976783275604248,0.41262996196746826,0.4229651689529419,-0.8067446947097778,0.34345829486846924,0.2269524335861206,0.08852875232696533,-0.9342069940062233,0.2586711527663845,-0.1723858803395429,-0.17501327496324603,-0.43671511276019104,0.47278563015293285,0.47719075805409306
1784373783413915392,0.2996804714202881,0.7951059937477112,-0.07040699571371078,-0.7558183670043945,0.40934431552886963,0.4206913113594055,-0.8096023797988892,0.3982881009578705,0.2037593424320221,0.14927834272384644,-0.9356932662922638,0.2562340494500452,-0.1718805146507203,-0.17111198403591404,-0.4342072166830276,0.4681267537108874,0.4668371943603185
1784373783423834368,0.3095993995666504,1.0783190727233887,-0.14237603545188904,-0.7914209365844727,0.4052250385284424,0.41631054878234863,-0.8139276504516602,0.4162776470184326,0.20159411430358887,0.22156620025634766,-0.9376153905424699,0.25246524945791965,-0.17116507354990737,-0.1668566535099076,-0.4293837181398043,0.4619371149742289,0.4546965955477336
1784373783433754368,0.3195195198059082,1.3709832429885864,-0.1855517327785492,-0.8381143808364868,0.4005523920059204,0.40965744853019714,-0.819596529006958,0.4182341992855072,0.20820140838623047,0.2642529606819153,-0.9399352076479361,0.2473267143371897,-0.17038550088392998,-0.16223426819075232,-0.422078514077682,0.4545821399794886,0.4408512125981842
1784373783443674368,0.3294394016265869,1.6074579954147339,-0.2308201789855957,-0.9170199036598206,0.39531323313713074,0.40093639492988586,-0.8264244794845581,0.44141772389411926,0.19969531893730164,0.3001793622970581,-0.9426146070865673,0.24093204857561848,-0.16952728707713263,-0.15713025663620883,-0.4125387750523195,0.44617125769603233,0.4252230734533011
1784373783453594368,0.3393595218658447,1.702697992324829,-0.2857455015182495,-0.9715688824653625,0.38948121666908264,0.3909092843532562,-0.8339630365371704,0.48850953578948975,0.18558302521705627,0.3180786371231079,-0.9455133722127317,0.23373411913149564,-0.16848395435291966,-0.15161145168433202,-0.4016192689070707,0.4369209916348271,0.40830723170682875
1784373783463513344,0.34927845001220703,1.673407793045044,-0.39518803358078003,-1.0111987590789795,0.3828108608722687,0.3807023763656616,-0.8417372703552246,0.5533006191253662,0.18681776523590088,0.3165450096130371,-0.9484629797277352,0.22638083071002996,-0.16698232560686674,-0.14589958975511844,-0.3905557438331893,0.426827357136258,0.39094092705225986
1784373783473433600,0.35919857025146484,1.6035487651824951,-0.5163925290107727,-1.0257383584976196,0.3751923143863678,0.3708106279373169,-0.8495470285415649,0.6132567524909973,0.1860131025314331,0.29797232151031494,-0.9513679670344672,0.2191895593585829,-0.16487088750769077,-0.14025888483367874,-0.37988173394630437,0.41587842980587575,0.37383286250531284
1784373783483353344,0.36911845207214355,1.5633476972579956,-0.6307222247123718,-1.0625240802764893,0.3665110766887665,0.3612891733646393,-0.8574029207229614,0.6398212909698486,0.1896294355392456,0.2827874422073364,-0.9542370616748653,0.21218313807915049,-0.1621013651900208,-0.13465914794118136,-0.3696500748029558,0.4039579722014616,0.3569129098446728
1784373783493273600,0.37903857231140137,1.5289901494979858,-0.7361570596694946,-1.1798677444458008,0.3566884994506836,0.35208261013031006,-0.8653387427330017,0.6323251724243164,0.17347583174705505,0.2571539282798767,-0.957115183696122,0.2052922508122444,-0.1587001010072868,-0.12884061895398055,-0.3597952726436637,0.3909751118554505,0.33961116417277865
1784373783503192320,0.38895750045776367,1.4405617713928223,-0.7865324020385742,-1.3695733547210693,0.3456595242023468,0.3437207341194153,-0.8731411695480347,0.5993172526359558,0.16352716088294983,0.25894445180892944,-0.9599942119873714,0.19874558458152256,-0.15469193677119442,-0.12239968864938693,-0.3508761763837075,0.37694999817609975,0.3212275808690097
1784373783513112320,0.3988773822784424,1.3930426836013794,-0.8068419694900513,-1.5869919061660767,0.3337100148200989,0.3364763855934143,-0.8805800676345825,0.5680233836174011,0.1674756109714508,0.24241173267364502,-0.9628355734759506,0.1926886997513191,-0.1502698501009278,-0.1150552482478758,-0.3431726078604946,0.3622432674792007,0.3013121253361501
1784373783523032320,0.4087975025177002,1.4167004823684692,-0.8343163132667542,-1.8136833906173706,0.32087501883506775,0.3297095000743866,-0.8878800272941589,0.5506612658500671,0.1910882294178009,0.21017616987228394,-0.9656940216647768,0.1867815699092751,-0.1455082239578096,-0.10665442211875292,-0.3359958521770498,0.346789593861688,0.2793884339905426
1784373783532952320,0.4187173843383789,1.440615177154541,-0.8517698645591736,-2.050729274749756,0.30712637305259705,0.3230931758880615,-0.8951447606086731,0.5208917856216431,0.24865365028381348,0.2154267430305481,-0.9685738849075826,0.1808702062599172,-0.14040504259440642,-0.0971444390994664,-0.32899614766149476,0.3305168582664535,0.2552801483337096
1784373783542871552,0.4286365509033203,1.4131280183792114,-0.8398892879486084,-2.297395706176758,0.2926463782787323,0.3168574571609497,-0.902197003364563,0.4680347442626953,0.3054112195968628,0.248540997505188,-0.9714026857655609,0.17511246446904627,-0.13504487134911008,-0.08646011558404196,-0.32241436910102617,0.31366272582390614,0.22896134796428985
1784373783552791296,0.438556432723999,1.4119733572006226,-0.8067110776901245,-2.5487120151519775,0.27766573429107666,0.3110518157482147,-0.9089270830154419,0.41619715094566345,0.3320908546447754,0.27098768949508667,-0.974119323328147,0.16956992724442432,-0.12954723659484765,-0.074532123124967,-0.3162995580925985,0.29648343977044317,0.20035114610687857
1784373783562711552,0.44847655296325684,1.3815511465072632,-0.7695019841194153,-2.7917261123657227,0.26232627034187317,0.3055856227874756,-0.9153154492378235,0.37683388590812683,0.3362295627593994,0.2898882031440735,-0.9766727010428686,0.16423403178515855,-0.12397365820805294,-0.0613846538544975,-0.3105534205420475,0.2791151766543625,0.1695070491412292
1784373783572631296,0.45839643478393555,1.3574870824813843,-0.7105646133422852,-3.059885025024414,0.24675634503364563,0.30050039291381836,-0.9213092923164368,0.34769555926322937,0.30313730239868164,0.28311043977737427,-0.9790034734435751,0.1591532764496902,-0.11838744496327307,-0.046976443537256315,-0.3052172366732042,0.2616902840011111,0.13636921344838132
1784373783582550528,0.46831560134887695,1.2889509201049805,-0.5979790091514587,-3.352569818496704,0.23122011125087738,0.29596611857414246,-0.9267908930778503,0.3288384675979614,0.25750067830085754,0.27810925245285034,-0.9810333629755927,0.15442799226869164,-0.11294493354108612,-0.03112977619431434,-0.30046679859506104,0.2444935860346692,0.10063309677905635
1784373783592470528,0.47823548316955566,1.1864477396011353,-0.4683738946914673,-3.6588101387023926,0.21602900326251984,0.29233306646347046,-0.9315969347953796,0.31879156827926636,0.20910125970840454,0.27078455686569214,-0.9826536889506832,0.1502595981826605,-0.10781273926541318,-0.013788888725767858,-0.296665563853484,0.22786369082489927,0.062257267234347505
1784373783602390528,0.4881556034088135,1.1079916954040527,-0.2928590178489685,-3.9776346683502197,0.20142297446727753,0.28965580463409424,-0.9356967210769653,0.31899330019950867,0.17164790630340576,0.25794708728790283,-0.9837793622045302,0.14667612740027514,-0.10313955546363274,0.005147937239515424,-0.2938672080459948,0.21202966752030358,0.021030390472679267
1784373783612310528,0.4980754852294922,0.993201732635498,-0.1058473140001297,-4.317173480987549,0.1876893788576126,0.28784894943237305,-0.9391036629676819,0.3293394446372986,0.14963579177856445,0.22593837976455688,-0.9843211127204693,0.14362318433285606,-0.09909870422139323,0.025763668997616035,-0.2919799701798688,0.19726106030321955,-0.023239290864739536
1784373783622229248,0.5079944133758545,0.7434956431388855,0.17862798273563385,-4.687469959259033,0.17508944869041443,0.28779253363609314,-0.9415514469146729,0.33388271927833557,0.11751142144203186,0.20784783363342285,-0.9840998458605228,0.1415246794333609,-0.09589076393808807,0.04819911337919289,-0.291921049281369,0.18385833464549656,-0.07077450502762468
1784373783632149504,0.5179145336151123,0.38144615292549133,0.460881769657135,-5.028221607208252,0.1641559898853302,0.2906317114830017,-0.9426484107971191,0.3310680389404297,0.05696350336074829,0.13139963150024414,-0.9828953827366612,0.14092959602820077,-0.0938863402238867,0.0723939921515947,-0.2948869820064909,0.1724143889567291,-0.12137268974967792
1784373783642069248,0.527834415435791,-0.08761502802371979,0.6703538298606873,-5.383006572723389,0.1542753428220749,0.2975173890590668,-0.9421690702438354,0.3442445397377014,0.013243108987808228,0.06719958782196045,-0.9805306525619488,0.1424048771512435,-0.0929318340091794,0.0982047911546558,-0.30209124005792615,0.16230450063648297,-0.17488706955656594
1784373783651989504,0.5377545356750488,-0.48399272561073303,0.8939083814620972,-5.720608711242676,0.144847571849823,0.3084954023361206,-0.9401328563690186,0.3764384388923645,-0.03254023194313049,-0.024008989334106445,-0.9768762185263183,0.1459521892509531,-0.09290605169330458,0.12561598153363926,-0.3136108933751259,0.15286934435230407,-0.23156017823726538
1784373783661908480,0.5476734638214111,-0.8781110048294067,1.0720012187957764,-5.966144561767578,0.13566236197948456,0.32296961545944214,-0.9366356730461121,0.39943283796310425,-0.06602686643600464,-0.11139899492263794,-0.97185944559894,0.15126693632447005,-0.09381089860301936,0.15429563577864783,-0.32886559634652873,0.14383976600483783,-0.2909909064314648
1784373783671828480,0.557593584060669,-1.192516803741455,1.1763575077056885,-6.128294467926025,0.12616044282913208,0.3405194878578186,-0.9317349791526794,0.3888694643974304,-0.08882573246955872,-0.15318018198013306,-0.9654522301344176,0.1581849255910172,-0.09544656117672501,0.18376514376351596,-0.3474693414887018,0.13458526277377428,-0.35252728530106026
1784373783681747200,0.5675122737884521,-1.3656816482543945,1.2128586769104004,-6.170070648193359,0.11579938977956772,0.3598082661628723,-0.9258123636245728,0.3540034890174866,-0.09660941362380981,-0.18458497524261475,-0.9577757337317718,0.16610928238114933,-0.0974757961668792,0.21347546902155848,-0.36806238436173316,0.12443246724477589,-0.4154136880572443
1784373783691667200,0.5774321556091309,-1.313330888748169,1.2264468669891357,-6.184938430786133,0.10432586073875427,0.37898603081703186,-0.9195029735565186,0.3128341734409332,-0.08252304792404175,-0.24211812019348145,-0.9490376654122163,0.17416718514245477,-0.09957064297403757,0.24306164080479795,-0.38870035967884853,0.11297584498104075,-0.47918864634658875
1784373783701586176,0.5873513221740723,-0.9799237251281738,1.1793584823608398,-6.242077827453613,0.09139054268598557,0.39561495184898376,-0.9138580560684204,0.30532270669937134,-0.07058748602867126,-0.2937529683113098,-0.9394652231106739,0.18117829037988106,-0.1012195190153621,0.2726427522301173,-0.4067373227894855,0.09967378073003666,-0.5443322942522565
1784373783711506176,0.597271203994751,-0.3965122103691101,1.0917439460754395,-6.295856952667236,0.07663869857788086,0.40716320276260376,-0.9101343750953674,0.36963510513305664,-0.09512099623680115,-0.3003300428390503,-0.9293115145564129,0.18595851143214598,-0.1017459300983651,0.30240248668402875,-0.4193460116257415,0.08400772936188725,-0.6113091122899803
1784373783721426176,0.6071913242340088,0.13335397839546204,0.9738671779632568,-6.272533416748047,0.060387786477804184,0.41249847412109375,-0.9089545011520386,0.4950321614742279,-0.15390780568122864,-0.2746392488479614,-0.918784777466131,0.18802996247229053,-0.10083391357035125,0.332132022951378,-0.42519505641379085,0.06633904462819125,-0.6794240000848104
1784373783731346176,0.6171112060546875,0.5332249402999878,0.7544863224029541,-6.243170261383057,0.042558494955301285,0.4127178192138672,-0.9098641276359558,0.612653911113739,-0.2735271453857422,-0.2863943576812744,-0.9079026260037121,0.18814158691082827,-0.09833953845339703,0.36144841354335105,-0.42543585346872326,0.04674049110196468,-0.7476613063922962
1784373783741265152,0.6270301342010498,1.1004341840744019,0.49928924441337585,-6.2112650871276855,0.022860543802380562,0.40747198462486267,-0.9129315614700317,0.7144746780395508,-0.47738775610923767,-0.34041011333465576,-0.8967296331840882,0.18634721366001883,-0.09385597952900258,0.39030991998032694,-0.4196840878423176,0.025035576769353307,-0.8157241699991447
1784373783751185152,0.6369502544403076,1.596091628074646,0.21617208421230316,-6.083077430725098,0.0015818033134564757,0.39577987790107727,-0.9183440804481506,0.8058370351791382,-0.6643804311752319,-0.30533450841903687,-0.8854759261185002,0.1823403875195901,-0.08706294487264925,0.4184549628943765,-0.40691692938182833,0.0017224500184966143,-0.8825827219794268
1784373783761105152,0.6468701362609863,1.9713184833526611,-0.17959363758563995,-5.9228668212890625,-0.021348783746361732,0.3789174556732178,-0.9251841902732849,0.845781147480011,-0.8561666011810303,-0.2230702042579651,-0.8741787434002086,0.17699652594371773,-0.0779752451362112,0.4454250927215363,-0.3886262498949188,-0.02307107797391556,-0.9470341412886457
1784373783771025152,0.6567902565002441,2.3647706508636475,-0.6026870608329773,-5.626778602600098,-0.046099238097667694,0.3569071292877197,-0.933001697063446,0.8572259545326233,-1.0277445316314697,-0.13177186250686646,-0.8630432893210104,0.17057926429134837,-0.06634654169377165,0.470804920835815,-0.36495486807264094,-0.04936944861769331,-1.0079020145176267
1784373783780944128,0.6667091846466064,2.49058198928833,-1.0600980520248413,-5.243462562561035,-0.07238779962062836,0.3309701681137085,-0.9408606290817261,0.8177491426467896,-1.056937575340271,0.062000155448913574,-0.852304098859213,0.16376485010802017,-0.05244760340217829,0.49397174367611124,-0.33733150769489945,-0.07678658503135727,-1.0636089791279872
1784373783790864128,0.6766293048858643,2.4352123737335205,-1.4994820356369019,-4.812568187713623,-0.10030995309352875,0.30349546670913696,-0.9475380778312683,0.7662340402603149,-0.991514265537262,0.2602822184562683,-0.8419666156800674,0.15771565345709743,-0.03683383961683222,0.5146467028562719,-0.3083590117264188,-0.10547093360914395,-1.113698079247435
1784373783800784128,0.686549186706543,2.2297661304473877,-1.8790335655212402,-4.381025791168213,-0.12947894632816315,0.276201456785202,-0.9523381590843201,0.7166829109191895,-0.9470846652984619,0.38339895009994507,-0.8320747583401805,0.15304721861334739,-0.020185887286784533,0.5327482869440069,-0.27983955516826015,-0.1351304521962792,-1.1580625075327602
1784373783810704128,0.6964693069458008,1.9743659496307373,-2.1859676837921143,-4.01073694229126,-0.15969234704971313,0.2503262162208557,-0.9549006223678589,0.6264892220497131,-0.9899044632911682,0.4659632444381714,-0.8225279919086106,0.15013460068691534,-0.003050259650477056,0.5485417787103151,-0.25301718108605314,-0.1657011438823143,-1.1974474643857425
1784373783820624128,0.7063891887664795,1.7577472925186157,-2.3879501819610596,-3.7117490768432617,-0.19057312607765198,0.225945845246315,-0.9553169012069702,0.5058349370956421,-1.0778592824935913,0.4730323553085327,-0.8132191665505699,0.14878840073622016,0.014267704832479156,0.5624349338083462,-0.22791388331650314,-0.19690207135980803,-1.232761249606383
1784373783830543104,0.7163081169128418,1.587228536605835,-2.481411933898926,-3.469794511795044,-0.22132770717144012,0.20283320546150208,-0.9538725018501282,0.3538655638694763,-1.1512889862060547,0.4875791668891907,-0.8040358996253442,0.14858560475140373,0.031401735964314774,0.5748587048622068,-0.20425039956525748,-0.2279962028569118,-1.264866337611074
1784373783840463104,0.7262282371520996,1.5703805685043335,-2.533780574798584,-3.186797857284546,-0.25141164660453796,0.1801513135433197,-0.9509667158126831,0.22750112414360046,-1.1545623540878296,0.4868706464767456,-0.7951070238823352,0.14892292049627656,0.04835913253573745,0.5859080400618768,-0.18114027695309098,-0.25846147317688495,-1.2937218143977054
1784373783850383104,0.7361481189727783,1.55264151096344,-2.46102237701416,-2.9484190940856934,-0.2801211476325989,0.1573222577571869,-0.94698566198349,0.09352141618728638,-1.0794109106063843,0.54073566198349,-0.7865926783544411,0.14925362054284522,0.0650424495813991,0.5956214300449824,-0.15797855479320094,-0.2876018397832389,-1.3191302889745877
1784373783860303104,0.7460682392120361,1.4755386114120483,-2.314115524291992,-2.7791247367858887,-0.3067001402378082,0.1347123384475708,-0.9422248005867004,-0.07411345839500427,-1.0025712251663208,0.6022132039070129,-0.7783317390090371,0.1494284721865267,0.08098591668480787,0.6044106441234062,-0.13512315565821875,-0.3146897812403974,-1.3420209352293362
1784373783870222080,0.7559871673583984,1.335738182067871,-2.2113208770751953,-2.629282236099243,-0.3310752511024475,0.11310728639364243,-0.9368008971214294,-0.20022052526474,-0.8802887201309204,0.5951871275901794,-0.7702271157756683,0.14968000894552946,0.09589287306954188,0.6124955401101989,-0.11334985652679354,-0.3397098729873891,-1.3630926163304355
1784373783880142336,0.7659072875976562,1.3556396961212158,-2.1631295680999756,-2.453972578048706,-0.3537846505641937,0.09205851703882217,-0.9307854771614075,-0.2561396360397339,-0.6850303411483765,0.53730708360672,-0.7623159026329083,0.1499318678736528,0.11012577103315321,0.6198929319180458,-0.09218904776185488,-0.36322790729083493,-1.3823817874099849
1784373783890062080,0.775827169418335,1.3653959035873413,-1.5758886337280273,-1.9151320457458496,-0.3756261169910431,0.07303190231323242,-0.9238892793655396,-0.3418421447277069,-0.6003146171569824,0.534835934638977,-0.7559225981219311,0.15070666193549592,0.12386634728738284,0.6249205103485987,-0.07309697848626219,-0.38615772917252744,-1.3959179864842295
1784373783899982336,0.7857472896575928,1.6159088611602783,-1.3124338388442993,-2.202700138092041,-0.38900816440582275,0.05146276205778122,-0.9197957515716553,-0.41589292883872986,-0.5466104745864868,0.5654256343841553,-0.7495851164716587,0.14793053965648684,0.13497660233467845,0.6308882363341649,-0.05148550332197068,-0.4001150783218009,-1.4096946281591733
1784373783909901056,0.7956662178039551,1.7683322429656982,-1.1652151346206665,-2.2673861980438232,-0.40213051438331604,0.027273140847682953,-0.9151760935783386,-0.3522487282752991,-0.5390377044677734,0.5542294383049011,-0.742875469839048,0.14432276615128695,0.14691121810113023,0.6369647844340144,-0.027276522891339267,-0.414006057097095,-1.4233140003321365
1784373783919821312,0.8055863380432129,1.6758477687835693,-1.0217221975326538,-2.1373112201690674,-0.4120875597000122,0.0026562297716736794,-0.9111403822898865,-0.3819493055343628,-0.594254732131958,0.631034791469574,-0.736327448466125,0.13966002390780377,0.15787615584364317,0.6429558258468352,-0.0026562329130957207,-0.42474559525831246,-1.4361839259989548
1784373783929741056,0.8155062198638916,1.5147335529327393,-0.8037055134773254,-2.136188268661499,-0.4202162027359009,-0.02050696685910225,-0.9071922898292542,-0.3400071859359741,-0.6670387983322144,0.6872978806495667,-0.7298134699214358,0.1351089528444803,0.16777793747378625,0.6488208090152333,0.020508404458179894,-0.4337809660206886,-1.4489149681813378
1784373783939661312,0.8254263401031494,1.53922700881958,-0.5843539834022522,-1.9210461378097534,-0.4259105622768402,-0.04274193197488785,-0.9037551283836365,-0.3193134665489197,-0.6608865857124329,0.5801162123680115,-0.7236012198196252,0.13016410852130827,0.1765778719495839,0.6544300999110015,0.04275495808200343,-0.44039866881444295,-1.4609180456110877
1784373783949580288,0.8353452682495117,1.7073718309402466,-0.25882700085639954,-1.7162833213806152,-0.4287649393081665,-0.06481495499610901,-0.9010880589485168,-0.3436044752597809,-0.5539289116859436,0.46027690172195435,-0.7183807536663542,0.12416929262974853,0.18449381565039574,0.6591457107186494,0.06486042147866139,-0.44412550961119207,-1.4701977213531618
1784373783959500032,0.8452651500701904,2.0251893997192383,0.009728587232530117,-1.7220715284347534,-0.42835384607315063,-0.08878378570079803,-0.8992388248443604,-0.40231937170028687,-0.48371070623397827,0.34073662757873535,-0.7137590904589944,0.11626846908351324,0.1919954258728948,0.6634510563895055,0.08890083902767149,-0.4445505407658525,-1.477665829889526
1784373783969420288,0.8551852703094482,2.2041783332824707,0.0010338984429836273,-1.616159439086914,-0.4267609715461731,-0.11481746286153793,-0.8970462679862976,-0.3214079737663269,-0.37776675820350647,0.2549716830253601,-0.7093178296199202,0.10720252088697443,0.19996119822695446,0.6673764316474056,0.1150712454800036,-0.44405208403791724,-1.4838802074376156
1784373783979340032,0.865105152130127,2.4237213134765625,0.20686562359333038,-1.4477367401123047,-0.4238225221633911,-0.1418614536523819,-0.8945668339729309,-0.3241785764694214,-0.3145441710948944,0.2404225468635559,-0.7056174993233859,0.09712788046420939,0.20804510861417552,0.67036357286182,0.14234164107554734,-0.4424475791868638,-1.4875008958545235
1784373783989259264,0.8750243186950684,2.316849946975708,0.19519750773906708,-1.4104881286621094,-0.4198329448699951,-0.1691458821296692,-0.8917006254196167,-0.3401768207550049,-0.2607247233390808,0.2377852201461792,-0.7021357224883152,0.08656831503828809,0.2159991373495496,0.6729455112527134,0.16996300473304138,-0.44003457162893295,-1.4902493787250999
1784373783999179008,0.8849442005157471,1.8220083713531494,0.23492886126041412,-1.4267865419387817,-0.41553568840026855,-0.19336622953414917,-0.8887854814529419,-0.35129475593566895,-0.30226975679397583,0.2853614091873169,-0.6985038905549728,0.07713111733799861,0.22284087330061797,0.6756368258430835,0.1945919777054241,-0.43733753698827793,-1.4941446955916098
1784373784009099264,0.8948643207550049,1.1551411151885986,0.09150753170251846,-1.6341701745986938,-0.4115818738937378,-0.2125750035047531,-0.8862348794937134,-0.3713466227054596,-0.3264874815940857,0.18979322910308838,-0.6939453751105547,0.07003637284448319,0.22798569759805948,0.679379993372802,0.21420944628676675,-0.4347775907899589,-1.502097952546085
1784373784019019008,0.9047842025756836,0.6988550424575806,-0.10166261345148087,-1.0691689252853394,-0.40789633989334106,-0.22617746889591217,-0.8845701217651367,0.041548073291778564,-0.24710437655448914,0.17238140106201172,-0.6897160042040769,0.06506586960103995,0.23126039402751586,0.6830642386720039,0.2281516581433459,-0.43206586893601767,-1.510827942233447
1784373784028939264,0.9147043228149414,0.49525052309036255,-0.4113006293773651,-1.1560859680175781,-0.40774840116500854,-0.23543334007263184,-0.8822201490402222,-0.21064454317092896,-0.27196717262268066,0.13217437267303467,-0.6858433070442358,0.06284308923572789,0.23439428425595876,0.6860968533567384,0.2376644146870707,-0.43294016092046184,-1.518664259038034
1784373784038858240,0.9246232509613037,0.7748309373855591,-0.6004800200462341,-1.1218087673187256,-0.40938305854797363,-0.2456965148448944,-0.878657341003418,-0.21673080325126648,-0.1751561462879181,-0.043812692165374756,-0.681469171211016,0.06104996682742063,0.23862989064088233,0.6891505673987218,0.2482381610093347,-0.43601294046801087,-1.5267433605696576
1784373784048777984,0.9345431327819824,1.0036488771438599,-0.7513065338134766,-0.8619511723518372,-0.41258978843688965,-0.2574949562549591,-0.8737654089927673,-0.14403557777404785,-0.057034462690353394,-0.08119064569473267,-0.6774836006425909,0.05911923552791259,0.24417660144552047,0.6913020822652806,0.2604288462254053,-0.4411592160608862,-1.5322754875098443
1784373784058698240,0.9444632530212402,1.4137316942214966,-1.1216288805007935,-0.6618754863739014,-0.4186265766620636,-0.27107277512550354,-0.8667591214179993,-0.1432172954082489,-0.13520771265029907,-0.03791922330856323,-0.6740767693910842,0.05732226497527429,0.2516636870219356,0.6920982148495679,0.27450734733454696,-0.4499384404519347,-1.533981491014396
1784373784068617984,0.954383134841919,1.5852080583572388,-1.4390925168991089,-0.5170671939849854,-0.42807164788246155,-0.2865296006202698,-0.8571204543113708,-0.17167505621910095,-0.11227408051490784,0.09581369161605835,-0.670806434551055,0.05596378239265615,0.2613576893587466,0.6917939201450084,0.2906025784886786,-0.4631914991274186,-1.5326077835174887
1784373784078537216,0.9643023014068604,1.8762643337249756,-1.6113628149032593,-0.3908238410949707,-0.4397045373916626,-0.3030194044113159,-0.8454816341400146,-0.2619708776473999,-0.10794556140899658,0.13448309898376465,-0.6677093968356287,0.05490362214716864,0.27247893685153707,0.6905831609137933,0.30785942968037694,-0.4795696332088938,-1.5286415205435395
1784373784088457216,0.9742221832275391,2.338073968887329,-1.828666090965271,-0.36208486557006836,-0.452788382768631,-0.32197305560112,-0.8314541578292847,-0.317994087934494,-0.154864102602005,0.11441314220428467,-0.6646272262026722,0.05336818490060625,0.2853502321811401,0.6884749229107354,0.3278127890841743,-0.49866789000136136,-1.5218638972485314
1784373784098377216,0.9841423034667969,2.8904688358306885,-2.0518102645874023,-0.45643141865730286,-0.46722573041915894,-0.3452446758747101,-0.8139448165893555,-0.3090040981769562,-0.16290348768234253,0.058268606662750244,-0.6611484614861858,0.05072175065924012,0.30075718745085794,0.6854597513019464,0.3524994819078674,-0.5211022085520944,-1.512005167978811
1784373784108297216,0.9940621852874756,3.202042818069458,-2.15824294090271,-0.5696772933006287,-0.4822224974632263,-0.3720584511756897,-0.793116569519043,-0.2874765396118164,-0.14472618699073792,0.10277849435806274,-0.656879594584905,0.04710131610165162,0.3181558873086782,0.6819585122308259,0.3812256887256662,-0.5462881104270807,-1.5002492899687287
1784373784118216192,1.003981351852417,3.3610284328460693,-2.038588047027588,-0.6739554405212402,-0.4961748719215393,-0.40074557065963745,-0.7702035307884216,-0.3210553228855133,-0.21334439516067505,0.17335599660873413,-0.6520630539142845,0.04246963920956676,0.3362953431277323,0.6781707723687028,0.4123304849860528,-0.5722960262826412,-1.4871336567587141
1784373784128136192,1.0139012336730957,2.7914445400238037,-1.6711758375167847,-0.5717403888702393,-0.5083880424499512,-0.4262848496437073,-0.7482131123542786,-0.29483461380004883,0.3097077012062073,0.47700339555740356,-0.6473658873595369,0.038309557741959654,0.352740455137397,0.6745546968534375,0.44038179080752404,-0.596813881898598,-1.4744526459579832
1784373784138056192,1.0238213539123535,2.819194793701172,-1.9231048822402954,-0.7522231340408325,-0.5186511278152466,-0.4512244462966919,-0.7262213826179504,-0.35088616609573364,-0.4450615346431732,0.20922309160232544,-0.6423880863405859,0.033734817964509035,0.3684444126709862,0.6711543264874936,0.4681369151406728,-0.6201779998179028,-1.4620810306836396
1784373784147976192,1.0337412357330322,1.6136678457260132,-2.219846487045288,-0.7035037875175476,-0.530026376247406,-0.4703059792518616,-0.7056092023849487,-0.416903555393219,-0.20779460668563843,0.5041626691818237,-0.6362932468434421,0.03253000475238431,0.3822789695886401,0.6692798337685907,0.48963744805260484,-0.6442440168550664,-1.4549427639474555
1784373784157895168,1.0436601638793945,2.133127450942993,-2.198246479034424,-0.7374704480171204,-0.5420349836349487,-0.486799955368042,-0.6849992275238037,-0.5614501237869263,-0.1610119640827179,0.03505110740661621,-0.6300635710706757,0.03268759569649903,0.395514740709855,0.6674725559564316,0.5084225660258087,-0.6694091257722229,-1.4481973318170493
1784373784167815168,1.0535802841186523,2.4959492683410645,-2.1721627712249756,-0.837689220905304,-0.5523278713226318,-0.5065521001815796,-0.6620717644691467,-0.5114843845367432,-0.01494753360748291,0.07779741287231445,-0.623468554262058,0.030997098031972085,0.4098820712119203,0.6650736706647893,0.5311811761977685,-0.6952741418981878,-1.4388537130483667
1784373784177735168,1.063500165939331,2.875635862350464,-2.117307186126709,-1.0200127363204956,-0.5610102415084839,-0.5291131138801575,-0.6366371512413025,-0.6170140504837036,-0.17669743299484253,0.057154178619384766,-0.6164653496010908,0.027634713602638028,0.425344255475441,0.6620340928412104,0.557555042845308,-0.7223356475140457,-1.4266476878287455
1784373784187655168,1.0734202861785889,3.344655752182007,-2.356215476989746,-0.918149471282959,-0.5696008801460266,-0.5539441108703613,-0.6072073578834534,-0.4972020387649536,-0.28701353073120117,0.0656576156616211,-0.60869982460731,0.02343535657269584,0.44254616711966277,0.6580944009952606,0.5870941815439094,-0.7534527278756223,-1.4106940130706531
1784373784197575168,1.0833401679992676,3.851910352706909,-2.4315903186798096,-0.6552190184593201,-0.5794147849082947,-0.5794730186462402,-0.573140025138855,-0.3935924172401428,-0.1735634207725525,0.011433541774749756,-0.6012475249289403,0.01866153249244437,0.46160776900264155,0.6519749341778285,0.6180818960690461,-0.7908423023662329,-1.3867374236890417
1784373784207494144,1.093259334564209,4.308051586151123,-2.605931520462036,-0.7239815592765808,-0.5892554521560669,-0.6057978868484497,-0.5345903038978577,-0.5299461483955383,-0.14284402132034302,0.03604000806808472,-0.5934031852652039,0.01316023123429194,0.4822153500565316,0.6443350713281228,0.6507683244335237,-0.8340009770563367,-1.3563429287746187
1784373784217414144,1.1031792163848877,4.652400016784668,-2.9125750064849854,-0.5771341323852539,-0.5992699265480042,-0.6326054334640503,-0.49059760570526123,-0.35568612813949585,-0.3349238634109497,0.03913581371307373,-0.5848096361682248,0.007122246612402539,0.5046290424396781,0.6350563516256255,0.6849127490773985,-0.8847811444376612,-1.3185336800859864
1784373784227334144,1.1130993366241455,4.595221996307373,-3.159937620162964,-0.5013296604156494,-0.6100072860717773,-0.6572368741035461,-0.4426407516002655,-0.2535333037376404,-0.36371344327926636,0.08241128921508789,-0.5754091385403806,0.001995706829369498,0.5278973751195083,0.624679709547582,0.7171466980897957,-0.9430740692418969,-1.2752186457148333
1784373784237254144,1.1230192184448242,4.51464319229126,-3.26986026763916,-0.5165484547615051,-0.6200900077819824,-0.6791383028030396,-0.39275887608528137,-0.2710689902305603,-0.4195707440376282,0.021344691514968872,-0.5652912543000199,-0.002342061502212729,0.5510127737809664,0.6138609216095303,0.7465880508351048,-1.006186411656943,-1.2285474249951267
1784373784247173120,1.1329381465911865,4.476818561553955,-3.316744327545166,-0.5673109292984009,-0.628325343132019,-0.6991229057312012,-0.34122467041015625,-0.2568064332008362,-0.5277599692344666,0.10642245411872864,-0.5541503926204085,-0.006397476988794659,0.573887390306703,0.6029341194054935,0.7741700565816788,-1.0732891765604082,-1.1792477021940964
1784373784257093120,1.1428582668304443,5.1434478759765625,-3.248311996459961,-0.5172271728515625,-0.6349181532859802,-0.7172349691390991,-0.28714627027511597,-0.24673467874526978,-0.4023939371109009,0.021032989025115967,-0.54288650252624,-0.011166966855059877,0.5969105136831725,0.5906330880162233,0.7998261980654766,-1.1460669436366626,-1.122456247177265
1784373784267013120,1.152778148651123,6.216270446777344,-3.245938539505005,-0.6381580829620361,-0.6391149759292603,-0.7351800799369812,-0.22592538595199585,-0.32147151231765747,-0.3291051983833313,-0.07012563943862915,-0.5310251926220901,-0.018527703566795166,0.621847274036,0.5753042387034054,0.825932326971562,-1.2310093382953162,-1.0498739725458002
1784373784276933120,1.1626982688903809,7.608395099639893,-3.322392702102661,-0.8666999936103821,-0.6396376490592957,-0.7531001567840576,-0.15396077930927277,-0.22327739000320435,-0.3760807514190674,-0.19841045141220093,-0.5176865893081827,-0.029741445796604503,0.6497192159397989,0.5558606233688488,0.8527616069301867,-1.3345895890958395,-0.9545221384877611
1784373784286853120,1.1726181507110596,8.967604637145996,-3.375725030899048,-0.8720614314079285,-0.6368346810340881,-0.767775297164917,-0.07044617086648941,-0.035360753536224365,-0.513383150100708,-0.2517889142036438,-0.5027981537482467,-0.044470602614541714,0.6802935257708799,0.531429280979701,0.8753616558395488,-1.4606250069317763,-0.8325251709636045
1784373784296772352,1.182537317276001,10.063834190368652,-3.4003922939300537,-1.0043693780899048,-0.6303773522377014,-0.7759236097335815,0.023807337507605553,-0.004784941673278809,-0.5730142593383789,-0.282977819442749,-0.48624312006755427,-0.06254061591657568,0.7127358136059306,0.501661131439348,0.8881778860817349,-1.6085451875247452,-0.6841846689806719
1784373784306692096,1.1924571990966797,11.482691764831543,-3.4542107582092285,-0.9118184447288513,-0.6204392313957214,-0.7737786769866943,0.12775564193725586,0.09134078025817871,-0.5565281510353088,-0.29439687728881836,-0.4676397354670352,-0.08316386306744383,0.7462985926314432,0.4662994513844232,0.8847848270998467,-1.7738696037441377,-0.5149837173028687
1784373784316612352,1.2023773193359375,13.257521629333496,-3.421806812286377,-0.8494818806648254,-0.6072683930397034,-0.7564862966537476,0.24280264973640442,0.16422957181930542,-0.48457181453704834,-0.2369890809059143,-0.44671771329661375,-0.10694751088718646,0.7810016349554615,0.42313331756477807,0.8579237707036181,-1.9511540365643065,-0.3284855563000479
1784373784326532096,1.2122972011566162,15.2117280960083,-3.197540283203125,-0.4101391136646271,-0.5925645232200623,-0.7172045111656189,0.36672264337539673,0.2529038190841675,-0.3792007565498352,-0.01508370041847229,-0.42384722550659865,-0.1336890510883808,0.8157748182071388,0.3701248255468926,0.7997824298198232,-2.1249781271026347,-0.13766723722138022
1784373784336451072,1.2222161293029785,17.040693283081055,-2.7432162761688232,0.22903865575790405,-0.578902542591095,-0.6488498449325562,0.49382755160331726,0.33254939317703247,-0.4629207253456116,0.30204030871391296,-0.3993811600123112,-0.1620917739788038,0.8489051941405567,0.30590990550694364,0.706071884718351,-2.277053156889236,0.040556686524404355
1784373784346371072,1.2321362495422363,18.8011531829834,-2.5514378547668457,1.5047990083694458,-0.5694023370742798,-0.5447399616241455,0.6156618595123291,0.5146843194961548,-0.823775053024292,0.5448912382125854,-0.37347433107928546,-0.18928360805385833,0.8786368059671367,0.22953446021954402,0.5760790302321768,-2.3952100996606602,0.19339464106249016
1784373784356291072,1.242056131362915,19.221229553222656,-2.4927515983581543,2.5114359855651855,-0.5624211430549622,-0.40615999698638916,0.7202197313308716,0.6731083989143372,-1.2100356817245483,0.6749065518379211,-0.3452455978496147,-0.21200662683737104,0.9028638062461544,0.14385962368340502,0.41824789913070864,-2.4786057143798947,0.3154391389695746
1784373784366211072,1.2519762516021729,18.771944046020508,-2.392608642578125,2.828965187072754,-0.5527219772338867,-0.24786366522312164,0.7956516742706299,0.6474028825759888,-1.468841552734375,0.5008416771888733,-0.31466412817958433,-0.22961103063355923,0.9192957109613293,0.05621856000846164,0.2504744911271313,-2.5344472179597606,0.41068693987017946
1784373784376130048,1.2618951797485352,17.871061325073242,-1.8224990367889404,2.54270339012146,-0.5401544570922852,-0.0837206169962883,0.8373910784721375,0.6715784668922424,-1.1676678657531738,0.07834982872009277,-0.28359794944669003,-0.24436346967521996,0.9268128292555051,-0.029607564104709744,0.08381872871182701,-2.568709016126936,0.490885119249367
1784373784386050304,1.271815299987793,16.12041473388672,-1.0383033752441406,2.7808008193969727,-0.5285242199897766,0.07310301810503006,0.8457648754119873,0.5326746106147766,-0.7667675614356995,-0.008667707443237305,-0.2550473710344959,-0.25556453725518924,0.9260503276240615,-0.10985641735428094,-0.07316828397226152,-2.583060374256597,0.5595307976984298
1784373784395970048,1.2817351818084717,14.296381950378418,0.03339004889130592,2.8646061420440674,-0.520014762878418,0.21446684002876282,0.8267942070960999,0.35251903533935547,-0.7356460094451904,-0.12388288974761963,-0.23105149520126655,-0.26110074338524547,0.9193603848874194,-0.1822583812209163,-0.216145932217382,-2.5801557207977495,0.6159781520241877
1784373784405890304,1.2916553020477295,12.091727256774902,0.9599605202674866,2.7766077518463135,-0.5167691111564636,0.3347979485988617,0.7879465818405151,0.3509060740470886,-0.6631671190261841,-0.1918315887451172,-0.2134072509558966,-0.26240227904537733,0.9083602471109649,-0.2459349456298301,-0.3413908059100405,-2.5611209677374203,0.6653123717402661
1784373784415809280,1.3015742301940918,9.878528594970703,1.2738583087921143,2.7102763652801514,-0.5149028897285461,0.43254438042640686,0.7401221990585327,0.6624705195426941,-0.2904697060585022,-0.3317663073539734,-0.20050374874749813,-0.2598083100050653,0.8958575405342569,-0.29956183696215843,-0.4473129060942395,-2.5337585219505185,0.7069727164911567
1784373784425729280,1.3114943504333496,7.795368671417236,1.5473042726516724,2.5947306156158447,-0.512431263923645,0.5085712671279907,0.6919318437576294,0.8695936799049377,0.06859248876571655,-0.22994142770767212,-0.19120320885058642,-0.25446889578196646,0.883861707034449,-0.3427469521554088,-0.5335246336022086,-2.504147318267745,0.7405095747739704
1784373784435649280,1.3214142322540283,5.733524799346924,1.8743584156036377,2.6002492904663086,-0.5100081562995911,0.566707968711853,0.6470963954925537,0.8151076436042786,-0.23788106441497803,-0.1376512050628662,-0.18566278294539654,-0.24640282412550807,0.8734036009901186,-0.3768038304476957,-0.6025047709458626,-2.4741200504468033,0.7645641969005974
1784373784445569280,1.3313343524932861,3.5322399139404297,2.1256186962127686,2.642484664916992,-0.5071566104888916,0.6089603304862976,0.6098847985267639,0.7835391163825989,-0.5240910053253174,0.036904752254486084,-0.1836093265534047,-0.2355787786438071,0.8657049344397273,-0.4016780114984876,-0.6547492298453497,-2.4479010378779416,0.775656357775762
1784373784455489280,1.3412542343139648,1.4345252513885498,2.1396374702453613,2.732726812362671,-0.5033027529716492,0.6368470191955566,0.5840480923652649,0.787970781326294,-0.4644075036048889,0.1873294711112976,-0.18467635477876476,-0.2217937947555928,0.8618767695283717,-0.4169779039031498,-0.6904017753892443,-2.4303172375453124,0.7693070328872426
1784373784465408000,1.3511731624603271,0.14567701518535614,2.1324262619018555,2.965874671936035,-0.4972901940345764,0.655346155166626,0.5685281157493591,0.7689423561096191,-0.5968896746635437,0.06046980619430542,-0.18695123183021933,-0.20609517238989472,0.8612716387729815,-0.42518851844395794,-0.7146407821467573,-2.4229339356676367,0.7484188873096941
1784373784475328256,1.361093282699585,-0.5996032953262329,1.7887144088745117,3.035719394683838,-0.4884726107120514,0.6687150597572327,0.5605481863021851,0.553337812423706,-0.327894926071167,-0.1759963035583496,-0.18926368504254903,-0.1886757315375786,0.8629458589430482,-0.4288415117987784,-0.7324792874027559,-2.424794161180347,0.7158879715789052
1784373784485248000,1.3710131645202637,-1.2361232042312622,1.8708748817443848,3.2958006858825684,-0.4774557650089264,0.6786516904830933,0.5580928325653076,0.45674964785575867,-0.10310548543930054,-0.2593105435371399,-0.19113025068854986,-0.1704656433140398,0.8660184047336545,-0.4294446631796737,-0.7459252795957968,-2.4339066167917967,0.6757855325747409
1784373784495168256,1.3809332847595215,-1.2932994365692139,1.707788109779358,3.2720532417297363,-0.46494755148887634,0.68703693151474,0.5583938956260681,0.352871835231781,-0.24291473627090454,-0.2856736183166504,-0.19282684288578847,-0.151165277714348,0.8696815562152037,-0.42850994754144783,-0.7574033091397862,-2.447256875180969,0.6301736532160424
1784373784505087232,1.3908522129058838,-1.0742501020431519,1.6470600366592407,3.3616816997528076,-0.4514407515525818,0.6952986121177673,0.5592505931854248,0.4042605757713318,-0.23687881231307983,-0.1239936351776123,-0.19383684893057654,-0.13213990247105634,0.8730202399623079,-0.42755354430228115,-0.7688353208207479,-2.4624620514957902,0.5843252553283107
1784373784515007232,1.4007723331451416,-0.3925657570362091,1.5393667221069336,3.367037773132324,-0.43692970275878906,0.7060021758079529,0.557362973690033,0.3725986182689667,-0.04398435354232788,-0.07097375392913818,-0.19404690997898844,-0.1135318026750297,0.8750954406436592,-0.4285607850176264,-0.7838372489508187,-2.4767319110442343,0.5414955266995602
1784373784524927232,1.4106922149658203,-0.09141521900892258,1.5130411386489868,3.4583113193511963,-0.4208984971046448,0.719576358795166,0.5523169040679932,0.33442702889442444,0.07629144191741943,0.08157885074615479,-0.19338209149302285,-0.09512906216615805,0.8758475337220031,-0.4317925555178932,-0.8031920795380113,-2.490417839125163,0.5011811424700994
1784373784534847232,1.4206123352050781,-0.42668548226356506,1.4309422969818115,3.507363796234131,-0.40408626198768616,0.732454240322113,0.5479276776313782,0.20836186408996582,-0.04318428039550781,0.20394903421401978,-0.192463521150258,-0.076756357643975,0.8763973338207796,-0.4347342409859485,-0.8219198762120916,-2.506151924940012,0.45939693288885736
1784373784544766208,1.4305312633514404,-1.1418979167938232,1.456772804260254,3.581345796585083,-0.38579532504081726,0.7422599792480469,0.5479158163070679,0.09221628308296204,-0.060299038887023926,0.12019014358520508,-0.1912744907291343,-0.05739638661903512,0.877874461412606,-0.43526549617740795,-0.8364366544867194,-2.5281108174075224,0.41027849318212134
1784373784554685952,1.4404511451721191,-2.196993827819824,1.6082643270492554,3.678497791290283,-0.3675973415374756,0.7467396259307861,0.5543034076690674,-0.045305490493774414,-0.04620862007141113,0.003298521041870117,-0.19065837954387288,-0.0367428196521507,0.8807960408689375,-0.4318538211930983,-0.843146525315994,-2.5560147782810088,0.3521326867393287
1784373784564606208,1.450371265411377,-2.909193515777588,1.841832160949707,3.888841152191162,-0.3491233289241791,0.7457700967788696,0.5673974752426147,-0.11747518181800842,-0.07046186923980713,-0.09130799770355225,-0.1903963858324348,-0.014214731554224185,0.8851534828463666,-0.4243235637105028,-0.841690037968941,-2.589994365967407,0.2841175212516945
1784373784574525952,1.4602911472320557,-2.9167704582214355,1.5710073709487915,3.805631399154663,-0.3303142786026001,0.7419179081916809,0.5834814310073853,-0.19043773412704468,0.021692991256713867,-0.13276726007461548,-0.18998874483520375,0.009363442761543264,0.8897488590015197,-0.4149260904792194,-0.8359263344893382,-2.6264656255841663,0.21187592945889153
1784373784584446208,1.4702112674713135,-2.6176655292510986,1.2498682737350464,3.611705780029297,-0.3114258944988251,0.7374612092971802,0.5993036031723022,-0.06029343605041504,0.20309048891067505,-0.14678889513015747,-0.1883434013380322,0.031051206077216495,0.8936932435732458,-0.406047949495172,-0.8293035835167852,-2.662351812356636,0.14479609776697985
1784373784594365184,1.4801301956176758,-2.410022497177124,0.8601068258285522,3.4725518226623535,-0.29187679290771484,0.7331143617630005,0.6142894625663757,-0.046135932207107544,0.12201875448226929,-0.17216604948043823,-0.18550614399319074,0.051375325762559994,0.896942195379219,-0.39804877427137564,-0.8228899516415352,-2.6980256933387587,0.0817247439597166
1784373784604285184,1.4900503158569336,-2.5415563583374023,0.4506971836090088,3.3733417987823486,-0.27104198932647705,0.7273593544960022,0.6304636001586914,0.023925960063934326,-0.05536240339279175,-0.22818100452423096,-0.18086627132206773,0.06999003946409593,0.9001850856290777,-0.3899429618482601,-0.8144661614578903,-2.7355713672391246,0.021928069615853044
1784373784614205184,1.4999701976776123,-3.0443782806396484,0.2754523754119873,3.4809982776641846,-0.24875010550022125,0.7188356518745422,0.6491519808769226,0.009873807430267334,-0.1562594771385193,-0.22297418117523193,-0.17485322553384144,0.08840996932972989,0.9037475687955854,-0.38059195840138943,-0.8021259766420283,-2.775659017480689,-0.03842414770472183
1784373784624125184,1.5098903179168701,-3.495783805847168,0.48481518030166626,3.6462526321411133,-0.2255241870880127,0.7055719494819641,0.6717939972877502,-0.1833503395318985,-0.08879643678665161,-0.27468395233154297,-0.16806653142436775,0.10803474195290581,0.9078686597464001,-0.36858739111831623,-0.7832299053650082,-2.817709688335161,-0.10215953703436582
1784373784634044160,1.5198092460632324,-3.7395734786987305,0.578711986541748,3.309868812561035,-0.205284982919693,0.6884863376617432,0.6955892443656921,-0.5483008027076721,-0.045786261558532715,-0.3998587131500244,-0.1622448581193067,0.12768470265284673,0.9118614077244269,-0.3547984301744442,-0.7593999247183794,-2.8546153511379035,-0.16305619926141898
1784373784643964160,1.5297291278839111,-3.889397144317627,0.6072975993156433,3.2245097160339355,-0.1872730702161789,0.6681138873100281,0.7201061844825745,-0.5984172821044922,-0.0493088960647583,-0.4363078474998474,-0.15661944254051738,0.14654514864326088,0.9157388409266946,-0.3397312676733609,-0.731670978128324,-2.8871654630275563,-0.21945108578067432
1784373784653884160,1.539649248123169,-4.485093593597412,0.61578768491745,2.832500696182251,-0.17177100479602814,0.6433833241462708,0.7460245490074158,-0.6570711135864258,-0.07883870601654053,-0.32991737127304077,-0.15115492114851753,0.16465693118071487,0.9197284237879384,-0.3227071671065443,-0.698909598289806,-2.915288294243756,-0.2715279070500152
1784373784663804160,1.5495691299438477,-4.948575496673584,0.632367730140686,2.315463066101074,-0.1603298783302307,0.6116774678230286,0.7746905088424683,-0.6394138336181641,-0.09719681739807129,-0.26019442081451416,-0.1458567105265131,0.18086556608737736,0.9244635688608589,-0.30229234908370034,-0.6581792280671936,-2.9375139131860766,-0.31649793952806327
1784373784673724160,1.5594892501831055,-5.112298965454102,0.6946538686752319,1.9659212827682495,-0.15302330255508423,0.5754051208496094,0.8034255504608154,-0.5535501837730408,0.03900521993637085,-0.256672739982605,-0.141136226531304,0.1952075940929156,0.929304460233444,-0.27994237339513,-0.6130993967118968,-2.953383335219593,-0.3543628569352031
1784373784683644160,1.5694091320037842,-4.924776077270508,0.7728543877601624,1.7842209339141846,-0.14929671585559845,0.5375874638557434,0.8298858404159546,-0.6049147248268127,0.21468615531921387,-0.20126938819885254,-0.1372919625434045,0.20804246800550175,0.9336280087376443,-0.2573093116602307,-0.567573367917329,-2.963596287476222,-0.3864605756908874
1784373784693563904,1.579329013824463,-5.047730445861816,0.8998645544052124,1.507556676864624,-0.14760781824588776,0.4983065128326416,0.8543434739112854,-0.7465419769287109,0.3480374813079834,-0.06953811645507812,-0.13382740734577767,0.22035114258167168,0.9373457719998927,-0.2343470630193236,-0.521644393510006,-2.970508236367916,-0.41600885091889817
1784373784703484160,1.5892491340637207,-4.769425392150879,0.7642809152603149,0.9641544222831726,-0.1488000452518463,0.457953542470932,0.8764342069625854,-0.8010442852973938,0.6556328535079956,-0.0979461669921875,-0.13080291196785432,0.23025112394832012,0.9408514948550942,-0.21136093258790975,-0.47569178127586687,-2.9734173869975886,-0.4391559126102163
1784373784713403904,1.5991690158843994,-4.608920574188232,1.0448554754257202,0.8337174654006958,-0.1527668535709381,0.4179971218109131,0.8955115079879761,-0.8131603002548218,0.7823050022125244,-0.010745882987976074,-0.1286151776301564,0.23825901408457276,0.9439218146875862,-0.18895085515666085,-0.4312394714390193,-2.9726274447138565,-0.45740704556822465
1784373784723323136,1.6090881824493408,-4.1855244636535645,0.8692975044250488,0.4622589647769928,-0.15860451757907867,0.37958842515945435,0.9114588499069214,-0.7047683000564575,0.37611836194992065,-0.08112132549285889,-0.12718730636559958,0.24502420006866277,0.9464103550319772,-0.1676125339620211,-0.3893513701369666,-2.969306068074281,-0.47262078491010606
1784373784733242880,1.6190080642700195,-3.3205103874206543,0.2859916388988495,0.537070095539093,-0.16283954679965973,0.3466389775276184,0.9237555861473083,-0.4824240803718567,0.2538553774356842,-0.07558071613311768,-0.12534896767010772,0.2501688639520764,0.9483107805490562,-0.14969890023103302,-0.35398553770342905,-2.967105386240079,-0.4845706360456957
1784373784743163136,1.6289281845092773,-2.1476945877075195,0.10777156800031662,0.9804919958114624,-0.16153085231781006,0.3207552134990692,0.9332867860794067,-0.34567129611968994,0.7717435956001282,0.09326362609863281,-0.121963302098811,0.257230094173434,0.9489341750107788,-0.13594722999742678,-0.32652671786371285,-2.9702130599014214,-0.5011239894777604
1784373784753082880,1.638848066329956,-2.275972366333008,0.07609973847866058,0.8314403295516968,-0.1607920527458191,0.3023008704185486,0.9395532608032227,-0.8386128544807434,0.8007875680923462,0.2791510820388794,-0.11998710274277699,0.2654232058350633,0.9483286094619293,-0.1258035205923643,-0.3071055478071156,-2.9720979189997863,-0.5195102901796876
1784373784763001856,1.6487669944763184,-2.735761880874634,0.22355176508426666,0.8235043287277222,-0.16103480756282806,0.27984440326690674,0.9464431405067444,-0.9133517742156982,0.4990404546260834,0.39555197954177856,-0.11746979845849001,0.2712482341934181,0.9484966913564256,-0.11392631162151301,-0.283632040193064,-2.973059274674113,-0.5329668071971789
1784373784772922112,1.6586871147155762,-1.417694091796875,0.37553322315216064,0.7143169641494751,-0.16048970818519592,0.2600581645965576,0.952161967754364,-0.5670645833015442,0.7206088900566101,-0.058195531368255615,-0.1147388566660421,0.27584494552229366,0.9486783155319432,-0.10370105496123778,-0.2630824261523722,-2.9746092372840414,-0.5437873106635505
1784373784782841856,1.6686069965362549,-1.6167962551116943,0.18904271721839905,0.6571477055549622,-0.1609865427017212,0.24561159312725067,0.9559069871902466,-0.6194089651107788,0.8525939583778381,0.15249139070510864,-0.11320181047451129,0.2797658219877978,0.9485170392195789,-0.09608240277335815,-0.24815055560742455,-2.9747459487301184,-0.5527799934917629
1784373784792762112,1.6785271167755127,-0.48572391271591187,-0.23285484313964844,0.8115546703338623,-0.15943287312984467,0.23723801970481873,0.9582793116569519,-0.33205270767211914,0.4333399832248688,-0.1263090968132019,-0.11157876523610999,0.2840156302376829,0.9478791008380806,-0.0917088404136392,-0.23952170487719882,-2.9767286399649664,-0.5623560864897903
1784373784802681856,1.6884469985961914,0.2446722388267517,-0.877777636051178,0.6216803193092346,-0.15081660449504852,0.23604874312877655,0.959966242313385,0.07469052076339722,0.49116986989974976,-0.021352410316467285,-0.10745493964057107,0.28686679670210036,0.9474653349630048,-0.09203409935348858,-0.23829767119817225,-2.985760268713006,-0.5693045947187687
1784373784812601088,1.6983661651611328,1.4696826934814453,-0.052597980946302414,1.2483454942703247,-0.1449708789587021,0.2480335384607315,0.9578428268432617,0.11872576177120209,0.5628185272216797,-0.03560161590576172,-0.10688658675977689,0.2909936225482325,0.945644816657456,-0.09825407307530475,-0.25064983482261627,-2.9913812805071354,-0.5780885720459769
1784373784822521088,1.7082860469818115,2.2671854496002197,-0.7906848192214966,0.1237458884716034,-0.1395898014307022,0.26590409874916077,0.9538394808769226,0.2799859046936035,0.7359880208969116,0.06605803966522217,-0.1074221482295611,0.29393387695647344,0.9436750640260954,-0.10742790740997224,-0.26914165624942127,-2.996279015464175,-0.5841988447145802
1784373784832441088,1.7182061672210693,1.9367262125015259,-0.20201703906059265,-0.5996661186218262,-0.1337098926305771,0.285963237285614,0.9488663673400879,0.000210687518119812,0.23462095856666565,0.20831477642059326,-0.10729062883279539,0.2900020084846249,0.9435740638127585,-0.11855680112971066,-0.2900114959142696,-3.001599015834205,-0.5758857763257303
1784373784842361088,1.728126049041748,1.4863862991333008,0.31712839007377625,-0.1910775601863861,-0.13843834400177002,0.3014692962169647,0.9433725476264954,0.32613667845726013,-0.39447158575057983,0.21136713027954102,-0.1117804716908913,0.28760562475300383,0.9428516718283847,-0.12577372002359868,-0.3062332823844122,-2.995884324462408,-0.569619638574923
1784373784852280064,1.7380452156066895,0.42905911803245544,-0.4633719325065613,-0.317918062210083,-0.1387370228767395,0.30856257677078247,0.941031813621521,1.3083232641220093,0.14119020104408264,0.06453752517700195,-0.11295444016826484,0.2867851496466328,0.9424808712962321,-0.12932638029719215,-0.31368151467165567,-2.9952163627645834,-0.567582947963813
1784373784862200064,1.7479650974273682,0.8610113263130188,-0.35157591104507446,-0.8293299674987793,-0.1356123387813568,0.3140186667442322,0.9396815896034241,0.5234602689743042,0.17066147923469543,-0.34487879276275635,-0.1117489109362525,0.2828955090927979,0.9432979016984859,-0.132933682768198,-0.3194228511657124,-2.9982649059046182,-0.5596047063064586
1784373784872120064,1.757885217666626,1.4134142398834229,0.18242552876472473,-0.5974136590957642,-0.13859423995018005,0.32344919443130493,0.9360407590866089,0.22999437153339386,-0.30924326181411743,-0.1840876340866089,-0.11421378543021261,0.2794160415631147,0.94337005008897,-0.13760393506314797,-0.329372359226112,-2.9945963291616646,-0.5514416458118266
1784373784882040064,1.7678050994873047,1.300358772277832,0.01868719421327114,-0.20769944787025452,-0.1410868614912033,0.33401042222976685,0.9319504499435425,0.4586833119392395,-0.29264384508132935,0.05872642993927002,-0.11671112072517068,0.27670781190285254,0.9430843060154748,-0.14284017441444394,-0.3405551502346568,-2.9913447342661255,-0.544913766805851
1784373784891960064,1.7777252197265625,1.4246082305908203,-0.02641652151942253,0.35175821185112,-0.13981230556964874,0.3467673063278198,0.9274722933769226,0.40119537711143494,-0.22266757488250732,-0.12237286567687988,-0.1181191584603556,0.2768042085388581,0.9418681325837859,-0.14937098745674068,-0.3541223503694737,-2.991973657623674,-0.5448605075043366
1784373784901879040,1.7876441478729248,1.0270541906356812,0.12065389007329941,0.08766424655914307,-0.13937443494796753,0.35868024826049805,0.9229966998100281,0.02562020719051361,0.1554187834262848,0.026939034461975098,-0.11989319344471411,0.2773185041644255,0.940527941133974,-0.15532926904348793,-0.3668536699264884,-2.9917228094677357,-0.5456051555716518
1784373784911799040,1.7975640296936035,1.464286208152771,-0.07453420758247375,-0.09069683402776718,-0.1395132839679718,0.36903467774391174,0.9188852310180664,-0.06675507128238678,0.20489424467086792,0.039901018142700195,-0.12151468906595639,0.2766140533872745,0.9396420989919239,-0.1605980319967552,-0.3779701806525848,-2.990914577073397,-0.5437177210329093
1784373784921719040,1.8074841499328613,0.6382479071617126,-0.30659833550453186,-1.0758819580078125,-0.13934117555618286,0.3774842321872711,0.9154723882675171,0.05718784034252167,0.24708852171897888,0.3725067377090454,-0.12226406909212144,0.2735599097247031,0.9396282145367495,-0.16527342086103491,-0.3870780242522658,-2.9905451175263207,-0.5369521802731633
1784373784931639040,1.81740403175354,0.8366278409957886,0.039675869047641754,-0.9211440682411194,-0.14187733829021454,0.38283413648605347,0.9128573536872864,0.21069447696208954,0.06581997871398926,0.1861720085144043,-0.12335823524366127,0.26778584162751023,0.94059525102031,-0.16838644097885166,-0.3928622240322978,-2.987405122027134,-0.5239787149367104
1784373784941558016,1.8273231983184814,0.47924840450286865,0.19708067178726196,-0.7453139424324036,-0.1466285139322281,0.38700932264328003,0.9103426933288574,0.3860083818435669,0.09243708848953247,0.3884396553039551,-0.12569058680061188,0.26389775682403244,0.941025677784895,-0.17038345313025288,-0.3973859735223495,-2.9818946835319604,-0.51460560966221
1784373784951478016,1.8372430801391602,0.027691727504134178,0.30554842948913574,-1.0547775030136108,-0.15217435359954834,0.3881387710571289,0.9089504480361938,0.3866562247276306,0.06460464000701904,0.4676820635795593,-0.12784929735233408,0.2595179818287441,0.941873469798985,-0.1708193253564744,-0.39861116414448916,-2.9757133743222077,-0.5041454116197641
1784373784961398016,1.847163200378418,-0.659652054309845,0.5319333672523499,-0.7047430276870728,-0.15916089713573456,0.38304081559181213,0.9099159836769104,0.48418837785720825,-0.08041331171989441,0.4814106822013855,-0.12988208526756762,0.2557119026199182,0.9431698718269247,-0.1678467734133864,-0.393085956917393,-2.9684263143592444,-0.4949474701594569
1784373784971318016,1.8570830821990967,-0.850238025188446,0.3221164047718048,-1.2149388790130615,-0.16637055575847626,0.3752173185348511,0.9118842482566833,0.48056426644325256,0.1599237322807312,0.2706567049026489,-0.13165961262812823,0.2519838754360567,0.9446937292589574,-0.1634736785892139,-0.38463120974004406,-2.9611305077777934,-0.48610233290367055
1784373784981236992,1.867002010345459,-0.9994150400161743,0.6709601283073425,-1.1351007223129272,-0.17486175894737244,0.36427631974220276,0.9147275686264038,0.22477321326732635,0.2134520411491394,0.2878636121749878,-0.13353638475976792,0.24749403912324322,0.9466311245198684,-0.15749397566184778,-0.372855609784233,-2.952708796149532,-0.4757168999279509
1784373784991156992,1.8769221305847168,-1.398807168006897,0.6409052610397339,-0.6554309725761414,-0.18297161161899567,0.3522624969482422,0.9178411960601807,0.5244938135147095,-0.10606196522712708,0.18901604413986206,-0.13537318860853143,0.24448984256061035,0.9482327393324057,-0.15084258566679246,-0.3599874583631213,-2.944822201906801,-0.4687655480931256
1784373785001076992,1.8868420124053955,-2.0698225498199463,0.13132323324680328,-0.872352123260498,-0.18905311822891235,0.33526411652565,0.9229607582092285,0.5166746377944946,-0.1157817542552948,0.23809558153152466,-0.13570266680759405,0.24260997148361868,0.9500635674137168,-0.14178971158363252,-0.341885559918198,-2.9395540126116853,-0.4650443521747855
1784373785010996992,1.8967621326446533,-2.318828582763672,0.04729163646697998,-1.1150821447372437,-0.1926853507757187,0.3123798370361328,0.930210530757904,0.3967868685722351,0.06788450479507446,0.19974875450134277,-0.13380152400758105,0.2389997019689668,0.9528821660504194,-0.13035335489129582,-0.31769719354819836,-2.937339652444994,-0.45866399926814067
1784373785020916992,1.906682014465332,-2.1557083129882812,0.16773362457752228,-0.83249431848526,-0.19768819212913513,0.289834201335907,0.9364374876022339,0.3523207902908325,0.20595431327819824,0.08938020467758179,-0.1328688238964504,0.23619739192225112,0.9552117678586542,-0.11885723030809887,-0.29405358642489215,-2.933540769325465,-0.4538987614491019
1784373785030836224,1.9166011810302734,-1.184680461883545,-0.2255939543247223,-0.48549285531044006,-0.19956199824810028,0.2725759744644165,0.9412107467651367,0.4875715970993042,0.08565464615821838,-0.20160186290740967,-0.13128282603692218,0.23437539859452075,0.9569083294381314,-0.11027024628384446,-0.27606936329504733,-2.9326599692064184,-0.45127367908877036
1784373785040755968,1.9265210628509521,-0.47070881724357605,-0.4691626727581024,-0.4334413707256317,-0.19761237502098083,0.2640036940574646,0.9440612196922302,0.501521646976471,0.1373024880886078,-0.35620105266571045,-0.12897029876663482,0.23255064902674963,0.9580974924075731,-0.10647112590844621,-0.2671708193483177,-2.9352503184559735,-0.44840645803188656
1784373785050676224,1.93644118309021,0.8600487112998962,-0.7710121870040894,-0.7842807173728943,-0.1928565502166748,0.26467740535736084,0.9448556900024414,0.2583625316619873,0.09546053409576416,-0.6262521743774414,-0.12628492238190478,0.22906700838565555,0.9591434512472056,-0.10781598019674868,-0.2678693780953442,-2.9402462336745523,-0.4416464933997416
1784373785060595968,1.9463610649108887,1.7068511247634888,-0.7201356887817383,-0.8312093019485474,-0.18771886825561523,0.27545222640037537,0.9428088068962097,0.18541471660137177,-0.0643162727355957,-0.5985243320465088,-0.12451897540101343,0.22417909947888415,0.9597646186692586,-0.11441509205490805,-0.27906008680592076,-2.9450568734838285,-0.4312369797553134
1784373785070514944,1.956279993057251,2.457284688949585,-1.0005241632461548,-0.5089445114135742,-0.1814565807580948,0.29366907477378845,0.938526451587677,0.4150228500366211,0.19358980655670166,-0.6146587133407593,-0.12308337448798465,0.21946262542768352,0.9597392304926659,-0.12484884265009191,-0.29806289404948966,-2.9506071445850544,-0.42084685247292747
1784373785080434944,1.9662001132965088,2.667926788330078,-1.2807499170303345,-1.0466607809066772,-0.17383864521980286,0.3161625266075134,0.9326420426368713,0.42167192697525024,0.20176652073860168,-0.4592687487602234,-0.12124651688052462,0.21356600822164906,0.9595366512358902,-0.13776141763160946,-0.32168178820254517,-2.9573136045104254,-0.40802396988083667
1784373785090354944,1.9761199951171875,2.4685349464416504,-1.230641484260559,-0.8529531359672546,-0.16468168795108795,0.33918049931526184,0.9261947274208069,0.5127041339874268,-0.16321611404418945,-0.1910719871520996,-0.11832252133222494,0.20608935813441645,0.9594918140674429,-0.1513355596848152,-0.3460456060040778,-2.9656270265842735,-0.39232036848545493
1784373785100274944,1.9860401153564453,2.229917049407959,-1.2920135259628296,-0.5399627089500427,-0.1556149572134018,0.35896846652030945,0.9202855229377747,0.4078580141067505,-0.14847350120544434,0.07327514886856079,-0.11526798994778119,0.2008624811379003,0.9590604913018096,-0.16300454269855294,-0.3671624588651547,-2.9740829731666936,-0.381733040957771
1784373785110194944,1.995959997177124,1.89872407913208,-0.9511299133300781,-0.3966454565525055,-0.147263765335083,0.37715497612953186,0.9143673181533813,0.2776806354522705,-0.07641953229904175,0.03170818090438843,-0.11242891955876438,0.19643822614519374,0.9584339665290851,-0.17371269463015163,-0.38672247822967876,-2.9819085328695687,-0.37298419465073124
1784373785120114176,2.0058791637420654,1.8377728462219238,-0.9686309099197388,-0.6723097562789917,-0.14009396731853485,0.3930896818637848,0.9087651968002319,0.25955504179000854,0.2349162995815277,0.0003381967544555664,-0.10976924200881098,0.19161213182335288,0.9579495753543821,-0.18321603058362268,-0.4039893563818047,-2.988638118869953,-0.36345390402675715
1784373785130033920,2.015799045562744,1.9995970726013184,-0.9951660633087158,-0.48664405941963196,-0.13321955502033234,0.409821093082428,0.9023855924606323,0.29345208406448364,0.20725968480110168,-0.030696511268615723,-0.10726021044849585,0.18673041605516472,0.9572484187716831,-0.19313879275370086,-0.4222579218798605,-2.9950209462283635,-0.353833959322314
1784373785139954176,2.025719165802002,2.0859858989715576,-0.8749634623527527,-0.05308837071061134,-0.12651003897190094,0.4276154041290283,0.8950642347335815,0.3784937262535095,-0.026767075061798096,0.059891700744628906,-0.10530346819573269,0.18387404151796427,0.9558883057638541,-0.2034182437591777,-0.441853167771542,-3.001180895687842,-0.3484914301565384
1784373785149873920,2.0356390476226807,2.144233226776123,-0.8324074745178223,-0.22929106652736664,-0.1191100925207138,0.446681410074234,0.8867290019989014,0.1744537353515625,-0.017451733350753784,0.07802307605743408,-0.1030961845399609,0.18100889043798396,0.9542537814056703,-0.21449155625019087,-0.4630526950820321,-3.0080666612952487,-0.34339481630406915
1784373785159793152,2.045558214187622,1.9251232147216797,-0.7522657513618469,-0.4019363224506378,-0.11354021728038788,0.46420249342918396,0.8784217834472656,0.13890032470226288,-0.11662256717681885,0.16862112283706665,-0.10148627963312243,0.17764516609271053,0.9527082845051528,-0.22469911009528093,-0.4827340119941072,-3.0130505477890406,-0.33700893237064306
1784373785169712896,2.055478096008301,1.3167070150375366,-0.5088400840759277,-0.38946107029914856,-0.10970750451087952,0.47816455364227295,0.8713914752006531,0.21181932091712952,-0.32595813274383545,0.2596968412399292,-0.10027578622934448,0.17413979359896453,0.951509891618313,-0.23291431329385498,-0.49856368035269466,-3.0163523758708126,-0.3300996319811413
1784373785179633152,2.0653982162475586,0.8524437546730042,-0.6964619159698486,-0.17656582593917847,-0.10591666400432587,0.4869938790798187,0.8669597506523132,0.3208366632461548,-0.24849888682365417,0.28726106882095337,-0.09874402161150314,0.17176392170894358,0.9507770597111924,-0.2382643569172959,-0.5086446106252605,-3.02002486732463,-0.3258192813318053
1784373785189552896,2.0753180980682373,0.5466648936271667,-0.5973431468009949,-0.12058169394731522,-0.10095829516649246,0.493009477853775,0.8641468286514282,0.2129424810409546,-0.1070229709148407,0.27441853284835815,-0.09642272300754365,0.16997546844127853,0.9503587543582935,-0.24213513529644112,-0.5155454606285161,-3.0252898714233294,-0.3232714012503334
1784373785199471872,2.0852370262145996,0.24316968023777008,-0.47572967410087585,-0.03005259484052658,-0.09697732329368591,0.49616676568984985,0.862794041633606,0.1028519868850708,0.004016250371932983,0.23138302564620972,-0.09441605080766081,0.16874915899249865,0.9502214160444458,-0.24431227337736622,-0.5191781662909328,-3.0296632711426574,-0.3217585381344303
1784373785209392128,2.0951571464538574,-0.025243394076824188,-0.48147156834602356,0.0693950355052948,-0.09245757758617401,0.4974069595336914,0.8625762462615967,0.1376236081123352,-0.02287396788597107,0.16163939237594604,-0.09213381939547283,0.16837366676293308,0.9502307229720939,-0.24540415352261769,-0.5206071590023734,-3.034812630763113,-0.32227861153819326
1784373785219311872,2.105077028274536,-0.08884340524673462,-0.4012656807899475,0.2844415605068207,-0.08730346709489822,0.4967445135116577,0.863494336605072,0.2202380746603012,-0.10068750381469727,0.14085417985916138,-0.08948598072697506,0.16866124876373104,0.950421245850947,-0.24544846266899212,-0.5198437117980065,-3.0408302078263447,-0.3244444084211828
1784373785229232128,2.114997148513794,-0.27086594700813293,-0.6036542057991028,0.18678797781467438,-0.08162128925323486,0.495490163564682,0.8647702932357788,0.22561846673488617,-0.18660643696784973,0.09862399101257324,-0.08663636263783375,0.16946154353377932,0.9506144960971432,-0.24517147137434256,-0.518399057314823,-3.0474864987479373,-0.3278535335147188
1784373785239151872,2.1249170303344727,-0.5978446006774902,-0.6461318731307983,0.11648664623498917,-0.07607032358646393,0.4922330379486084,0.8671332001686096,0.27516698837280273,-0.2482297420501709,0.1017845869064331,-0.08339739747246037,0.16933341798633403,0.9512585310827029,-0.24388170799524944,-0.5146532475998525,-3.0540904353478577,-0.3292883663723862
1784373785249071104,2.134836196899414,-0.4263080060482025,-0.6485714316368103,0.09583449363708496,-0.07028838992118835,0.48750269412994385,0.8702879548072815,0.29607266187667847,-0.14823871850967407,0.013898015022277832,-0.07989984594321047,0.16925876647404625,0.9521005478788894,-0.2418101746470518,-0.5092272618928222,-3.0610030553735172,-0.33088704943901737
1784373785258991104,2.1447560787200928,-0.6173418164253235,-0.42253196239471436,0.26118776202201843,-0.06426715105772018,0.483644962310791,0.8729017972946167,0.2792176902294159,-0.20297473669052124,0.02193474769592285,-0.07656844650506656,0.16991769396201847,0.9526693416481998,-0.24018002863436644,-0.5048143630095611,-3.0681005330468354,-0.334044953551514
1784373785268911104,2.1546761989593506,-0.6334235072135925,-0.4588683247566223,0.07438546419143677,-0.059488795697689056,0.478301465511322,0.8761782646179199,0.22687771916389465,-0.16694599390029907,-0.012408971786499023,-0.07366932560382881,0.17038943387945193,0.9534445772113338,-0.23766275363497197,-0.4987195857394628,-3.0738009282360825,-0.33641489107895234
1784373785278831104,2.1645960807800293,-0.7626933455467224,-0.37364423274993896,0.22125986218452454,-0.05544201284646988,0.4725668728351593,0.8795493245124817,0.2826301157474518,-0.1422903835773468,0.018140554428100586,-0.07110506822252873,0.170854603839757,0.9542449224645921,-0.23488183998880036,-0.49220111531447225,-3.078641372498305,-0.33852146497693003
1784373785288749824,2.1745150089263916,-0.8625481128692627,-0.30442801117897034,0.32879549264907837,-0.051034145057201385,0.46543458104133606,0.8836098909378052,0.2232905924320221,0.029758960008621216,0.06415939331054688,-0.06839267163939167,0.1720603186073541,0.9550917257380912,-0.23133864771548562,-0.484125560175812,-3.083900325256972,-0.3422294051201964
1784373785298670080,2.1844351291656494,-0.5250493884086609,-0.34614297747612,0.2429191917181015,-0.04732508584856987,0.45955827832221985,0.8868860602378845,0.22312158346176147,0.1130431592464447,0.014420270919799805,-0.06612252996759492,0.17306599845996073,0.9557673289637857,-0.22844008618918996,-0.47749776823507945,-3.088282261354739,-0.34529075049071223
1784373785308589824,2.194355010986328,-0.3763573169708252,-0.3184625804424286,0.1455673724412918,-0.04322713986039162,0.45546942949295044,0.889201283454895,0.20953269302845,0.18881767988204956,0.12744593620300293,-0.06377829789613271,0.17378649029926713,0.9562420755140789,-0.22656491347863403,-0.47289943150765323,-3.0930174465071025,-0.3478470113268347
1784373785318510080,2.204275131225586,-0.027523193508386612,-0.33011895418167114,0.1365933120250702,-0.03944173827767372,0.4536430239677429,0.8903102874755859,0.15922322869300842,0.12411576509475708,0.11680030822753906,-0.061799503776691224,0.17435971349942261,0.9564276475959794,-0.22588867444165045,-0.47084896749383853,-3.0973204866795685,-0.35002439448638967
1784373785328429824,2.2141950130462646,0.010739906691014767,-0.23174457252025604,0.02059686928987503,-0.03678081929683685,0.4538578391075134,0.8903144598007202,0.10964154452085495,-0.03483635187149048,0.14732873439788818,-0.060406445547593196,0.17407887273922198,0.9564798806759375,-0.22626031160540408,-0.4710900202032529,-3.1003039636587055,-0.3501473874368381
1784373785338349056,2.224114179611206,-0.04862488433718681,-0.3317617177963257,-0.1852516382932663,-0.034813620150089264,0.453609824180603,0.8905202746391296,0.12119361758232117,-0.05328017473220825,0.13400065898895264,-0.059241800349044596,0.1734831404022016,0.9566419029247537,-0.2263411831981786,-0.47081170612616935,-3.1025189781439977,-0.3494196577090439
1784373785348269056,2.2340340614318848,-0.47471827268600464,-0.273463636636734,-0.14998212456703186,-0.03311481326818466,0.4514371156692505,0.8916881680488586,0.12128011137247086,-0.03717634081840515,0.2010546326637268,-0.05786932105070397,0.17228180051007247,0.9571640704614384,-0.22540412040830035,-0.4683752497249474,-3.104472497673461,-0.347313682513622
1784373785358189056,2.2439541816711426,-0.7535973191261292,-0.38543519377708435,-0.23650823533535004,-0.03131544217467308,0.4457123577594757,0.8946284055709839,0.13034498691558838,0.025738447904586792,0.1853734254837036,-0.05614665693284297,0.1713521596076811,0.9580984479542034,-0.22256097900343638,-0.4619698784284777,-3.106603086438376,-0.3457203158225981
1784373785368109056,2.2538740634918213,-1.0126588344573975,-0.23626458644866943,-0.2535390555858612,-0.029494216665625572,0.43790003657341003,0.8985397815704346,0.15078632533550262,0.052227526903152466,0.14564967155456543,-0.05412865275025041,0.1700620537539339,0.9593481006813721,-0.218632617770564,-0.4532615102711797,-3.108779825869382,-0.3433245008937067
1784373785378028032,2.2637929916381836,-1.4200880527496338,-0.024467390030622482,-0.41764116287231445,-0.02995624579489231,0.42692381143569946,0.9037913680076599,0.20567645132541656,0.15828126668930054,0.13459980487823486,-0.052963849931008035,0.16875560124498726,0.9609460046866322,-0.21283605916688086,-0.4410882560228249,-3.1084596933558357,-0.3402540396942164
1784373785387948032,2.2737131118774414,-1.1650376319885254,0.019406894221901894,-0.20636460185050964,-0.03053533285856247,0.4154350161552429,0.9091101288795471,0.28782904148101807,0.1942603588104248,0.0067986249923706055,-0.05185905847253345,0.16756720712331355,0.9625363812749342,-0.20677413417052656,-0.42842098070495505,-3.1080171195052193,-0.337418660479986
1784373785397868032,2.28363299369812,-1.1410130262374878,0.20214608311653137,-0.1329207569360733,-0.03230634331703186,0.4048376977443695,0.9138180613517761,0.24927105009555817,0.30202579498291016,0.08290159702301025,-0.051593542617013606,0.16698514530510364,0.9638594293422615,-0.20107028335661975,-0.4168013143899593,-3.1062542249367815,-0.33561354909729596
1784373785407788032,2.293553113937378,-0.7861899733543396,0.19809789955615997,-0.26301151514053345,-0.0353144146502018,0.3960700035095215,0.9175412058830261,0.292806476354599,0.2914605736732483,0.0989537239074707,-0.05211968429786709,0.16629693729895614,0.9649434848839911,-0.19624740129423504,-0.40723284576606555,-3.103123542891054,-0.33338031181875033
1784373785417708032,2.3034729957580566,-0.42438963055610657,0.3700680434703827,-0.029924996197223663,-0.03840593621134758,0.39038345217704773,0.9198508858680725,0.3438563942909241,0.19593551754951477,0.17289197444915771,-0.05310057145026606,0.16614860861363354,0.9655672291402464,-0.19301518366774267,-0.4010480478729961,-3.0998645405394636,-0.332326932571297
1784373785427627008,2.313392162322998,-0.3303353190422058,0.4588225185871124,-0.15221509337425232,-0.04242696240544319,0.38752883672714233,0.920880913734436,0.2428969293832779,0.03814566135406494,0.251039981842041,-0.054843742205297086,0.16610526770791162,0.9658413387063532,-0.191185219451164,-0.39794945243698254,-3.095553060845854,-0.3313424669404247
1784373785437547008,2.3233120441436768,-0.6914359927177429,0.6642342805862427,-0.22199496626853943,-0.048080090433359146,0.38290145993232727,0.9225369691848755,0.25689664483070374,-0.06632742285728455,0.3950745463371277,-0.05721276038105873,0.16592737865363744,0.9663004692999988,-0.18830329465304668,-0.39293507457947563,-3.089522514318337,-0.3297451432676177
1784373785447467008,2.3332321643829346,-1.0662267208099365,0.7670314311981201,-0.1988532990217209,-0.05511137843132019,0.3749120533466339,0.9254211187362671,0.1972927451133728,-0.19119614362716675,0.4094637632369995,-0.0599849386227888,0.165907773435048,0.9670497260462629,-0.1835521554113853,-0.38430191199880587,-3.0821101503640427,-0.3282377172604789
1784373785457387008,2.3431520462036133,-1.5570224523544312,0.7472068071365356,-0.3524756133556366,-0.0631222352385521,0.36256125569343567,0.9298198223114014,0.1873745620250702,-0.17854025959968567,0.45981335639953613,-0.06276603974441103,0.165513568166172,0.9682536678924277,-0.17649507326058525,-0.37101468744241534,-3.0738101261526953,-0.32588268717176705
1784373785467306240,2.3530712127685547,-1.7113832235336304,0.7444892525672913,-0.37520602345466614,-0.07141102105379105,0.34714749455451965,0.9350875616073608,0.28620901703834534,-0.09664401412010193,0.37902969121932983,-0.06538159705033818,0.16497755600274785,0.9697041787774703,-0.16787311211554007,-0.3545277349494034,-3.0653723250714053,-0.3233757247728169
1784373785477225984,2.3629910945892334,-1.8647027015686035,1.0089294910430908,-0.22567805647850037,-0.08049843460321426,0.3296585977077484,0.9406622052192688,0.28949806094169617,0.09299460053443909,0.445446252822876,-0.06828879136915349,0.16486341118445955,0.9711596924879612,-0.1581315407875152,-0.33594194157846075,-3.0562242950279743,-0.32182812398256744
1784373785487146240,2.372911214828491,-1.7215228080749512,1.1145716905593872,-0.1259264349937439,-0.09054581820964813,0.3129761517047882,0.9454349279403687,0.2981263995170593,0.1001860499382019,0.4038233757019043,-0.0718890209206302,0.16557403065787682,0.9722667847735404,-0.1487093049370478,-0.3183249944252832,-3.0461122632665294,-0.32201952171966014
1784373785497065984,2.38283109664917,-1.5960626602172852,1.1514812707901,-0.09619835764169693,-0.10161011666059494,0.29717063903808594,0.9494025707244873,0.36970701813697815,0.05713850259780884,0.43064820766448975,-0.07610251358311848,0.1664850834772368,0.9731310368433113,-0.13966811630853387,-0.3017280400536244,-3.034973182157604,-0.3226597273746969
1784373785506986240,2.3927512168884277,-1.497706651687622,0.9663653373718262,-0.09818803519010544,-0.11163368821144104,0.28261780738830566,0.9527148008346558,0.34759557247161865,0.10109499096870422,0.4221022129058838,-0.07989778829037365,0.16738377087298742,0.9738275313806719,-0.1313736875197943,-0.2865220872260188,-3.0249502408449005,-0.3235938873288153
1784373785516904960,2.40267014503479,-1.3463560342788696,1.054079532623291,-0.0034612638410180807,-0.12073679268360138,0.2690802812576294,0.9555202722549438,0.2103668749332428,0.22486203908920288,0.46232664585113525,-0.08330416787927065,0.16818758263528744,0.9744090857541062,-0.12369488306398217,-0.2724379729772725,-3.0159016403203136,-0.3245907539170723
1784373785526824960,2.4125900268554688,-1.1628117561340332,1.3177541494369507,-0.1011749729514122,-0.13201871514320374,0.25704050064086914,0.9573408961296082,0.08962978422641754,0.31627801060676575,0.5064806938171387,-0.08797522332262185,0.1693174211904985,0.9746804899373274,-0.11657616555075993,-0.25995855971090104,-3.0045554922897635,-0.3260581930747019
1784373785536744960,2.4225101470947266,-0.8983245491981506,1.3592666387557983,-0.19931991398334503,-0.14498749375343323,0.24723400175571442,0.9580466747283936,0.205564945936203,0.3088877499103546,0.5039891600608826,-0.09360747710968494,0.1696960017260483,0.9747956743870605,-0.11051770941595186,-0.24982459086347295,-2.9913958016559046,-0.32581819774530274
1784373785546664960,2.4324300289154053,-0.6526601910591125,1.5729373693466187,-0.14667508006095886,-0.15933957695960999,0.2395547777414322,0.9577184319496155,0.2304912805557251,0.1832052618265152,0.5087580680847168,-0.10013331665089291,0.17003236026935456,0.9746528743512357,-0.10542367369784224,-0.24190725433547408,-2.976728617493492,-0.32534868093614683
1784373785556584192,2.4423491954803467,-0.5191718935966492,1.7730454206466675,-0.22265852987766266,-0.17536674439907074,0.23405642807483673,0.9562764167785645,0.12730151414871216,0.07626160979270935,0.47122931480407715,-0.10771166256017792,0.17032628151137574,0.9742315745602904,-0.10129223154237085,-0.2362479306770559,-2.9602228948951517,-0.32458152566665704
1784373785566503936,2.4522690773010254,-0.37555667757987976,1.8145207166671753,-0.24176830053329468,-0.19266708195209503,0.22926978766918182,0.9541044235229492,0.21846963465213776,0.10390591621398926,0.4805881977081299,-0.1159946951418957,0.17042926948610138,0.9736560337737733,-0.09743277104175464,-0.23132742677063303,-2.9423372086459354,-0.3233442209748633
1784373785576424192,2.462189197540283,-0.18850022554397583,2.0319433212280273,-0.159438818693161,-0.21137069165706635,0.22626888751983643,0.9508551359176636,0.17391027510166168,0.12807077169418335,0.4631619453430176,-0.1251613340826772,0.17033874099220503,0.9728372282436017,-0.09437819611227558,-0.2282455182006661,-2.9228540092435606,-0.32150423374594594
1784373785586343936,2.472109079360962,-0.1655230075120926,2.103806972503662,-0.27260345220565796,-0.23144887387752533,0.22417908906936646,0.9466650485992432,0.1551244854927063,0.12855829298496246,0.49374914169311523,-0.13516771709844,0.17048666242638436,0.9717339291374681,-0.09163542180084354,-0.22610059761782425,-2.9018078159752396,-0.3200030784356753
1784373785596262912,2.482028007507324,-0.2175350785255432,2.114820957183838,-0.2465531975030899,-0.25151288509368896,0.22195693850517273,0.9420597553253174,0.21412882208824158,-0.04872387647628784,0.48340117931365967,-0.14515901876099171,0.1702693675745819,0.9705865390009021,-0.0888765033661103,-0.2238210196535283,-2.880696001061544,-0.31783958864538964
1784373785606183168,2.491948127746582,-0.3601456880569458,2.14013409614563,-0.2754422128200531,-0.2718597948551178,0.21833287179470062,0.9372422099113464,0.1968170702457428,-0.03155006468296051,0.4672529697418213,-0.15522358433525243,0.17029510174300072,0.9693403313559524,-0.08534940601858636,-0.22010580347106837,-2.859276622163243,-0.31641152281424667
1784373785616102912,2.5018680095672607,-0.29689109325408936,2.143192768096924,-0.25159040093421936,-0.29178479313850403,0.2148406207561493,0.9320436120033264,0.18688058853149414,0.049395859241485596,0.35726308822631836,-0.16511389347424776,0.17013407062451055,0.9680269720785272,-0.08194896828000997,-0.21652863717330234,-2.8381984711152435,-0.3147253242732699
1784373785626023168,2.5117881298065186,-0.2812079191207886,2.295360565185547,-0.3051624000072479,-0.31281301379203796,0.21121738851070404,0.9260319471359253,0.18761464953422546,0.06598903238773346,0.38068485260009766,-0.17560955615918644,0.16993536507337734,0.9665081215198902,-0.07839191106856237,-0.21282027725371033,-2.8158280681578898,-0.31298671236425873
1784373785635942912,2.5217080116271973,-0.024171605706214905,2.227187156677246,-0.25372156500816345,-0.33404409885406494,0.20909954607486725,0.9190709590911865,0.2637927532196045,0.07210463285446167,0.2979240417480469,-0.18640593446393725,0.16952614488250867,0.9647778804637935,-0.07561232305398692,-0.21065406648346646,-2.792978782476842,-0.31065063489890604
1784373785645862144,2.5316271781921387,0.34320273995399475,2.1160287857055664,-0.12222769856452942,-0.35408857464790344,0.2098691463470459,0.9113596677780151,0.28179240226745605,0.1553194671869278,0.21083283424377441,-0.19695766320805516,0.16932332114693466,0.9628132933242001,-0.07434987672644923,-0.21144112803432707,-2.7710150405618554,-0.30839065040625846
1784373785655781888,2.5415470600128174,0.5230228900909424,2.022623300552368,-0.20732314884662628,-0.3726654350757599,0.21324585378170013,0.9031316041946411,0.2871246933937073,0.19424007833003998,0.1988428831100464,-0.20704533866417338,0.16876043308386007,0.9607734957370954,-0.07460849327696037,-0.21489602685213877,-2.750240081826298,-0.3050004484727495
1784373785665702144,2.551467180252075,0.7244271636009216,2.122380018234253,-0.03115963749587536,-0.3911062777042389,0.2183438241481781,0.8940703272819519,0.2771689295768738,0.1909121423959732,0.20921635627746582,-0.21732846464434374,0.16840157921842275,0.9584759085169106,-0.07571756194915459,-0.22011703041561095,-2.729228667104642,-0.3016272547999185
1784373785675621888,2.561387062072754,0.8456819653511047,1.894907832145691,-0.13518749177455902,-0.40919768810272217,0.22522085905075073,0.884212851524353,0.22307109832763672,0.10597109794616699,0.19682633876800537,-0.2276915848456823,0.16800501756327715,0.9559710946408162,-0.07778174767502753,-0.22716971668762462,-2.708160283093747,-0.29771002970856564
1784373785685542144,2.5713071823120117,0.9178343415260315,1.7270522117614746,-0.1253407895565033,-0.42473888397216797,0.23242224752902985,0.8749727606773376,0.2925519049167633,0.057082802057266235,0.19759827852249146,-0.23674976122840174,0.1669961928948317,0.9537288116637567,-0.08039477952082975,-0.23456739858783704,-2.6896680312170886,-0.29252224517532466
1784373785695461376,2.581226348876953,1.1567326784133911,2.047652244567871,-0.04726303741335869,-0.44066745042800903,0.24090735614299774,0.864740252494812,0.12493264675140381,0.058073341846466064,0.1264553666114807,-0.2462462588569387,0.1661477350911576,0.9511913807862056,-0.08362189242291988,-0.24330064022192718,-2.670298388465749,-0.2871658190064767
1784373785705381120,2.591146230697632,1.0505110025405884,1.8959027528762817,-0.23412686586380005,-0.45725369453430176,0.25009283423423767,0.8534475564956665,0.09481167793273926,0.10488763451576233,0.156516432762146,-0.25626646328743535,0.16525221397601378,0.9483751796378981,-0.08719947163546163,-0.25277613074616473,-2.6497382760916763,-0.28126406197918946
1784373785715301376,2.6010663509368896,1.0330100059509277,1.874870777130127,-0.036858003586530685,-0.47279292345046997,0.2584654986858368,0.8424143195152283,0.2077631652355194,-0.01513361930847168,0.12758666276931763,-0.26568430252245034,0.1640072095811273,0.9456790080116291,-0.09057894650550444,-0.2614333875980646,-2.630164171154548,-0.2747264237385591
1784373785725221120,2.6109862327575684,0.7034716606140137,1.6964441537857056,-0.33373093605041504,-0.48787179589271545,0.26502275466918945,0.8317111730575562,0.09767422080039978,0.050727277994155884,0.15278565883636475,-0.27474796628170634,0.16293014940467285,0.9430319956612322,-0.09304737732981035,-0.2682275286147117,-2.6110932785860106,-0.268895949660964
1784373785735140096,2.6209051609039307,0.81223064661026,1.7604647874832153,0.012885352596640587,-0.5021719336509705,0.2700442969799042,0.82152259349823,0.17732757329940796,0.011114120483398438,0.07386308908462524,-0.2832734937002096,0.161756718229168,0.9405296776763904,-0.09484098658102252,-0.2734390472482519,-2.5929277605062513,-0.2632391097062085
1784373785745060096,2.6308252811431885,0.46810227632522583,1.5633736848831177,-0.35482314229011536,-0.5156528353691101,0.2749071419239044,0.8114975094795227,0.05488318204879761,-0.09142020344734192,0.07493126392364502,-0.2914489463780499,0.1611133128530562,0.9379718810551084,-0.09648185062843226,-0.2784931161158837,-2.57552565134116,-0.2587356316053119
1784373785754980096,2.640745162963867,0.3007500469684601,1.5999354124069214,0.09338605403900146,-0.5279278755187988,0.27789855003356934,0.802536129951477,0.21176588535308838,-0.2041223645210266,0.0006711483001708984,-0.298823239187214,0.16083307558125423,0.9356285579258875,-0.09714177434110524,-0.2816058034251093,-2.5597366017923457,-0.25563910568798015
1784373785764900096,2.650665283203125,0.2038334608078003,1.4477869272232056,-0.07810427248477936,-0.5394737720489502,0.2798770070075989,0.7941262722015381,0.06605470180511475,-0.08166539669036865,-0.15870463848114014,-0.3058159229879969,0.16150535375836222,0.9332626372212447,-0.0970226321146098,-0.2836659998191961,-2.5448742812579512,-0.2549430101713085
1784373785774819072,2.6605842113494873,0.0903865322470665,1.2650761604309082,-0.0794406458735466,-0.5502893328666687,0.28062477707862854,0.7864038944244385,0.09586745500564575,-0.13308760523796082,-0.24174153804779053,-0.3122423179787283,0.16174105729028956,0.9311507824435685,-0.09645053255250344,-0.28444498664785217,-2.5310317563951803,-0.25378265993419424
1784373785784739328,2.670504331588745,0.03796094283461571,1.2794458866119385,0.20284633338451385,-0.559890866279602,0.2803555130958557,0.7796940207481384,0.15246599912643433,-0.03264439105987549,-0.2379307746887207,-0.3178964718710813,0.16218023929930067,0.9292709924818986,-0.09536640528461822,-0.2841644624876943,-2.518828328712545,-0.25355341729410136
1784373785794659072,2.680424213409424,0.2217869609594345,0.8403078317642212,-0.029376782476902008,-0.5673673748970032,0.2827404737472534,0.7734028697013855,0.002303898334503174,-0.05236327648162842,-0.3861958980560303,-0.32270206358079045,0.16299290209777195,0.9274345010348979,-0.09571791658432721,-0.2866499776361952,-2.5086712539509404,-0.25349287627694256
1784373785804579328,2.6903443336486816,0.15107950568199158,0.7232686281204224,0.041950393468141556,-0.5732908248901367,0.28399407863616943,0.768560528755188,0.022387444972991943,-0.028699249029159546,-0.27809715270996094,-0.3264115405450586,0.16325890518569347,0.9260814160223204,-0.0957879555202646,-0.2879571407996626,-2.500702689600782,-0.2528342657291373
1784373785814499072,2.7002642154693604,0.46778741478919983,0.5150690674781799,0.1037498489022255,-0.5774610638618469,0.2865659296512604,0.7644726037979126,0.012535035610198975,0.11709004640579224,-0.37216925621032715,-0.32925203763116295,0.1634399935006118,0.9249452270197842,-0.0967300743226388,-0.2906405222098763,-2.4946624270061166,-0.25174660595606557
1784373785824418048,2.7101831436157227,0.7072312831878662,0.4638122022151947,0.12347115576267242,-0.5805546641349792,0.29139989614486694,0.7602910399436951,-0.027660667896270752,0.16599756479263306,-0.3182591199874878,-0.33169526435993457,0.16306452397257468,0.9238806593267279,-0.09916022972604904,-0.29568991979037246,-2.4894471839927568,-0.2487652830737005
1784373785834338304,2.7201032638549805,0.9289503693580627,0.06819801777601242,0.08896058052778244,-0.5820648074150085,0.29833486676216125,0.7564370036125183,0.047000110149383545,0.09799692034721375,-0.29620134830474854,-0.3334227608387902,0.16223290611683003,0.9229837383432755,-0.10300862459956987,-0.3029475885932249,-2.4857390902464114,-0.24421733162786433
1784373785844258048,2.730023145675659,0.9852452874183655,-0.0753341093659401,0.14573584496974945,-0.5822045207023621,0.30572235584259033,0.753373384475708,0.05412846803665161,-0.08680453896522522,-0.24438607692718506,-0.3343607432760011,0.1611477889053128,0.9223437989721038,-0.1073132163400357,-0.3106970099162847,-2.4836605176107946,-0.23911677944262835
1784373785854178304,2.739943265914917,0.693587064743042,-0.10460358113050461,0.07444142550230026,-0.5815019607543945,0.31229668855667114,0.7512167692184448,0.08713233470916748,-0.10332751274108887,-0.1847493052482605,-0.33467711222509516,0.16001765557736145,0.9219559282951775,-0.11127874845523125,-0.3176096902066969,-2.482857541082473,-0.23432495729104663
1784373785864097024,2.7498621940612793,0.8620790243148804,-0.06244688481092453,0.121580109000206,-0.5802232623100281,0.3195655941963196,0.7491455674171448,0.0980759859085083,-0.1554267704486847,-0.22709649801254272,-0.3347953473871122,0.15935715534296038,0.9215085816366816,-0.11549622916452137,-0.3252710142801577,-2.482586652591752,-0.23036792959295466
1784373785874017280,2.759782314300537,0.669696569442749,-0.19453221559524536,0.15794238448143005,-0.578822910785675,0.3257828652858734,0.7475489974021912,0.14359647035598755,-0.1663437783718109,-0.07637602090835571,-0.33469037046459055,0.15861565153148013,0.9212033358783884,-0.11919659142384191,-0.3318396412800901,-2.4827236806655044,-0.2266408250845362
1784373785883937024,2.769702196121216,0.5960771441459656,-0.230030357837677,0.29655933380126953,-0.5766584277153015,0.3319858908653259,0.746492326259613,0.27619755268096924,-0.23568767309188843,-0.08119374513626099,-0.33420929825838813,0.15853628742301995,0.9209301871291448,-0.12271142022549823,-0.3384081064119498,-2.4838521439555197,-0.2244849388294947
1784373785893857280,2.7796223163604736,0.2554119825363159,-0.36714667081832886,0.06802816689014435,-0.573735237121582,0.33595672249794006,0.7469676733016968,0.2838030457496643,-0.10823458433151245,-0.028721272945404053,-0.33300199717485207,0.15869751478849692,0.9210314489260799,-0.12500308736061283,-0.3426208134195029,-2.486616746418528,-0.2238449916989002
1784373785903777024,2.7895421981811523,0.36269640922546387,-0.2988181710243225,0.32171493768692017,-0.57054603099823,0.33960533142089844,0.7477601170539856,0.32588666677474976,-0.11879539489746094,-0.12401145696640015,-0.33158496733219206,0.15879243417784675,0.9212301712453167,-0.12716634661750334,-0.34649724561513906,-2.489819046912578,-0.22324343612819908
1784373785913696000,2.7994611263275146,0.13443288207054138,-0.31299737095832825,0.09913937747478485,-0.5677458643913269,0.3427164852619171,0.7484717965126038,0.2890441417694092,-0.15295818448066711,-0.08024370670318604,-0.33040726412591614,0.15941662675523072,0.9213154954316459,-0.12882213178289895,-0.34980697147265577,-2.4926482426875074,-0.22393400780777453
1784373785923616256,2.8093812465667725,0.07870963960886002,-0.3509177267551422,0.17211049795150757,-0.5647052526473999,0.34456953406333923,0.7499196529388428,0.39843034744262695,-0.19381272792816162,-0.16106778383255005,-0.3288627679397665,0.15965881217943673,0.9216663647698221,-0.12995910116346732,-0.3517802084577787,-2.4961608824555044,-0.22432623421086584
1784373785933536000,2.819301128387451,-0.2670978307723999,-0.3850863575935364,0.2147889882326126,-0.5615121722221375,0.3450806736946106,0.7520792484283447,0.4977152347564697,-0.1672089695930481,-0.09804189205169678,-0.3271636834543626,0.16073274700888912,0.9220654100257183,-0.13009317046342014,-0.3523247229827115,-2.5002627473625076,-0.22706305838786617
1784373785943456256,2.829221248626709,-0.31725555658340454,-0.5515018701553345,0.2590652108192444,-0.5572245121002197,0.3441411256790161,0.7556905150413513,0.5461618304252625,-0.2786656320095062,-0.204634428024292,-0.3246564221411039,0.16210569429854904,0.9228038723911488,-0.12943368304391814,-0.3513238735595166,-2.5062229771068356,-0.23119070680765583
1784373785953376000,2.8391411304473877,-0.5681873559951782,-0.7697503566741943,0.28637275099754333,-0.5512753129005432,0.3421995937824249,0.760917067527771,0.5445309281349182,-0.17445972561836243,-0.22136640548706055,-0.3210407102628288,0.1635527432162417,0.9239637658178862,-0.12835211662268273,-0.3492568178002002,-2.5146201502464454,-0.23613331719463915
1784373785963295232,2.849060297012329,-0.49612677097320557,-1.0370818376541138,0.5156689286231995,-0.5429964065551758,0.34022951126098633,0.7677234411239624,0.5654724836349487,-0.06183284521102905,-0.3102800250053406,-0.31617069352503757,0.16580580127130204,0.9254026985597897,-0.12717903169830386,-0.3471609559543957,-2.5259966491733157,-0.24321110941413715
1784373785973214976,2.858980178833008,-0.3423217535018921,-1.2977120876312256,0.33716151118278503,-0.5325854420661926,0.339316189289093,0.7753820419311523,0.3714832067489624,0.020562320947647095,-0.33568477630615234,-0.31017806148497074,0.16772446442126612,0.9271243232984765,-0.12688012547420321,-0.3461898746686093,-2.539734278991386,-0.24952377520397445
1784373785983135232,2.8689002990722656,-0.10090599209070206,-1.2440799474716187,0.41761091351509094,-0.5214856266975403,0.33973774313926697,0.7827075719833374,0.2642529606819153,0.04124370217323303,-0.3015521764755249,-0.3039263529142844,0.16902310222498007,0.928862195888597,-0.12757360127354184,-0.34663803871904086,-2.553872634330247,-0.25413259010269557
1784373785993055232,2.8788201808929443,0.03687130659818649,-1.1449000835418701,0.332470178604126,-0.5108970999717712,0.34149378538131714,0.7889016270637512,0.1797052025794983,0.0420357882976532,-0.26113075017929077,-0.2981615966520628,0.17005953081396358,0.9303389598339146,-0.12903004335709187,-0.34850577938832955,-2.5669025116916875,-0.2576408248736474
1784373786002974208,2.8887393474578857,0.08252355456352234,-1.0992578268051147,0.3080454170703888,-0.5011405348777771,0.34342509508132935,0.7943028211593628,0.22788625955581665,-0.06808030605316162,-0.22147279977798462,-0.29288178638881773,0.17068919843213434,0.931674092878068,-0.13064738395762435,-0.3505613609725351,-2.5787484770538183,-0.2600881445499446
1784373786012894208,2.8986592292785645,0.09009172022342682,-1.2426890134811401,0.27044662833213806,-0.4909574091434479,0.3458115756511688,0.7996097207069397,0.2881374955177307,-0.12429964542388916,-0.2155793309211731,-0.2874304903413672,0.17117969950942055,0.9330071693941552,-0.13258581741605893,-0.35310357642156465,-2.5909452736621126,-0.2621904531072334
1784373786022814208,2.9085793495178223,0.06404992938041687,-1.3594238758087158,0.3220135271549225,-0.4794582724571228,0.3478241562843323,0.8056910634040833,0.3087124228477478,-0.016387999057769775,-0.18529927730560303,-0.28121895123042645,0.17170111296149526,0.9345396010187157,-0.1344260546704262,-0.3552493502571974,-2.604791650389827,-0.2647359527431386
1784373786032734208,2.918499231338501,-0.051572270691394806,-1.2936832904815674,0.34049293398857117,-0.46775999665260315,0.3494168221950531,0.811854898929596,0.27507203817367554,-0.02918064594268799,-0.18761789798736572,-0.2748914561008188,0.17229823958811039,0.9360773309872217,-0.13604122016819095,-0.3569486324091243,-2.618885492860558,-0.2676278092121485
1784373786042653184,2.9284181594848633,-0.14508064091205597,-1.2673722505569458,0.3025708496570587,-0.456391841173172,0.35021576285362244,0.8179580569267273,0.2694258689880371,-0.09389862418174744,-0.16799473762512207,-0.26870569429147934,0.17302258986269284,0.9375725119868347,-0.13717949862201154,-0.35780144670694675,-2.6326549743114778,-0.27097665524465725
1784373786052573184,2.938338279724121,-0.3417811989784241,-1.2959195375442505,0.41042035818099976,-0.44487303495407104,0.34962770342826843,0.8245292901992798,0.36816710233688354,-0.04739686846733093,-0.15987169742584229,-0.2623489466624938,0.17410832216415337,0.9391224216889693,-0.1375078643507559,-0.35717370252335845,-2.6468094895111096,-0.2755087617223324
1784373786062493184,2.9482581615448,-0.2551182210445404,-1.4095309972763062,0.5343645811080933,-0.4321383237838745,0.3491281270980835,0.831484317779541,0.41709309816360474,-0.0019906461238861084,-0.20895612239837646,-0.2554531108377989,0.17575341387735516,0.9406661995349156,-0.13784624296209164,-0.3566405103716815,-2.6622944659707657,-0.2813972876898946
1784373786072413184,2.9581782817840576,-0.1007818877696991,-1.5587217807769775,0.4985026717185974,-0.41790828108787537,0.34981775283813477,0.838439404964447,0.3566747009754181,0.05530312657356262,-0.1733086109161377,-0.2479404693561804,0.17744012234939915,0.9421967440465524,-0.13894580230628384,-0.35737654379975975,-2.6791971195745905,-0.28730675386100757
1784373786082333184,2.9680981636047363,0.14849098026752472,-1.5174118280410767,0.5385094285011292,-0.40295112133026123,0.3521254062652588,0.8447713851928711,0.33378294110298157,0.042238086462020874,-0.17228585481643677,-0.24023605437038842,0.17875776692694134,0.9436266972370746,-0.14107129432823132,-0.3598409776539661,-2.6965184019772903,-0.2921666550389852
1784373786092252160,2.9780173301696777,0.4106472134590149,-1.4922386407852173,0.6433679461479187,-0.3882121741771698,0.35678258538246155,0.8497046232223511,0.30444133281707764,0.010908544063568115,-0.10518234968185425,-0.23302668038758376,0.18023633509300618,0.9446518874585744,-0.1443827253429482,-0.3648215321427219,-2.7130329447723422,-0.29681920046445753
1784373786102172160,2.9879372119903564,0.6167172193527222,-1.541748046875,0.6141628623008728,-0.37321949005126953,0.36357274651527405,0.8535350561141968,0.28137683868408203,-0.005067497491836548,-0.11113393306732178,-0.22595846412830387,0.18144199862237584,0.9454344714915452,-0.14891357050312828,-0.3721002530548947,-2.72938097496274,-0.3005505855080787
1784373786112092160,2.9978573322296143,0.713941216468811,-1.5296764373779297,0.6275039911270142,-0.35796093940734863,0.37152963876724243,0.8566386103630066,0.26855969429016113,-0.05867868661880493,-0.08153796195983887,-0.2189187122446582,0.18249789764065816,0.9460517038711571,-0.15412753555304937,-0.38065605510919076,-2.7457792706309943,-0.30389759591799315
1784373786122012160,3.007777214050293,0.43909165263175964,-1.5457819700241089,0.540687084197998,-0.3426949977874756,0.3787800967693329,0.8597011566162109,0.1668374240398407,-0.1440998613834381,0.019098401069641113,-0.21180518129669743,0.18340445168256847,0.946685472087629,-0.15902222394214868,-0.3884778064167124,-2.762275558660691,-0.307234491496543
1784373786131932160,3.017697334289551,-0.017914507538080215,-1.4827992916107178,0.5267491936683655,-0.32763954997062683,0.3822457194328308,0.8640259504318237,0.13820165395736694,-0.16636431217193604,0.11937260627746582,-0.20440150718814049,0.18452976731879878,0.9476084281743629,-0.1618861686359227,-0.39222535250061624,-2.7791439619525944,-0.3118774293194528
1784373786141851136,3.027616262435913,-0.18332570791244507,-1.4333081245422363,0.4448327124118805,-0.31324252486228943,0.3828761875629425,0.8690713047981262,0.09459936618804932,-0.11947900056838989,0.07894200086593628,-0.1970444151107062,0.18574220378443426,0.9487020029900105,-0.16321102300867793,-0.3929077156679713,-2.795653262965459,-0.3171639298004989
1784373786151771136,3.037536144256592,-0.49802613258361816,-1.3097485303878784,0.4504905939102173,-0.2997552156448364,0.381259948015213,0.8745215535163879,0.10306939482688904,-0.04841992259025574,0.13745665550231934,-0.1899505138835943,0.18711207835452295,0.9498683390054067,-0.16327308532999568,-0.3911587949893911,-2.8113779203231752,-0.3229978099926485
1784373786161691136,3.0474562644958496,-0.5944806337356567,-1.188775897026062,0.3058779537677765,-0.2874920964241028,0.3776225745677948,0.88019859790802,0.0918133556842804,0.010667890310287476,0.07263648509979248,-0.18326479174526258,0.18838235687297306,0.9511106097376463,-0.16221817557326626,-0.38722740899024194,-2.8258945536624727,-0.32867198531525355
1784373786171611136,3.0573761463165283,-0.7897577285766602,-1.0987844467163086,0.18710574507713318,-0.276571661233902,0.37222400307655334,0.885978102684021,0.14157718420028687,0.020064175128936768,0.025246143341064453,-0.177042763284735,0.18935369113460562,0.9524359436406896,-0.16020846580158296,-0.38140405978856595,-2.8390126992814895,-0.33365668737700366
1784373786181530112,3.0672953128814697,-0.7904763221740723,-1.1125437021255493,0.12075718492269516,-0.26648449897766113,0.3655434548854828,0.8918315768241882,0.2116597592830658,-0.045627743005752563,-0.032197415828704834,-0.17103421206905126,0.18977724357334014,0.9538869806452926,-0.157579805026816,-0.37421659398984036,-2.851231758590377,-0.33742699660839515
1784373786191450112,3.0772151947021484,-0.7314079403877258,-1.149946928024292,0.07280084490776062,-0.25598999857902527,0.35899144411087036,0.8975489139556885,0.2512139678001404,-0.0029276013374328613,-0.04233968257904053,-0.16483722860930325,0.1900677300290274,0.9553265007107087,-0.15509408579209807,-0.36718709468974164,-2.863759227820477,-0.3408704464034153
1784373786201370112,3.0871353149414062,-0.5155114531517029,-1.0820999145507812,-0.03281871974468231,-0.24577189981937408,0.35347312688827515,0.9025809168815613,0.20374926924705505,0.09360930323600769,-0.08739566802978516,-0.15884670466948483,0.189802016968455,0.9566951704599956,-0.1532224097016703,-0.3612813216240751,-2.8757392435316613,-0.3428690095699069
1784373786211290112,3.097055196762085,-0.3759889602661133,-0.973879873752594,-0.11489894241094589,-0.23677140474319458,0.3493036925792694,0.9066016674041748,0.1658180207014084,0.08561760187149048,-0.051254868507385254,-0.15358668839291736,0.18901979163660518,0.9578999666044778,-0.15202100617017844,-0.3568278717535372,-2.8861349235706633,-0.3433377212613378
1784373786221209088,3.1069741249084473,-0.3045770823955536,-0.8729696273803711,-0.17521168291568756,-0.22890447080135345,0.3460150361061096,0.9098769426345825,0.16118602454662323,0.037835001945495605,-0.008372604846954346,-0.14897447549580953,0.18787720883852904,0.9589789501043477,-0.15122189540799688,-0.35332044436358334,-2.8951299296783626,-0.3427111649998019
1784373786231129088,3.116894245147705,-0.33643463253974915,-0.8440913558006287,-0.25793346762657166,-0.22185200452804565,0.3427358865737915,0.912860095500946,0.15605616569519043,0.04329615831375122,0.0777403712272644,-0.14475226824924012,0.18645710356126857,0.9600332272436329,-0.15038839595774794,-0.3498276394506323,-2.90318506970901,-0.3413366511865062
1784373786241049088,3.126814126968384,-0.4377470910549164,-0.6811351776123047,-0.32259219884872437,-0.2160746157169342,0.33856526017189026,0.915797770023346,0.12491856515407562,0.01949748396873474,0.13847780227661133,-0.14105535805070374,0.18477801906504746,0.961122245936202,-0.14901195718502794,-0.3453917028181364,-2.909888741003127,-0.339276754528795
1784373786250969088,3.1367342472076416,-0.526427686214447,-0.5231764316558838,-0.4294797480106354,-0.211756631731987,0.3334052860736847,0.918694794178009,0.1212719976902008,0.006102770566940308,0.18929171562194824,-0.1379792239516587,0.1829023190672426,0.9622339376409588,-0.14701822814069077,-0.3399132397182105,-2.9150520446452424,-0.33664082839804155
1784373786260889088,3.1466541290283203,-0.5833812952041626,-0.36645546555519104,-0.4989798963069916,-0.2091856747865677,0.32731008529663086,0.9214714765548706,0.1439238041639328,0.02567151188850403,0.21207356452941895,-0.13566924252403129,0.18075651591865968,0.9633601719434256,-0.14442359684837197,-0.3334554415636564,-2.9183633746846787,-0.33323001817050335
1784373786270808320,3.1565732955932617,-0.5893534421920776,-0.1492089033126831,-0.5136930346488953,-0.2084331512451172,0.32096415758132935,0.9238709211349487,0.17426875233650208,0.05821672081947327,0.2079344391822815,-0.13427467391025003,0.17857603956037166,0.9643889505519752,-0.14154438106832687,-0.3267473269197969,-2.919699081083844,-0.32946825844974614
1784373786280728064,3.1664931774139404,-0.584139347076416,0.00041631050407886505,-0.5282898545265198,-0.20935878157615662,0.3144436478614807,0.9259017109870911,0.1889730542898178,0.0330752432346344,0.22696077823638916,-0.13372884900256607,0.17634026467706249,0.9653263541221925,-0.13844027361461028,-0.3198705194339068,-2.919218724361251,-0.32534760588223927
1784373786290648320,3.1764132976531982,-0.6075754165649414,0.1516716182231903,-0.5517573952674866,-0.2116173505783081,0.30782362818717957,0.9276111125946045,0.2115716189146042,-0.0005269348621368408,0.2799387574195862,-0.13388865229765776,0.17422494220999987,0.9661528025704276,-0.13515985422006704,-0.3129047424363025,-2.917299572240549,-0.3212966437263896
1784373786300568064,3.186333179473877,-0.5230031609535217,0.2897638976573944,-0.5561608672142029,-0.21527352929115295,0.301500141620636,0.9288462996482849,0.21196232736110687,0.04774308204650879,0.3035910129547119,-0.13479784811740048,0.17201755257586737,0.9668676841238861,-0.1319337501216411,-0.3062656289818189,-2.9138491435353333,-0.3168406442085313
1784373786310488320,3.1962532997131348,-0.6748403906822205,0.4447300434112549,-0.5942853689193726,-0.22030234336853027,0.2948472797870636,0.9298021793365479,0.20580647885799408,0.0744154155254364,0.37937140464782715,-0.1364065962251492,0.16991205732812134,0.9674869419651113,-0.1284219039698292,-0.29929569075785317,-2.9089480972516886,-0.312465967289061
1784373786320407040,3.206172227859497,-0.9620165228843689,0.5226053595542908,-0.6142190098762512,-0.22667290270328522,0.28601065278053284,0.9310305118560791,0.21518296003341675,-0.02346786856651306,0.4427490234375,-0.13852263138875867,0.16796341901922932,0.9681443827746131,-0.12367843984322303,-0.29006096422462485,-2.9027744147879933,-0.308516490347687
1784373786330327296,3.216092348098755,-1.1215509176254272,0.5548834204673767,-0.575228214263916,-0.23320014774799347,0.2748708128929138,0.9327723979949951,0.2336425930261612,-0.04083147644996643,0.4704413414001465,-0.1405353571930989,0.16616641925586853,0.9689039730011118,-0.11774454404296078,-0.2784553521060088,-2.8966068674423977,-0.3051939082421017
1784373786340247040,3.2260122299194336,-1.1010011434555054,0.6095207333564758,-0.6133124232292175,-0.24024686217308044,0.2630499005317688,0.9343910217285156,0.22071556746959686,0.09705755114555359,0.4764672517776489,-0.14278033614065144,0.1643945776719833,0.9696236093104504,-0.11143771087282255,-0.2661820753733962,-2.8899279017279866,-0.3020261001862108
1784373786350167296,3.2359323501586914,-0.8789843320846558,0.8016331791877747,-0.6296692490577698,-0.2481115758419037,0.2522730827331543,0.9353065490722656,0.17531198263168335,0.19569435715675354,0.5222737193107605,-0.1455737160461607,0.16260812499623997,0.9701607409294037,-0.10561659650796683,-0.2550286055533747,-2.88229184824967,-0.29870229871721016
1784373786360086272,3.2458512783050537,-0.5347267985343933,0.9588965773582458,-0.6761219501495361,-0.2579282820224762,0.24412992596626282,0.9348121881484985,0.14040502905845642,0.21943214535713196,0.5335869789123535,-0.14959926770278648,0.16037131128649562,0.9704056621038367,-0.10106446969045131,-0.246622372199052,-2.8723764129711125,-0.29399709989652506
1784373786370006016,3.2557711601257324,-0.25564858317375183,1.1023613214492798,-0.663062334060669,-0.26893526315689087,0.2388552576303482,0.9330712556838989,0.19883635640144348,0.2301083654165268,0.5515631437301636,-0.15451743578963148,0.15796818172007432,0.9703513127605264,-0.09792204918630831,-0.24118681239892398,-2.860972518145624,-0.2885307446199062
1784373786379926272,3.2656912803649902,-0.01173417642712593,1.0550384521484375,-0.5830187797546387,-0.28029555082321167,0.23593838512897491,0.9304662942886353,0.21308058500289917,0.10480563342571259,0.5556024312973022,-0.15986582418095255,0.1555962793977441,0.9700633770458631,-0.09596761485962847,-0.23818410941543308,-2.8489967785684067,-0.28282691085798833
1784373786389846016,3.275611162185669,-0.19727101922035217,1.095280647277832,-0.4629445970058441,-0.2913772165775299,0.23370730876922607,0.9276210069656372,0.21676167845726013,-0.006763279438018799,0.6391211748123169,-0.16519396537413544,0.15360290020046224,0.9696476925021678,-0.09434290625674813,-0.23588884411110114,-2.8372395622961735,-0.2778700772663936
1784373786399765248,3.2855303287506104,-0.2794589102268219,1.1430505514144897,-0.4320046901702881,-0.3026840388774872,0.23016828298568726,0.9248813986778259,0.18450462818145752,-0.07269753515720367,0.639297366142273,-0.17060092695060483,0.15222700694759694,0.9691582115735071,-0.09194997635703044,-0.23225060859781776,-2.8253108418513975,-0.27439623209063496
1784373786409685248,3.295450210571289,-0.4520229399204254,1.2263171672821045,-0.3956677317619324,-0.31428155303001404,0.22563134133815765,0.9221267700195312,0.15713128447532654,-0.11866720020771027,0.6549912691116333,-0.17610990280343564,0.15105495161210286,0.9686308824860329,-0.08900541905514148,-0.22759103998492888,-2.813117049027315,-0.2715237152957948
1784373786419605248,3.305370330810547,-0.5926092267036438,1.3355412483215332,-0.3700949251651764,-0.32677510380744934,0.21957142651081085,0.9192420840263367,0.15386256575584412,-0.08199821412563324,0.6702657341957092,-0.1820085436042482,0.1502845956307332,0.9680059803444033,-0.08515715026156312,-0.2213751505157708,-2.8000414118842603,-0.2697148553790189
1784373786429525248,3.3152902126312256,-0.5963041186332703,1.3826414346694946,-0.38324880599975586,-0.3398291766643524,0.21280765533447266,0.9160945415496826,0.17572087049484253,0.027289405465126038,0.6266454458236694,-0.18816916453180257,0.14958442399131083,0.9673012827706371,-0.08090204761222157,-0.21444754578816877,-2.7863736399884456,-0.2682144610422268
1784373786439445248,3.3252103328704834,-0.4574948847293854,1.5077143907546997,-0.3378114700317383,-0.35360845923423767,0.20683585107326508,0.9122393727302551,0.169816255569458,0.0687684416770935,0.5613021850585938,-0.19481497079695909,0.14892763796073222,0.9664058404244555,-0.07699103788660132,-0.2083397569143853,-2.771798092341997,-0.26670063630624813
1784373786449364224,3.3351292610168457,-0.2849302887916565,1.5914555788040161,-0.3499815762042999,-0.3681543469429016,0.2021818459033966,0.9075156450271606,0.1585138738155365,0.0933350920677185,0.51689213514328,-0.20201285913596617,0.14821216469878792,0.9652932115666096,-0.07370834260823336,-0.20358527215021993,-2.7562055952877,-0.2648476593801161
1784373786459283968,3.3450491428375244,-0.1611713320016861,1.679363489151001,-0.3285617530345917,-0.38340145349502563,0.1989978402853012,0.9018888473510742,0.17650744318962097,0.06914487481117249,0.46867096424102783,-0.20974737431020923,0.14740356490049875,0.9639588228434843,-0.07114558265177129,-0.20033520782251563,-2.7396293350041874,-0.26253269856056316
1784373786469204224,3.3549692630767822,-0.15119460225105286,1.7391560077667236,-0.2958371043205261,-0.3991110026836395,0.19648230075836182,0.8956034779548645,0.19366657733917236,-0.0040689557790756226,0.4244955778121948,-0.21783711675093553,0.1466300556291049,0.9624455147196812,-0.06888668839671928,-0.19776899590794209,-2.722375766225122,-0.26017450189743224
1784373786479123968,3.364889144897461,-0.24229028820991516,1.7425321340560913,-0.2293355017900467,-0.41492536664009094,0.19376111030578613,0.8889844417572021,0.21320423483848572,-0.06862379610538483,0.4066697359085083,-0.22604042635190283,0.14622106044020372,0.9607869772371971,-0.06643374937337947,-0.1949944643072971,-2.704904558517195,-0.2586634284430236
1784373786489044224,3.3748092651367188,-0.34590989351272583,1.7012478113174438,-0.2425415962934494,-0.43036141991615295,0.19013117253780365,0.8824052214622498,0.20720171928405762,-0.09197139739990234,0.3612470030784607,-0.23401829459926704,0.14596291409024598,0.9591128316012081,-0.06350409519732035,-0.1912957515504209,-2.6878220216282513,-0.2577624846497468
1784373786498963200,3.384728193283081,-0.36850693821907043,1.6408987045288086,-0.17279532551765442,-0.4451411962509155,0.18603049218654633,0.8759236931800842,0.23412734270095825,-0.023768514394760132,0.2622143030166626,-0.24165990974129817,0.14591279716996905,0.9574295310299382,-0.06032190228894352,-0.1871205542480461,-2.671409517149631,-0.2575308496145318
1784373786508883200,3.394648313522339,-0.16476021707057953,1.5407809019088745,-0.11498022824525833,-0.4589965343475342,0.18293578922748566,0.8694005012512207,0.22097456455230713,0.11042971909046173,0.14213532209396362,-0.24895121199032622,0.1461123742790484,0.95569421027156,-0.057647144980868245,-0.18397180946103625,-2.6558389736581325,-0.257719373934597
1784373786518803200,3.4045681953430176,0.2384178787469864,1.469572901725769,-0.12423206120729446,-0.4719112813472748,0.18276162445545197,0.8624954223632812,0.15477249026298523,0.19655664265155792,0.050804316997528076,-0.25601794595803634,0.1459210777770709,0.9539154782114166,-0.05663227155735498,-0.18379466224466132,-2.6409429238527333,-0.25646984297161507
1784373786528723200,3.4144883155822754,0.6786115169525146,1.4469565153121948,-0.14658130705356598,-0.4844142198562622,0.18601100146770477,0.8548350930213928,0.10828500986099243,0.19690832495689392,0.044594407081604004,-0.2631886871107833,0.14513507147621724,0.9520259212319772,-0.057569431561588655,-0.1871007200976499,-2.6260368563145198,-0.25310550444251445
1784373786538642176,3.4244072437286377,0.9504035115242004,1.415384292602539,-0.1268017739057541,-0.49647238850593567,0.19249498844146729,0.8464398384094238,0.11555206775665283,0.12606272101402283,0.08538371324539185,-0.27043685842554166,0.143842677608837,0.9500153674658687,-0.060364424883974296,-0.19370405242463723,-2.611127629895987,-0.24776983913318656
1784373786548562176,3.4343271255493164,1.043596863746643,1.3691542148590088,-0.12751203775405884,-0.5082846879959106,0.2001674324274063,0.8376032710075378,0.1163780689239502,0.058346956968307495,0.10688501596450806,-0.2776978921173861,0.1423120972965658,0.9479181974813958,-0.06389152939183848,-0.20152880184458427,-2.596164570383102,-0.24149598532998154
1784373786558482176,3.444247245788574,0.8941243290901184,1.226162314414978,-0.1522056609392166,-0.5190371870994568,0.20777229964733124,0.8291144371032715,0.13051801919937134,-0.09352977573871613,0.11003339290618896,-0.2844050902326787,0.1407713775868754,0.9459073138748108,-0.0675013882217603,-0.20929701396738287,-2.582264565204242,-0.23516417136268383
1784373786568402176,3.454167127609253,0.7627061009407043,1.0938810110092163,-0.025546792894601822,-0.5284464359283447,0.2138637751340866,0.8215881586074829,0.12613308429718018,-0.19773520529270172,0.08592844009399414,-0.2902679736134988,0.13954367928595388,0.9440983248138909,-0.07036006993181738,-0.21552854078444508,-2.5700118393212015,-0.22993317125925658
1784373786578322176,3.4640872478485107,0.7040322422981262,1.0278302431106567,-0.015750287100672722,-0.5370556712150574,0.21958114206790924,0.8144664764404297,0.03787964582443237,-0.15886642038822174,0.04716694355010986,-0.29570584417251244,0.13874249795972884,0.9423288930004923,-0.0729719775381338,-0.2213851120151676,-2.5586406854291077,-0.2256986502994687
1784373786588241152,3.474006175994873,0.6857773661613464,0.8775999546051025,-0.024536587297916412,-0.5446426272392273,0.22519433498382568,0.8078688383102417,0.03698265552520752,-0.10834252834320068,0.0134965181350708,-0.30057936878703245,0.1379552494228672,0.9406927064034327,-0.0756152004213705,-0.2271424936352479,-2.5484119801306986,-0.22154218954075822
1784373786598161152,3.483926296234131,0.35247567296028137,0.8792959451675415,0.037772927433252335,-0.5513085722923279,0.22965209186077118,0.8020712733268738,0.03223520517349243,-0.10060855746269226,0.050009846687316895,-0.30487106848893186,0.13765875278703535,0.93919418541403,-0.07757488095539133,-0.23172021028889778,-2.539403074283229,-0.21881989848985192
1784373786608081152,3.4938461780548096,0.45252904295921326,0.7882254123687744,0.06794440746307373,-0.5577265620231628,0.23260658979415894,0.7967655658721924,0.002840697765350342,-0.09169164299964905,-0.03579437732696533,-0.30891279905973024,0.13764718620726343,0.9377825101111388,-0.078677431688784,-0.23475693445120388,-2.5308745328365996,-0.21717043775866604
1784373786618001152,3.5037662982940674,0.4822079837322235,0.619331419467926,0.2121722251176834,-0.5626564025878906,0.23767606914043427,0.79178786277771,0.01910775899887085,-0.10031643509864807,-0.11046755313873291,-0.31233922005193077,0.13782786517217088,0.9364280014892422,-0.0809341312078345,-0.23997265931947026,-2.523777908453165,-0.21535839008562402
1784373786627920128,3.5136852264404297,0.5321336984634399,0.39684852957725525,0.15506446361541748,-0.5663525462150574,0.24246937036514282,0.7876888513565063,-0.0475696325302124,0.03905530273914337,-0.1222834587097168,-0.3150382524712478,0.13809894137446047,0.9352930583503669,-0.08310575475180096,-0.24491036893643725,-2.5182249290141576,-0.21392612409826453
1784373786637840384,3.5236053466796875,0.5359368920326233,0.451447993516922,0.2853623330593109,-0.5689803957939148,0.24801313877105713,0.784060537815094,-0.1339157223701477,0.07290971279144287,-0.16261577606201172,-0.31721528943817595,0.13852395534673947,0.9342598111876593,-0.08569848854166662,-0.25062877748887047,-2.513836098467751,-0.2126584213073711
1784373786647760128,3.533525228500366,0.7040084600448608,0.4692706763744354,0.18961133062839508,-0.5718708634376526,0.2540203034877777,0.7800244092941284,-0.22076237201690674,0.12879228591918945,-0.21935516595840454,-0.3196100353689575,0.1389251379876253,0.9331194976429945,-0.08852915724866454,-0.2568346452714254,-2.50896639640845,-0.21111616472691588
1784373786657680384,3.543445348739624,0.9728674292564392,0.3592965006828308,0.28349700570106506,-0.5743674039840698,0.26170244812965393,0.7756376266479492,-0.1323586106300354,0.03947550058364868,-0.28010857105255127,-0.3218982923656943,0.13858309930780932,0.9319943947504021,-0.09253442315734844,-0.26478571101378146,-2.504192900060475,-0.20740439617439074
1784373786667600128,3.5533652305603027,0.8523277044296265,0.2201482057571411,0.2760595977306366,-0.5758256912231445,0.27052366733551025,0.7715193629264832,-0.054316580295562744,0.016234785318374634,-0.21999025344848633,-0.3237446358965035,0.13858329308751863,0.9308890044686753,-0.09710741911808918,-0.273936924379073,-2.5004297626406937,-0.2041072924085992
1784373786677519104,3.563284158706665,0.9545373320579529,0.0743221864104271,0.29311034083366394,-0.5761302709579468,0.27893611788749695,0.7682891488075256,0.016315937042236328,-0.018529653549194336,-0.21508187055587769,-0.3248714788741152,0.13857052358520436,0.930022999309781,-0.10155710568488974,-0.28268606918669226,-2.4981636899978112,-0.20103866774725396
1784373786687438592,3.5732035636901855,0.7388665676116943,0.008971145376563072,0.3457602262496948,-0.5752691030502319,0.2875363826751709,0.7657597661018372,0.022153377532958984,0.0773622989654541,-0.1277746558189392,-0.32535641130420956,0.13874381674565037,0.9293169737941313,-0.10612847669550839,-0.2916535840292126,-2.497298615327792,-0.19843990154158914
1784373786697358592,3.5831236839294434,0.49748510122299194,0.07211770117282867,0.26664647459983826,-0.5749561786651611,0.29326939582824707,0.7638182044029236,-0.06067913770675659,0.19665977358818054,-0.08628231287002563,-0.32585880227662484,0.1389861023944094,0.9287582999325327,-0.10911865523714197,-0.29764482359172656,-2.4963405467516497,-0.19692790183776046
