time,seconds_elapsed,rotationRateX,rotationRateY,rotationRateZ,gravityX,gravityY,gravityZ,accelerationX,accelerationY,accelerationZ,quaternionW,quaternionX,quaternionY,quaternionZ,pitch,roll,yaw
1782905648402512640,0.19269466400146484,-0.03657225891947746,-0.0742202177643776,-0.1353173851966858,0.15667816996574402,0.6497364044189453,-0.7438377141952515,-0.03990265727043152,-0.011781692504882812,0.029619574546813965,0.8904341944019515,-0.357027309663737,-0.024751423882721613,0.2811510335419602,-0.707237650930457,0.20760017307813258,0.688549753949788
1782905648412432640,0.20261478424072266,-0.10988615453243256,-0.04739419370889664,-0.1600608080625534,0.15381477773189545,0.6518321633338928,-0.7426007986068726,-0.03557443618774414,-0.027213633060455322,0.02652108669281006,0.8903720295067856,-0.3577865365545332,-0.026237424828172196,0.28024658902747035,-0.7099978585031148,0.20424167229413667,0.6858118616404945
1782905648422352640,0.21253466606140137,-0.10909772664308548,-0.02682153880596161,-0.15830518305301666,0.15066732466220856,0.6539061069488525,-0.7414216995239258,-0.03648579120635986,-0.0040038228034973145,0.006649971008300781,0.8903708977474669,-0.3584914317488804,-0.027803845292979714,0.27919606456268253,-0.7127358908247688,0.2004841026200476,0.682572357587027
1782905648432271616,0.22245383262634277,-0.12965571880340576,0.008416340686380863,-0.1926189512014389,0.14734241366386414,0.6558772921562195,-0.7403480410575867,-0.04182790219783783,0.012015163898468018,-0.014321088790893555,0.8904369461411393,-0.35911306044469143,-0.029390147061787605,0.2780218664798649,-0.715344199813302,0.19645093177086123,0.6789061146934654
1782905648442191616,0.23237371444702148,-0.1731499433517456,0.0478634238243103,-0.26441988348960876,0.14365607500076294,0.6580641865730286,-0.7391309142112732,-0.04375679790973663,0.004838705062866211,-0.023976385593414307,0.890571180247132,-0.359819308696631,-0.031058191546737585,0.27649313888811794,-0.7182449049718909,0.19196481802456875,0.6743182283858349
1782905648452110592,0.2422926425933838,-0.19614528119564056,0.07052932679653168,-0.32815438508987427,0.13957783579826355,0.6603143215179443,-0.7379044890403748,-0.022405609488487244,-0.0015466809272766113,-0.025279104709625244,0.8908134341802285,-0.36051726907573783,-0.032788187715241106,0.27459731810545307,-0.7212372649587797,0.18694562713802984,0.6687005401478676
1782905648462030592,0.2522127628326416,-0.2188888043165207,0.08952371031045914,-0.3696773946285248,0.13550402224063873,0.6625219583511353,-0.7366840243339539,0.012567266821861267,-0.009750962257385254,-0.024958431720733643,0.8911164002331166,-0.3612104077893757,-0.034424280471105205,0.2724950613625175,-0.724180639764144,0.18190450204497813,0.6625886027430062
1782905648471950592,0.2621326446533203,-0.279673308134079,0.1278601884841919,-0.3608900308609009,0.13211111724376678,0.6647756099700928,-0.7352687120437622,0.033996060490608215,-0.018840551376342773,-0.004874110221862793,0.8913724972012461,-0.36206439317604683,-0.035707569133292635,0.2703505370357472,-0.7271934010208276,0.17778037864330185,0.6567582899068608
1782905648481869824,0.2720518112182617,-0.23611092567443848,0.1411774754524231,-0.25382617115974426,0.12998881936073303,0.6670088171958923,-0.7336226105690002,0.05879291892051697,-0.005082607269287109,0.004603445529937744,0.8914668723945944,-0.36312385998894586,-0.03646603697338443,0.26851077969546894,-0.7301868128935795,0.17536745644258164,0.6522942115754468
1782905648491789568,0.28197169303894043,-0.4263586401939392,0.17447763681411743,-0.19157879054546356,0.12940946221351624,0.6693626046180725,-0.7315783500671387,0.12153659760951996,0.04302448034286499,-0.025593280792236328,0.8912695259591105,-0.36450471266547874,-0.0367034367426549,0.2672596051861668,-0.7333504769541725,0.1750796683016368,0.6500488059393479
1782905648501708800,0.29189085960388184,-0.24464689195156097,0.09675499051809311,-1.6730819940567017,0.12616364657878876,0.6732656359672546,-0.7285575270652771,0.14303191006183624,0.024671316146850586,0.046581268310546875,0.8915921288758641,-0.3664910981382871,-0.037490147125691355,0.26332901894883765,-0.7386165659274028,0.17146860916481074,0.6408734604348288
1782905648511628544,0.30181074142456055,0.5052899718284607,-0.4476633071899414,-2.1774134635925293,0.11263783276081085,0.6749292016029358,-0.7292347550392151,0.34677377343177795,0.09032958745956421,-0.07252305746078491,0.8942936343112432,-0.36563586889326394,-0.04114660644007741,0.25466884334439777,-0.740868717118255,0.15324923937412452,0.614469984351526
1782905648521548800,0.31173086166381836,1.5761560201644897,-0.4656554162502289,-0.9692764282226562,0.10211623460054398,0.6687735319137573,-0.7364198565483093,0.7161973714828491,0.2611733675003052,-0.09495526552200317,0.897757557931802,-0.36043856758100357,-0.043290959892404994,0.24948191238635037,-0.7325578817646063,0.13778712862399303,0.5950353966943188
1782905648531467776,0.32164978981018066,1.660622000694275,-0.6606712341308594,-0.910492479801178,0.09453386813402176,0.6577408909797668,-0.7472885847091675,0.8075199723243713,0.12253248691558838,0.007344186305999756,0.9013939316340287,-0.35269350407669464,-0.04430577053597301,0.24725118314167815,-0.7178156282652873,0.12583409551299848,0.5826891885341581
1782905648541387520,0.3315696716308594,1.9584485292434692,-0.7482194900512695,-1.2995377779006958,0.08449096232652664,0.6454405188560486,-0.7591229677200317,0.6745575070381165,0.040258824825286865,0.154340922832489,0.9054765226807083,-0.34396172050457396,-0.04613936925812389,0.2442818301096976,-0.7015999145648333,0.11084455402648863,0.5676162824742588
1782905648551307776,0.3414897918701172,2.052682399749756,-0.6770957708358765,-1.4966391324996948,0.07315023243427277,0.6314083337783813,-0.7719926238059998,0.5772861242294312,-0.06701624393463135,0.12244123220443726,0.9101438759503392,-0.33421902477950866,-0.04797210264280535,0.2400720024864646,-0.6833679962521289,0.09447301834589475,0.549418678793579
1782905648561226496,0.3514087200164795,2.1270081996917725,-0.6461772918701172,-1.6355682611465454,0.06205775588750839,0.6167357563972473,-0.784720242023468,0.6128537654876709,-0.020056068897247314,0.17441445589065552,0.914931179650266,-0.3243416535721401,-0.04942040871850476,0.23507665484092358,-0.664589119832272,0.0789184043459898,0.5302340085477537
1782905648571146752,0.3613288402557373,2.251530885696411,-0.7461893558502197,-1.7422398328781128,0.050702694803476334,0.6008394360542297,-0.7977601289749146,0.7284873723983765,-0.027368366718292236,0.15499895811080933,0.919861505173794,-0.31390864009579134,-0.05080645601809533,0.22964086328919206,-0.6445508036488322,0.06347094684702044,0.5104935577458124
1782905648581065728,0.3712477684020996,2.1859772205352783,-0.8315379023551941,-1.8389537334442139,0.03862600028514862,0.5843636393547058,-0.8105721473693848,0.8274170756340027,-0.06934899091720581,0.19094324111938477,0.9247454070067554,-0.30323895033596393,-0.05253638705209056,0.22390191632790366,-0.6240956614487219,0.047616738776772694,0.4904655088156345
1782905648590985472,0.3811676502227783,2.076430320739746,-0.8328215479850769,-1.8797630071640015,0.026682989671826363,0.5683140754699707,-0.8223789930343628,0.888264536857605,-0.1499028205871582,0.2258976697921753,0.9293573053348935,-0.29301329510566065,-0.05434818125575466,0.21790947796222404,-0.6044554037071963,0.0324347207597496,0.4707388300015954
1782905648600905728,0.39108777046203613,1.9460712671279907,-0.7260274291038513,-1.9383686780929565,0.01633884757757187,0.5528695583343506,-0.8331076502799988,0.9112277030944824,-0.24970793724060059,0.23540562391281128,0.9336693747667575,-0.28348373580610486,-0.05552618976601662,0.21169654263452653,-0.5858040734838323,0.019609415294897917,0.45184648204130273
1782905648610824704,0.40100669860839844,1.7868435382843018,-0.559211790561676,-2.0531303882598877,0.008921987377107143,0.53847736120224,-0.8425927758216858,0.8978773355484009,-0.2716774344444275,0.2686334252357483,0.937692182117937,-0.2750228464081574,-0.0553719720477248,0.20501154553944512,-0.5686290443821921,0.01058833404777931,0.43358856249052957
1782905648620744704,0.41092681884765625,1.7958674430847168,-0.39055266976356506,-2.126840114593506,0.006296609528362751,0.5247499942779541,-0.8512331247329712,0.8725790977478027,-0.22904998064041138,0.2468172311782837,0.9414939350843725,-0.26754902620121385,-0.05292405302301972,0.1980047564924085,-0.5524214023346671,0.00739691002298336,0.4166732487523272
1782905648630663680,0.42084574699401855,2.0091354846954346,-0.25425317883491516,-2.1917202472686768,0.009244509972631931,0.510153591632843,-0.8600336313247681,0.8513359427452087,-0.19843178987503052,0.17941540479660034,0.9452782814138109,-0.2602116532875703,-0.04767676444179137,0.19096018248676425,-0.5353633404085699,0.010748595407597249,0.4016121646615095
1782905648640583680,0.43076586723327637,2.290351390838623,-0.16810603439807892,-2.3192007541656494,0.014732089824974537,0.4932365417480469,-0.8697704672813416,0.8369372487068176,-0.18813705444335938,0.12479066848754883,0.949337211927903,-0.25187586813700474,-0.04090618231080571,0.18342291525872587,-0.5158064441122248,0.01693628599279079,0.3861869921376104
1782905648650503680,0.4406857490539551,2.559605121612549,-0.09063148498535156,-2.458221912384033,0.01922774687409401,0.47354403138160706,-0.8805602788925171,0.8138716220855713,-0.18036165833473206,0.09610593318939209,0.9537936497078247,-0.2419621406211453,-0.03426645035907087,0.17480832298428337,-0.49331022859726653,0.021832340419030073,0.3680275609649506
1782905648660422656,0.4506046772003174,2.756779909133911,-0.015201103873550892,-2.611037015914917,0.021863510832190514,0.45134979486465454,-0.89207923412323,0.7675651907920837,-0.17196136713027954,0.05659949779510498,0.9585534567097865,-0.23056627952136152,-0.028276670853628196,0.16496972684081135,-0.46827739903166044,0.02450358009874126,0.3467110943164894
1782905648670342656,0.4605247974395752,2.7960150241851807,0.07092899084091187,-2.8603603839874268,0.022386392578482628,0.4276200234889984,-0.9036813378334045,0.683485209941864,-0.1523972451686859,0.02907806634902954,0.9634539059524659,-0.2182251086900394,-0.02317619037895345,0.1536137967559854,-0.4418583035567069,0.024767375696305813,0.3217827062303609
1782905648680261632,0.4704437255859375,2.6538619995117188,0.11066050082445145,-3.179182291030884,0.02099607326090336,0.40401366353034973,-0.9145119786262512,0.571563720703125,-0.12567809224128723,0.02350550889968872,0.9682685973036519,-0.20587049750747544,-0.019009256401889007,0.1403994384003577,-0.41590030813894474,0.02295473995446038,0.29283752919710315
1782905648690181632,0.4803638458251953,2.391864776611328,0.15169261395931244,-3.515235185623169,0.018190231174230576,0.38201531767845154,-0.9239769577980042,0.4810468256473541,-0.14112481474876404,-0.00874704122543335,0.9727778802516021,-0.19433427672930767,-0.01567516830618461,0.12526649002406925,-0.39197602833220735,0.01968434590336908,0.2600425078610627
1782905648700101632,0.490283727645874,2.0265119075775146,0.20548611879348755,-3.8954172134399414,0.014310288242995739,0.3626561164855957,-0.9318131804466248,0.4070764183998108,-0.1961674690246582,-0.034510672092437744,0.9768410348735428,-0.18418160310111018,-0.013059608198302746,0.10811234576952711,-0.3711164522170918,0.015356257634887441,0.2233364742835939
1782905648710020608,0.5002026557922363,1.5727163553237915,0.29123643040657043,-4.318325042724609,0.009793851524591446,0.3468219041824341,-0.9378798604011536,0.35096970200538635,-0.26614871621131897,-0.040559470653533936,0.9803377622473176,-0.17589938018801735,-0.010930370238684275,0.08875745125913288,-0.3541805701640436,0.010442164573522586,0.18245171837078603
1782905648719940608,0.5101227760314941,1.0595874786376953,0.43760213255882263,-4.7457170486450195,0.005384203512221575,0.335271418094635,-0.9421061873435974,0.3196737766265869,-0.312871515750885,-0.03849989175796509,0.9831350431830835,-0.1699073910732231,-0.008853202358782317,0.0670718040848733,-0.34189331088138003,0.005715008474100902,0.13722024659549148
1782905648729858304,0.5200405120849609,0.5599307417869568,0.5658568143844604,-5.132707595825195,0.001580395852215588,0.32826730608940125,-0.944583535194397,0.3056400716304779,-0.31422919034957886,-0.05476033687591553,0.9851017101202317,-0.16633123116478737,-0.006492173957607124,0.04320084406265741,-0.3344686333311766,0.0016731122999376904,0.08793466365520138
1782905648739777280,0.5299594402313232,0.1552594155073166,0.6462095975875854,-5.490129470825195,-0.002124834805727005,0.32535821199417114,-0.9455884695053101,0.3096962571144104,-0.27387505769729614,-0.11266958713531494,0.9861500284630556,-0.164893597066808,-0.003984738641977657,0.017387774796265354,-0.33139053783370565,-0.002247099378616201,0.03488452109640762
1782905648749697536,0.539879560470581,-0.076867014169693,0.624873697757721,-5.8740363121032715,-0.00739322230219841,0.3251880705356598,-0.9456204771995544,0.32222780585289,-0.2284168004989624,-0.19663721323013306,0.9862571398904194,-0.16488084832599118,-0.0020185155489557565,-0.010345869314640559,-0.33121059118491675,-0.007818222866689982,-0.022286007214366365
1782905648759616256,0.5497984886169434,-0.09971953928470612,0.5022149085998535,-6.254917621612549,-0.015916187316179276,0.3258381187915802,-0.9452915787696838,0.3560650944709778,-0.1973591148853302,-0.2794092893600464,0.9854164870190391,-0.16538544546895426,-0.0013621450515467542,-0.0400023908096467,-0.3318980837937665,-0.016835739430918897,-0.08396412234714955
1782905648769536512,0.5597186088562012,0.13610844314098358,0.3571709096431732,-6.601735591888428,-0.02823108620941639,0.32476645708084106,-0.9453728199005127,0.39113086462020874,-0.17756491899490356,-0.3000495433807373,0.983660653809754,-0.16525147596515788,-0.002354902559423941,-0.07140098336806872,-0.3307647982297103,-0.02985351196311643,-0.1499029638002309
1782905648779456256,0.5696384906768799,0.5362590551376343,0.207513689994812,-6.88926887512207,-0.04357185959815979,0.31964609026908875,-0.9465346932411194,0.4083789885044098,-0.15800973773002625,-0.22238010168075562,0.9810221205733479,-0.16342948840364036,-0.004844310961455261,-0.10422570924862737,-0.32535595123128325,-0.046000558373961345,-0.21924112964275477
1782905648789375232,0.5795574188232422,1.0300666093826294,0.002079843543469906,-7.113907814025879,-0.061264581978321075,0.3090883493423462,-0.9490579962730408,0.417908251285553,-0.11540853977203369,-0.12149864435195923,0.9774822946070321,-0.15935178061331048,-0.00883291350269135,-0.1380484985859674,-0.31423429131849556,-0.06446360101976296,-0.29081749457417067
1782905648799295488,0.5894775390625,1.5744143724441528,-0.25173133611679077,-7.334373950958252,-0.08104432374238968,0.2922334671020508,-0.9529068470001221,0.4308367967605591,-0.08472919464111328,-0.04727625846862793,0.9729653162764889,-0.1527576945988447,-0.014548966865679585,-0.1726035510803176,-0.2965614257362044,-0.08484539432543507,-0.36382723266148104
1782905648809214464,0.5993964672088623,2.1307876110076904,-0.5877718925476074,-7.468576431274414,-0.10267534106969833,0.2684808075428009,-0.9577974081039429,0.47131243348121643,-0.0860925018787384,0.01686418056488037,0.9673742950303789,-0.14354592015883041,-0.02226823156731707,-0.20757089881030522,-0.2718155734385417,-0.10679161009781758,-0.43735048079609
1782905648819134464,0.6093165874481201,2.522584915161133,-0.9733322858810425,-7.504960060119629,-0.12595461308956146,0.23845282196998596,-0.9629515409469604,0.5576257705688477,-0.15674200654029846,0.07002252340316772,0.9605943479924891,-0.13224052067318806,-0.03219739929540004,-0.2423513464731506,-0.2407724107364415,-0.13006219381910458,-0.5100270785048123
1782905648829054464,0.6192364692687988,2.6715877056121826,-1.3699618577957153,-7.474521160125732,-0.15049226582050323,0.2041148543357849,-0.9673103094100952,0.664927065372467,-0.3099345564842224,0.11817395687103271,0.95247771444643,-0.11997242585167141,-0.04417546779444952,-0.2764800515387884,-0.20555943879524083,-0.15434075244764706,-0.5809717959011166
1782905648838973184,0.6291553974151611,2.612114906311035,-1.6566935777664185,-7.381277561187744,-0.1749904900789261,0.16773512959480286,-0.9701769351959229,0.7244289517402649,-0.524134635925293,0.15308403968811035,0.9429578587238006,-0.10778884236009212,-0.05738558073165503,-0.30970795632905956,-0.16853179840097054,-0.17845098542197035,-0.649798638431333
1782905648848893440,0.639075517654419,2.3383922576904297,-1.8973522186279297,-7.252323627471924,-0.1979312002658844,0.13172243535518646,-0.9713250994682312,0.7105502486228943,-0.7434167861938477,0.1638147234916687,0.9320877123428486,-0.09660688972078957,-0.07074294247911692,-0.34186977513687816,-0.13210636220781782,-0.20102216092323677,-0.7164290186579951
1782905648858812416,0.6489944458007812,1.8574000597000122,-2.056551694869995,-7.143900394439697,-0.2172936052083969,0.09867571294307709,-0.9711058735847473,0.6388481855392456,-0.9268770217895508,0.18239432573318481,0.9200008825545211,-0.08717885937277829,-0.08274608880178647,-0.37302998999756354,-0.09883654801642971,-0.22013285939435906,-0.7813523630191979
1782905648868732416,0.6589145660400391,1.3544127941131592,-2.066157817840576,-7.012847900390625,-0.22235886752605438,0.07254049181938171,-0.9722625017166138,0.5122758746147156,-1.041565179824829,0.23851317167282104,0.9074254802480454,-0.07885298654836742,-0.08746968556191749,-0.4033736104700199,-0.07260426325338971,-0.22483572980531344,-0.8447838802180416
1782905648878652416,0.6688344478607178,0.704861581325531,-2.061471939086914,-6.797560691833496,-0.22966209053993225,0.05049905925989151,-0.9719594717025757,0.39326682686805725,-1.0805894136428833,0.2863668203353882,0.8935958799596257,-0.07330950189668521,-0.09298383017486857,-0.4329735429732351,-0.05052054900844445,-0.23203193989929338,-0.908278371618915
1782905648888571392,0.6787536144256592,0.12235047668218613,-2.032474994659424,-6.540533542633057,-0.24694813787937164,0.03185025975108147,-0.9685051441192627,0.34161365032196045,-1.0896505117416382,0.2923119068145752,0.8782663213387905,-0.07209418938712163,-0.10271254399037284,-0.46141169556678646,-0.031855646332505136,-0.24965894614398015,-0.9714661002319848
1782905648898491392,0.6886734962463379,0.019642144441604614,-2.0009117126464844,-6.239678859710693,-0.26461026072502136,0.015625784173607826,-0.9642288088798523,0.31905364990234375,-1.1531380414962769,0.27878880500793457,0.8623564417272994,-0.07264392948196327,-0.11228732050204292,-0.48831932399619143,-0.01562642014899373,-0.26783325644313066,-1.0325899221491466
1782905648908410368,0.6985924243927002,0.2845073640346527,-1.9814844131469727,-5.987005233764648,-0.2816076874732971,-0.00214010220952332,-0.9595272541046143,0.3143530488014221,-1.2114371061325073,0.27364468574523926,0.8462327645192682,-0.0728679346811821,-0.12217465141715148,-0.5134721823127337,0.0021401037864201577,-0.28546988028268117,-1.090463649007548
1782905648918330368,0.708512544631958,0.6698541045188904,-1.9698632955551147,-5.816679954528809,-0.29760313034057617,-0.02364642173051834,-0.9543967843055725,0.29941895604133606,-1.1552629470825195,0.35672527551651,0.8299110411654268,-0.07174071854693202,-0.1328716524448964,-0.5370718562870195,0.02364862542335155,-0.3022682438891466,-1.145127943088508
1782905648928250368,0.7184324264526367,1.0777724981307983,-1.9733093976974487,-5.670108795166016,-0.31237441301345825,-0.049422599375247955,-0.9486725330352783,0.26424822211265564,-1.0061193704605103,0.4233276844024658,0.8133432699445369,-0.06902718439618033,-0.14456475817656744,-0.5592932700184069,0.04944274295074028,-0.31809387457525073,-1.1968423537651678
1782905648938169600,0.7283515930175781,1.4593842029571533,-2.005593776702881,-5.515657901763916,-0.3259411156177521,-0.07924455404281616,-0.9420629739761353,0.22170832753181458,-0.8342533707618713,0.41995304822921753,0.79655206364693,-0.06485974910409205,-0.1573585491998424,-0.5801174778482199,0.07932772928616451,-0.3330948745484259,-1.2455748348260738
1782905648948089344,0.7382714748382568,1.6776387691497803,-2.0900866985321045,-5.376178741455078,-0.3384716808795929,-0.11212094128131866,-0.9342728853225708,0.2103894054889679,-0.6882330775260925,0.3811722993850708,0.7795107739919246,-0.05973421324925218,-0.17115895209078238,-0.599582631615421,0.1123571972172,-0.34757565890390524,-1.2915796054272108
1782905648958009600,0.7481915950775146,1.774491548538208,-2.1352760791778564,-5.282529354095459,-0.34984174370765686,-0.1464395374059677,-0.9252924919128418,0.24316754937171936,-0.6226339340209961,0.4255061149597168,0.7620893908280616,-0.05432199973399799,-0.18548011152460714,-0.6179529916701144,0.14696804446652223,-0.36147496471613083,-1.3357613896542047
1782905648967928320,0.758110523223877,1.9235998392105103,-2.237165927886963,-5.035520553588867,-0.36021164059638977,-0.1817539632320404,-0.9149934649467468,0.30451706051826477,-0.7219477891921997,0.4273378252983093,0.7444291992385376,-0.04880378636294412,-0.20030337776967963,-0.6350763949072807,0.18276983398210847,-0.3750434104251507,-1.3778140080084524
1782905648977848320,0.7680304050445557,1.826215147972107,-2.3821070194244385,-4.477174282073975,-0.37042737007141113,-0.21636201441287994,-0.9033111929893494,0.39914441108703613,-0.9390182495117188,0.44847720861434937,0.727265396030482,-0.04386764121278379,-0.21545310602698955,-0.6501852268092401,0.21808667757562997,-0.3891633599925417,-1.4158520530962937
1782905648987767552,0.7779495716094971,1.0561151504516602,-2.8010876178741455,-2.1159279346466064,-0.3848191201686859,-0.2419527769088745,-0.8907149434089661,0.4241867959499359,-1.188787579536438,0.5133345723152161,0.7140593922106507,-0.04293403236623672,-0.2297807673496337,-0.6599065563496437,0.24437791671566403,-0.4078133839838421,-1.441235401645164
1782905648997687296,0.7878694534301758,-1.2662683725357056,-0.7290905714035034,-2.7652525901794434,-0.39072537422180176,-0.24927273392677307,-0.8861133456230164,-0.20406225323677063,-1.4143320322036743,0.6617786288261414,0.7045965265259486,-0.04531961005245376,-0.23428502417490163,-0.6682817480880453,0.2519292080711944,-0.41529655132386933,-1.4645580442975283
1782905649007607552,0.7977895736694336,-0.7215089201927185,-0.5724351406097412,-4.008594036102295,-0.38661298155784607,-0.25523072481155396,-0.8862209916114807,-0.29302871227264404,-1.5731536149978638,0.691198468208313,0.6920284071699492,-0.04600900371998313,-0.2340356128749823,-0.6813275066291918,0.2580863251032468,-0.4113598983055139,-1.5010807692410093
1782905649017526272,0.8077085018157959,-0.6483970284461975,-1.5521445274353027,-3.52176570892334,-0.3858185410499573,-0.2634108364582062,-0.8841712474822998,0.62652587890625,-1.4260270595550537,0.3161475658416748,0.6773518059249398,-0.04765643978162186,-0.23588818782819448,-0.6951835619990743,0.26655620294705895,-0.4114546700182084,-1.5408365805019717
1782905649027446272,0.8176283836364746,0.01729363575577736,-1.7610087394714355,-2.826917886734009,-0.39078882336616516,-0.2738250195980072,-0.8788082599639893,0.5388143062591553,-0.6729981303215027,0.42763638496398926,0.6645163042740381,-0.049907067444795734,-0.24105009930535587,-0.7055652074291022,0.27736780270747924,-0.41842135754422405,-1.5714471564534915
1782905649037365504,0.827547550201416,0.34118881821632385,-1.5376722812652588,-2.6309704780578613,-0.3968638479709625,-0.2859184145927429,-0.8722096681594849,-0.005632460117340088,-0.2056129276752472,0.46502894163131714,0.6529038765203011,-0.05164517515495614,-0.2474427816401485,-0.7140177866182594,0.28996472659041517,-0.4270121581932124,-1.5968646519666012
1782905649047285248,0.8374674320220947,1.1839996576309204,-1.165498971939087,-2.3738110065460205,-0.40031856298446655,-0.3029954731464386,-0.8648345470428467,-0.33843570947647095,-0.1459333598613739,0.4968230724334717,0.6424230987033912,-0.050375501400781404,-0.25503927364372103,-0.7209090573690496,0.3078343204092608,-0.433516906707394,-1.6175032257701416
1782905649057205504,0.8473875522613525,1.5330957174301147,-0.7767022848129272,-2.3263351917266846,-0.4006515443325043,-0.32464665174484253,-0.8567863702774048,-0.3599838614463806,-0.24491813778877258,0.5192772150039673,0.6331283664562508,-0.046024916992323674,-0.26360677258426457,-0.7263205360172961,0.33063813351150523,-0.43741077496378994,-1.633554176348358
1782905649067124480,0.8573064804077148,1.2394155263900757,-0.5140925049781799,-2.440624237060547,-0.39721158146858215,-0.34649717807769775,-0.8498015403747559,-0.17940279841423035,-0.19882142543792725,0.6375060081481934,0.6238778549260678,-0.04030006279919141,-0.27106297657837364,-0.7318997059189001,0.35383438252505456,-0.43724303639248324,-1.6504097129283866
1782905649077044480,0.8672266006469727,1.0089908838272095,-0.4787335991859436,-2.333889961242676,-0.3924165368080139,-0.3654102385044098,-0.8440880179405212,0.033667147159576416,-0.23383289575576782,0.654787540435791,0.6145957394610464,-0.035213408358258556,-0.2769765316569949,-0.7377777704500531,0.37407347614524317,-0.43517545352818005,-1.6688341451254118
1782905649086963456,0.877145528793335,0.9695404171943665,-0.18462368845939636,-2.1898698806762695,-0.3861664831638336,-0.38284701108932495,-0.8392279744148254,-0.012698233127593994,-0.39608365297317505,0.6284430623054504,0.6059684421649617,-0.02991683916352224,-0.2819414939969301,-0.743246982910829,0.39287614193761383,-0.4312583614980931,-1.6864696266546197
1782905649096883200,0.8870654106140137,0.7417191863059998,0.0634130910038948,-2.1883907318115234,-0.3774784505367279,-0.39869844913482666,-0.8357928395271301,-0.1355983316898346,-0.4676956236362457,0.6398241519927979,0.5978859915024906,-0.024082750035676396,-0.2855234058890508,-0.7486179924035564,0.41009716705871535,-0.4242178917740591,-1.7042419900840846
1782905649106803456,0.8969855308532715,0.16253811120986938,0.3613784909248352,-2.2289721965789795,-0.3663778007030487,-0.411141574382782,-0.8347035050392151,-0.0911417305469513,-0.476706326007843,0.6174793839454651,0.589904691600928,-0.018488291704478806,-0.2868909723501913,-0.7545623129496611,0.4237060203384084,-0.4136114671204112,-1.7243349687893053
1782905649116722432,0.9069044589996338,-0.38644540309906006,0.7360426187515259,-2.1493780612945557,-0.3523102402687073,-0.41818350553512573,-0.837257444858551,0.005035459995269775,-0.45181161165237427,0.6570054292678833,0.5823667225773167,-0.01341917924651339,-0.28494068749650714,-0.7612343188648857,0.4314446380184143,-0.39830001345424937,-1.7470957870102404
1782905649126642432,0.9168245792388916,-0.3387170135974884,0.8927251696586609,-2.1233713626861572,-0.3361710011959076,-0.4225020110607147,-0.8417131900787354,0.07140049338340759,-0.4956040680408478,0.5914232730865479,0.5753314979410902,-0.008202348115467164,-0.2812047685480207,-0.7680171114797009,0.436204046892016,-0.379979558323586,-1.7705360489697581
1782905649136561408,0.9267435073852539,0.019936224445700645,0.941433310508728,-2.1124539375305176,-0.31904107332229614,-0.42833957076072693,-0.8454217910766602,0.07628899812698364,-0.47440090775489807,0.46257877349853516,0.5684092012793788,-0.0019389159169384276,-0.27800242448838436,-0.7743525605907957,0.44265445389407004,-0.3608512706805207,-1.7931274199559415
1782905649146481152,0.9366633892059326,0.7787155508995056,0.9474683403968811,-1.9065967798233032,-0.3018817901611328,-0.4380635917186737,-0.8467394709587097,0.06027412414550781,-0.3280344307422638,0.3647753596305847,0.5618418748582488,0.005842457679708483,-0.27676008000653396,-0.7795533833533407,0.4534434438300807,-0.3424737817656289,-1.8128512496060192
1782905649156401408,0.9465835094451904,1.6514960527420044,0.9652422666549683,-1.737248420715332,-0.28544366359710693,-0.45398589968681335,-0.8440490365028381,0.09180966019630432,-0.25249600410461426,0.18242794275283813,0.556008160452843,0.01570222383663478,-0.27879909441171385,-0.7828661825172227,0.47123372962522886,-0.326109562793303,-1.8275354579626262
1782905649166320384,0.9565024375915527,2.130343437194824,0.7728344798088074,-1.6817295551300049,-0.26977434754371643,-0.47511735558509827,-0.8375471830368042,0.16435140371322632,-0.30602583289146423,0.1328810453414917,0.5503497236281311,0.027082619293136947,-0.2837127583568076,-0.7847859013906855,0.49509741332217416,-0.3116071556121695,-1.8390771738626064
1782905649176240384,0.9664225578308105,2.434626340866089,0.748711109161377,-1.4748477935791016,-0.25558391213417053,-0.4985254108905792,-0.8283413052558899,0.18849101662635803,-0.4206945598125458,0.1530178189277649,0.5447122645536033,0.03867915533314615,-0.2904019188024002,-0.7857857554371896,0.5218968928062011,-0.2992813829354252,-1.8488101455640333
1782905649186160384,0.9763424396514893,2.27982497215271,0.928756058216095,-1.157589077949524,-0.2416861653327942,-0.5216150283813477,-0.8182331919670105,0.2161276936531067,-0.5428533554077148,0.055919349193573,0.5401973555305025,0.050535585728476856,-0.2972028949150508,-0.7856865946402058,0.5487428211803408,-0.28720890355493434,-1.8555964597112835
1782905649196079616,0.9862616062164307,1.914265513420105,0.9606813788414001,-1.2356846332550049,-0.22748121619224548,-0.5416711568832397,-0.8092247247695923,0.22442945837974548,-0.5696722269058228,0.20931017398834229,0.5362881994914539,0.06179760851010484,-0.30260319031753086,-0.7854981786536698,0.572423924789107,-0.2740377759395397,-1.8623906732183697
1782905649205999360,0.9961814880371094,1.2474265098571777,0.9829723238945007,-1.5642297267913818,-0.2116086781024933,-0.5579944252967834,-0.8024113178253174,0.06530742347240448,-0.3905376195907593,0.22065478563308716,0.5317993385876734,0.07231204179220165,-0.30588446076693104,-0.7863810039908545,0.591967054046799,-0.2578455660666339,-1.8733357061570115
1782905649215918336,1.0061004161834717,1.655132532119751,1.4915122985839844,-1.5789645910263062,-0.19215251505374908,-0.572985053062439,-0.7967216968536377,-0.2766432762145996,-0.02221447229385376,0.22367793321609497,0.5261698624813848,0.08348693971708998,-0.3076833967374186,-0.7883565511179063,0.6101434908047041,-0.23665942580710386,-1.8896965792957507
1782905649225838336,1.0160205364227295,1.1485284566879272,0.7564610242843628,-0.619828462600708,-0.17629499733448029,-0.5856078267097473,-0.7911912202835083,0.3215433955192566,-0.08056038618087769,0.0598222017288208,0.522721240485138,0.09325139997548322,-0.3093680128246849,-0.7888968052970344,0.6256297351843229,-0.219240655198237,-1.9000667648368517
1782905649235758336,1.0259404182434082,2.708540201187134,-0.2428041696548462,-1.095666527748108,-0.16895027458667755,-0.6015557646751404,-0.7807601690292358,1.0577442646026611,0.14640140533447266,0.23364108800888062,0.519264361534854,0.10066207880871783,-0.31541567914630353,-0.7878735293461201,0.645447266403603,-0.21310628720306665,-1.904635578871536
1782905649245677568,1.0358595848083496,3.4310216903686523,-0.0446346253156662,-1.1229722499847412,-0.1611345261335373,-0.6281977295875549,-0.7611854076385498,-0.08195322751998901,-0.33464711904525757,-0.2692558765411377,0.5124886052043743,0.11087808564556986,-0.3272817497319201,-0.7860967355753306,0.6792346711303707,-0.20860924633304959,-1.9121779785670545
1782905649255597312,1.0457794666290283,3.9054973125457764,0.1826055645942688,-0.8661080598831177,-0.1536785513162613,-0.6571449637413025,-0.7379318475723267,-0.017143577337265015,-0.2735496163368225,0.06688082218170166,0.5066380577769355,0.12237727692949127,-0.3406726717444567,-0.782485682591718,0.7170247515593403,-0.2053210231718454,-1.915231790250149
1782905649265516288,1.0556983947753906,4.507277011871338,0.15775375068187714,-1.0117579698562622,-0.14526495337486267,-0.6894395351409912,-0.7096275687217712,-0.2793871760368347,-0.17495566606521606,0.00874561071395874,0.5004710116171066,0.13577006488339896,-0.356023454013571,-0.7773947983818841,0.7607149989315642,-0.20191634117799226,-1.916649988120151
1782905649275436288,1.0656185150146484,5.013912677764893,-0.010616815648972988,-1.084928035736084,-0.13616631925106049,-0.7238960862159729,-0.6763380169868469,-0.18820501863956451,-0.1924552321434021,-0.007225155830383301,0.49306598226972687,0.1502621398238053,-0.37316520714328605,-0.771397972485732,0.8094329350218952,-0.19867291627775377,-1.9187893863237109
1782905649285356288,1.0755383968353271,5.461289882659912,-0.3413238823413849,-0.9597612619400024,-0.1291445940732956,-0.7599030137062073,-0.6370786428451538,0.0347689688205719,-0.24259960651397705,-0.07831424474716187,0.4845230079337889,0.16463298111901523,-0.39288250999166524,-0.7640529553462508,0.8631639106170843,-0.20000356997370308,-1.918939357307563
1782905649295275520,1.0854575634002686,5.7563323974609375,-0.6708468198776245,-0.8635115027427673,-0.12459103018045425,-0.7954964637756348,-0.5930112600326538,0.09450069069862366,-0.05074065923690796,0.034524381160736084,0.4750952304413121,0.17815774043201013,-0.41443237424171214,-0.7555064805403126,0.9198264607176295,-0.20708695018480475,-1.9160198541117008
1782905649305195264,1.0953774452209473,6.050345420837402,-0.814044177532196,-0.9126343131065369,-0.12114489078521729,-0.8304576873779297,-0.5437498092651367,0.030873887240886688,-0.002748429775238037,-0.038540780544281006,0.46458578532694594,0.19140655952343377,-0.43759411758884703,-0.7456774855829653,0.9799287780702655,-0.21921495742611313,-1.9099648471432953
1782905649315114496,1.1052966117858887,6.039381980895996,-0.9667410254478455,-0.9463744163513184,-0.11696858704090118,-0.8633610606193542,-0.4908422529697418,-0.05768349766731262,0.001483619213104248,0.06849426031112671,0.45300364409395116,0.20467292085523373,-0.46118095649255886,-0.7349890741916352,1.0418932577485005,-0.23393864590661376,-1.9022463854399443
1782905649325034496,1.1152164936065674,5.337380886077881,-0.8778899908065796,-0.8159891963005066,-0.11320050060749054,-0.890995442867279,-0.43967366218566895,-0.05566849559545517,-0.015224039554595947,0.050910234451293945,0.4415059341300194,0.21627486484636638,-0.4831028366403026,-0.7245063688808793,1.0995330064032276,-0.2519919500840052,-1.8920760724264447
1782905649334954496,1.1251366138458252,4.7882304191589355,-0.9026340246200562,-0.6216883659362793,-0.10966380685567856,-0.9127488136291504,-0.3935267925262451,-0.061600856482982635,-0.17570632696151733,0.2443874180316925,0.4310948597127541,0.22611340999582927,-0.5021048983750482,-0.7147870539298734,1.1499629854811517,-0.2717742462968506,-1.879441409441094
1782905649344873472,1.1350555419921875,4.216976642608643,-0.8883682489395142,-0.5168197154998779,-0.10733332484960556,-0.930232584476471,-0.35092294216156006,-0.05781255662441254,-0.35626643896102905,0.21370065212249756,0.421508777916796,0.23419015256201478,-0.519320225539561,-0.7055436330825647,1.1950460856256118,-0.2968243138879908,-1.8617566832163897
1782905649354793216,1.1449754238128662,3.770781993865967,-0.8745108842849731,-0.4236207604408264,-0.10512318462133408,-0.9440606832504272,-0.312567800283432,-0.11547310650348663,-0.29585325717926025,0.2796546518802643,0.4126128550915777,0.24093512513365184,-0.5344776582979935,-0.6971617858410561,1.2347344268115052,-0.32443723270130637,-1.841450953242264
1782905649364713472,1.154895544052124,3.53444242477417,-0.8842955827713013,-0.3083048164844513,-0.10367821156978607,-0.9552661180496216,-0.27697908878326416,-0.11636879295110703,-0.23076897859573364,0.27476659417152405,0.4043972237091666,0.24656259559424104,-0.5483770008638058,-0.6891679232605614,1.2705583528169466,-0.3581724464459527,-1.8149447800609113
1782905649374632448,1.1648144721984863,3.4153060913085938,-0.9302777647972107,-0.22797483205795288,-0.10297645628452301,-0.9646720886230469,-0.24249473214149475,-0.1251119077205658,-0.17136001586914062,0.25667017698287964,0.3964863141750499,0.25137390024975137,-0.5617506522854527,-0.6812092130253636,1.30419576117836,-0.4015778916379461,-1.779050684884955
1782905649384552448,1.1747345924377441,3.359182357788086,-0.9187217354774475,-0.18732194602489471,-0.10241145640611649,-0.9726320505142212,-0.2085637003183365,-0.11969546973705292,-0.10964334011077881,0.2095249891281128,0.3886547657332235,0.25573522829794315,-0.5747326707652145,-0.6732231063011183,1.3363024254361853,-0.45644751466315553,-1.7318513699673634
1782905649394471424,1.1846535205841064,3.1983189582824707,-0.9414718747138977,-0.10863519459962845,-0.10222959518432617,-0.9792048931121826,-0.17523376643657684,-0.07718325406312943,-0.09480023384094238,0.18109315633773804,0.3810637487087347,0.25964434070374964,-0.5873397088653762,-0.665137054928465,1.3665045008981636,-0.5281166071550135,-1.6677817723501582
1782905649404391168,1.1945734024047852,3.0764307975769043,-0.9592229127883911,-0.06157767400145531,-0.1022566482424736,-0.984389066696167,-0.14325398206710815,-0.057869091629981995,-0.07948422431945801,0.18620747327804565,0.3736423820504346,0.2629320651704834,-0.5993661117058762,-0.6572810301272684,1.3938686025066687,-0.6199368105431362,-1.5838828820892983
1782905649414311424,1.204493522644043,2.906928777694702,-1.0136843919754028,-0.01995389722287655,-0.10255148261785507,-0.9883630275726318,-0.11234600096940994,-0.07731913030147552,-0.12180536985397339,0.16598063707351685,0.366381971700608,0.2656586747841382,-0.6109439144898547,-0.6495669434781295,1.4180900752602343,-0.739852052604336,-1.4721802190797912
1782905649424230400,1.2144124507904053,2.763911247253418,-1.1349223852157593,0.05112320929765701,-0.1031506285071373,-0.9911954402923584,-0.08301625400781631,-0.0964495912194252,-0.12855565547943115,0.15252000093460083,0.3591559483792943,0.2675331814320895,-0.6220272249423007,-0.6422734637134969,1.437999316830976,-0.8931316949343542,-1.3280898750413554
1782905649434150400,1.224332571029663,2.9073376655578613,-1.2037956714630127,0.12554848194122314,-0.10417915880680084,-0.9931179285049438,-0.05351286008954048,-0.15770743787288666,-0.13754314184188843,0.1190340518951416,0.3517309853638642,0.26878796552958095,-0.633242922967692,-0.634855724183755,1.4534080175680772,-1.0962790573319028,-1.1351635416979138
1782905649444069376,1.2342514991760254,3.117098808288574,-1.2596114873886108,0.22742290794849396,-0.10580112040042877,-0.9941439032554626,-0.022002609446644783,-0.18533657491207123,-0.17187172174453735,0.08906501531600952,0.34409926760854004,0.2698542616046716,-0.6451181077800001,-0.626575639989395,1.4625204333303297,-1.3657568891077745,-0.8762757530262875
1782905649453989632,1.2441716194152832,3.463794231414795,-1.3436613082885742,0.3021220862865448,-0.10792527347803116,-0.9940828084945679,0.012308050878345966,-0.15127576887607574,-0.19634687900543213,0.11989414691925049,0.33602362631491306,0.2707564704112872,-0.6579095371545862,-0.6171985924759096,1.4619567932133586,-1.6843480920192198,-0.568935932238815
1782905649463909376,1.254091501235962,3.685001850128174,-1.3748162984848022,0.30509018898010254,-0.10995323210954666,-0.9926926493644714,0.049712806940078735,-0.09730690717697144,-0.1895734667778015,0.09219395369291306,0.327374835392981,0.27179626058855616,-0.671552824337334,-0.6066046575534311,1.4498313507105083,-1.9954175066263549,-0.26945640483639943
1782905649473828352,1.2640104293823242,3.811462163925171,-1.4568676948547363,0.2766244113445282,-0.11114136874675751,-0.9898312091827393,0.08877966552972794,0.01131836324930191,-0.20067477226257324,0.05880331993103027,0.31804524952446667,0.2728666209850575,-0.6855170606920985,-0.595363259890082,1.428065307783132,-2.2448048175324526,-0.03231184858552299
1782905649483748352,1.273930549621582,3.8431544303894043,-1.5178653001785278,0.33734580874443054,-0.11192549020051956,-0.9853662848472595,0.1285528689622879,0.15143051743507385,-0.2599186897277832,0.03402946889400482,0.30836674577554024,0.27371739607932416,-0.6995392931433873,-0.5836381292248778,1.3995098024802295,-2.425227548970776,0.13536741490787477
1782905649493668352,1.2838504314422607,3.840352773666382,-1.6471738815307617,0.39307576417922974,-0.11246522516012192,-0.9793006777763367,0.16829079389572144,0.2672198712825775,-0.31517863273620605,0.045149192214012146,0.29832636687956415,0.273957946872814,-0.7135071403961161,-0.5717132184222865,1.366977181750709,-2.5524745487962197,0.24872736104611615
1782905649503587584,1.2937695980072021,3.8716299533843994,-1.7369798421859741,0.5222832560539246,-0.11298000067472458,-0.9715545177459717,0.20812833309173584,0.3055459260940552,-0.3121826648712158,0.12524569034576416,0.28795852184223936,0.2734755579801629,-0.7275130830599105,-0.5594781182455822,1.3317090895196795,-2.644264594898781,0.3253728039214857
1782905649513507328,1.3036894798278809,3.9364242553710938,-1.914194107055664,0.6456674337387085,-0.11374888569116592,-0.9620016813278198,0.24822205305099487,0.2543586194515228,-0.21960854530334473,0.23380306363105774,0.2773088340818106,0.2721199401527621,-0.741661490605486,-0.5467987413588922,1.294240913291538,-2.711895489785858,0.3764530704115901
1782905649523426304,1.3136084079742432,4.2457122802734375,-1.8704471588134766,0.7176963686943054,-0.11424596607685089,-0.9503128528594971,0.2895752191543579,0.14300879836082458,-0.07265180349349976,0.324575811624527,0.2661598190392124,0.2702772155657564,-0.7561334731961217,-0.5332649490990503,1.2542392734147325,-2.765811088387165,0.4127268591043289
1782905649533346304,1.323528528213501,4.7995686531066895,-1.709790587425232,0.844346821308136,-0.11510831862688065,-0.9353049993515015,0.33459609746932983,0.07255154848098755,0.00781482458114624,0.36472949385643005,0.25490722076620814,0.2687940156952813,-0.7713934332897739,-0.5174207406622086,1.2091200337397114,-2.8102536238840123,0.4405867693316235
1782905649543266304,1.3334484100341797,5.30911111831665,-1.6266374588012695,0.8166565895080566,-0.1160593330860138,-0.9161518812179565,0.3836609125137329,0.10119727998971939,0.002928793430328369,0.4147246479988098,0.2434345966562627,0.2679048058786567,-0.7874372819517964,-0.49890785464979387,1.158372292834241,-2.8478393173552243,0.4629684327246964
1782905649553185536,1.343367576599121,5.663496971130371,-1.3736300468444824,0.8994330763816833,-0.11636555939912796,-0.8926430940628052,0.4354845881462097,0.15410053730010986,-0.09403574466705322,0.43086352944374084,0.2316230342954058,0.26769674098868745,-0.8037914862269829,-0.47813000350032386,1.1031751812844828,-2.8804836704760985,0.4817503415234377
1782905649563105280,1.3532874584197998,5.810442924499512,-0.9612930417060852,1.1167742013931274,-0.11879674345254898,-0.8648664951324463,0.4877435564994812,0.2569040358066559,-0.21556276082992554,0.4839210510253906,0.22110492871958132,0.2677280994882536,-0.8198740369192784,-0.4552373112353202,1.044884393293936,-2.9026805684120207,0.4932561994683236
1782905649573024256,1.363206386566162,5.817427635192871,-0.7784892320632935,1.350502610206604,-0.12355319410562515,-0.833426296710968,0.5386423468589783,0.35800448060035706,-0.3282865285873413,0.4524160623550415,0.21189566026904666,0.2673529345833741,-0.8353703302908968,-0.43102107710676957,0.9852789737358439,-2.9161142338829165,0.4980816123541473
1782905649582944512,1.37312650680542,5.474766254425049,-0.5946691036224365,1.500536561012268,-0.12996146082878113,-0.7993453145027161,0.5866494178771973,0.48596426844596863,-0.43190181255340576,0.3494926691055298,0.2036967744413245,0.26612787204191024,-0.8500003941436242,-0.40642719734815574,0.9262049005152927,-2.923581795900431,0.4976658450664801
1782905649592864256,1.3830463886260986,4.594503402709961,-0.2609012722969055,1.435307264328003,-0.13681624829769135,-0.7665844559669495,0.6273989677429199,0.48697495460510254,-0.41163814067840576,0.4372677206993103,0.1971020533838551,0.264515628332343,-0.8623983864809001,-0.3839938379098235,0.8735051945144359,-2.926884988792768,0.49469083605515063
1782905649602783488,1.39296555519104,4.275809288024902,0.12262243032455444,1.709204077720642,-0.1453578919172287,-0.7354341149330139,0.6618212461471558,0.3914669156074524,-0.46616482734680176,0.3982066512107849,0.19256351314219747,0.26259776130970863,-0.8728992167452628,-0.36332980979302554,0.8263071168044195,-2.9253922845454614,0.48936506176318706
1782905649612703232,1.4028854370117188,4.028107643127441,0.28368639945983887,2.0897104740142822,-0.15620079636573792,-0.7033082246780396,0.6935117244720459,0.3859371542930603,-0.5373685359954834,0.2740938067436218,0.18921514144030496,0.2595432677148073,-0.8828324632568143,-0.3426976497799002,0.7800405593825672,-2.9200577187459276,0.48048757406885906
1782905649622622464,1.4128046035766602,3.744673252105713,0.4110414385795593,2.359081506729126,-0.1640668660402298,-0.6694439053535461,0.7245182394981384,0.4611402451992035,-0.5289508104324341,0.3531946539878845,0.18425424468403567,0.25588295952802337,-0.8926270429803068,-0.3221663900247239,0.7334599535235581,-2.9188988957355924,0.4725121643699989
1782905649632542464,1.4227244853973389,3.52683687210083,0.5691937208175659,2.5529134273529053,-0.1704767644405365,-0.6346954107284546,0.7537234425544739,0.5218561887741089,-0.6107879281044006,0.3377528190612793,0.1786949946715513,0.25147471913659986,-0.9020100895539642,-0.30200374715970496,0.687614287487218,-2.9191558765216974,0.46385380666419623
1782905649642462464,1.4326446056365967,3.4717977046966553,0.7497451305389404,2.814875364303589,-0.18870802223682404,-0.6025252938270569,0.7754692435264587,0.5901820063591003,-0.6944411993026733,0.25562816858291626,0.1795470455630309,0.24405355988588254,-0.9100398250996053,-0.282892625656944,0.6466614875775707,-2.9028854891303832,0.44370039230138497
1782905649652381440,1.442563533782959,3.563936233520508,0.7553597092628479,3.119014024734497,-0.20997270941734314,-0.568730354309082,0.7952719330787659,0.6648066639900208,-0.6844435334205627,0.1391916275024414,0.18182703986311102,0.23511301121321954,-0.9178005449735689,-0.2632546731728455,0.6049614528615969,-2.883456941845065,0.4205956397597013
1782905649662301184,1.4524834156036377,3.622419595718384,0.7138016223907471,3.3737740516662598,-0.23209959268569946,-0.5326379537582397,0.8138960003852844,0.723386824131012,-0.5674139261245728,0.04401421546936035,0.1843875012177472,0.22465677335406892,-0.9254606087220872,-0.24300881025181664,0.561714416910943,-2.8637952936824047,0.3956742351838057
1782905649672221440,1.4624035358428955,3.7338714599609375,0.7518901228904724,3.482069492340088,-0.25426819920539856,-0.4941563606262207,0.8313584327697754,0.6934772729873657,-0.47999516129493713,-0.05874502658843994,0.1870550866788447,0.21323330881911925,-0.9328508797048866,-0.2221060234738888,0.5168641504791934,-2.844780614039013,0.37044286968928036
1782905649682140416,1.4723224639892578,3.96201491355896,0.7485172152519226,3.5563368797302246,-0.2757354974746704,-0.45276856422424316,0.8479211330413818,0.6293121576309204,-0.4735008776187897,-0.13692277669906616,0.18960747727810562,0.20147682644023876,-0.9398764006682507,-0.2002207663463964,0.4698679748642071,-2.8271888854276015,0.3464952062501277
1782905649692060416,1.4822425842285156,4.028430938720703,0.7794151306152344,3.658531904220581,-0.29618626832962036,-0.40837177634239197,0.8634273409843445,0.5636422634124756,-0.4742577373981476,-0.16173642873764038,0.19192335806659977,0.1892641795287958,-0.9465161013395234,-0.17734686782495696,0.420669599643903,-2.811135652891094,0.32354271412311725
1782905649701979392,1.492161512374878,3.8577330112457275,0.9400418400764465,3.63287615776062,-0.3162355124950409,-0.3631384074687958,0.876427948474884,0.4788025915622711,-0.4500178098678589,-0.12046158313751221,0.1946999778647006,0.17671189155374778,-0.952358583551029,-0.15452519873651827,0.3716340323160052,-2.7953085307263192,0.30119947962886373
1782905649711899392,1.5020813941955566,3.617449998855591,0.9868342876434326,3.628377676010132,-0.33548611402511597,-0.3188627362251282,0.8864399790763855,0.42481106519699097,-0.4009858965873718,-0.08811533451080322,0.19796028629868384,0.16401243848031408,-0.957246000467986,-0.13263405923035113,0.3245293556030573,-2.7797880257984176,0.2795145899399559
1782905649721819392,1.5120015144348145,3.395024299621582,0.9737794995307922,3.6349499225616455,-0.353512167930603,-0.27555152773857117,0.8939242362976074,0.434109091758728,-0.3583596348762512,-0.10278654098510742,0.20139773577061212,0.1509129770754446,-0.9613466488621037,-0.11169979603171742,0.27916337917635875,-2.7650053055155865,0.25788986485461524
1782905649731739904,1.5219221115112305,3.01857328414917,0.8883544206619263,3.5840117931365967,-0.3692920506000519,-0.23419645428657532,0.8993194699287415,0.4439075291156769,-0.3435318171977997,-0.14692378044128418,0.20453526989035165,0.13749568455983271,-0.9647562702871147,-0.09222589214614371,0.23639194847646167,-2.7519519238925088,0.2362750072503053
1782905649741659904,1.5318419933319092,2.547907590866089,0.9967328310012817,3.5101735591888428,-0.3836742043495178,-0.19620093703269958,0.9023852348327637,0.4486003816127777,-0.426174521446228,-0.17699778079986572,0.20787891832783756,0.12386131630572146,-0.9673939234904373,-0.07479095525136358,0.19748204920721601,-2.739571404595634,0.21432122964267664
1782905649751578880,1.5417609214782715,1.9067057371139526,0.9981569647789001,3.455888271331787,-0.3970538377761841,-0.1631573736667633,0.9031767845153809,0.4552355408668518,-0.4864856004714966,-0.1802610158920288,0.21164306310257344,0.10994622932611962,-0.9692781918260206,-0.060157479112062755,0.16389007399773342,-2.727404872883701,0.19138837581747703
1782905649761498880,1.5516810417175293,1.3679202795028687,0.9333018064498901,3.3761773109436035,-0.4088270962238312,-0.13541851937770844,0.9025088548660278,0.5165541172027588,-0.5009034872055054,-0.17179596424102783,0.21538375977721916,0.09565500657025836,-0.9706207054522181,-0.04853258013982392,0.13583586562951164,-2.7162553810005967,0.16709165362382358
1782905649771418880,1.561600923538208,0.9018172025680542,0.8355607986450195,3.317546844482422,-0.41854485869407654,-0.11245590448379517,0.9012066721916199,0.5260583162307739,-0.5107129812240601,-0.17960351705551147,0.2186933047160372,0.08108205807549053,-0.9716115641202678,-0.03962061470930938,0.11269428618011275,-2.706806087254494,0.1415989162212234
1782905649781337856,1.5715200901031494,0.8360602855682373,0.7558742165565491,3.4001646041870117,-0.4262077212333679,-0.09190206974744797,0.8999448418617249,0.4736168682575226,-0.5191819071769714,-0.18061518669128418,0.2213414396062277,0.0662325717742734,-0.9724122951977772,-0.03217876121293188,0.0920319331797685,-2.699292811946635,0.11530799618007719
1782905649791257856,1.5814399719238281,1.1075794696807861,0.7036615014076233,3.5413384437561035,-0.4318658113479614,-0.07009285688400269,0.8992103338241577,0.40417107939720154,-0.4878905415534973,-0.17295289039611816,0.22316336555755334,0.05085115000373,-0.9731491773561374,-0.024352192032333658,0.0701503805766588,-2.693851384666442,0.08843492611908925
1782905649801177856,1.591360092163086,1.4154489040374756,0.561418354511261,3.5135340690612793,-0.43451446294784546,-0.04609648510813713,0.8994843363761902,0.3070884048938751,-0.4472506642341614,-0.14577656984329224,0.2236476597634123,0.03566556442098492,-0.973894322084509,-0.015475726384168905,0.046112824735971086,-2.691580041631538,0.06265430403088039
1782905649811096832,1.6012790203094482,1.357604742050171,0.4927101731300354,3.5112574100494385,-0.4323525130748749,-0.02248097024857998,0.9014244079589844,0.2522225081920624,-0.45498180389404297,-0.14341354370117188,0.2219047486507057,0.020829614518136072,-0.9748222067614906,-0.006789232661178585,0.02248286433371681,-2.6943713383323926,0.03761558991269587
1782905649821016832,1.611198902130127,0.9794651865959167,0.4261623024940491,3.4704909324645996,-0.42575138807296753,-0.00340802944265306,0.9048334956169128,0.1954353153705597,-0.4787544310092926,-0.20021343231201172,0.21813519415930072,0.006021531272324536,-0.9758998424031486,-0.00040015053444224843,0.003408036070670273,-2.7017976884235684,0.011578574958534843
1782905649830936064,1.6211180686950684,0.3435101807117462,0.32515397667884827,3.536294937133789,-0.4202391803264618,0.01165207289159298,0.9073385000228882,0.16036677360534668,-0.5370731949806213,-0.25032562017440796,0.215211352911396,-0.009618324607289657,-0.976512543824017,0.0038464063077286296,-0.011652337003921083,-2.7078523073086025,-0.017131249526401823
1782905649840855808,1.631037950515747,-0.27675309777259827,0.21831730008125305,3.658257007598877,-0.41923946142196655,0.024953177198767662,0.9075326323509216,0.13167235255241394,-0.5461629033088684,-0.2639627456665039,0.2149099766976109,-0.026797968754816028,-0.97624187192757,0.006880914978215678,-0.0249557666066097,-2.708841358098744,-0.04940051030251435
1782905649850776064,1.6409580707550049,-0.764053225517273,0.17844513058662415,3.731684923171997,-0.4184376299381256,0.034078117460012436,0.9076056480407715,0.05820828676223755,-0.5112509727478027,-0.26727086305618286,0.21480304304490472,-0.04513434990597043,-0.9755848008760872,0.007527857744628367,-0.03408471798135937,-2.709600298872534,-0.08498231213652041
1782905649860694784,1.6508769989013672,-0.8824832439422607,0.05687982589006424,3.8288462162017822,-0.4171402156352997,0.04112520068883896,0.9079111814498901,0.021449297666549683,-0.47712984681129456,-0.26745402812957764,0.21446638933753237,-0.06421004512140323,-0.9745935916112854,0.006968754873748291,-0.04113680197353284,-2.7109075803818206,-0.1225784473832652
1782905649870615040,1.660797119140625,-0.7313576936721802,-0.058872073888778687,3.854180335998535,-0.4148019254207611,0.04877232387661934,0.9086037874221802,0.06037071347236633,-0.43665075302124023,-0.2741432189941406,0.2136661795394294,-0.0835998363970237,-0.9733000376521841,0.006702665464696325,-0.04879168124195954,-2.7133243708549393,-0.16075312581372528
1782905649880534016,1.6707160472869873,-0.9188255667686462,-0.31679683923721313,3.819368362426758,-0.4105722904205322,0.05675407499074936,0.9100602865219116,0.11253756284713745,-0.36493584513664246,-0.29227757453918457,0.21195341531639375,-0.10288746614214048,-0.9718252456023859,0.006760152524054418,-0.05678458541830502,-2.717784080274406,-0.19873543923200762
1782905649890453760,1.680635929107666,-1.4579957723617554,-0.528386116027832,3.7608249187469482,-0.40415072441101074,0.06048936769366264,0.9126902222633362,0.13336819410324097,-0.18573351204395294,-0.3311929702758789,0.2088817542910946,-0.12234331278943597,-0.9702459590052613,0.004833206138657888,-0.060526317990977914,-2.724731815540612,-0.23806114147667456
1782905649900374016,1.6905560493469238,-1.6751989126205444,-0.9167740345001221,3.700352430343628,-0.39526262879371643,0.06052539870142937,0.9165721535682678,0.0003345310688018799,0.13114026188850403,-0.4043344259262085,0.20423572714908086,-0.14182900807707916,-0.9685920760684621,0.0013381787587444518,-0.060562414952098624,-2.7344485159717276,-0.2782838508073568
1782905649910292736,1.7004749774932861,-1.7864986658096313,-1.2475107908248901,3.5923678874969482,-0.38265934586524963,0.05828092619776726,0.9220496416091919,-0.16958680748939514,0.39255526661872864,-0.41527462005615234,0.19740228078801936,-0.16113897494583027,-0.9669845087085805,-0.002759856893277356,-0.05831396863914714,-2.7482144019078114,-0.31862373101459146
1782905649920212992,1.710395097732544,-1.8410823345184326,-1.3826638460159302,3.1669156551361084,-0.3685302138328552,0.05397341772913933,0.9280475378036499,-0.3792572319507599,0.42423704266548157,-0.4610218405723572,0.1895367213057849,-0.17912188007155258,-0.9653699465623892,-0.007213261025424993,-0.053999656577775675,-2.7635864213474246,-0.35659017332352977
1782905649930131968,1.7203140258789062,-1.9869415760040283,-1.4231598377227783,2.9093706607818604,-0.3537976145744324,0.04679042100906372,0.9341508150100708,-0.41039299964904785,0.2540671229362488,-0.4563981890678406,0.18102612366467127,-0.1953275101566649,-0.9638062938668145,-0.012413461531530941,-0.04680750953681011,-2.77954961221558,-0.3913404387971319
1782905649940051712,1.730233907699585,-2.160205841064453,-1.416633129119873,2.7138683795928955,-0.33936965465545654,0.03668779879808426,0.9399373531341553,-0.24406540393829346,0.05883221700787544,-0.31274014711380005,0.17228872651157648,-0.2106294310117221,-0.9620831085352776,-0.01865241904294122,-0.03669603353242312,-2.7951028905439252,-0.4246376074892258
1782905649949971968,1.7401540279388428,-2.370590925216675,-1.4092798233032227,2.493986129760742,-0.32553717494010925,0.023796742781996727,0.9452295899391174,-0.16500231623649597,0.052085213363170624,-0.22237515449523926,0.16344371016773418,-0.2250097469972347,-0.9602007052150191,-0.025909225691220245,-0.02379898871433369,-2.809915262618485,-0.4563819423871155
1782905649959890944,1.750072956085205,-2.4545435905456543,-1.337173342704773,2.3263895511627197,-0.3120390474796295,0.008391860872507095,0.9500321745872498,-0.2412140965461731,0.2868962287902832,-0.27928638458251953,0.1543496020808684,-0.23862128044488104,-0.9581628060712528,-0.03406015013069786,-0.008391959820781211,-2.8242425810961445,-0.48680777115086205
1782905649969810944,1.759993076324463,-2.3645477294921875,-1.3083288669586182,1.8738982677459717,-0.2993749678134918,-0.008333171717822552,0.9540991187095642,-0.3420282006263733,0.4052142798900604,-0.3725104331970215,0.1454144935662671,-0.25070221957213545,-0.9561369902178145,-0.04248588084298083,0.0083332683299038,-2.837544238330033,-0.5141380694514799
1782905649979730944,1.7699129581451416,-1.9871940612792969,-1.4200338125228882,1.6352550983428955,-0.28651726245880127,-0.024641457945108414,0.9577584862709045,-0.3682374358177185,0.3539871573448181,-0.39786744117736816,0.13639591830087844,-0.2607300800044776,-0.954410329736259,-0.05017050453469796,0.024643952573445174,-2.8509122071493174,-0.5369625520470627
1782905649989649664,1.779831886291504,-1.424825668334961,-1.495008111000061,1.6763819456100464,-0.2731121778488159,-0.03627850487828255,0.9612979888916016,-0.34796637296676636,0.26737284660339355,-0.377252459526062,0.12766987372362842,-0.2701416606960184,-0.9527184609060749,-0.055240039088981244,0.03628646921428112,-2.8647789493244367,-0.5576471032627525
1782905649999569920,1.7897520065307617,-0.8088358044624329,-1.1429544687271118,1.7681595087051392,-0.26064616441726685,-0.04288620129227638,0.9644814729690552,-0.46559593081474304,0.21390670537948608,-0.21368789672851562,0.120058443186869,-0.2794730862465218,-0.9508604231975989,-0.057838355996189014,0.04289935715361612,-2.877652606968957,-0.5774270818863974
1782905650009488896,1.799670934677124,-0.4797339141368866,-1.0921790599822998,1.4082846641540527,-0.2508850693702698,-0.04486006125807762,0.966977059841156,-0.569122314453125,0.28129497170448303,-0.00501704216003418,0.11449450346370567,-0.28762560916337077,-0.9490837886026621,-0.05833160677734801,0.0448751219969711,-2.8877370433608434,-0.5942440284021244
1782905650019408896,1.8095910549163818,-0.32402685284614563,-1.2358129024505615,1.1023516654968262,-0.24042198061943054,-0.04584164917469025,0.9695852994918823,-0.6638901233673096,0.511936604976654,0.09045791625976562,0.108856208089618,-0.29397472062231644,-0.9478246208541969,-0.05794510524309866,0.04585771900109857,-2.898531402133256,-0.6070999968576128
1782905650029328896,1.8195109367370605,-0.08567828685045242,-1.3510732650756836,0.6019166111946106,-0.22809506952762604,-0.045985374599695206,0.9725522398948669,-0.6351556777954102,0.6385299563407898,0.08083820343017578,0.10257380163059995,-0.2984249203297989,-0.9472162803394494,-0.05659031399112635,0.04600159892657946,-2.911223808070155,-0.615744263404581
1782905650039247872,1.829430103302002,0.18737535178661346,-0.7010120153427124,0.8512438535690308,-0.219018816947937,-0.04377783462405205,0.9747382998466492,-0.7105313539505005,0.6810916662216187,0.08702945709228516,0.0983114195222418,-0.3017898889029334,-0.9467269951442457,-0.054459533431462835,0.04379183157014166,-2.920568529019051,-0.6220370643581475
1782905650049167872,1.8393499851226807,-0.16624011099338531,-0.6989200115203857,0.6750555634498596,-0.21274186670780182,-0.043029993772506714,0.97616046667099,-0.7030448317527771,0.6510164737701416,0.25558996200561523,0.09516924897785033,-0.30567692685045417,-0.9458550894929769,-0.05350295240034706,0.04304328253557536,-2.9270105780004037,-0.6297977879186679
1782905650059087872,1.8492701053619385,0.13648167252540588,-0.7167868614196777,-0.1143421158194542,-0.20503222942352295,-0.04264451190829277,0.9778257608413696,-0.8171998262405396,0.5883598327636719,0.10486161708831787,0.09141307886307727,-0.3073859030023154,-0.945741390830773,-0.05225672574644454,0.042657449207910064,-2.934905273829769,-0.6329267543790555
1782905650069006848,1.8591890335083008,0.49909403920173645,0.04195086285471916,0.15939080715179443,-0.20229317247867584,-0.03981190547347069,0.9785157442092896,-0.7939227223396301,0.5830095410346985,0.10206615924835205,0.09053997721389638,-0.30721083118426856,-0.9459806421732836,-0.05044586785299038,0.039822430028398866,-2.9377298794597837,-0.6320923406531247
1782905650078926848,1.8691089153289795,-0.03234295919537544,-0.008680620230734348,0.3481132984161377,-0.20237167179584503,-0.037051305174827576,0.978607714176178,-0.5971278548240662,0.4339323937892914,0.0672602653503418,0.09095139001427886,-0.30823054774144515,-0.9456731977571085,-0.04923439624033821,0.0370597869150307,-2.937671581899348,-0.6339518097730545
1782905650088846080,1.879028081893921,-0.18362835049629211,-0.6496990919113159,0.9283730983734131,-0.1995868682861328,-0.03741788864135742,0.97916579246521,-0.34445005655288696,0.5332522392272949,0.06345224380493164,0.08938631630142192,-0.31143676208287274,-0.9447698354490486,-0.049268222084512626,0.03742662725767168,-2.9405136992528766,-0.6406272911576808
1782905650098765824,1.8889479637145996,0.9286707043647766,-0.9553216099739075,0.03545833006501198,-0.19385577738285065,-0.031735919415950775,0.9805165529251099,-0.37979835271835327,0.5206732749938965,-0.24630945920944214,0.0874279279403621,-0.31333784681531557,-0.9444986401811962,-0.04580465863798483,0.03174124786246999,-2.9464020913837166,-0.643758488647706
1782905650108686080,1.8988680839538574,1.5571352243423462,-0.4634365737438202,0.09353654831647873,-0.18746216595172882,-0.021243885159492493,0.9820423722267151,-0.5947034358978271,0.5165136456489563,-0.2676713466644287,0.08602357162164205,-0.3130329318858822,-0.945003468755291,-0.039735466354237095,0.021245483630980187,-2.95297175579903,-0.6417595725374802
1782905650118604800,1.9087870121002197,1.9065680503845215,-1.1310311555862427,0.6974279880523682,-0.17979061603546143,-0.0032953545451164246,0.9836995601654053,-0.3390234708786011,0.309630811214447,-0.5001026391983032,0.08513961472501969,-0.3139641419332049,-0.9451329528552705,-0.030025895618332975,0.0032953605767000304,-2.9608180948496168,-0.6417419421436936
1782905650128524800,1.9187068939208984,2.232811450958252,-1.2423118352890015,-0.6976468563079834,-0.16963081061840057,0.016244366765022278,0.9853739738464355,-0.08789178729057312,0.07364515960216522,-0.289023756980896,0.08336373074472095,-0.3137331648262238,-0.9456524191826298,-0.01906808805172898,-0.01624508147655559,-2.97111493466561,-0.6392864303190907
1782905650138444032,1.9286260604858398,3.3575336933135986,-0.9229770302772522,0.5958337187767029,-0.15739469230175018,0.04437043517827988,0.9865385890007019,-0.20457430183887482,0.09756681323051453,-0.47042524814605713,0.08196236068000722,-0.312199639442881,-0.9464674682186519,-0.0035958990280121872,-0.04438500786246214,-2.983383638471947,-0.6337196232697544
1782905650148363776,1.9385459423065186,3.9226880073547363,-1.906235933303833,0.695565938949585,-0.14449074864387512,0.0801474004983902,0.9862550497055054,0.22388219833374023,-0.0447012260556221,-0.4044525623321533,0.08145251352047157,-0.312770272960488,-0.946204139526095,0.015427721381351803,-0.08023345230285653,-2.9961230830860246,-0.6326425147182945
1782905650158284032,1.9484660625457764,2.758136034011841,-1.5265365839004517,-0.1382325291633606,-0.1275245100259781,0.11315498501062393,0.9853596091270447,0.6510077714920044,-0.2703052759170532,-0.4303363561630249,0.07864357510914019,-0.31432542120696355,-0.9454519234862516,0.033695863112730796,-0.11339786266089572,-3.0128887873539725,-0.634614351526946
1782905650168202752,1.9583849906921387,3.33123779296875,-1.0854542255401611,-1.3733704090118408,-0.11763670295476913,0.141365647315979,0.9829432964324951,0.41782286763191223,0.321708083152771,0.11524701118469238,0.0781942375772275,-0.3092101400741639,-0.9464992078508511,0.04913302852051201,-0.1418407804635933,-3.022481152974485,-0.6230445920066053
1782905650178123008,1.9683051109313965,2.744236946105957,-0.9805541634559631,-0.42797738313674927,-0.10955580323934555,0.16994662582874298,0.9793446063995361,0.7076697945594788,0.0001736283302307129,-0.08032715320587158,0.07845093624877943,-0.30283172262217156,-0.9476102909333743,0.06460027367546142,-0.1707755136902142,-3.030189369503648,-0.6090877183122597
1782905650188042752,1.9782249927520752,3.0740790367126465,-1.5358470678329468,-0.5430864691734314,-0.09895733743906021,0.19782492518424988,0.9752298593521118,1.0081217288970947,0.057210519909858704,0.3031975030899048,0.07740999884639412,-0.2988014372726998,-0.9478041065899372,0.07995559562409518,-0.19913849159959995,-3.0404679937097816,-0.600677598020523
1782905650197961728,1.9881439208984375,3.783862590789795,-1.6452620029449463,0.382862389087677,-0.0828116238117218,0.23122383654117584,0.9693697094917297,0.8194448947906494,-0.022498860955238342,0.04669773578643799,0.07452459631307073,-0.2954656286417039,-0.94730402221405,0.09879875813410614,-0.2333354195726116,-3.056371246163767,-0.594685271407647
1782905650207881984,1.9980640411376953,3.757389545440674,-1.1079610586166382,1.1656302213668823,-0.07055696845054626,0.27002131938934326,0.9602655172348022,1.0359348058700562,-0.10336488485336304,0.21702617406845093,0.07500193278494847,-0.29777546313596365,-0.9441729283589992,0.11933928321914418,-0.273415165123285,-3.068247933300427,-0.6009230062252116
1782905650217800960,2.0079829692840576,2.991544485092163,-1.4919332265853882,0.05365237966179848,-0.05920211598277092,0.30198290944099426,0.9514731168746948,0.3502482771873474,0.31747809052467346,0.22008126974105835,0.07484890608522161,-0.29912950688967843,-0.9414128197150736,0.13660525374072038,-0.30677198667173555,-3.079451232841895,-0.6057025462244553
1782905650227720960,2.0179030895233154,2.3376543521881104,-1.4039311408996582,-0.7294259071350098,-0.0468415804207325,0.3260264992713928,0.9441994428634644,-0.1607237309217453,0.3982776999473572,0.20057594776153564,0.07215911441117605,-0.29514801819996256,-0.9407376736114693,0.1506430849996835,-0.33209734338521457,-3.0920234573226737,-0.5997211511782893
1782905650237640960,2.027822971343994,2.0843262672424316,-0.6380430459976196,0.04999665915966034,-0.03944949433207512,0.34707990288734436,0.9370054006576538,0.2561090588569641,0.018398582935333252,0.36873483657836914,0.07152508937876151,-0.2923650043442081,-0.9396943126636298,0.16242358450832553,-0.354455647278159,-3.0995158291811524,-0.5957311300068254
1782905650247559680,2.0377418994903564,0.8748096227645874,-0.9754361510276794,-0.1216813251376152,-0.03312816470861435,0.3604389727115631,0.9321943521499634,0.08728160709142685,0.05795702338218689,0.3086656332015991,0.07036874298379864,-0.29093253430689636,-0.9388585801903052,0.17015015473719364,-0.3687384627562866,-3.106069772314601,-0.5943652786016688
1782905650257479936,2.0476620197296143,0.37296438217163086,-0.5569502115249634,-0.473957359790802,-0.026739025488495827,0.3648851811885834,0.9306683540344238,0.22374525666236877,0.12470829486846924,0.3853715658187866,0.0675291208796321,-0.2884820333919814,-0.9392083287113419,0.17350959146681527,-0.37350948056766714,-3.11286956162301,-0.5905872436033256
1782905650267398912,2.0575809478759766,0.6521985530853271,-0.9656680822372437,0.41947150230407715,-0.020753435790538788,0.3711111843585968,0.9283562302589417,0.3448348641395569,-0.09598007798194885,0.14290207624435425,0.06537530308870668,-0.2871905701268366,-0.9389886589567934,0.17761707968362134,-0.38020537711476393,-3.1192413423748913,-0.5893306841328578
1782905650277318912,2.0675010681152344,-1.260464072227478,-1.0528767108917236,0.024058636277914047,-0.010178563185036182,0.3685491383075714,0.9295523166656494,0.4315805435180664,-0.016757845878601074,0.24087285995483398,0.05992740093014513,-0.28781563973918883,-0.9391157155241677,0.17785511025030604,-0.3774478200633675,-3.1306431286158114,-0.5926819391136722
1782905650287238912,2.077420949935913,-1.5000821352005005,-0.8820533156394958,-0.9930623173713684,-0.003765234723687172,0.354048490524292,0.9352197051048279,0.4731713533401489,0.08079656958580017,0.36632466316223145,0.05403010736776539,-0.2853157027631152,-0.941384515887488,0.17167120006799752,-0.36189646601979975,-3.1375666323750937,-0.5878253895592912
1782905650297157888,2.0873401165008545,-1.8804244995117188,-0.5190889835357666,-0.27708932757377625,0.0006056299316696823,0.34040817618370056,0.9402773976325989,0.48755356669425964,-0.05499255657196045,-0.0877690315246582,0.04919019115254009,-0.28205596237854075,-0.9437071188356951,0.1656548868898898,-0.3473509537449256,3.1409485565602617,-0.5809723740224566
1782905650307077888,2.097259998321533,-3.5012667179107666,-0.5670287013053894,-0.578068196773529,0.0043946257792413235,0.3137377202510834,0.949499785900116,0.5384215116500854,0.1357557773590088,0.03557741641998291,0.043144491127703126,-0.2813466763276065,-0.9463582467809498,0.15293394782459585,-0.31912696366877175,3.1369643275541246,-0.5786897696680029
1782905650316997888,2.107180118560791,-3.1953577995300293,-0.466264545917511,-1.1763328313827515,0.006323192734271288,0.28180956840515137,0.9594495892524719,0.2075287252664566,0.18408703804016113,0.15644097328186035,0.03673158036384188,-0.27672187455697633,-0.9503419310674304,0.13757191209937672,-0.2856796045657238,3.1350023110933183,-0.5676414543706904
1782905650326916864,2.1170990467071533,-3.081511974334717,-0.5504540801048279,-0.34188947081565857,0.008246543817222118,0.2515197694301605,0.9678170680999756,0.2846306562423706,0.08290711045265198,-0.13331389427185059,0.031010619327752707,-0.27387578216205816,-0.9533627728741921,0.12300336160083691,-0.2542501826085099,3.133072092624919,-0.5605701126159659
1782905650336836864,2.127018928527832,-2.975451707839966,-0.3145512342453003,-0.610666811466217,0.01160664577037096,0.22187501192092896,0.9750059247016907,0.33426433801651,0.23681940138339996,0.044021666049957275,0.024927486812531024,-0.27189054384385763,-0.9558130052079863,0.10897524588031107,-0.22373699061901392,3.129689036479879,-0.5556164719586738
1782905650346756096,2.1369380950927734,-2.038611650466919,-0.7581942081451416,-0.320759654045105,0.015434452332556248,0.19728215038776398,0.9802253842353821,0.3638380169868469,0.1439196616411209,-0.14518797397613525,0.019396542829146456,-0.26962857080750774,-0.9578168518716772,0.0975251307847091,-0.19858480983926877,3.125848134937211,-0.5503728062151387
1782905650356675840,2.146857976913452,-1.3610975742340088,-0.735302746295929,-0.0008458489319309592,0.022736171260476112,0.1812344640493393,0.9831770062446594,0.48225346207618713,0.1932162195444107,-0.1874006986618042,0.013556154281086785,-0.2686311236844659,-0.958866952530293,0.0907066681055079,-0.1822415562211888,3.118471568125289,-0.5484171246262639
1782905650366596096,2.15677809715271,-1.3592407703399658,-0.4519667327404022,-0.4299081265926361,0.028273148462176323,0.16767290234565735,0.9854373931884766,0.2927412688732147,0.3992979824542999,0.02626633644104004,0.008910874690193409,-0.26735909449443246,-0.959811348414072,0.0848646394955903,-0.16846866912626643,3.112909558740373,-0.545756331596604
1782905650376514816,2.1666970252990723,-0.2884146273136139,-0.9790366888046265,-0.3992341160774231,0.03440067917108536,0.15938779711723328,0.9866166710853577,0.23046138882637024,0.1378687173128128,-0.06329190731048584,0.004628660857577599,-0.26505227853591673,-0.9607578435148323,0.08167204683980445,-0.16007048750679453,3.1067394530679655,-0.5411610103060768
1782905650386434816,2.176616907119751,0.22237208485603333,-1.0388842821121216,-0.08798588067293167,0.044661227613687515,0.1599113941192627,0.986120343208313,0.2355664223432541,-0.33599787950515747,-0.2380889654159546,-0.00041394598054043285,-0.2632857902851073,-0.9611143337419858,0.08330401749613507,-0.16060089561219493,3.0963337467334746,-0.5384000291633498
1782905650396354816,2.186537027359009,-0.4540138244628906,-0.5382552146911621,0.04735117405653,0.05241689831018448,0.159266397356987,0.9858430027961731,0.25736701488494873,-0.2402448207139969,-0.10927146673202515,-0.004297529768925781,-0.26275616886142156,-0.9611871300396166,0.08402359797864713,-0.15994752037584745,3.0884730524566093,-0.5379516946439028
1782905650406273792,2.196455955505371,-0.5168046355247498,-0.6721047759056091,-0.1394350230693817,0.05777088180184364,0.15375635027885437,0.9864187836647034,0.31275829672813416,-0.054986193776130676,0.023667454719543457,-0.007661259099650466,-0.2622747230051244,-0.9614683322412447,0.08204901618767527,-0.15436871559103313,3.0830931928210497,-0.5371382652467669
1782905650416194048,2.206376075744629,-0.14894939959049225,-0.6217364072799683,-0.10563364624977112,0.06460300087928772,0.1507706344127655,0.9864556789398193,0.2817715108394623,-0.033628910779953,-0.12032103538513184,-0.011434197467930533,-0.26142836603471103,-0.9617084081621864,0.08149511778422673,-0.15134777053886705,3.076196026331126,-0.5358073619011235
1782905650426112768,2.216295003890991,0.21941572427749634,-0.6541364192962646,-0.05701610818505287,0.0709654912352562,0.1510838121175766,0.9859704971313477,0.2631104588508606,0.012475162744522095,0.049140095710754395,-0.014530698348471016,-0.26074755706574454,-0.9617671103651874,0.0824843641130062,-0.15166457556104604,3.069741293028923,-0.5349593155330191
1782905650436032768,2.22621488571167,0.4745337665081024,-0.3691236078739166,-0.12268433719873428,0.07564285397529602,0.1542929857969284,0.9851256012916565,0.26505541801452637,0.04065333306789398,0.03934979438781738,-0.016419749699157632,-0.26021778787443184,-0.9616909576278196,0.08466254741180902,-0.15491183504895742,3.064958045845829,-0.5344620507876454
1782905650445952768,2.2361350059509277,0.5172190070152283,-0.43522021174430847,-0.035149894654750824,0.0801338404417038,0.1597083956003189,0.9839062690734863,0.221623957157135,-0.015222951769828796,0.022685348987579346,-0.017936848193049724,-0.2596366300345997,-0.96153104682257,0.08789238732292469,-0.16039524696183327,3.0603274334877977,-0.534003564396423
1782905650455871744,2.24605393409729,0.35533106327056885,-0.19591522216796875,-0.04649735987186432,0.08285543322563171,0.16402098536491394,0.9829708933830261,0.2771451771259308,-0.14804504811763763,0.02839672565460205,-0.018717407928221488,-0.2593468319541056,-0.9613660461059431,0.09035558868544365,-0.16476547750222112,3.057500605524204,-0.5339406586758094
1782905650465792000,2.255974054336548,-0.25087395310401917,-0.2136131078004837,-0.08274288475513458,0.08450883626937866,0.16431783139705658,0.9827804565429688,0.3359471261501312,-0.24419757723808289,0.07787299156188965,-0.019514297252135573,-0.2589826397881913,-0.9614147017511256,0.09071297049685821,-0.16506640984513585,3.055814126747818,-0.5333613956092363
1782905650475711744,2.2658939361572266,-0.26327577233314514,-0.36887726187705994,-0.050488270819187164,0.08748376369476318,0.16173353791236877,0.9829490184783936,0.2797037363052368,-0.25899308919906616,-0.04016953706741333,-0.021348175849786405,-0.25840772766400344,-0.961613210486681,0.08983165129727794,-0.16244706648510035,3.052825223607058,-0.5322733277976421
1782905650485630976,2.275813102722168,-0.3075977563858032,-0.3972269594669342,0.09763405472040176,0.09163274616003036,0.15875479578971863,0.9830562472343445,0.22340019047260284,-0.1628899872303009,-0.12336117029190063,-0.02375000738686481,-0.2583899847798257,-0.9616458488944526,0.08892480029525524,-0.15942933236203097,3.0486491019758115,-0.5324211981940729
1782905650495550976,2.2857329845428467,-0.01655660569667816,-0.4503178894519806,-0.012995789758861065,0.0957024097442627,0.15695823729038239,0.9829572439193726,0.12480234354734421,-0.006033569574356079,-0.1786513328552246,-0.02596388935762016,-0.2583223274647761,-0.9616382911185734,0.08858441881252549,-0.1576099523724005,3.0445368383205618,-0.5325342972600045
1782905650505469696,2.295651912689209,0.1767953485250473,-0.43721580505371094,0.014504577033221722,0.10012435913085938,0.15778806805610657,0.9823837876319885,0.028476707637310028,-0.015728771686553955,-0.19803637266159058,-0.028025082288398284,-0.25806153798659204,-0.9615592276635648,0.08956934836159162,-0.15845026495299816,3.040023573576896,-0.5324698217839561
1782905650515389952,2.305572032928467,-0.00470946729183197,-0.36615389585494995,0.0037414126563817263,0.1040220633149147,0.15860310196876526,0.98184734582901,0.1115693524479866,-0.048343122005462646,-0.20497679710388184,-0.029815745348883007,-0.2580038986204737,-0.9614352020574524,0.09048361524504354,-0.15927569247071988,3.036041140068393,-0.5327834284612445
1782905650525309696,2.3154919147491455,0.19655340909957886,-0.6190080642700195,-0.0490645095705986,0.10923875868320465,0.15973995625972748,0.9810962080955505,0.12278637290000916,-0.07815122604370117,-0.19737446308135986,-0.03223702875837059,-0.25761489080995104,-0.9613442039173047,0.09172023673683229,-0.1604272233917718,3.0307058109219547,-0.5325671802376822
1782905650535228928,2.325411081314087,-0.25666147470474243,-0.5807003378868103,0.022391295060515404,0.11537790298461914,0.15937089920043945,0.9804534316062927,0.13482047617435455,-0.12075088918209076,-0.15994250774383545,-0.03528706798130216,-0.2573935417403383,-0.9612363367399551,0.09234785070268087,-0.16005336788536279,3.024453287456471,-0.5326758090072672
1782905650545148928,2.3353309631347656,-0.009610150009393692,-0.48123306035995483,-0.048574887216091156,0.12106055021286011,0.1576819270849228,0.9800410866737366,0.0705593079328537,-0.0005927234888076782,-0.13413971662521362,-0.03829149286897466,-0.25712931734967703,-0.9611998058756982,0.09226679834306512,-0.15834277056017002,3.018689253290945,-0.5325397333322323
1782905650555068928,2.3452510833740234,-0.08611983805894852,-0.5336368680000305,-0.10792502760887146,0.12609809637069702,0.1576707512140274,0.9794079065322876,0.056442826986312866,0.007170006632804871,-0.190757155418396,-0.04081919144460242,-0.2563197722641828,-0.9612513309421976,0.09289780529328073,-0.15833144871398355,3.013547747933,-0.5313496427698592
1782905650564987904,2.3551700115203857,-0.01116144098341465,-0.6559959053993225,-0.10263852030038834,0.13199648261070251,0.15718600153923035,0.978708028793335,0.1803051382303238,-0.01311253011226654,-0.13109761476516724,-0.04383650277834992,-0.2554267446195602,-0.9613070161757347,0.0934041005170559,-0.1578405855286196,3.0075334697740055,-0.5300316876435086
1782905650574907904,2.3650898933410645,-0.10509619116783142,-0.5535795092582703,-0.19286136329174042,0.13780130445957184,0.15708959102630615,0.9779230356216431,0.15951618552207947,-0.13899268209934235,-0.12634539604187012,-0.04676621576275202,-0.2544784213876802,-0.9613543882967592,0.09408163094371703,-0.157742960781432,3.001602145363018,-0.5286283581332043
1782905650584826880,2.375009059906006,-0.2929603159427643,-0.7441097497940063,-0.11864875257015228,0.14365220069885254,0.15521812438964844,0.9773800373077393,0.13231825828552246,-0.08746908605098724,-0.04694473743438721,-0.0499609933084759,-0.25338534256969014,-0.9615018840649171,0.09388275214055186,-0.15584824482557189,2.995660665216724,-0.5267597125958512
1782905650594746880,2.3849289417266846,-0.1815354973077774,-0.6824330687522888,-0.18645095825195312,0.15030238032341003,0.15308351814746857,0.9767164587974548,0.17553383111953735,-0.07375304400920868,-0.07118344306945801,-0.05359092100460207,-0.25217509444572594,-0.961647519691088,0.09364767874185312,-0.15368782714082838,2.9889050129623405,-0.524694921888076
1782905650604666880,2.3948490619659424,-0.338289350271225,-0.6978420615196228,-0.19998206198215485,0.15668247640132904,0.15110062062740326,0.976022481918335,0.16051727533340454,-0.18206064403057098,-0.07280862331390381,-0.057076869218597906,-0.2509051217463569,-0.9617992767599506,0.0934406900017014,-0.1516815804162346,2.9824190720514565,-0.5224872383775967
1782905650614585856,2.4047679901123047,-0.36635667085647583,-0.6383318901062012,-0.017910785973072052,0.16311945021152496,0.1478220820426941,0.9754695892333984,0.15437018871307373,-0.1536051481962204,-0.06947886943817139,-0.06072340255482645,-0.24994961476663333,-0.9619043502341639,0.09261714498445821,-0.14836580326588103,2.975904223291322,-0.5207946704872938
1782905650624506112,2.4146881103515625,-0.5288425087928772,-0.7791242599487305,-0.04106031358242035,0.16951602697372437,0.14332829415798187,0.9750494360923767,0.19576410949230194,-0.12674200534820557,-0.06699889898300171,-0.064460755112443,-0.24942466693843676,-0.9619314200787842,0.09121466036579236,-0.14382361572000457,2.9694593705915113,-0.5198468133517362
1782905650634424832,2.424607038497925,-0.7597638964653015,-0.7739692330360413,-0.16799002885818481,0.1775476485490799,0.13753031194210052,0.9744549989700317,0.2325628250837326,-0.12639138102531433,-0.04949760437011719,-0.06919585593721439,-0.24851818526335615,-0.962011536501301,0.08935608144652349,-0.13796759241636009,2.9613676414937853,-0.5180957829226771
1782905650644344832,2.4345269203186035,-0.8431004881858826,-0.539739727973938,-0.08617685735225677,0.18407654762268066,0.13002699613571167,0.9742735028266907,0.19043515622615814,-0.09569473564624786,0.10963457822799683,-0.07343982313230792,-0.2472260256394561,-0.9622972722848039,0.08642831852533348,-0.13039620996436066,2.9548566407404033,-0.5151749629883036
1782905650654264832,2.4444470405578613,-1.1917353868484497,-0.5378667116165161,-0.06689823418855667,0.1893746256828308,0.12044955790042877,0.9744890928268433,0.2274191826581955,-0.06768467277288437,0.14718443155288696,-0.0773005682348073,-0.24626681492948901,-0.9625991897683376,0.08234096190578938,-0.12074272396397892,2.9496527809098176,-0.5125635435011969
1782905650664183808,2.4543659687042236,-1.1998406648635864,-0.5175026059150696,-0.04267315939068794,0.19442428648471832,0.10852830111980438,0.9748951196670532,0.2266114503145218,-0.03403492271900177,0.21855562925338745,-0.08132155307569268,-0.2452848952574938,-0.9629552798496931,0.07706598738017341,-0.1087424869786658,2.9447442905830745,-0.509581956794306
1782905650674104064,2.4642860889434814,-1.3833335638046265,-0.47290104627609253,0.20412331819534302,0.19980579614639282,0.0959639847278595,0.975124716758728,0.22116892039775848,-0.158296138048172,0.23569053411483765,-0.08552393857502648,-0.24499202261642242,-0.9630894456974254,0.07157660744352516,-0.09611188884349117,2.939487327933287,-0.5079490436821993
1782905650684023808,2.47420597076416,-1.79780912399292,-0.36596882343292236,0.0012830153573304415,0.20409412682056427,0.08064103871583939,0.9756240844726562,0.16377998888492584,-0.21903826296329498,0.2430800199508667,-0.0895248475845116,-0.24471658547352634,-0.9632890675208292,0.06460027118167884,-0.08072869784675893,2.935373102948425,-0.5059179033723483
1782905650693942784,2.4841248989105225,-1.9583333730697632,-0.28719356656074524,0.07820815593004227,0.20762097835540771,0.062050048261880875,0.9762395620346069,0.17371144890785217,-0.22176378965377808,0.2521693706512451,-0.09358368977709128,-0.243877023266264,-0.9636616519979523,0.05587846606962483,-0.062089933215868816,2.932040587179159,-0.5022697110110531
1782905650703862784,2.4940450191497803,-2.079371690750122,-0.22177539765834808,0.2840973734855652,0.210425466299057,0.04216722026467323,0.9767000079154968,0.2259453684091568,-0.29679062962532043,0.11520355939865112,-0.09740507707090054,-0.2436657659388179,-0.9638345353197375,0.04649957112112,-0.04217972571138648,2.9293908779215365,-0.4997336294466662
1782905650713782784,2.503964900970459,-2.023475170135498,-0.16817155480384827,0.3659866452217102,0.2123481184244156,0.02122041955590248,0.9769637584686279,0.2370995283126831,-0.21055147051811218,0.2569841146469116,-0.10089984370527706,-0.24415875069278684,-0.9637781796721114,0.03657043710587464,-0.021222011976201906,2.9275664761403157,-0.49850989212013974
1782905650723702016,2.5138840675354004,-1.9947574138641357,-0.1920478492975235,0.202369824051857,0.21393387019634247,0.0009432719671167433,0.9768475890159607,0.12122538685798645,-0.12768277525901794,0.21614545583724976,-0.10417333523023875,-0.2443986677630757,-0.9636872333260355,0.026908585528814918,-0.000943272128429348,2.925992231099652,-0.49684488290214723
1782905650733621760,2.523803949356079,-1.5834194421768188,0.09146880358457565,0.17249928414821625,0.2150447964668274,-0.016865301877260208,0.9764584898948669,0.1718875765800476,-0.07021661102771759,0.2829713821411133,-0.10692815820442238,-0.24431916590144562,-0.9636064475920946,0.01836013798637917,0.016866101788716108,2.924823620760959,-0.4947924663422874
1782905650743540992,2.5337231159210205,-1.2686386108398438,0.47806400060653687,0.3923638164997101,0.21255148947238922,-0.031197400763630867,0.9766515493392944,0.0817599892616272,-0.13443675637245178,0.31297534704208374,-0.1074734451312969,-0.24481145502615145,-0.9635315887706027,0.011117465991831811,0.031202464459238927,2.9273013104481134,-0.4942683805818207
1782905650753460992,2.543642997741699,-1.1249336004257202,0.6157936453819275,0.45443862676620483,0.2065848708152771,-0.04372400790452957,0.9774513840675354,0.1256752759218216,-0.20903782546520233,0.3952598571777344,-0.10608791803381683,-0.24641763417509036,-0.9633296580715744,0.004442851418833827,0.043737950319755345,2.933307318001439,-0.4962836935165515
1782905650763380992,2.553563117980957,-0.9964479207992554,0.1835017204284668,0.3968178927898407,0.20320089161396027,-0.05517992377281189,0.9775809645652771,0.17173804342746735,-0.11919751763343811,0.4224433898925781,-0.1058654941586365,-0.24772453747573936,-0.9630280500391079,-0.001416864986184974,0.05520796322807434,2.9366500475814745,-0.4978742766842906
1782905650773299968,2.5634820461273193,-0.8091384768486023,0.5090092420578003,0.30966728925704956,0.2001246213912964,-0.06487438082695007,0.977620542049408,0.2321111410856247,-0.018362320959568024,0.5259807109832764,-0.105589710659021,-0.24906294718348235,-0.9626930543889474,-0.006376596164522968,0.06491997110604537,2.939676387998899,-0.49974894386785124
1782905650783219712,2.573401927947998,-0.3234744071960449,0.8437463045120239,0.24336571991443634,0.1936780959367752,-0.07134541124105453,0.9784677028656006,0.20123466849327087,0.06745440512895584,0.561190128326416,-0.10325340289666667,-0.2499546783463951,-0.9626819394150349,-0.010246409731675106,0.07140607514594385,2.9461784520082634,-0.5010672551057381
1782905650793138944,2.5833210945129395,-0.045661695301532745,0.745033860206604,0.4441464841365814,0.18635274469852448,-0.07403573393821716,0.9796897768974304,0.2735624611377716,-0.0005950182676315308,0.49031174182891846,-0.10001648749437332,-0.25146316916421246,-0.9626064386622932,-0.01232840604455788,0.07410353449044552,2.953622160754763,-0.5040542496822916
1782905650803058944,2.593240976333618,0.2910684645175934,0.6702238321304321,0.27311792969703674,0.18336451053619385,-0.0753060057759285,0.980156421661377,0.32011449337005615,-0.070400170981884,0.48151350021362305,-0.09873677789948535,-0.2532073083157378,-0.9622703780624083,-0.013148206494363513,0.07537736571076062,2.9566535833781784,-0.5076118702620929
1782905650812978944,2.603161096572876,0.33708733320236206,0.7870338559150696,0.25704336166381836,0.17711131274700165,-0.07330229133367538,0.9814572334289551,0.21992236375808716,-0.16125580668449402,0.49751609563827515,-0.09542639866564656,-0.2544801801509129,-0.962272545385749,-0.012851886350030454,0.07336809322083307,2.9630566196267902,-0.5105076877984703
1782905650822897920,2.6130800247192383,0.57147616147995,0.4757038950920105,0.4800090491771698,0.17087797820568085,-0.069533571600914,0.9828357696533203,0.19106049835681915,-0.1941840797662735,0.5225659608840942,-0.09190452254501111,-0.25631093816594164,-0.9621447824086166,-0.01165173063014486,0.06958972623123792,2.9694511958149965,-0.514691384836614
1782905650832817920,2.623000144958496,0.6788089871406555,0.24208210408687592,0.6462147831916809,0.1684080809354782,-0.0644710436463356,0.9836069941520691,0.13180866837501526,-0.1928531974554062,0.3793388605117798,-0.09006410074229777,-0.2594392438597816,-0.9615065194044505,-0.009224439865904273,0.06451578875360287,2.9720220574183034,-0.5216139308183744
1782905650842737920,2.632920026779175,0.30527761578559875,0.891665518283844,0.3893255591392517,0.1626400500535965,-0.06019284203648567,0.9848479628562927,0.04034768044948578,-0.3409912586212158,0.2026216983795166,-0.0867034381486639,-0.26222874055724943,-0.9610723562357846,-0.0076584119523743915,0.06022925044090072,2.9779275247906973,-0.5277916729704633
1782905650852656896,2.642838954925537,-0.6808222532272339,1.854905605316162,0.1924031674861908,0.1488637775182724,-0.06240663304924965,0.9868863821029663,0.0588998943567276,-0.42096129059791565,0.37311410903930664,-0.08029368330274411,-0.26323405898518254,-0.9613277345557597,-0.010472270495131683,0.06244721165071743,2.9918794751197013,-0.5298591843510166
1782905650862576896,2.652759075164795,-1.043663740158081,2.1779613494873047,0.17315880954265594,0.12844744324684143,-0.0720825344324112,0.9890936017036438,0.28625595569610596,-0.2609405517578125,0.5499540567398071,-0.07166462549463946,-0.2637562826252834,-0.9617585114138608,-0.017820764419342727,0.07214510273214111,3.0124515946731347,-0.5306591907838512
1782905650872496896,2.6626789569854736,-0.7784342169761658,1.931744933128357,0.2965843081474304,0.1084682047367096,-0.0812298133969307,0.9907757639884949,0.4181278645992279,0.005195267498493195,0.5948261022567749,-0.06319953671065982,-0.2642146803252716,-0.9620698906755875,-0.024859587681051547,0.08131940820915742,3.032548855647018,-0.5316066412466909
1782905650882416128,2.672598123550415,-0.3760654330253601,1.9089264869689941,0.46980324387550354,0.08948297798633575,-0.08749846369028091,0.9921374320983887,0.44735172390937805,0.147511288523674,0.6025585532188416,-0.05487964671573566,-0.26562862749926636,-0.9620343859002706,-0.030322853363394277,0.0876104998803735,3.0516439081072346,-0.5348528726391614
1782905650892335872,2.6825180053710938,-0.22468577325344086,1.6487542390823364,0.825607180595398,0.07158513367176056,-0.09075645357370377,0.9932970404624939,0.32541805505752563,0.0016298741102218628,0.5749555826187134,-0.04675049783718063,-0.26832562179286495,-0.961587162180021,-0.03414549713684968,0.09088150973007857,3.069648830757101,-0.5409720970876066
1782905650902254848,2.692436933517456,-0.053942326456308365,1.9316785335540771,0.868640661239624,0.053699277341365814,-0.09295400977134705,0.994221568107605,0.298015832901001,-0.19720715284347534,0.5828050374984741,-0.03855755490972632,-0.2721907491198492,-0.960740855277704,-0.03745234019874264,0.09308839008790529,3.0876337076542106,-0.5496433001931458
1782905650912174848,2.702357053756714,-0.10933367908000946,1.87503981590271,0.7141168117523193,0.0340442918241024,-0.09372112154960632,0.9950160384178162,0.2353801429271698,-0.20175005495548248,0.38376790285110474,-0.02932449500565678,-0.27550014020676317,-0.9600040091234044,-0.040397392667423954,0.09385887021153914,3.1073911796525286,-0.5573289830452696
1782905650922094848,2.7122769355773926,0.07063116133213043,1.8344650268554688,0.6291453838348389,0.0152207650244236,-0.09476066380739212,0.9953840970993042,0.2876509428024292,0.17894336581230164,0.31967973709106445,-0.02053613460697313,-0.27834899095396876,-0.9592778017459332,-0.043432797426263874,0.09490305625064449,3.1263024968312942,-0.5640935225840874
1782905650932014080,2.722196102142334,0.6542022228240967,1.8064647912979126,0.47533345222473145,-0.003373539075255394,-0.09137167781591415,0.9958113431930542,0.25151196122169495,0.35136616230010986,0.10033440589904785,-0.011216588747780283,-0.2804010735897977,-0.9587913863464389,-0.044369082020912366,0.09149929480336821,-3.138204937488836,-0.5691917767334977
1782905650941933824,2.7321159839630127,1.0649563074111938,1.9934684038162231,0.6242912411689758,-0.02244439907371998,-0.08261293172836304,0.9963288903236389,0.24741998314857483,0.19629091024398804,0.04398477077484131,-0.0009235818826450791,-0.2826603960857945,-0.9582627672405323,-0.042833143648676214,0.0827071941385347,-3.119069364496977,-0.574606596038315
1782905650951854080,2.7420361042022705,1.096564531326294,2.13385009765625,0.5628973841667175,-0.043278150260448456,-0.071614108979702,0.996493399143219,0.22539179027080536,-0.1554061770439148,0.11134076118469238,0.01053064243993947,-0.28511028216458456,-0.9575796673563571,-0.040528688572779956,0.07167546219071934,-3.0981894852468153,-0.5803216772899862
1782905650961772800,2.751955032348633,1.0719919204711914,2.1035680770874023,0.448685884475708,-0.06465794891119003,-0.06047710031270981,0.9960735440254211,0.19432711601257324,-0.417702853679657,0.15852880477905273,0.022301288981677343,-0.2869949474156603,-0.9569068184968523,-0.03828889864291244,0.060514028289607336,-3.076770766719514,-0.5847284335934226
1782905650971693056,2.7618751525878906,0.7326990962028503,2.083937406539917,0.3400414288043976,-0.08524040132761002,-0.051311373710632324,0.9950382113456726,0.2215166687965393,-0.4074898958206177,0.18005627393722534,0.033439857312259805,-0.2883486282570306,-0.9562291392533668,-0.03691377120985552,0.05133391600782064,-3.0561358319932874,-0.5879472666374309
1782905650981612032,2.771794080734253,0.6476708054542542,2.035764694213867,0.3447827994823456,-0.10592259466648102,-0.04435092955827713,0.9933850169181824,0.21184909343719482,-0.22673672437667847,0.17549943923950195,0.04433001197377239,-0.28946381637091034,-0.955459681097961,-0.03663932631016998,0.04436548180680916,-3.03536608205883,-0.5906950887904031
1782905650991531776,2.7817139625549316,0.6769780516624451,1.8870941400527954,0.29783234000205994,-0.12527820467948914,-0.03756077587604523,0.9914102554321289,0.16843007504940033,-0.059836067259311676,0.04366958141326904,0.05457356787672404,-0.29055724617394085,-0.9546107125804344,-0.036284040819737504,0.037569614409495355,-3.015895225368688,-0.5932913873399475
1782905651001452032,2.7916340827941895,0.8889511227607727,1.717405915260315,0.23892256617546082,-0.14282016456127167,-0.029631735756993294,0.9893051981925964,0.11822298169136047,0.10314857214689255,-0.05098104476928711,0.06414361950727966,-0.2912125319406682,-0.9538594491653738,-0.0351155441153598,0.029636073466087914,-2.998219076783972,-0.5947510334226305
1782905651011371008,2.8015530109405518,1.1895759105682373,1.5109894275665283,0.24771791696548462,-0.15874870121479034,-0.019226128235459328,0.9871318936347961,0.08816152811050415,0.17539983987808228,-0.09020495414733887,0.07332232985321507,-0.2917063290263277,-0.9531386959198892,-0.032525855810423256,0.019227312894952133,-2.9821397970181724,-0.5955288024006786
1782905651021291008,2.8114731311798096,1.3085596561431885,1.3104851245880127,0.2616010308265686,-0.1725495159626007,-0.0063379136845469475,0.9849804043769836,0.13278509676456451,0.14732912182807922,-0.14368712902069092,0.08185643408207749,-0.292280112492189,-0.9523983019360382,-0.028448144505846373,0.006337955949957898,-2.96817170235035,-0.5960799328838124
1782905651031211008,2.8213930130004883,1.2384892702102661,0.954746425151825,0.1643117517232895,-0.1833621710538864,0.006487904582172632,0.9830240607261658,0.13009372353553772,0.141720712184906,-0.170737624168396,0.0889630289075572,-0.2926831077908152,-0.9517608034087907,-0.023949319336265925,-0.006487950249797815,-2.957183209644291,-0.5960785663588929
1782905651041129728,2.8313119411468506,1.1073123216629028,0.8667513728141785,-0.17144328355789185,-0.19174738228321075,0.01776612363755703,0.9812831282615662,0.06513002514839172,0.04766356199979782,-0.2189544439315796,0.09470515658088682,-0.29200388580225467,-0.9515121151778486,-0.019727769639709146,-0.017767058553998988,-2.9486194924108715,-0.5938010437622756
1782905651051049984,2.8412320613861084,1.3338570594787598,0.7878192663192749,-0.05888132378458977,-0.19994628429412842,0.029366793110966682,0.9793665409088135,-0.034855931997299194,0.00990932434797287,-0.21534383296966553,0.1004183165285942,-0.2907859845306592,-0.9513815137788327,-0.015258697103663734,-0.02937101604372369,-2.9402014727993673,-0.5902893015004196
1782905651060968960,2.8511509895324707,0.9097628593444824,0.5377995371818542,-0.21821773052215576,-0.20632068812847137,0.04025980457663536,0.9776556491851807,-0.09327034652233124,-0.03813883662223816,-0.2945656180381775,0.10514156284765466,-0.28946690312530854,-0.9513341841825803,-0.0108322601565891,-0.04027069022173424,-2.9336082748176,-0.5865441645871826
1782905651070888960,2.8610711097717285,0.8853235840797424,0.3942410349845886,-0.14409342408180237,-0.21022243797779083,0.04808449372649193,0.9764704704284668,-0.11630041897296906,0.08027245104312897,-0.19984376430511475,0.10820502301378442,-0.2882698661451221,-0.9513862153740078,-0.00751535056819731,-0.04810304194544417,-2.929541182254111,-0.583293014210607
1782905651080808960,2.8709909915924072,0.8624436855316162,0.5712689757347107,-0.591683566570282,-0.21479369699954987,0.05573364719748497,0.9750679135322571,-0.17032288014888763,0.13252928853034973,-0.23576438426971436,0.11157054303615606,-0.28601771955990735,-0.9516973440868823,-0.0042495957554227045,-0.055762540671858984,-2.9247696839307378,-0.5778232176914704
1782905651090727936,2.8809101581573486,1.147089958190918,0.29981881380081177,-0.31243401765823364,-0.22008900344371796,0.06453593075275421,0.9733423590660095,-0.16589726507663727,0.1976863443851471,-0.2486875057220459,0.11544913721791729,-0.28285440732339295,-0.9521893509739415,-0.0004067812332590773,-0.06458081068471767,-2.919215538209177,-0.570296077142112
1782905651100647936,2.8908300399780273,1.2822412252426147,0.45470130443573,-0.19401471316814423,-0.2234385460615158,0.07557768374681473,0.9717836976051331,-0.03544212877750397,0.12126070261001587,-0.31423652172088623,0.11868798032989011,-0.281275482410864,-0.9522478452882885,0.0046257106775046235,-0.07564981925155373,-2.9155943461480334,-0.565837843523032
1782905651110567936,2.900750160217285,1.5075726509094238,0.20210739970207214,-0.18257883191108704,-0.22684182226657867,0.08840266615152359,0.9699112772941589,-0.1563521772623062,0.167456716299057,-0.23343050479888916,0.1222016040099509,-0.2795482331905199,-0.9522648920967823,0.010543380543413812,-0.0885182190298219,-2.9118433418341882,-0.5608588122601081
1782905651120486912,2.9106690883636475,1.7230075597763062,-0.09921155124902725,-0.2785734534263611,-0.22717826068401337,0.10369814187288284,0.9683164358139038,0.019841834902763367,0.15997372567653656,-0.2346128225326538,0.12454875661344512,-0.2775072486230287,-0.9524431527755693,0.018148997478784012,-0.10388489703440484,-2.911148808873403,-0.5549957827081871
1782905651130406912,2.920588970184326,1.353026270866394,-0.09769780933856964,-0.4677886664867401,-0.22656434774398804,0.11744517087936401,0.9668893814086914,0.06010621786117554,0.047471821308135986,-0.14108383655548096,0.1261637654934929,-0.27467764185780913,-0.9528887079478205,0.025258164739745174,-0.11771685494441039,-2.911422432305778,-0.5476762016611406
1782905651140326144,2.9305081367492676,1.197108507156372,-0.00304464902728796,-0.35402512550354004,-0.22694367170333862,0.1285596787929535,0.9653856754302979,-0.018860220909118652,-0.1421857476234436,-0.15126800537109375,0.12785582321718966,-0.2717014596224122,-0.9533473439305082,0.03098684525029115,-0.12891647114691288,-2.910704085739916,-0.5403038715029953
1782905651150245888,2.9404280185699463,1.0437469482421875,0.03791982680559158,-0.01920025423169136,-0.22656819224357605,0.13953879475593567,0.9639481902122498,0.10268202424049377,-0.3030214309692383,-0.14442896842956543,0.12920002587229995,-0.27058950799626735,-0.9532866441631016,0.03651496244455941,-0.1399956375638119,-2.9107410191734053,-0.536891282303132
1782905651160166144,2.950348138809204,0.6803610324859619,0.21329137682914734,-0.17490489780902863,-0.22733384370803833,0.1473219096660614,0.962608814239502,0.10195238888263702,-0.1954328715801239,-0.16593217849731445,0.13065646526567348,-0.2697365735120987,-0.953177095174449,0.04030534286417019,-0.14786009297441108,-2.9096775940085866,-0.5342987313753301
1782905651170084864,2.9602670669555664,0.4933946132659912,0.1848008781671524,-0.24350818991661072,-0.22954177856445312,0.152079775929451,0.9613441228866577,0.14908213913440704,-0.048670947551727295,-0.18132996559143066,0.13235919453062708,-0.26816323041181606,-0.9532893252311075,0.042532752170800665,-0.1526721855654599,-2.907209393180404,-0.5304245456806412
1782905651180004864,2.970186948776245,0.92698073387146,-0.03219678997993469,0.17249251902103424,-0.23050548136234283,0.15837661921977997,0.9600958824157715,0.31983041763305664,-0.14665786921977997,-0.300168514251709,0.13370982560577746,-0.2676326539719999,-0.953111063728857,0.04553844547145045,-0.15904630784130044,-2.905966456696278,-0.528634826693515
1782905651189924864,2.980107069015503,0.7391711473464966,-0.332800030708313,0.359178751707077,-0.2276221364736557,0.16753137111663818,0.9592297077178955,0.2996435761451721,-0.2853292226791382,-0.44407761096954346,0.13362879124767027,-0.26835896836923573,-0.9526795417944588,0.05028469476488626,-0.1683251126316176,-2.908605214356021,-0.52940373210758
1782905651199843840,2.9900259971618652,0.720986008644104,-0.12275902926921844,0.08005113154649734,-0.2248232066631317,0.1742265224456787,0.9586970806121826,0.28683486580848694,-0.07827921211719513,-0.3309502601623535,0.13322982589105997,-0.268797230358124,-0.952416182952602,0.05386453160334753,-0.17512021940486316,-2.9112459302829374,-0.5298345428550227
1782905651209764096,2.999946117401123,0.7953720688819885,-0.14228585362434387,-0.007635312154889107,-0.22378304600715637,0.1821114420890808,0.9574743509292603,0.2233099639415741,-0.10510030388832092,-0.44758641719818115,0.133829245469441,-0.26840647385912786,-0.9522054127899964,0.0579025143140047,-0.18313338118940162,-2.911991935113768,-0.5283250644050228
1782905651219682816,3.0098650455474854,0.8080648183822632,-0.5224555134773254,0.22181029617786407,-0.21941329538822174,0.18939955532550812,0.9570713639259338,0.33866074681282043,-0.1371534913778305,-0.4146825075149536,0.13271276735585325,-0.2683200883762035,-0.9521239425156437,0.06206153862368376,-0.1905505987201461,-2.9162320488406857,-0.5277493391035123
1782905651229602816,3.019784927368164,0.7714530229568481,-0.7742526531219482,0.2345375418663025,-0.21225406229496002,0.197687566280365,0.9570097327232361,0.4130445122718811,-0.24903342127799988,-0.41356807947158813,0.13039575439436396,-0.26870803705795027,-0.9519983431487344,0.06702259301883187,-0.19899837225329808,-2.9233367411184314,-0.5283261680719429
1782905651239522816,3.029705047607422,0.24634046852588654,-0.7725158333778381,0.16188491880893707,-0.2047567069530487,0.20263344049453735,0.9576086401939392,0.2921437919139862,-0.25887733697891235,-0.3225531578063965,0.12741875732975805,-0.2688915218260955,-0.9521038121551949,0.07042813553304259,-0.20404640495163806,-2.930943799420264,-0.5288543140504373
1782905651249441792,3.039623975753784,-0.05444173887372017,-0.6938281655311584,0.2617478370666504,-0.1967279464006424,0.20400550961494446,0.9589993953704834,0.1784174144268036,-0.25483256578445435,-0.2587736248970032,0.12371794656254767,-0.2697729241053235,-0.9522196581498111,0.07207056075715783,-0.2054477498266447,-2.9392608978384756,-0.5312216076499106
1782905651259362048,3.049544095993042,-0.41994962096214294,-0.7613112330436707,0.23645812273025513,-0.18770641088485718,0.20115157961845398,0.9614077806472778,0.1387866884469986,-0.1932017058134079,-0.23392951488494873,0.11894568978923037,-0.2709858482261647,-0.9525075135828204,0.07175081587190228,-0.20253338822094766,-2.948777017214134,-0.5346953429626595
1782905651269281792,3.0594639778137207,-0.40779414772987366,-0.7741937041282654,0.24916431307792664,-0.1769191026687622,0.1961255967617035,0.964486837387085,0.17617137730121613,-0.0803113579750061,-0.26711416244506836,0.11299929845443558,-0.2722121310267396,-0.9529658882209763,0.07062479542327389,-0.19740521366698757,-2.9601760701137696,-0.5384619077326693
1782905651279201024,3.069383144378662,-0.40831440687179565,-0.8099669218063354,0.24910074472427368,-0.16713379323482513,0.19228523969650269,0.967001736164093,0.1935773342847824,-0.04133008420467377,-0.28282833099365234,0.10772750373579991,-0.27342194904654843,-0.9532792309726802,0.06995595232295533,-0.19349031416117213,-2.970446357323489,-0.5419981473027016
1782905651289121024,3.079303026199341,-0.3493264317512512,-0.8814157843589783,0.2681386172771454,-0.1580258458852768,0.18867556750774384,0.9692414999008179,0.1960049718618393,-0.060257598757743835,-0.21739530563354492,0.10282397635662904,-0.27455018008133286,-0.953542315427386,0.06932827592889004,-0.18981332083732427,-2.979973973060043,-0.545269367503033
1782905651299041024,3.0892231464385986,-0.3135630488395691,-0.9169964790344238,0.245427206158638,-0.1484891027212143,0.1856575459241867,0.9713304042816162,0.2391873151063919,-0.09790420532226562,-0.2007765769958496,0.09780400752109455,-0.27566863596940205,-0.9537672655670059,0.06906011290263223,-0.18674099885979722,-2.989895206586474,-0.5484949871676841
1782905651308960000,3.099142074584961,-0.20927312970161438,-0.9274307489395142,0.15775035321712494,-0.13909053802490234,0.1834184229373932,0.9731453657150269,0.18154047429561615,-0.068275585770607,-0.1611640453338623,0.09294390095451653,-0.27638773785574916,-0.9540348604650981,0.06920151252973632,-0.18446274517750752,-2.999625334536557,-0.5508158255112934
1782905651318879744,3.1090619564056396,-0.04438990354537964,-1.091926097869873,0.24677862226963043,-0.1283988654613495,0.1820775270462036,0.9748649001121521,0.2042350471019745,-0.030679821968078613,-0.16859054565429688,0.08758832870559735,-0.2770524935309719,-0.9542925945970875,0.06997036077755084,-0.18309888155891277,-3.010637034640353,-0.5530699451049066
1782905651328798976,3.118981122970581,-0.12309297174215317,-1.2283984422683716,0.3325774371623993,-0.1161705031991005,0.18200500309467316,0.9764111042022705,0.1863609254360199,-0.09423644840717316,-0.2384045124053955,0.08169890220231812,-0.27798335582679884,-0.9544269568379506,0.0715524285143871,-0.1830251284085782,-3.023172292358617,-0.5559527949266382
1782905651338718976,3.1289010047912598,-0.20510748028755188,-1.1121288537979126,0.319275826215744,-0.10404640436172485,0.18046391010284424,0.9780629277229309,0.15212684869766235,-0.11259283125400543,-0.1734364628791809,0.07567888548038228,-0.2791954612430059,-0.9545058262462366,0.07239636476258876,-0.18145808120481627,-3.0356111762026803,-0.5594776864303709
1782905651348638976,3.1388211250305176,-0.45331114530563354,-1.0726147890090942,0.35485485196113586,-0.09261030703783035,0.17797614634037018,0.9796673655509949,0.11635298281908035,-0.23933172225952148,-0.19004011154174805,0.06987433148970112,-0.28053352289268424,-0.95453372426645,0.07269096484199158,-0.17892937109690638,-3.047340347106031,-0.5632336371866258
1782905651358557952,3.14874005317688,-0.6045750379562378,-1.0450464487075806,0.38242173194885254,-0.08138195425271988,0.17283734679222107,0.981582760810852,0.11853708326816559,-0.20822244882583618,-0.12380969524383545,0.06381047150186497,-0.2821217873775278,-0.954567277254426,0.07167263553171763,-0.17370965258073048,-3.0588729391509375,-0.5675306494160687
1782905651368477696,3.1586599349975586,-0.6404494643211365,-0.9482743144035339,0.2606452405452728,-0.07110936939716339,0.1668306142091751,0.9834179282188416,0.10692175477743149,-0.1777559220790863,-0.2130017876625061,0.05806972619901935,-0.2834742031538045,-0.9546472339967133,0.07013484510769043,-0.16761435095188287,-3.069409890176006,-0.5712303286696943
1782905651378397952,3.1685800552368164,-0.658005952835083,-0.8046805262565613,0.31131646037101746,-0.06185832619667053,0.1605832874774933,0.9850819110870361,0.10833660513162613,-0.15406779944896698,-0.18752038478851318,0.05278304374939915,-0.2847234720618434,-0.9547112163310214,0.06835896430037719,-0.1612815766560562,-3.0788798906460992,-0.5745943282002703
1782905651388316928,3.1784989833831787,-0.6723750233650208,-0.7531377077102661,0.1634545773267746,-0.05393442511558533,0.15418744087219238,0.9865683913230896,0.14060436189174652,-0.08929182589054108,-0.16918563842773438,0.04810023094776657,-0.2857433724633947,-0.9547957474071358,0.06634863735385481,-0.1548050039363643,-3.0869783042919945,-0.577340226798454
1782905651398236928,3.1884191036224365,-0.6005256772041321,-0.7319568395614624,0.11901184171438217,-0.046382028609514236,0.14771895110607147,0.9879412055015564,0.13544757664203644,-0.06162886321544647,-0.15362119674682617,0.043553654437412784,-0.28626912333550286,-0.954997694519606,0.06428435449778436,-0.14826152490811256,-3.0946789359652276,-0.5789865328392733
1782905651408155904,3.198338031768799,-0.5794621706008911,-0.6906599998474121,0.08904276043176651,-0.03935494273900986,0.14200431108474731,0.9890835881233215,0.13279975950717926,-0.09773856401443481,-0.1816035509109497,0.03936280690040287,-0.2866440288164532,-0.9551842670633396,0.06252096829645169,-0.1424859593824303,-3.1018243311626805,-0.5802457246743883
1782905651418076160,3.2082581520080566,-0.7536876201629639,-0.7745855450630188,0.10357822477817535,-0.03212941810488701,0.13544298708438873,0.9902640581130981,0.1644841581583023,-0.11330248415470123,-0.08337318897247314,0.03495201261517483,-0.2869649517545209,-0.9553968447580485,0.06038484557179153,-0.1358605559358611,-3.1091587283582878,-0.5813709882930486
1782905651427995904,3.2181780338287354,-0.8421578407287598,-0.7525516152381897,0.21774981915950775,-0.0245151836425066,0.12771904468536377,0.991507351398468,0.14686015248298645,-0.14970697462558746,-0.05625039339065552,0.03021075139158125,-0.28766575457692417,-0.9555114207018545,0.057737584360982114,-0.1280688423151691,-3.1168725229047385,-0.5832717911532249
1782905651437914880,3.2280969619750977,-1.0585581064224243,-0.8377722501754761,0.2823745906352997,-0.016129715368151665,0.11833413690328598,0.9928429126739502,0.10913203656673431,-0.15472635626792908,-0.054564714431762695,0.02488129501602565,-0.28877680228840735,-0.9555257245622477,0.05440138998520324,-0.11861206320330683,-3.1253480925107273,-0.586015775889706
1782905651447834880,3.2380170822143555,-1.1981351375579834,-0.7309786677360535,0.2757934033870697,-0.007864213548600674,0.10710824280977249,0.99421626329422,0.05399153381586075,-0.11676706373691559,-0.05564814805984497,0.01934452910826458,-0.29001349030475015,-0.9555104946187533,0.050176265032618336,-0.10731410307634792,-3.1336828557346577,-0.5889353484436775
1782905651457754880,3.247936964035034,-1.2034547328948975,-0.6754403114318848,0.3035285174846649,-0.0005437800427898765,0.09508594870567322,0.9954690337181091,0.029352372512221336,-0.05590137839317322,-0.09790122509002686,0.014144305493797358,-0.2913677753055567,-0.955426256446481,0.04544754760379989,-0.0952298203506021,-3.1410463985563037,-0.5919779217009291
1782905651467674112,3.2578561305999756,-0.96722811460495,-0.736301839351654,0.28093665838241577,0.006768631283193827,0.0842304527759552,0.9964234232902527,0.05875260755419731,-0.0126972496509552,-0.1344696283340454,0.009106021709053343,-0.2925966930590885,-0.9553004143482501,0.04129678236733055,-0.08433036888725427,3.1347998312905756,-0.5947170736532076
1782905651477593856,3.2677760124206543,-0.664690375328064,-0.7464590668678284,0.2047828733921051,0.014363512396812439,0.07596799731254578,0.9970067739486694,0.12591053545475006,0.013738416135311127,-0.1508154273033142,0.004300939185785771,-0.2936502621583619,-0.9551297829436306,0.03844611311021847,-0.07604125988488228,3.127187015452628,-0.5970947064069685
1782905651487514112,3.277696132659912,-0.32863354682922363,-0.7847345471382141,0.08738328516483307,0.022099396213889122,0.07105419784784317,0.9972277879714966,0.15069113671779633,0.04315784573554993,-0.12434864044189453,-0.00010139649302353002,-0.29418297040494745,-0.9550237014221453,0.037231462843853126,-0.07111412546051393,3.1194354488109397,-0.5984164601738694
1782905651497432832,3.2876150608062744,0.0046177878975868225,-0.830521285533905,0.0018306279089301825,0.030123800039291382,0.0693027675151825,0.9971410632133484,0.17033091187477112,0.0732295960187912,-0.07807338237762451,-0.00419306199645655,-0.2942647680531023,-0.9549758038920542,0.037577135058831444,-0.0693583643404834,3.1113916712047103,-0.5988608195858187
1782905651507352832,3.297534942626953,0.31099051237106323,-0.932450532913208,-0.11365735530853271,0.03877905383706093,0.0709274485707283,0.996727466583252,0.15743371844291687,0.050181567668914795,-0.027946829795837402,-0.008110318329958415,-0.293822085590201,-0.9550038349436687,0.039629909712055524,-0.07098705440411866,3.102705889374163,-0.5983305703800806
1782905651517272064,3.3074541091918945,0.29671144485473633,-0.9622968435287476,-0.1595156490802765,0.04809059575200081,0.07409434765577316,0.9960911870002747,0.17040002346038818,0.03865285962820053,0.14064300060272217,-0.012133196546743481,-0.293025089479906,-0.9550821334432905,0.04251205446297811,-0.07416230935839148,3.0933508012381337,-0.5971685313056124
1782905651527191808,3.3173739910125732,0.08404842764139175,-0.85139399766922,-0.2199196070432663,0.05709626525640488,0.07600411027669907,0.9954713582992554,0.13820096850395203,0.029403597116470337,0.3402523994445801,-0.01621241724611714,-0.291953663941504,-0.955247991024564,0.044737419591861644,-0.07607747655756379,3.0842994132139263,-0.5954111066691211
1782905651537112064,3.327294111251831,-0.13528431951999664,-0.6414320468902588,-0.252703458070755,0.06419859826564789,0.07589004188776016,0.9950476288795471,0.09733095020055771,-0.037498921155929565,0.4308253526687622,-0.019695843410699403,-0.2905702871500624,-0.955558848377789,0.04569896146549414,-0.07596307523357788,3.077163836889755,-0.5928481675036603
1782905651547031040,3.3372130393981934,-0.3766767084598541,-0.3808151185512543,-0.14255404472351074,0.06909873336553574,0.0732789859175682,0.9949151277542114,0.11162637919187546,-0.07918412238359451,0.4693032503128052,-0.02247443009494159,-0.2894905640624886,-0.9558518560436178,0.0451384045364174,-0.07334472596787621,3.0722521093740305,-0.590704706561804
1782905651556951040,3.347133159637451,-0.38959237933158875,-0.10813164710998535,-0.1882728636264801,0.07144756615161896,0.06941958516836166,0.9950256943702698,0.14685994386672974,-0.052055083215236664,0.43377673625946045,-0.024198948444143224,-0.2886282920110644,-0.9561414960833644,0.043606822650427056,-0.06947546064486429,3.0699109386138934,-0.5888310336066512
1782905651566871040,3.35705304145813,-0.3087574541568756,-0.07601552456617355,-0.025337478145956993,0.07232414186000824,0.0659986287355423,0.9951953291893005,0.14970651268959045,-0.021076738834381104,0.3783247470855713,-0.025140716163327706,-0.28800883528883786,-0.9563726083127,0.04207571553525297,-0.06604663403386166,3.0690468759358356,-0.5874153567369435
1782905651576789760,3.366971969604492,-0.10089791566133499,0.05185752362012863,-0.15261271595954895,0.0725814700126648,0.06373722851276398,0.9953238368034363,0.2040145993232727,-0.010392509400844574,0.3370736241340637,-0.025606288895172476,-0.28763079125627955,-0.956519962155054,0.0410172015289391,-0.06378046363835789,3.0687990305325137,-0.5865310095950101
1782905651586710016,3.37689208984375,0.3483946621417999,0.21848750114440918,-0.18697041273117065,0.0713416263461113,0.0649714544415474,0.9953338503837585,0.179284006357193,-0.028609737753868103,0.3531618118286133,-0.024867489880467993,-0.2868569348887227,-0.9567549458422105,0.041409911474667084,-0.06501724897007972,3.0700389415467932,-0.5849163929775424
1782905651596629760,3.3868119716644287,0.6002512574195862,0.36629679799079895,-0.18597020208835602,0.06869006901979446,0.06973712146282196,0.9951978325843811,0.20168042182922363,-0.09433427453041077,0.3894916772842407,-0.022942684391571804,-0.28616317459559715,-0.9569271462688105,0.04329892205811486,-0.06979377414594888,3.0726804262683944,-0.5835655169181031
1782905651606548992,3.39673113822937,0.7958711385726929,0.43753209710121155,-0.24267049133777618,0.06489244103431702,0.07653301954269409,0.9949530959129333,0.21182569861412048,-0.09961957484483719,0.5234184861183167,-0.020187875507967145,-0.28531224873629774,-0.9571172696501554,0.04599891755705185,-0.07660793090896764,3.0764632943282155,-0.5819138817650804
1782905651616468992,3.406651020050049,0.7872892022132874,0.49063029885292053,-0.1613960713148117,0.06152113154530525,0.08426107466220856,0.9945424795150757,0.17390671372413635,-0.09848228842020035,0.6204780340194702,-0.017505357628601705,-0.2845366515809316,-0.9572409003680054,0.049215879505581185,-0.08436110178289688,3.079812647752077,-0.5804659790620886
1782905651626387712,3.416569948196411,0.459081768989563,0.6872006058692932,-0.19358223676681519,0.05700288712978363,0.08996140211820602,0.9943125247955322,0.11441434174776077,-0.05979478359222412,0.7540088891983032,-0.014553429672928725,-0.28398156500768074,-0.95734566457336,0.051301853428991386,-0.09008319026646204,3.084326390807357,-0.5793140708685214
1782905651636307968,3.426490068435669,0.057951781898736954,0.960830807685852,-0.19156284630298615,0.04907657578587532,0.09232937544584274,0.9945182800292969,0.02505061775445938,-0.06748807430267334,0.7805823087692261,-0.010452574644018301,-0.2832160343378886,-0.9576261421743106,0.051298749131721215,-0.09246105900790505,3.0922855708402515,-0.5773842492319319
1782905651646227712,3.4364099502563477,-0.020024240016937256,1.2644966840744019,-0.08768650144338608,0.038193121552467346,0.0923173800110817,0.9949967265129089,0.056335072964429855,-0.149064838886261,0.7427960634231567,-0.005249564869476288,-0.2828383752272863,-0.9578626370120319,0.04973935363710594,-0.09244901466685,3.103226319034388,-0.5760180767582462
1782905651656146944,3.446329116821289,-0.09559516608715057,1.4835139513015747,-0.06651437282562256,0.02469315379858017,0.09180664271116257,0.9954708814620972,0.11793075501918793,-0.21506711840629578,0.6140722036361694,0.0011623816238070712,-0.2829267922813729,-0.957960266837727,0.04757446950338526,-0.09193609717111226,3.116792239188699,-0.5754985486333041
1782905651666066944,3.4562489986419678,0.07302048057317734,1.5775471925735474,-0.17780467867851257,0.009345988743007183,0.09124832600355148,0.99578458070755,0.20433808863162994,-0.1555030643939972,0.5802806615829468,0.0084367039344737,-0.2826618998075193,-0.9581203158121386,0.04512943474617673,-0.09137542904613827,3.1322073764508955,-0.5741873708332774
1782905651675986944,3.4661691188812256,0.5645526647567749,1.5576435327529907,-0.18307161331176758,-0.006233858875930309,0.09433940798044205,0.9955206513404846,0.3148123621940613,-0.06925395876169205,0.47951602935791016,0.01632690447405866,-0.282036630293147,-0.9582357051514463,0.04442009341337362,-0.09447990833389018,-3.1353308274713703,-0.5721960453251085
1782905651685905920,3.476088047027588,1.1351962089538574,1.6393711566925049,-0.1062450036406517,-0.022017575800418854,0.10260125249624252,0.9944791793823242,0.34785374999046326,0.023558437824249268,0.4319889545440674,0.02506730748094691,-0.28169193901873385,-0.9580653559841217,0.04617573146047028,-0.1027821264341372,-3.1194564643345357,-0.570787563177823
1782905651695825920,3.4860079288482666,1.6079027652740479,1.730808973312378,-0.08559725433588028,-0.038657594472169876,0.11624189466238022,0.9924683570861816,0.27436012029647827,-0.019134975969791412,0.40158987045288086,0.034998390320547995,-0.2814303523891145,-0.9576174193576942,0.050407748312036316,-0.11650527921552081,-3.1026613727039947,-0.5694057401368048
1782905651705744896,3.495927095413208,1.5239535570144653,1.8716726303100586,-0.07266627252101898,-0.05628062039613724,0.13184398412704468,0.9896714091300964,0.23081064224243164,-0.10971873998641968,0.4520246982574463,0.045702839187327204,-0.2812095382452377,-0.9569518874804718,0.05545725111400057,-0.13222898048347873,-3.084785853029146,-0.567865667036944
