time,seconds_elapsed,rotationRateX,rotationRateY,rotationRateZ,gravityX,gravityY,gravityZ,accelerationX,accelerationY,accelerationZ,quaternionW,quaternionX,quaternionY,quaternionZ,pitch,roll,yaw
1783166084322616576,0.21675443649291992,-0.19273842871189117,0.10425212234258652,-0.3337855935096741,0.10370487719774246,0.6287610530853271,-0.770652174949646,0.08234554529190063,0.04984307289123535,-0.026360154151916504,0.4065719985313846,-0.19407240852371313,-0.2775064192391916,0.8485429691401962,-0.6799588879260208,0.13376412327585585,2.295324858887007
1783166084332536576,0.22667431831359863,0.047811925411224365,0.08060770481824875,-0.34877198934555054,0.10817135870456696,0.6279164552688599,-0.7707267999649048,0.08025942742824554,0.06519871950149536,-0.02553778886795044,0.4072063030896103,-0.19621835597014,-0.27592562293098083,0.8482607617382487,-0.6788732061223305,0.13943900606729337,2.2957800660633163
1783166084342455552,0.23659348487854004,0.2734956443309784,0.04448138549923897,-0.37424805760383606,0.1141146868467331,0.625440776348114,-0.7718819379806519,0.07813078165054321,0.07786732912063599,-0.020720601081848145,0.40779958190959986,-0.19857971464374535,-0.2731760121719865,0.8483162953155612,-0.67569630384009,0.1467763864589966,2.2970349583061864
1783166084352374528,0.24651241302490234,0.4200518727302551,0.004107903689146042,-0.4020448923110962,0.11935383081436157,0.622470498085022,-0.7734889388084412,0.06926006823778152,0.09998738765716553,-0.005624830722808838,0.4086207340653616,-0.20051633799225507,-0.27027528194035916,0.8483947087137791,-0.6718953723496486,0.1530983188564757,2.2974401490211003
1783166084362294528,0.25643229484558105,0.5269354581832886,-0.016460489481687546,-0.415202796459198,0.12308914959430695,0.6195217967033386,-0.7752688527107239,0.054187461733818054,0.09550505876541138,0.011123955249786377,0.40974418052944406,-0.20181253561983117,-0.26765139789750086,0.848377314690563,-0.6681333336957256,0.15745537211981608,2.2964724000179775
1783166084372213504,0.26635146141052246,0.48876675963401794,-0.02317960560321808,-0.4151276648044586,0.12564390897750854,0.6171019077301025,-0.776787519454956,0.02917174994945526,0.08695387840270996,0.027580976486206055,0.4110494932187828,-0.20274216127738545,-0.2655218341792057,0.8481934500712284,-0.6650543318953288,0.16035926969046047,2.2945453555291295
1783166084382133504,0.27627134323120117,0.39355847239494324,-0.026507757604122162,-0.40706974267959595,0.1271703988313675,0.6156983375549316,-0.777652382850647,0.004162013530731201,0.06826162338256836,0.03245890140533447,0.4124021176978952,-0.2034870989948856,-0.2641340875508098,0.8477916075187533,-0.6632719067666417,0.1620963735250515,2.2920327788881845
1783166084392052736,0.2861905097961426,0.25244787335395813,-0.046210698783397675,-0.42947763204574585,0.12754300236701965,0.6155118346214294,-0.7777389883995056,-0.018991976976394653,0.05650049448013306,0.01058816909790039,0.4137888247505941,-0.2040450497296972,-0.2636211523427806,0.8471412851824043,-0.6630352478060325,0.16254520293090932,2.288918005633399
1783166084401971456,0.2961094379425049,0.1314365267753601,-0.049709025770425797,-0.48547297716140747,0.1266331970691681,0.6164038181304932,-0.777181088924408,-0.04565483331680298,0.06609129905700684,-0.012461245059967041,0.41534019607274525,-0.20435530740629132,-0.2639097629559248,0.8462169926432765,-0.6641674847821301,0.16151969625260446,2.2848472216595144
1783166084411891456,0.3060293197631836,0.061823613941669464,-0.014448964037001133,-0.5793045163154602,0.12440444529056549,0.6179649233818054,-0.7763007879257202,-0.0673823431134224,0.08723527193069458,-0.039876580238342285,0.41730181034178704,-0.20435644432084948,-0.2647415045548472,0.8449908813595871,-0.666151607811791,0.1589018371413211,2.2792323431617203
1783166084421810688,0.315948486328125,0.0535060316324234,0.003171841613948345,-0.721647322177887,0.1207355484366417,0.619471549987793,-0.7756790518760681,-0.0702747330069542,0.11560535430908203,-0.07364046573638916,0.4199405138840952,-0.20385520612667843,-0.26571326664605666,0.8434983923967422,-0.6680693515326508,0.15441237837799082,2.2714122241033152
1783166084431730432,0.3258683681488037,0.15766485035419464,-0.031595345586538315,-0.8384168148040771,0.11576009541749954,0.6204277276992798,-0.7756732702255249,-0.044501543045043945,0.14589917659759521,-0.1108013391494751,0.42325450507583745,-0.2027682627144167,-0.2665490773139777,0.8418385794840308,-0.6692880075523843,0.14814485109680897,2.2614602022556225
1783166084441649408,0.335787296295166,0.39745932817459106,-0.06383130699396133,-0.9067330360412598,0.10982745885848999,0.619888186454773,-0.7769662141799927,-0.00870746374130249,0.16828924417495728,-0.13222867250442505,0.4270944973160719,-0.20092495709024566,-0.2667321543553789,0.8402816958146873,-0.6686001944421878,0.1404238811985995,2.2499455777543997
1783166084451568640,0.3457064628601074,0.7179260849952698,-0.11050039529800415,-0.9541054368019104,0.10328105837106705,0.6170129179954529,-0.7801461815834045,0.006612740457057953,0.19191652536392212,-0.08752959966659546,0.4314114206545765,-0.19820925368005898,-0.2657818440515681,0.839021632560005,-0.6649412557612434,0.1316214141957907,2.237237309892232
1783166084461488384,0.35562634468078613,1.064752459526062,-0.1862388253211975,-0.9967570304870605,0.09602233022451401,0.6114917397499084,-0.785402774810791,-0.0005328282713890076,0.22539174556732178,-0.02380126714706421,0.43613191810455887,-0.19445020020633294,-0.26360525410528973,0.8381468951024422,-0.657944499057342,0.12165497671470356,2.223574445983978
1783166084471407616,0.36554551124572754,1.400438904762268,-0.22439545392990112,-1.0234971046447754,0.08814972639083862,0.6031807661056519,-0.7927184700965881,-0.016982734203338623,0.23133766651153564,0.00843203067779541,0.4412314534545991,-0.1896459441579411,-0.26014451511967984,0.8376599075737265,-0.6474830303792831,0.11074431059948141,2.2091616257159536
1783166084481327616,0.37546539306640625,1.6026772260665894,-0.2561376690864563,-1.0463666915893555,0.0799628272652626,0.5925673842430115,-0.8015421628952026,-0.042945004999637604,0.19893652200698853,0.03364360332489014,0.4466082655057461,-0.18407001084091776,-0.2556309051651876,0.8374438021635481,-0.6342423863729928,0.09943223983649528,2.194388276358685
1783166084491246336,0.38538432121276855,1.5963479280471802,-0.27506041526794434,-1.089532732963562,0.07143980264663696,0.5810301303863525,-0.8107406497001648,-0.06724365800619125,0.13111281394958496,0.023509204387664795,0.4521368721289929,-0.17811282917923507,-0.25080966630813434,0.837223230857172,-0.6199937984960898,0.08788970513761053,2.1794285509015747
1783166084501165568,0.39530348777770996,1.373740315437317,-0.260515034198761,-1.1446667909622192,0.06264523416757584,0.5702407360076904,-0.8190855383872986,-0.08307676017284393,0.04381871223449707,-0.018133699893951416,0.4343960654995759,-0.1654115028736883,-0.2511897200080556,0.8490246579214898,-0.6067988879047944,0.07633331953909013,2.2196660474720664
1783166084511085568,0.40522336959838867,1.047559142112732,-0.1853312999010086,-1.2136751413345337,0.0539013035595417,0.5615886449813843,-0.8256590366363525,-0.0919567123055458,-0.04103505611419678,-0.06838393211364746,0.4344530446032929,-0.15876463804490856,-0.2489262521349358,0.8509289075073191,-0.5963045620140409,0.06519025975193317,2.2175078963257855
1783166084521004544,0.415142297744751,0.7806723117828369,-0.09279178082942963,-1.2898008823394775,0.045491792261600494,0.5551894307136536,-0.8304789066314697,-0.09099350869655609,-0.11080771684646606,-0.13071799278259277,0.4377094050054915,-0.15389982585357218,-0.24713435077175397,0.8506762450667541,-0.5885907233165183,0.05472309141843933,2.2077547115348786
1783166084530924544,0.4250624179840088,0.5547896027565002,-0.03193432837724686,-1.3460291624069214,0.037348758429288864,0.5505753755569458,-0.8339495062828064,-0.07975292205810547,-0.13362902402877808,-0.18172121047973633,0.4414296253062044,-0.14982870613190516,-0.2461231396618904,0.8497732378770395,-0.5830533288821074,0.044755488804911696,2.196824497864532
1783166084540843520,0.4349813461303711,0.4052749276161194,0.01558125950396061,-1.3838891983032227,0.029430566355586052,0.5473232269287109,-0.8364036679267883,-0.06327454745769501,-0.10431486368179321,-0.2130957841873169,0.4461168171370472,-0.1465519764562846,-0.24560268933185145,0.8480456995735132,-0.5791625051809022,0.03517252536866512,2.1835294888094525
1783166084550762496,0.4449002742767334,0.37096089124679565,0.05928913131356239,-1.37294340133667,0.021874142810702324,0.5446552038192749,-0.8383747339248657,-0.04477757215499878,-0.0664752721786499,-0.22717702388763428,0.4507722706750306,-0.14361848281880762,-0.24532910249090206,0.8461628697613071,-0.5759779445325333,0.026085209549705522,2.1703525330915823
1783166084560682496,0.4548203945159912,0.4303200840950012,0.06457310914993286,-1.3130526542663574,0.014807210303843021,0.5416333675384521,-0.8404844403266907,-0.043310634791851044,-0.04772162437438965,-0.22871416807174683,0.4556750015616981,-0.14089137945146932,-0.24475990144938387,0.8441579201431745,-0.5723789709540874,0.01761564967178163,2.156822422163954
1783166084570601472,0.4647393226623535,0.4602256417274475,0.06610389798879623,-1.3040517568588257,0.008017797023057938,0.5380135178565979,-0.8428980708122253,-0.06240013241767883,-0.0472145676612854,-0.2505466938018799,0.46090622298688333,-0.13821977668808033,-0.2438160067396403,0.8420301050666515,-0.5680787434029486,0.009511891010806073,2.142718466274198
1783166084580521472,0.47465944290161133,0.36842888593673706,0.08657056093215942,-1.3484790325164795,0.001268609892576933,0.5345340967178345,-0.8451459407806396,-0.09684965014457703,-0.05893290042877197,-0.28272271156311035,0.4665562846428906,-0.13573743471548308,-0.2429040572460096,0.8395820922119825,-0.5639563854315666,0.001501053139887968,2.127608703718943
1783166084590440448,0.48457837104797363,0.2186334729194641,0.12939411401748657,-1.38428795337677,-0.005342790856957436,0.5319874286651611,-0.846735417842865,-0.09603661298751831,-0.09125256538391113,-0.3436179757118225,0.4723549516728649,-0.13364988120438365,-0.24242524351613626,0.8368085906241777,-0.5609459475865859,-0.006309786831723864,2.1120028089619756
1783166084600359424,0.49449729919433594,0.05995780974626541,0.10063916444778442,-1.3822095394134521,-0.011906002648174763,0.5305997133255005,-0.8475388884544373,-0.04441419243812561,-0.16072672605514526,-0.39972972869873047,0.477913693865079,-0.13187954914629152,-0.24256613644693817,0.8338872675572674,-0.5593079293965958,-0.014046812001380872,2.09672494827305
1783166084610279680,0.5044174194335938,-0.15059290826320648,-0.011247159913182259,-1.3366414308547974,-0.018905648961663246,0.530620813369751,-0.8473984599113464,0.038925182074308395,-0.23594307899475098,-0.42063742876052856,0.4832642728604998,-0.1303043735388132,-0.2435601377090766,0.8307556036146622,-0.5593328046873748,-0.022306522634848853,2.081451559122483
1783166084620198400,0.514336347579956,-0.44481360912323,-0.1490556299686432,-1.257304310798645,-0.02663547731935978,0.5325929522514343,-0.8459522724151611,0.08466465771198273,-0.2816317081451416,-0.45785021781921387,0.4880569629079554,-0.12887360968384987,-0.2457955485478625,0.8275122488315624,-0.5616612647570753,-0.03147539260757167,2.066758769780807
1783166084630118656,0.5242564678192139,-0.7453601360321045,-0.20539917051792145,-1.1978344917297363,-0.034804195165634155,0.5370567440986633,-0.8428277969360352,0.056227538734674454,-0.28098374605178833,-0.5165319442749023,0.4923791750090978,-0.12793212246763633,-0.24943829086698907,0.8240004155213533,-0.5669440627899752,-0.04127110156504369,2.052340037828876
1783166084640037632,0.5341753959655762,-0.9255980849266052,-0.20969457924365997,-1.2018311023712158,-0.04303084686398506,0.5433903932571411,-0.838376522064209,-0.010069739073514938,-0.2560673952102661,-0.5776543617248535,0.49610153260411805,-0.12743521598721036,-0.25411021872129724,0.8204093687506476,-0.5744705691424495,-0.05128139831320328,2.038704462179489
1783166084649956352,0.5440943241119385,-1.0062310695648193,-0.2377258688211441,-1.2750064134597778,-0.05163835361599922,0.550611674785614,-0.833162784576416,-0.044965051114559174,-0.216077983379364,-0.611447811126709,0.5000222951678247,-0.1271894538346757,-0.25930954369867465,0.8164307179162889,-0.5830968200506867,-0.06189952701716386,2.0239651627606294
1783166084659876608,0.5540144443511963,-1.0018621683120728,-0.32204103469848633,-1.3574669361114502,-0.06120028719305992,0.5579501986503601,-0.8276147246360779,-0.017733432352542877,-0.1807529330253601,-0.6015234589576721,0.5043338073881133,-0.12677417197691507,-0.2648036215906075,0.8120682154395349,-0.5919137435765367,-0.0738134510945201,2.0075712339114946
1783166084669795584,0.5639333724975586,-0.8762674927711487,-0.46462002396583557,-1.3703361749649048,-0.07204235345125198,0.5645459890365601,-0.8222516179084778,0.05003918707370758,-0.15678542852401733,-0.5397936701774597,0.5086798201881528,-0.1256604532338392,-0.2703398876890074,0.8076945946973787,-0.5998831214958842,-0.08739277949618439,1.990472778101766
1783166084679715328,0.5738532543182373,-0.6544134020805359,-0.6593647003173828,-1.3133043050765991,-0.08416706323623657,0.5694902539253235,-0.8176776766777039,0.10429339110851288,-0.154527485370636,-0.45829278230667114,0.5128022428421976,-0.12345093306394538,-0.27553772322401554,0.8036620564950189,-0.6058855955033118,-0.1025730308987384,1.9736041009454608
1783166084689634560,0.5837724208831787,-0.46655455231666565,-0.7870299816131592,-1.2753260135650635,-0.09736546874046326,0.5725791454315186,-0.8140473961830139,0.08280856162309647,-0.15041422843933105,-0.3921293616294861,0.5165957372797276,-0.12011276451589371,-0.28026635519320936,0.8000954016719716,-0.6096482681426354,-0.11904112564789265,1.9574517561272695
1783166084699553536,0.593691349029541,-0.39295142889022827,-0.8559778928756714,-1.313549280166626,-0.11128249019384384,0.5743800401687622,-0.8109893798828125,-0.012405268847942352,-0.1406031847000122,-0.3227386474609375,0.5203288193949508,-0.11607256559632097,-0.2846620035141146,0.7967136665115099,-0.6118465689261954,-0.13636656058171379,1.9413685301592316
1783166084709473536,0.6036114692687988,-0.4241112172603607,-0.8931801319122314,-1.4260867834091187,-0.1260799914598465,0.5757829546928406,-0.8078229427337646,-0.0873904824256897,-0.13295763731002808,-0.28786492347717285,0.5241882238108443,-0.11163382278667104,-0.289182340258751,0.7931823717328234,-0.6135614296046251,-0.15482473647294048,1.924505162293979
1783166084719392512,0.6135303974151611,-0.4019305408000946,-0.9338556528091431,-1.5153566598892212,-0.14175760746002197,0.5769389867782593,-0.8043918609619141,-0.09818686544895172,-0.14827382564544678,-0.31995201110839844,0.528582889610172,-0.10701032314905808,-0.2938585671594052,0.7891743841551716,-0.6149760485236196,-0.17443842205506765,1.905744847750493
1783166084729312512,0.6234502792358398,-0.3521675169467926,-1.026592493057251,-1.5624158382415771,-0.15830521285533905,0.5773822069168091,-0.8009802103042603,-0.042424142360687256,-0.19122803211212158,-0.37692201137542725,0.5330156273422127,-0.1018712295502507,-0.2985500968837661,0.7851015650635552,-0.615518830123291,-0.19512468647967376,1.8865272158261006
1783166084739231488,0.6333694458007812,-0.2200787216424942,-1.1359866857528687,-1.5671820640563965,-0.1757981777191162,0.5769091248512268,-0.7976658940315247,0.040086522698402405,-0.2277575135231018,-0.41389721632003784,0.5375800184185061,-0.09615245212020859,-0.3031860210385461,0.7809229773699462,-0.6149395343046037,-0.21692297620486017,1.8666834775269048
1783166084749150464,0.6432883739471436,0.030318818986415863,-1.2957762479782104,-1.4767248630523682,-0.1940334588289261,0.5746233463287354,-0.7950842976570129,0.10533410310745239,-0.2708361744880676,-0.42247551679611206,0.5415397232906604,-0.08932670587459246,-0.307373701051081,0.7773525422439802,-0.6121438870759146,-0.23936271841599085,1.8486839287726953
1783166084759070464,0.6532082557678223,0.2466660439968109,-1.4660651683807373,-1.3738855123519897,-0.21292608976364136,0.5704190135002136,-0.7932746410369873,0.12350957095623016,-0.2747189402580261,-0.3832848072052002,0.5450702923716201,-0.08144343605484444,-0.3110139062737535,0.7742968908254788,-0.6070158937111647,-0.26223308576979143,1.832287422488948
1783166084768989440,0.6631274223327637,0.5175249576568604,-1.5812634229660034,-1.2812525033950806,-0.23230403661727905,0.5643078088760376,-0.7922067046165466,0.08899350464344025,-0.2562786936759949,-0.3388814926147461,0.5480558340230547,-0.07251981416174375,-0.31406610426234377,0.771840688210411,-0.5995945692760328,-0.2852403839764435,1.81798006319285
1783166084778909440,0.6730473041534424,0.8560745120048523,-1.717923879623413,-1.1581765413284302,-0.25190916657447815,0.5557341575622559,-0.7922760844230652,0.05409422516822815,-0.25896596908569336,-0.3015349507331848,0.5504003131167299,-0.06241086303670564,-0.3161753466211523,0.7701932210552834,-0.5892457580222363,-0.3078479875655527,1.8065496855217216
1783166084788828672,0.6829664707183838,1.2091363668441772,-1.8696016073226929,-1.0402501821517944,-0.27189868688583374,0.5445794463157654,-0.7934131026268005,0.06285327672958374,-0.2836236357688904,-0.28149229288101196,0.5521249974437415,-0.05101825792790401,-0.31731780251592595,0.76932735117697,-0.575887595934263,-0.33015225694953676,1.7980150376903248
1783166084798747648,0.6928853988647461,1.7148098945617676,-2.068708896636963,-0.8888976573944092,-0.292426198720932,0.5301741361618042,-0.7958657741546631,0.10477358102798462,-0.3388594388961792,-0.2924520969390869,0.5530117737940995,-0.037961757625462084,-0.3172160239516529,0.7694874724591816,-0.5588058984656341,-0.3521188571936142,1.7932982595436011
1783166084808667392,0.7028052806854248,2.30477237701416,-2.302100658416748,-0.6864989995956421,-0.313681423664093,0.5116936564445496,-0.7998585104942322,0.18591955304145813,-0.40720146894454956,-0.2755351662635803,0.5528815313897348,-0.02283299345473773,-0.31551450576805395,0.7708770427913069,-0.5371549139520342,-0.3737391992422053,1.7932414474789442
1783166084818586624,0.7127244472503662,3.0536203384399414,-2.5395236015319824,-0.38602888584136963,-0.33551955223083496,0.48846396803855896,-0.8054996132850647,0.25695204734802246,-0.46272242069244385,-0.2511562705039978,0.5512675024868033,-0.005333873079513888,-0.3118040286159831,0.7738565826521057,-0.5103285742137518,-0.39467974691598345,1.7994257296982086
1783166084828506368,0.7226443290710449,4.040475368499756,-2.7695834636688232,0.0006821785354986787,-0.35759738087654114,0.45912814140319824,-0.8132191896438599,0.30551913380622864,-0.5029361248016357,-0.22001445293426514,0.5478867618931044,0.014848557731938153,-0.30523748691924474,0.7787359316731489,-0.47701353522016,-0.4142811520041064,1.8132682349019902
1783166084838425344,0.7325632572174072,5.084246635437012,-3.008122205734253,0.38522183895111084,-0.3800407946109772,0.4225139319896698,-0.8228310942649841,0.3244225084781647,-0.5218181610107422,-0.19517427682876587,0.5422401432902596,0.03813307937938952,-0.2951784690732559,0.7857424686160411,-0.43621721539838143,-0.43268085782409665,1.8361479407771097
1783166084848344576,0.7424824237823486,6.033908843994141,-3.1599345207214355,0.7393848299980164,-0.4029603898525238,0.37858521938323975,-0.8332443833351135,0.3127656579017639,-0.5257562398910522,-0.16501611471176147,0.5343300201452328,0.06427566368932237,-0.2815074641439089,0.7944266463166128,-0.3882672704731796,-0.45044504715196565,1.8673674581176782
1783166084858264320,0.7524023056030273,6.535137176513672,-3.3104519844055176,1.118540644645691,-0.42639511823654175,0.32947617769241333,-0.8423969745635986,0.27315109968185425,-0.5591514706611633,-0.07975268363952637,0.5238364857353452,0.09245032848815656,-0.2650555590716946,0.8042349484771105,-0.3357487209348721,-0.46857050885160406,1.9060989633375742
1783166084868183552,0.7623214721679688,6.378774642944336,-3.26235294342041,1.36985182762146,-0.4500638544559479,0.28006818890571594,-0.8479412198066711,0.21637549996376038,-0.6318137645721436,-0.013066470623016357,0.5112289655372858,0.12077138487713032,-0.2478783183134041,0.8140119980883391,-0.28386514122717715,-0.4879614616609524,1.9489195864596163
1783166084878103552,0.7722413539886475,5.709784030914307,-3.041080951690674,1.587727427482605,-0.47269245982170105,0.23520740866661072,-0.8492580652236938,0.13234519958496094,-0.7747124433517456,0.03410309553146362,0.4976289876915257,0.14702316166074392,-0.23185155689295814,0.822796681356294,-0.23743195830909228,-0.5078921253336625,1.9918102170191547
1783166084888022528,0.7821602821350098,4.495347023010254,-2.701808452606201,1.893612027168274,-0.492898166179657,0.1998472362756729,-0.8468249440193176,0.07058066129684448,-0.9212827682495117,0.13571959733963013,0.4834339773193973,0.16933451285392065,-0.21889118249710524,0.8304842319350736,-0.20120201024186954,-0.5271196605534963,2.0328066128897158
1783166084897941504,0.7920794486999512,2.8944027423858643,-2.3677055835723877,2.249375104904175,-0.5100218057632446,0.1785385012626648,-0.8414283990859985,0.01624739170074463,-0.9832260012626648,0.32774126529693604,0.4691100332178053,0.1863546421796172,-0.21108707593539444,0.8370483263245303,-0.1795008875130132,-0.5449205975944179,2.069677228799295
1783166084907861504,0.8019993305206299,1.2279633283615112,-2.014509916305542,2.533670663833618,-0.5238431096076965,0.17318154871463776,-0.8340243101119995,-0.05092495679855347,-0.9590702056884766,0.535211443901062,0.45513336666073545,0.1976721983529345,-0.2095555812552267,0.8425353509160635,-0.17405911284800593,-0.5608189136159905,2.1007792750441587
1783166084917780480,0.8119182586669922,-0.20215997099876404,-1.6748905181884766,2.7477567195892334,-0.5341514945030212,0.18227103352546692,-0.8255055546760559,-0.09556347131729126,-0.9022570252418518,0.6261495351791382,0.44194140269112525,0.2037151582949121,-0.21388628369167778,0.8470187036007467,-0.1832956907555061,-0.5743055432611129,2.1255150238139824
1783166084927700480,0.82183837890625,-1.5656745433807373,-1.4064446687698364,2.9423913955688477,-0.5410606265068054,0.20395629107952118,-0.8158769607543945,-0.07635575532913208,-0.8202587962150574,0.670659065246582,0.429338743659192,0.20523818519791445,-0.2234699003282497,0.8506507884313906,-0.20539746331779507,-0.5855740803014847,2.1446471580608706
1783166084937619456,0.8317573070526123,-2.5926530361175537,-1.2228015661239624,3.1523513793945312,-0.5448028445243835,0.2364877313375473,-0.8045268058776855,-0.033261120319366455,-0.771781325340271,0.6332621574401855,0.41740190915395786,0.20290289133726386,-0.23783820255107077,0.8532520028214047,-0.23874945282363555,-0.59524014145573,2.158120447370615
1783166084947538688,0.8416764736175537,-3.4351136684417725,-1.0902328491210938,3.385890007019043,-0.5455244779586792,0.2771340310573578,-0.7909486293792725,0.0158308744430542,-0.8297158479690552,0.6033570766448975,0.4054985569542516,0.19768987772374624,-0.2558210102495263,0.8550117964409351,-0.28081003129907056,-0.603785858590842,2.167932627182784
1783166084957458432,0.8515963554382324,-4.083037853240967,-1.0118900537490845,3.5657174587249756,-0.5432659983634949,0.32429659366607666,-0.7743989825248718,0.025291144847869873,-0.8996444940567017,0.6147767901420593,0.39342041467148153,0.1901209791674347,-0.27686553767719835,0.8558153212331536,-0.33026803499608354,-0.6117537080107341,2.174650471204993
1783166084967377408,0.8615152835845947,-4.4126739501953125,-0.9327104687690735,3.7618441581726074,-0.5379597544670105,0.3750772774219513,-0.7549280524253845,-0.006275475025177002,-0.9778757095336914,0.602996289730072,0.38091706579867607,0.1809213827341005,-0.2996721895761075,0.8557840579680954,-0.3844801398067833,-0.6191306523865295,2.1796823184849736
1783166084977297664,0.8714354038238525,-4.587209224700928,-0.832024872303009,3.9880735874176025,-0.5291801691055298,0.42755359411239624,-0.7329162955284119,-0.05327838659286499,-0.9762291312217712,0.6836304664611816,0.36771610785880504,0.1704053064076572,-0.323270582467187,0.8551275342860675,-0.4417848150039472,-0.6253520330575232,2.1844390002478224
1783166084987216384,0.8813543319702148,-4.365016937255859,-0.7074097990989685,4.223171710968018,-0.516452968120575,0.47931423783302307,-0.7096014022827148,-0.07438254356384277,-0.9289754629135132,0.7534551620483398,0.35337757338491316,0.15901721701410354,-0.34628431028184015,0.8543564622218994,-0.4998731802647178,-0.6291457557034056,2.1914702428162336
1783166084997135360,0.8912732601165771,-4.130071640014648,-0.6197646260261536,4.36038875579834,-0.5001652240753174,0.5279008150100708,-0.686407744884491,-0.05385088920593262,-0.8893967866897583,0.8086153268814087,0.3380594577758203,0.14739208357843678,-0.36752103583873963,0.8537679818114688,-0.5561270084997377,-0.6297100387837676,2.202143534249178
1783166085007055616,0.901193380355835,-4.1178436279296875,-0.5197429656982422,4.438364505767822,-0.48173344135284424,0.5720247030258179,-0.6638679504394531,0.019331127405166626,-0.8421815633773804,0.8678779602050781,0.32273067510984454,0.13604246042854143,-0.3867279181884721,0.8530995607942969,-0.6089721520580496,-0.6277318317704471,2.214954418239898
1783166085016974336,0.9111123085021973,-4.433790683746338,-0.44572678208351135,4.524469375610352,-0.46646952629089355,0.6055667996406555,-0.6447442173957825,0.11307594180107117,-0.8320987820625305,0.9641565084457397,0.30982447437063315,0.12764486735410166,-0.40166486989338507,0.8522798971370575,-0.6504778937977893,-0.6263212999443538,2.2267200798679205
1783166085026894592,0.9210324287414551,-4.936370372772217,-0.3117011785507202,4.717779159545898,-0.441494882106781,0.6535118818283081,-0.6148207783699036,0.189724862575531,-0.8800133466720581,1.1211378574371338,0.29332175935669924,0.11350394198789254,-0.42391800088919285,0.8493367229024045,-0.7122149434694777,-0.6227621163268563,2.2382326836780324
1783166085036813568,0.9309513568878174,-5.462331771850586,-0.12375205010175705,4.971789836883545,-0.41101759672164917,0.703818678855896,-0.5793994665145874,0.23976826667785645,-0.9456552863121033,1.1610188484191895,0.2759470487714411,0.09685856438819286,-0.44823952416783014,0.844720620003203,-0.7807588136160624,-0.6169972236920361,2.2493258938199765
1783166085046732544,0.9408702850341797,-5.947800159454346,0.004782710690051317,5.270793914794922,-0.37488505244255066,0.7548779249191284,-0.5381640195846558,0.29845377802848816,-0.9937542676925659,1.2259234189987183,0.2575923015867873,0.077892366135817,-0.47418430477590523,0.8382889048104638,-0.8554679871444844,-0.6084404248157878,2.261010414154191
1783166085056652544,0.9507904052734375,-6.161625862121582,0.06730547547340393,5.6052937507629395,-0.3331104516983032,0.8046804666519165,-0.4914538562297821,0.3935962915420532,-1.042610764503479,1.227125883102417,0.23783138171225568,0.05709612032704114,-0.5010120853890554,0.830158575368156,-0.9351370606976117,-0.5956749858420498,2.2760248840260435
1783166085066571520,0.9607093334197998,-6.112684726715088,0.07960878312587738,5.842624664306641,-0.2860395908355713,0.8504561185836792,-0.44148141145706177,0.4960920810699463,-1.1369093656539917,1.1932055950164795,0.2165387563697013,0.0351366498313475,-0.5272804798572143,0.8208847376472843,-1.0168517287843999,-0.5749035665830693,2.299186319554589
1783166085076491520,0.9706294536590576,-6.27778959274292,0.03033151850104332,5.883329391479492,-0.23544763028621674,0.8909291625022888,-0.3883422613143921,0.5727431774139404,-1.1982717514038086,1.1328338384628296,0.19418561572299406,0.012792031116401868,-0.5528699914925752,0.8102241277710096,-1.0993870400005228,-0.5450308916304091,2.3319667428840787
1783166085086410496,0.9805483818054199,-6.582046985626221,-0.02562781050801277,5.898914813995361,-0.18261593580245972,0.9259693622589111,-0.3305031359195709,0.6141039729118347,-1.1535389423370361,1.082700490951538,0.17114783765867583,-0.009655543781479056,-0.5784939057666407,0.7974710688263666,-1.1835947303195657,-0.5047905704741179,2.3754972031420336
1783166085096329472,0.9904673099517822,-6.953030109405518,-0.130845844745636,5.888908386230469,-0.12808290123939514,0.9550653100013733,-0.2672918438911438,0.63902348279953,-1.0128504037857056,1.049747347831726,0.14739794399645714,-0.03202216917399456,-0.6044242400576499,0.7822529521714962,-1.269880003684355,-0.4468594129903639,2.437385652170311
1783166085106249472,1.00038743019104,-7.18217134475708,-0.3477184772491455,5.944965839385986,-0.07218765467405319,0.9773210883140564,-0.19907860457897186,0.6607344150543213,-0.8255420327186584,1.0947389602661133,0.12258532816432752,-0.05388748269286826,-0.6305210835864,0.7645338941745231,-1.3574180900122081,-0.3478631477798639,2.5420682624622084
1783166085116168448,1.0103063583374023,-6.978080749511719,-0.5607583522796631,6.032138824462891,-0.014588247053325176,0.9914684891700745,-0.1295277327299118,0.6700142621994019,-0.6729870438575745,0.999919593334198,0.09649224340066688,-0.07507259810665735,-0.6554389678362331,0.7452872834278083,-1.4400778786027417,-0.11215382379592466,2.7856874418407083
1783166085126088704,1.0202264785766602,-6.726935386657715,-0.7458150386810303,5.9944748878479,0.043996505439281464,0.9971038103103638,-0.06203537434339523,0.6565955281257629,-0.5531646013259888,0.8369377255439758,0.06953985782275685,-0.09533845392998043,-0.6781540321653147,0.7253839907871423,-1.4946701477052786,0.6168847292006402,-2.758583206022258
1783166085136007424,1.0301454067230225,-6.332821846008301,-0.877103865146637,5.973998546600342,0.10269457846879959,0.9947105646133423,0.0021031636279076338,0.6298035979270935,-0.4699457287788391,0.7224756479263306,0.042194987918713706,-0.11462298163674249,-0.6985078051516723,0.7051013240862838,-1.4678975189809442,1.5912732563837222,-1.7728438066880285
1783166085145926400,1.0400643348693848,-5.985312461853027,-0.953155517578125,5.8615403175354,0.16103805601596832,0.9850436449050903,0.06128450855612755,0.5881379842758179,-0.49830353260040283,0.6008706092834473,0.014836532300051684,-0.13307059672538624,-0.7161944360553357,0.6849362327226423,-1.397627153967652,1.9344318408047811,-1.4175073981973785
1783166085155846656,1.0499844551086426,-5.895583629608154,-1.005149483680725,5.725977420806885,0.21789708733558655,0.968942403793335,0.11692594736814499,0.5254653692245483,-0.5423675775527954,0.5632803440093994,-0.012175173070439528,-0.15057338241501828,-0.7319772058572641,0.6643710500858105,-1.3209175909030677,2.0633018926906646,-1.2758749810312282
1783166085165765632,1.0599033832550049,-6.089334964752197,-0.9546217322349548,5.5438737869262695,0.2727619707584381,0.946699321269989,0.17135128378868103,0.4330180287361145,-0.5423567295074463,0.6155444383621216,-0.03870514119304626,-0.16727437366529915,-0.746789748912709,0.6425155706492353,-1.2428298214587037,2.131699270706635,-1.1944518799922599
1783166085175685376,1.0698232650756836,-6.35850191116333,-0.7718242406845093,5.278731822967529,0.324388325214386,0.9184486865997314,0.2263277769088745,0.2906782031059265,-0.5153114795684814,0.666601300239563,-0.06412225716111693,-0.1832674551969816,-0.7612994981801882,0.6186473024177227,-1.1641405134413019,2.1799812338411804,-1.1338652443770327
1783166085185604608,1.079742431640625,-4.9530205726623535,-0.5777249336242676,4.456004619598389,0.3697735369205475,0.8873659372329712,0.27540719509124756,0.15625792741775513,-0.41178005933761597,0.8936296701431274,-0.08657829352173867,-0.19794497060839786,-0.7736416376283188,0.5956513878252652,-1.0916004313784111,2.210960873952311,-1.092937461559156
1783166085195523584,1.0896613597869873,-4.637303829193115,-0.7740688920021057,3.9875473976135254,0.40750283002853394,0.8576733469963074,0.3135882616043091,0.20338276028633118,0.0897752046585083,0.5273540616035461,-0.10598805140703335,-0.20962340790287867,-0.7828487459501793,0.5761703696731231,-1.0307276101504106,2.2266839564754237,-1.0671286814271528
1783166085205443328,1.099581241607666,-5.2779541015625,-0.9740661978721619,5.266316890716553,0.4460166394710541,0.8230867385864258,0.35156404972076416,0.28344500064849854,0.7454708814620972,0.6058334112167358,-0.12585832496486304,-0.2222094122657241,-0.7914575144157917,0.5553175966967849,-0.9668250494498871,2.2383196106929355,-1.0461137436284476
1783166085215362560,1.1095004081726074,-1.035494327545166,-1.027538537979126,5.33674955368042,0.49559417366981506,0.7838158011436462,0.3741913437843323,2.1966054439544678,0.8997016549110413,1.1095579862594604,-0.1480794262837937,-0.24171564007599391,-0.7928866426708773,0.5394226517722261,-0.9007868873389456,2.2175125756402823,-1.0644115849870663
1783166085225282304,1.1194202899932861,-2.1181159019470215,-1.1262242794036865,2.6953346729278564,0.5278892517089844,0.762065052986145,0.37495294213294983,-0.7846794724464417,-0.025019824504852295,0.13246282935142517,-0.16367552659009574,-0.251896128000358,-0.7899524114428408,0.5345407540780145,-0.8664964253168376,2.188393097938011,-1.0862171198661144
1783166085235201536,1.1293394565582275,-4.309554576873779,1.2621195316314697,2.451563835144043,0.5459619760513306,0.735260546207428,0.4016432762145996,-0.9606806039810181,0.14059388637542725,1.4983811378479004,-0.17428531616050744,-0.25890154527062803,-0.796110314450584,0.518462087857332,-0.8260510242712186,2.205057582699118,-1.0650933416854138
1783166085245121536,1.1392593383789062,-4.262749195098877,1.959781527519226,2.072378158569336,0.5544406175613403,0.7050145864486694,0.4422103762626648,-0.4234134554862976,-0.48734796047210693,1.0844162702560425,-0.17856436483092986,-0.26832129765312335,-0.805672929409581,0.4970005645385053,-0.7824436722484225,2.2440595019830782,-1.035119842772554
1783166085255040512,1.1491782665252686,-4.641078948974609,1.1686458587646484,2.285174608230591,0.5611662268638611,0.6732953190803528,0.48142120242118835,0.5388094186782837,-0.769532322883606,0.7967771291732788,-0.18292128644750885,-0.2767458281731394,-0.814937023678772,0.4752150891402145,-0.7386567218224522,2.2798555095034625,-1.006929198649761
1783166085264959488,1.15909743309021,-4.760294437408447,0.7419664859771729,2.4939818382263184,0.5719133615493774,0.6351751089096069,0.5191026926040649,1.319749116897583,-0.5340093970298767,0.9014294743537903,-0.19119759490004098,-0.28446860934700363,-0.8237893846391543,0.45154414780376056,-0.6882352346234264,2.3078271892139224,-0.9797746812049448
1783166085274879488,1.1690173149108887,-2.934823513031006,0.5936713218688965,2.0001792907714844,0.5822146534919739,0.6025448441505432,0.5458623766899109,1.1718900203704834,-0.4996243119239807,0.6953332424163818,-0.19894867764354626,-0.29115167961083926,-0.8295552404121364,0.43299908475073395,-0.6466859634021923,2.323980655718561,-0.9634110124724086
1783166085284798464,1.178936243057251,-2.3458034992218018,0.4098304510116577,2.279085397720337,0.5909932851791382,0.5760735273361206,0.5646829009056091,0.5024210810661316,-0.35051798820495605,0.5525504946708679,-0.20468455551187295,-0.29830005065454096,-0.8326815297791259,0.41924091757225257,-0.6139168680742156,2.333432208259943,-0.9574377170624835
1783166085294718464,1.1888563632965088,-2.82414174079895,0.9180603623390198,2.323279857635498,0.599295973777771,0.5475346446037292,0.5839945673942566,0.25263267755508423,-0.4035834074020386,0.7191210985183716,-0.20987628078048734,-0.3070831416284247,-0.8352827187480122,0.40491296572627455,-0.5794151888539254,2.343263982468838,-0.9547690581477873
1783166085304637440,1.198775291442871,-2.5655949115753174,1.1000638008117676,2.0702691078186035,0.605040431022644,0.518437922000885,0.6042749881744385,0.03340256214141846,-0.4552207589149475,0.5653722286224365,-0.2142047624337472,-0.3154207736782869,-0.8382405621487322,0.3898446395887278,-0.5450231843015937,2.35556154737853,-0.9504949313822707
1783166085314556672,1.2086944580078125,-2.901282548904419,1.5903840065002441,1.901302456855774,0.6059969067573547,0.48958805203437805,0.6269538998603821,-0.09456813335418701,-0.35003113746643066,0.49659645557403564,-0.21635711736838364,-0.3232431874158561,-0.8420159084660805,0.37378151725839515,-0.5116172330933998,2.3731902622875594,-0.9437801931634003
1783166085324476416,1.2186143398284912,-3.3001298904418945,1.2116222381591797,2.086134910583496,0.6065965294837952,0.458015114068985,0.6498177647590637,0.1259474754333496,-0.09799918532371521,0.5104606747627258,-0.219197776908146,-0.33072567734314007,-0.8458897189915606,0.3564316839564871,-0.47576106866067286,2.390581421122331,-0.9360029699812549
1783166085334395392,1.2285332679748535,-2.5968308448791504,1.1677131652832031,1.8671481609344482,0.6073620915412903,0.42586010694503784,0.6706371903419495,0.28727585077285767,0.268353670835495,0.5635393857955933,-0.22259735832158326,-0.3378923708481038,-0.8492039471497839,0.33931071210386976,-0.43991227464026034,2.4056651402847087,-0.9293375360837495
1783166085344315648,1.2384533882141113,-2.007112741470337,0.9114875197410583,1.1321797370910645,0.6064679026603699,0.4008398950099945,0.6866760849952698,0.19812798500061035,0.4742058515548706,0.4921569228172302,-0.22464790753810857,-0.3433685598925724,-0.8517253575114796,0.32587613653195785,-0.4124334145967434,2.418140882800343,-0.9244040666408933
1783166085354234368,1.2483723163604736,-2.0058627128601074,0.9253290295600891,0.6319003701210022,0.603128969669342,0.38248130679130554,0.6999595165252686,0.033666014671325684,0.5781815052032471,0.5123969912528992,-0.22521867177638225,-0.34632790914067646,-0.8544218795577272,0.31511384602147025,-0.3924803113842615,2.4303666900002905,-0.9175968534938027
1783166085364153344,1.258291244506836,-2.6310367584228516,1.2885830402374268,0.7501890659332275,0.5972602367401123,0.36224573850631714,0.7155826091766357,0.06466609239578247,0.44308266043663025,0.732262909412384,-0.22521557470918274,-0.3483208163475998,-0.8581747525024344,0.30246770060147343,-0.3706761501537447,2.4460784728620677,-0.9068570265226308
1783166085374073600,1.2682113647460938,-3.2475719451904297,1.5602281093597412,0.6913955211639404,0.5893789529800415,0.33628568053245544,0.7345365881919861,0.16722798347473145,0.29622161388397217,0.7830566763877869,-0.22522625918586747,-0.3504702818244182,-0.8628087054316478,0.28636468794220277,-0.3429700761905976,2.4654009052777983,-0.8933070157027561
1783166085383992320,1.278130292892456,-4.0781474113464355,1.6824040412902832,-0.062024910002946854,0.5780699849128723,0.3070807456970215,0.7560003995895386,0.18041396141052246,0.3979974091053009,0.7681847810745239,-0.22494042823614555,-0.349966449405475,-0.869208661392987,0.2672108339506297,-0.3121240349618634,2.488786072271394,-0.8719602537847143
1783166085393912576,1.2880504131317139,-4.53104829788208,1.8285460472106934,-0.3742336630821228,0.5631420016288757,0.2752056121826172,0.7791873812675476,0.27255135774612427,0.6393756866455078,0.7887752056121826,-0.22410078885754486,-0.3463566737229222,-0.8772860063068623,0.24532661800052685,-0.2788035645824627,2.5157740569218525,-0.8427696201088464
1783166085403831552,1.2979693412780762,-4.57768440246582,1.473172903060913,-0.49813172221183777,0.548272430896759,0.24146145582199097,0.8006830215454102,0.4213014245033264,0.7946102619171143,0.6686161756515503,-0.22377871361670928,-0.3414129152721847,-0.8853127806100735,0.2226689567893452,-0.24387159274164014,2.541171046173005,-0.8119685656810873
1783166085413750528,1.3078882694244385,-4.670226097106934,1.2521603107452393,-0.6883730292320251,0.5352218747138977,0.20716023445129395,0.8189149498939514,0.45223528146743774,1.029625654220581,0.6992733478546143,-0.22453236398791057,-0.3352065235783764,-0.8928012464028351,0.2003187523557423,-0.20867133137634328,2.562708774995775,-0.7806882703021676
1783166085423670528,1.3178083896636963,-4.833037853240967,0.9978905916213989,-1.0103416442871094,0.5241256356239319,0.1721269190311432,0.8340651392936707,0.29188382625579834,1.4324719905853271,0.6925767064094543,-0.22647903762447094,-0.3272217340544179,-0.8999769496412295,0.17797380904180618,-0.17298841417287128,2.5805529154530906,-0.7474135953932808
1783166085433589504,1.3277273178100586,-4.701359748840332,1.330057144165039,-1.1919958591461182,0.5121322274208069,0.13736343383789062,0.8478512763977051,-0.15605318546295166,1.6861228942871094,0.43191856145858765,-0.2277687376672616,-0.31794541203619353,-0.9071032762404017,0.155549808626321,-0.1377991198953583,2.5982111889312094,-0.7126956707225238
1783166085443509504,1.3376474380493164,-4.314846515655518,1.5172072649002075,-1.6937779188156128,0.49811771512031555,0.10568010807037354,0.8606456518173218,-0.447641521692276,1.4714988470077515,-0.12637728452682495,-0.22727947943019944,-0.3074903222235665,-0.9142059528550663,0.13424359443379527,-0.10587781175462976,2.616928134416836,-0.6773756859325044
1783166085453428480,1.3475663661956787,-3.950086832046509,1.2995429039001465,-2.1143438816070557,0.4828501343727112,0.07944071292877197,0.8720921874046326,-0.18486124277114868,1.046291708946228,-0.47714900970458984,-0.2251242966769727,-0.2950896391250131,-0.921394700579116,0.11520817870142434,-0.07952450999864664,2.635937142376539,-0.6404407192191217
1783166085463347456,1.357485294342041,-4.069921016693115,0.8170933723449707,-2.6675524711608887,0.4709087014198303,0.05571098253130913,0.880420982837677,0.3060382902622223,0.7358234524726868,-0.5058788657188416,-0.2241624732509166,-0.28021886684498404,-0.9282714530241785,0.09767621961609416,-0.05573984294654447,2.6504415748344754,-0.6003197846850864
1783166085473267456,1.3674054145812988,-3.8806986808776855,0.2504057288169861,-2.4334475994110107,0.4651261568069458,0.0325249619781971,0.8846469521522522,0.33321380615234375,0.7242347002029419,-0.44433915615081787,-0.22597928768113998,-0.2641076205246011,-0.9341149042925389,0.0813019180719699,-0.03253070020202578,2.6575375140205755,-0.559118883023606
1783166085483186432,1.3773243427276611,-3.7030141353607178,0.34567776322364807,-2.613776922225952,0.46126067638397217,0.010552098974585533,0.887201726436615,-0.03811931610107422,0.8661568760871887,-0.3934274911880493,-0.22813744017194468,-0.24843626554089496,-0.9390848046765555,0.06597238374109665,-0.010552294699890686,2.6621480784488396,-0.5198323579039085
1783166085493106688,1.387244462966919,-3.670295000076294,0.24555806815624237,-2.7883083820343018,0.4578928053379059,-0.009789173491299152,0.8889537453651428,-0.4378732144832611,0.8650595545768738,-0.2605355978012085,-0.2299858917754673,-0.2317274357309295,-0.9438110273086999,0.05128087400883642,0.009789329504449057,2.6659445909084685,-0.4791484169164488
1783166085503025408,1.3971633911132812,-3.488802194595337,0.050860531628131866,-2.912790060043335,0.4566638469696045,-0.028394415974617004,0.8891862630844116,-0.3929888606071472,0.7310921549797058,-0.24331212043762207,-0.23237369175594397,-0.21425373195095124,-0.9479918104901912,0.03754222600860635,0.02839823257510114,2.667144116334412,-0.43768089546649275
1783166085512944896,1.4070827960968018,-3.2284793853759766,-0.35144510865211487,-2.7643587589263916,0.45794039964675903,-0.04534013569355011,0.887826144695282,-0.19152188301086426,0.6708132028579712,-0.27042484283447266,-0.23551155844740268,-0.19695363307719793,-0.9513791710630258,0.02492674788707593,0.0453556855378057,2.665385358475851,-0.3972610220212289
1783166085522864896,1.4170026779174805,-2.156700611114502,-0.7143810391426086,-2.4849917888641357,0.4638034999370575,-0.05811234563589096,0.8840301632881165,-0.19492831826210022,0.5499793887138367,-0.14254450798034668,-0.24032024657700693,-0.18122343074208835,-0.9535057231420853,0.01520230752558918,0.05814510246386022,2.6584226840135017,-0.36130940307980386
1783166085532783872,1.4269218444824219,-0.19999808073043823,-0.4587732255458832,-2.3630149364471436,0.4696868360042572,-0.057402104139328,0.8809648156166077,-0.434805303812027,0.3095841109752655,-0.2629382610321045,-0.24362059342258052,-0.1683993571659508,-0.9550518685273325,0.012904534660681147,0.05743367293715981,2.6517776851467767,-0.33470387996237155
1783166085542703872,1.4368417263031006,1.3160309791564941,-0.23701557517051697,-2.28169322013855,0.47369417548179626,-0.04148673638701439,0.8797118067741394,-0.5915530920028687,0.054685596376657486,-0.40235579013824463,-0.24452790262321086,-0.15803604020031378,-0.9564938586030481,0.018715074022970585,0.041498646203408845,2.647648441395254,-0.3170259622147373
1783166085552622848,1.446760654449463,2.6582179069519043,-0.8150155544281006,-2.054933786392212,0.477769672870636,-0.014240940101444721,0.8783696889877319,-0.416124165058136,-0.09911660104990005,-0.3119024634361267,-0.24466034481883175,-0.1501274618718272,-0.9574166273043544,0.03092673117031914,0.014241421273474811,2.643423380767037,-0.3074538173871598
1783166085562542080,1.4566798210144043,3.443016767501831,-1.1194342374801636,-1.7547941207885742,0.4860360026359558,0.02224581502377987,0.873655378818512,-0.06884554028511047,0.016450461000204086,-0.34249716997146606,-0.24653627282485177,-0.14473960833395683,-0.9570152215271144,0.04890880557373867,-0.0222476508939274,2.6339066434440483,-0.3059782702876183
1783166085572461824,1.466599702835083,2.784362554550171,-0.9108945727348328,-1.6737794876098633,0.4936959147453308,0.057774126529693604,0.8677133917808533,-0.2287423014640808,0.4666246771812439,0.09595537185668945,-0.24839061863558343,-0.14034744052976786,-0.9561167761145388,0.06667391632382673,-0.057806313292558864,2.624307967106304,-0.30679398519137224
1783166085582380800,1.4765186309814453,2.5618057250976562,-1.0097179412841797,-1.5356067419052124,0.5012107491493225,0.08826540410518646,0.8608120083808899,-0.7007803916931152,0.6610784530639648,0.36552178859710693,-0.25080167484902854,-0.13554385687322992,-0.9550046443288676,0.08180832341225974,-0.08838041806237369,2.6143243051069227,-0.3058465546496588
1783166085592300800,1.4864387512207031,2.7565724849700928,-0.7762582898139954,-1.4336074590682983,0.5074518918991089,0.11778923869132996,0.8535913228988647,-0.5881404280662537,0.45307257771492004,0.5871129631996155,-0.2527468527242367,-0.13132676536533386,-0.953702747514439,0.09655738742737693,-0.11806332680488871,2.6052341430255073,-0.3061613388410741
1783166085602219776,1.4963576793670654,3.3995158672332764,-0.850187361240387,-0.5875138640403748,0.5137893557548523,0.1493583470582962,0.844815194606781,-0.456706166267395,0.36983722448349,0.5018950700759888,-0.2545201423986443,-0.1297871856594017,-0.9516106857582011,0.11318980467784238,-0.1499193113153702,2.5951891117000105,-0.31318229586601015
1783166085612139008,1.5062768459320068,3.2368533611297607,-0.3970870077610016,-0.5515502691268921,0.5172809362411499,0.17991624772548676,0.8366907238960266,-0.5173112750053406,0.14871235191822052,0.462274968624115,-0.25454794321345975,-0.13085543616251882,-0.9493272403805941,0.12984680439798563,-0.18090131403535803,2.587864698168506,-0.32548861882468066
1783166085622058752,1.5161967277526855,3.9855852127075195,0.58391273021698,-0.4481898844242096,0.515129029750824,0.212964728474617,0.8302337527275085,-0.6809462904930115,0.009325310587882996,0.4176146984100342,-0.2510533014662426,-0.13364784951351918,-0.9472355222698794,0.1478355658830693,-0.2146083009416328,2.5862628252696984,-0.3417205184659147
1783166085631977728,1.5261156558990479,4.93215799331665,-1.3643778562545776,-0.8253219723701477,0.5156829357147217,0.251381516456604,0.8190714716911316,-0.5994231104850769,0.2408212423324585,0.2032671570777893,-0.24890997579260374,-0.13540241257002658,-0.9440349124632664,0.1688430851978351,-0.2541073378382627,2.579696203676643,-0.3586100987740295
1783166085641897984,1.5360357761383057,6.227108478546143,-0.15447014570236206,0.4996349811553955,0.5207592844963074,0.2987823486328125,0.7997117042541504,0.27716851234436035,0.10937497019767761,-0.21275192499160767,-0.2479588214116732,-0.14133363536359705,-0.9380195407905472,0.19662287364071795,-0.3034164678083569,2.564385703905284,-0.3898122578173994
1783166085651816960,1.545954704284668,5.76754903793335,0.13339360058307648,-0.0558445118367672,0.5246612429618835,0.3438561260700226,0.7787767648696899,-0.0763428807258606,0.43594422936439514,0.2946484088897705,-0.24580660329616372,-0.1492572912627769,-0.9311877564451927,0.22403267629307388,-0.3510203469241529,2.5487372123034806,-0.4260898533171235
1783166085661736960,1.5558748245239258,4.6805644035339355,-0.5491252541542053,-1.0700795650482178,0.5240041017532349,0.3869357407093048,0.7587494254112244,-0.6093311905860901,0.5342679023742676,0.3359314203262329,-0.24194917747267833,-0.15315021498914816,-0.9251592917974408,0.24917054135082514,-0.39730616504406524,2.5371928162020665,-0.45345374365945224
1783166085671655936,1.565793752670288,4.928832054138184,-0.4731495678424835,-1.491926908493042,0.5230657458305359,0.42676734924316406,0.7377482056617737,-0.05312544107437134,0.7642728090286255,0.5594320893287659,-0.2393613751018091,-0.15243428249250074,-0.9195857154704492,0.2717207836431149,-0.4409152312243571,2.524849889814584,-0.47106538251679
1783166085681574912,1.5757126808166504,4.470494747161865,-0.11234733462333679,-1.339660406112671,0.5171607732772827,0.46969667077064514,0.7154927849769592,0.33888787031173706,0.33731022477149963,0.49455970525741577,-0.2340454689775357,-0.15123399977627203,-0.9137147697283807,0.2957640358829803,-0.4889471587510787,2.5157256517440745,-0.48914300146391865
1783166085691494912,1.5856328010559082,3.3680131435394287,0.6599805355072021,-2.4507365226745605,0.5066283941268921,0.5073387026786804,0.6970905065536499,0.3159576654434204,0.15171891450881958,0.6925426721572876,-0.22702233885332976,-0.14844410313575407,-0.9091257369753819,0.3160943201359783,-0.5320937203108715,2.513121591399501,-0.5003785602035957
1783166085701413888,1.5955517292022705,2.5125691890716553,0.6576708555221558,-2.562898635864258,0.48918792605400085,0.539364218711853,0.685405969619751,0.5214626789093018,-0.2192043662071228,1.037341833114624,-0.21783189484015522,-0.1419007619551921,-0.9069548846156059,0.33143060835562,-0.5696818784701841,2.521717901834197,-0.4973988093184097
1783166085711333888,1.6054718494415283,2.4589264392852783,0.9465321898460388,-1.93326997756958,0.470885306596756,0.5668197870254517,0.6760044693946838,1.0015419721603394,-0.36418312788009644,0.7601068615913391,-0.20870483235967202,-0.1350564459924053,-0.9054070867065396,0.3441510903139255,-0.6026405062544995,2.533171538167536,-0.49067814096087276
1783166085721252864,1.6153907775878906,1.6053093671798706,-0.41944870352745056,-0.45003604888916016,0.46436941623687744,0.5853837728500366,0.6645952463150024,1.4476484060287476,-0.7438615560531616,0.5777448415756226,-0.2054589619000988,-0.13186412995587973,-0.9027233735485574,0.3542442296845059,-0.6253533098280856,2.5317228109200256,-0.4929043598541482
1783166085731171840,1.625309705734253,0.19364416599273682,-0.2930247187614441,-1.5550987720489502,0.45974117517471313,0.5974294543266296,0.6570509672164917,1.0070708990097046,-0.4288504123687744,1.0152664184570312,-0.20407096760614926,-0.12752715562072225,-0.9012559639105993,0.36031863590420365,-0.6402917893630226,2.5310653962450766,-0.4893293186904775
1783166085741091840,1.6352298259735107,-1.212843656539917,-0.5711575746536255,-1.4114676713943481,0.4522095024585724,0.5998504161834717,0.6600652933120728,0.5081939697265625,0.16244816780090332,0.9828943014144897,-0.20264176432123227,-0.12003114416726855,-0.9031196961325237,0.35903162895591667,-0.6433141539419415,2.5409381419888324,-0.4699365735029814
1783166085751010816,1.645148754119873,-1.5299073457717896,-0.33705928921699524,-1.5897265672683716,0.4457768201828003,0.5963250994682312,0.6675920486450195,0.4003382623195648,-0.13531136512756348,0.9797467589378357,-0.20271676670348243,-0.11067736848026043,-0.9063920538888742,0.353708642068514,-0.6389153393802174,2.5528484938985927,-0.4429204176317692
1783166085760930816,1.6550686359405518,-2.5454635620117188,0.3202503025531769,-1.5221223831176758,0.43397361040115356,0.5895861387252808,0.6812157034873962,0.02656710147857666,-0.6056843400001526,0.7196478843688965,-0.19980589388252676,-0.10100101487892914,-0.9112664990557808,0.3456438728299839,-0.6305463894769555,2.574369677604091,-0.410326872565598
1783166085770850048,1.6649878025054932,-3.6597893238067627,1.1754387617111206,-1.1024949550628662,0.4174007773399353,0.5727651715278625,0.7054905891418457,-0.11756548285484314,-0.538524329662323,0.8740230202674866,-0.19355836324046768,-0.09317339054157923,-0.9187295704765002,0.33134567363135414,-0.6098751942915502,2.607338354090849,-0.37399201606411653
1783166085780768768,1.6749067306518555,-5.086780548095703,1.3170422315597534,-1.193331003189087,0.3964026868343353,0.5441357493400574,0.7394465804100037,-0.17934638261795044,-0.16216248273849487,0.6522006988525391,-0.18501785686412126,-0.08510692022868359,-0.9286980717617879,0.30991146492444105,-0.5753586831283561,2.6494992059637825,-0.3311144320014578
1783166085790689024,1.6848268508911133,-4.606846332550049,1.6138566732406616,-1.4288586378097534,0.36664679646492004,0.5076199173927307,0.7796741724014282,0.3325261175632477,0.18343526124954224,0.23517251014709473,-0.17192078171857061,-0.07636442083858387,-0.9402157016875013,0.2839120722479285,-0.5324200726857852,2.702021751486428,-0.28376523549386096
1783166085800608000,1.6947457790374756,-4.3452253341674805,1.3288100957870483,-1.3471487760543823,0.3420955240726471,0.4750285744667053,0.8107518553733826,0.5013645887374878,0.20978587865829468,0.032967567443847656,-0.16174910076220947,-0.06697149363665302,-0.9491526498165891,0.261651139948834,-0.49499651874780837,2.742309515500617,-0.24304852543271524
1783166085810527744,1.7046656608581543,-3.817723035812378,0.938654363155365,-0.9763460159301758,0.3255177140235901,0.44526752829551697,0.8341311812400818,0.6281412839889526,0.25974953174591064,-0.18424421548843384,-0.1551287125230494,-0.059725936013753825,-0.9557710978245455,0.2426302402770759,-0.46147301889707,2.7695216507284814,-0.21318929059385255
1783166085820446976,1.7145848274230957,-3.726046562194824,0.5755564570426941,-0.9194950461387634,0.3127082586288452,0.41553130745887756,0.8541353940963745,0.3998466730117798,0.32950958609580994,-0.05631434917449951,-0.15025190980680606,-0.053051019368372025,-0.9613809209359511,0.22440290179285677,-0.428526844655773,2.790637875835267,-0.1873768010060118
1783166085830365952,1.724503755569458,-2.597443103790283,0.7921912670135498,-0.7422811388969421,0.3028373122215271,0.3903874158859253,0.8694179654121399,0.4388161599636078,0.24950522184371948,-0.12877142429351807,-0.14655258386249326,-0.0473005172499304,-0.9656457174333793,0.20931664415400408,-0.40105236189341625,2.806413584375507,-0.16663415807479115
1783166085840285696,1.7344236373901367,-1.8069266080856323,0.3108574151992798,-0.6416948437690735,0.29434067010879517,0.37334251403808594,0.8797608613967896,0.4101271331310272,0.29148295521736145,-0.18927001953125,-0.14312783382470967,-0.042935491231823754,-0.9685230959241187,0.19908303989304268,-0.38260945950999964,2.818730451296376,-0.15166152095739752
1783166085850204928,1.7443428039550781,-1.8066484928131104,0.3090440630912781,-0.8960599899291992,0.2875901460647583,0.3595921993255615,0.8876853585243225,0.3759992718696594,0.3586389720439911,-0.125005304813385,-0.14059814277905938,-0.03830999519901469,-0.970760022646442,0.19076023658797198,-0.36783081772053444,2.828285768987939,-0.1376320291804075
1783166085860124928,1.7542626857757568,-0.9458973407745361,0.16216275095939636,-0.8100771903991699,0.28178250789642334,0.3495316207408905,0.8935469388961792,0.23912200331687927,0.1947798728942871,-0.06282800436019897,-0.13851682009787528,-0.033558086245792956,-0.9724439917604074,0.18449821083811435,-0.3570711602453992,2.8361109201585633,-0.12453542296894718
1783166085870043904,1.7641818523406982,-0.6144930720329285,0.2238391637802124,-0.8972794413566589,0.2772166132926941,0.3447905480861664,0.896811306476593,0.2527058720588684,0.14132395386695862,-0.16969943046569824,-0.13702814816001552,-0.02881677940585068,-0.9734347669122126,0.18115645395690905,-0.352015655344352,2.8417958234075464,-0.11289746879204787
1783166085879963904,1.774101734161377,-0.38678640127182007,0.26637002825737,-0.7919363975524902,0.2710060477256775,0.3426494300365448,0.8995263576507568,0.2835747003555298,0.12329304218292236,-0.06856298446655273,-0.13451470873730528,-0.02483899235055582,-0.9742413476956373,0.17928404343305449,-0.3497356119417431,2.848965272598668,-0.10303992480304981
1783166085889882880,1.7840206623077393,-0.25558656454086304,0.1588827222585678,-0.696465790271759,0.26613882184028625,0.34145158529281616,0.9014326930046082,0.30354800820350647,0.09618571400642395,-0.008473098278045654,-0.13265797713661703,-0.021077595050950592,-0.9748189928540779,0.1780042253535935,-0.3484608614536425,2.8545086828845276,-0.09410745866245286
1783166085899801856,1.7939398288726807,-0.4260489046573639,0.01384335570037365,-1.0467473268508911,0.2620798647403717,0.34125471115112305,0.9026952981948853,0.24466446042060852,0.03530159592628479,0.08837801218032837,-0.13126470333124696,-0.017081148442365305,-0.9752209484466206,0.17726188648032898,-0.3482514100039487,2.8590305360620984,-0.08505434478512346
1783166085909721856,1.8038597106933594,-1.3225104808807373,0.3181459903717041,-0.7744359970092773,0.25675636529922485,0.3351720869541168,0.9064964652061462,0.13089314103126526,-0.02273315191268921,0.40105968713760376,-0.12936756054509757,-0.012008372323137947,-0.9762704742611371,0.17325069436611792,-0.34178787680146483,2.865581713063664,-0.0725280142515289
1783166085919640832,1.8137786388397217,-1.149907112121582,0.5256400108337402,-0.4810679256916046,0.25105932354927063,0.32548460364341736,0.9116082191467285,0.29265716671943665,-0.1592857837677002,0.3580453395843506,-0.12691257865920422,-0.008700504514978199,-0.9776136263000187,0.16759842637041703,-0.33152419432549485,2.872852141170246,-0.06302339261065727
1783166085929560832,1.8236987590789795,-1.6237777471542358,0.4354739189147949,-0.7012436389923096,0.2438870072364807,0.314604252576828,0.9173569083213806,0.3261203467845917,-0.15901035070419312,0.1960771083831787,-0.1236295515357266,-0.005559787447695852,-0.9791054866228088,0.16136104117843883,-0.32003970886836836,2.881745055135814,-0.05352744966024751
1783166085939479808,1.8336176872253418,-2.5614519119262695,0.5411876440048218,-0.7765192985534668,0.23723115026950836,0.29702281951904297,0.924932062625885,0.1306277960538864,0.023579657077789307,0.16041052341461182,-0.12078065272460208,-0.000814151424936438,-0.9810531873075007,0.15147980898920063,-0.30157325828650816,2.8905198865054005,-0.04000469680899645
1783166085949399040,1.8435368537902832,-3.138465642929077,0.5395466089248657,-0.6854631304740906,0.2295912504196167,0.2725658118724823,0.9343423843383789,0.1627732515335083,0.09623908996582031,0.07617086172103882,-0.11729245692835254,0.004015404068968751,-0.9834404284067143,0.13809878012737145,-0.2760587998381827,2.9006415924842184,-0.025464890392466896
1783166085959318784,1.853456735610962,-4.857407569885254,0.6112976670265198,-0.11720197647809982,0.2232915163040161,0.2367594987154007,0.9455610513687134,0.1939295530319214,-0.09572252631187439,0.016398727893829346,-0.11418481873890825,0.00814938725465923,-0.9862627016104182,0.11908512338713802,-0.23902916292827628,2.9096938922024713,-0.011446231892950633
1783166085969237760,1.8633756637573242,-5.3667755126953125,0.9771558046340942,-0.2757335603237152,0.2135697305202484,0.1872204691171646,0.9588202238082886,0.1037977933883667,-0.6977795362472534,-0.061466217041015625,-0.10894804847897813,0.011019862167082705,-0.9895901578394447,0.09338173164177638,-0.18833181687861414,2.922428257404213,0.0014891105448623222
1783166085979158016,1.873295783996582,-5.265130519866943,0.19757363200187683,-0.358979731798172,0.20865841209888458,0.13731668889522552,0.9683003425598145,0.00203491747379303,-1.0342741012573242,-0.6135793924331665,-0.10624935115985273,0.015718516552250376,-0.991918902958435,0.06753401326853244,-0.1377519340838298,2.929348816635192,0.016993887170185594
1783166085989076736,1.8832147121429443,-4.142097473144531,0.27373045682907104,-0.7002747654914856,0.20522597432136536,0.09177278727293015,0.9744023680686951,0.34613507986068726,-0.42389559745788574,-1.0159368515014648,-0.10420084476253208,0.02036341108259083,-0.9933712894882085,0.0440565471470774,-0.09190210021518591,2.934009330855558,0.03141310539757584
1783166085998996992,1.8931348323822021,-2.7831008434295654,0.2396814227104187,-0.6927079558372498,0.20177984237670898,0.059278640896081924,0.977635383605957,0.363344669342041,0.20324882864952087,-1.312077522277832,-0.10219022915160085,0.025516796377882966,-0.9940656819728991,0.027193126026981807,-0.05931341339119136,2.9380549164235563,0.04526803633155096
1783166086008915968,1.9030537605285645,-1.938559889793396,-0.23545792698860168,-0.8121147751808167,0.20073042809963226,0.036809977144002914,0.9789549112319946,0.4743489623069763,0.9269656538963318,-0.8478511571884155,-0.10141494978398036,0.030344963067820245,-0.9942618488004801,0.01541601552389793,-0.03681829583946962,2.9393502539645993,0.05728497666029479
1783166086018834944,1.9129726886749268,-1.0622388124465942,-0.05632888525724411,-0.7782861590385437,0.20257876813411713,0.023925337940454483,0.9789739847183228,0.23231203854084015,0.9431004524230957,-0.48083531856536865,-0.10218753143190112,0.03516474232202714,-0.9941078624817558,0.008418875675751444,-0.02392762057986495,2.937542920905236,0.06826702452748802
1783166086028754944,1.9228928089141846,-0.7535629868507385,0.26630455255508423,-0.5070759654045105,0.20068834722042084,0.016706328839063644,0.9795126914978027,0.0005140006542205811,0.29332175850868225,-0.31641149520874023,-0.10111243291739173,0.03871219491922727,-0.9941115113653695,0.004465173217625114,-0.01670710583975519,2.9395035375515035,0.07614969988035193
1783166086038673920,1.9328117370605469,-0.982749342918396,0.06620018929243088,-0.2781018018722534,0.19888393580913544,0.009282488375902176,0.9799789786338806,0.08409029245376587,-0.17467251420021057,-0.07232528924942017,-0.10005089461335288,0.041189792220753356,-0.9941292089015445,0.0005232406455997495,-0.009282622048218945,2.941364917348759,0.0818862558335811
1783166086048593664,1.9427316188812256,-1.569408655166626,0.19457758963108063,0.07326474040746689,0.19720393419265747,-0.002916831523180008,0.9803580045700073,0.29832524061203003,-0.3781561553478241,-0.040935516357421875,-0.09893764949892526,0.04233936748154013,-0.9941762354297857,-0.005680454854375156,0.0029168355815504393,2.9430867478073495,0.08541378896519607
1783166086058512896,1.952650785446167,-2.042030096054077,0.04543609172105789,0.05227486789226532,0.1950601041316986,-0.020675811916589737,0.9805736541748047,0.2701498866081238,-0.45046982169151306,-0.09943938255310059,-0.09746800132563115,0.04291570058075832,-0.994205750526033,-0.01460544063215929,0.020677284406365556,2.945231466898131,0.08831481028041896
1783166086068431872,1.9625697135925293,-2.2617578506469727,-0.22818586230278015,0.2795892655849457,0.1953257918357849,-0.042359359562397,0.9798231720924377,0.3348713517189026,-0.3060903549194336,-0.06110680103302002,-0.09713728823622259,0.04340004519481382,-0.9939959939186401,-0.025548837630745155,0.04237203702310557,2.944824098358547,0.09145182284951855
1783166086078351872,1.972489833831787,-2.0497682094573975,-0.4374486207962036,0.46785372495651245,0.19819995760917664,-0.06475552171468735,0.9780202507972717,0.31827956438064575,-0.12904636561870575,-0.08351945877075195,-0.0981684472045292,0.04245200299394535,-0.9935833919575339,-0.03678121926352277,0.0648008646896223,2.9416462492768267,0.09190265346554488
1783166086088270848,1.9824087619781494,-1.7424017190933228,-0.49894922971725464,0.20026862621307373,0.20214110612869263,-0.08390241116285324,0.9757559299468994,0.15694400668144226,0.02921491116285324,-0.13105976581573486,-0.09983530493710058,0.041552372617485504,-0.9930515363623841,-0.04642216330357385,0.08400116686670761,2.937318599869996,0.09225205359228127
1783166086098190848,1.9923286437988281,-1.165162444114685,-0.6710949540138245,0.054728105664253235,0.20711171627044678,-0.09889372438192368,0.97330641746521,0.1060597151517868,0.3506484627723694,-0.18377065658569336,-0.10207853496608413,0.04158356972090745,-0.9924333765602089,-0.05410101308211996,0.09905563225084135,2.931927990264242,0.09418313213289094
1783166086108109824,2.0022478103637695,0.21915258467197418,-0.4888846278190613,0.13343489170074463,0.21313616633415222,-0.10376172512769699,0.9714968800544739,0.1798691600561142,0.5862446427345276,-0.4261326789855957,-0.10507321655918328,0.041228163476424225,-0.9919922806925004,-0.056666608457170455,0.10394882442595442,2.9256247957406445,0.09435280217247193
1783166086118028800,2.012166738510132,0.6932600736618042,-0.6030812859535217,0.21239791810512543,0.21770064532756805,-0.09879301488399506,0.9710028767585754,0.13831742107868195,0.41904449462890625,-0.45678162574768066,-0.10754925908532553,0.04008910755010116,-0.991914462260612,-0.05414585934396216,0.09895442851199801,2.9210380231586544,0.0917535404929991
1783166086127948800,2.0220866203308105,0.48706504702568054,-0.6135659217834473,0.3249891698360443,0.2240835577249527,-0.09393100440502167,0.9700326323509216,0.10771875083446503,0.20094090700149536,-0.24646097421646118,-0.11098928261817971,0.03813135104945846,-0.991747104224977,-0.0516237201928435,0.09406968481436091,2.9145688195595736,0.08759140639693826
1783166086137868032,2.032005786895752,0.4644275903701782,-0.3741156756877899,0.17889851331710815,0.22832994163036346,-0.0896601527929306,0.9694463014602661,0.13901010155677795,-0.1759648323059082,-0.11084967851638794,-0.11332051162010279,0.036240616646449335,-0.9916701936777063,-0.04934794224215932,0.08978072192628883,2.9102821474308973,0.08349461560614632
1783166086147787776,2.0419256687164307,0.18535786867141724,-0.483157753944397,-0.08115889132022858,0.23256903886795044,-0.08679834008216858,0.9686988592147827,0.16161122918128967,-0.3691647946834564,-0.08585596084594727,-0.1155374906519078,0.03607065586393243,-0.9914879468516248,-0.04797504837978958,0.08690769855486145,2.905968308484746,0.08302138412379668
1783166086157707008,2.051844835281372,-0.1218135878443718,-0.3479079306125641,-0.3403151333332062,0.23695719242095947,-0.08595028519630432,0.967710554599762,0.26217299699783325,-0.2989221215248108,-0.09754765033721924,-0.11776673592690631,0.0365991695003575,-0.9912193373828664,-0.04770418336106597,0.08605646754698192,2.901453953501743,0.08420223341548819
1783166086167626752,2.061764717102051,-0.0779140442609787,-0.4154027998447418,-0.2526257634162903,0.24114815890789032,-0.08658739179372787,0.96661776304245,0.1722276657819748,0.03518053889274597,-0.09752309322357178,-0.11982305272544586,0.03815720735615701,-0.9908849123856698,-0.04830612412013995,0.08669595605036041,2.8971070032498414,0.08763602589691868
1783166086177545728,2.071683645248413,-0.04316618666052818,-0.4620508849620819,-0.12443862110376358,0.24557903409004211,-0.08663174510002136,0.9654977917671204,0.13735556602478027,0.06923672556877136,-0.23287749290466309,-0.12204259335446245,0.03910396025610232,-0.9905653763029665,-0.04854623851398589,0.08674047896078435,2.8925195313479084,0.08977709929663809
1783166086187464960,2.0816028118133545,0.09727401286363602,-0.4704481065273285,-0.14517267048358917,0.24986369907855988,-0.08618625998497009,0.9644376039505005,0.12921036779880524,0.07169041782617569,-0.19556260108947754,-0.12421103765290471,0.0397738434855817,-0.9902710973303493,-0.04850538455111611,0.08629331788847582,2.8880892580972493,0.09128954157801374
1783166086197384960,2.091522693634033,0.20636048913002014,-0.651539146900177,-0.11830127239227295,0.2552735507488251,-0.08451185375452042,0.9631683230400085,0.17008045315742493,-0.006628893315792084,-0.17406010627746582,-0.1270017696547441,0.039995409809253604,-0.9899416807021204,-0.047816367285260994,0.08461277990531352,2.882513984044583,0.09178852198432057
1783166086207303680,2.1014416217803955,0.08728203177452087,-0.6212682723999023,-0.12750409543514252,0.2617752254009247,-0.08261340856552124,0.9615868330001831,0.1532028615474701,-0.22590407729148865,-0.114662766456604,-0.13035719220854314,0.04027995969541423,-0.989530672274725,-0.0470500695909681,0.08270767129279198,2.875801145733896,0.09243020255196994
1783166086217223936,2.1113617420196533,-0.03416363522410393,-0.1545005440711975,-0.11454390734434128,0.26542559266090393,-0.08205275982618332,0.9606333374977112,0.0710153877735138,-0.4140562415122986,0.04063302278518677,-0.13222264414438364,0.040684654210621736,-0.9892731804486055,-0.04690899514432154,0.0821451087462744,2.8720157364974486,0.09335118658989357
1783166086227142912,2.1212806701660156,-0.4715931713581085,-0.33677151799201965,-0.1974547803401947,0.268081933259964,-0.08404722809791565,0.9597232937812805,0.06999188661575317,-0.31054505705833435,0.11319875717163086,-0.13350895062402285,0.041572932307652695,-0.9890062361919466,-0.04810280485398528,0.08414649741908167,2.869203017217198,0.09555905089678797
1783166086237062912,2.1312007904052734,-0.24421754479408264,-0.28890398144721985,-0.18028630316257477,0.27116042375564575,-0.0874076634645462,0.9585571885108948,0.21011704206466675,-0.059153005480766296,0.18740832805633545,-0.1349737070275616,0.04270348460341019,-0.9886632397561651,-0.0500349144447861,0.08751935095015678,2.8659116966295537,0.09848095018940753
1783166086246981888,2.1411197185516357,-0.06695939600467682,-0.16609205305576324,-0.30024972558021545,0.2732164263725281,-0.08793225884437561,0.957925021648407,0.21242499351501465,-0.0851939395070076,0.11217367649078369,-0.13595746400674416,0.043962815311970875,-0.9884481686187351,-0.050526881143688536,0.08804597318750945,2.863752887477456,0.10121304324720323
1783166086256900864,2.151038646697998,0.14059101045131683,-0.17706425487995148,-0.32312914729118347,0.27549538016319275,-0.08703192323446274,0.9573547840118408,0.21068018674850464,-0.06226006895303726,0.17818927764892578,-0.1370733002832924,0.04542954268137601,-0.9882375929305904,-0.05033520365322485,0.08714217387326309,2.861395964682279,0.10417246353699769
1783166086266820864,2.160958766937256,0.4482840895652771,-0.17251184582710266,-0.47064536809921265,0.27725860476493835,-0.08316970616579056,0.9571888446807861,0.31816989183425903,-0.08571457117795944,0.12496447563171387,-0.13797600570600416,0.04711722527380723,-0.9881165826758946,-0.048664198122404745,0.08326589249646166,2.8596495719216684,0.10711875805748493
1783166086276739840,2.170877695083618,1.2352521419525146,0.05697301775217056,-0.5258492231369019,0.2781970202922821,-0.0743669867515564,0.9576407670974731,0.2286999225616455,-0.05098395794630051,0.1170814037322998,-0.13855648805612544,0.049109049785973885,-0.9881339441161594,-0.044516101293323826,0.07443570484603114,2.8588717911603476,0.1099135490859003
1783166086286659840,2.180797815322876,2.277430772781372,-0.01248142123222351,-0.34649601578712463,0.2782277464866638,-0.05627013370394707,0.9588658213615417,0.21920886635780334,0.13114500045776367,0.002956986427307129,-0.13894644296041883,0.05012958005553774,-0.9883926057638972,-0.03551260220354377,0.05629987052656316,2.859184546573682,0.10935485344215273
1783166086296578816,2.1907167434692383,2.754041910171509,-0.051755551248788834,0.05210375785827637,0.27902859449386597,-0.03139419108629227,0.9597692489624023,0.35999414324760437,0.06432266533374786,0.25141215324401855,-0.13997778441882994,0.04915233453725295,-0.9886701476007325,-0.022836059740602564,0.03139935061651427,2.858666895196873,0.10382147056055702
1783166086306497792,2.2006356716156006,1.7402368783950806,0.246252179145813,0.3058662414550781,0.2780897319316864,-0.009578338824212551,0.9605076909065247,0.3028124272823334,-0.19697988033294678,0.5144071578979492,-0.14005551204707573,0.04655711452106046,-0.9889824500027481,-0.011435743918321414,0.009578485514688892,2.8597746637215726,0.09544081606041789
1783166086316418048,2.2105557918548584,0.24669359624385834,0.5406869053840637,0.35217946767807007,0.27412474155426025,-0.0016002209158614278,0.9616926908493042,0.18524104356765747,-0.5581379532814026,0.9262466430664062,-0.13821919036232994,0.04434440194802108,-0.9893836012406306,-0.007003711972029363,0.0016002215601128766,2.8639127780658624,0.08980411757240929
1783166086326336768,2.2204747200012207,-0.2919861078262329,0.7412455677986145,0.3280336558818817,0.2678520381450653,-0.003358731511980295,0.9634541869163513,0.1995246410369873,-0.8231183290481567,0.8347635865211487,-0.13496815580407862,0.042684566555166156,-0.9899015643036565,-0.007516326153088862,0.003358737890074597,2.8704281584999243,0.08664482702970337
1783166086336257024,2.2303948402404785,-0.5637707114219666,0.766586422920227,0.08659268915653229,0.2613365054130554,-0.010164926759898663,0.965194046497345,0.1515205204486847,-0.6756108403205872,0.6573338508605957,-0.1314858288598602,0.041895549939307025,-0.9903745756950262,-0.010694069678053893,0.010165102279012517,2.877172049598251,0.08590687143122011
1783166086346176000,2.240313768386841,-0.4015929698944092,0.7883117198944092,0.057401251047849655,0.25382837653160095,-0.015399954281747341,0.9671268463134766,0.09076088666915894,-0.290737122297287,0.614568829536438,-0.1275278699312795,0.04190669574089171,-0.9908618791695332,-0.013164548081682232,0.015400563184110481,2.884925365809892,0.08652335187846379
1783166086356094720,2.250232696533203,-0.4928329885005951,0.9142600297927856,0.05247873067855835,0.2458922266960144,-0.020101919770240784,0.9690889120101929,0.09875808656215668,-0.07334290444850922,0.5715912580490112,-0.12336807647936061,0.04196630634999803,-0.991354267653394,-0.015361070098487284,0.020103273880616886,2.89310135293167,0.08712484947930489
1783166086366014976,2.260152816772461,-0.5280131101608276,1.4338196516036987,0.04886775091290474,0.23489336669445038,-0.025479326024651527,0.9716869592666626,0.10372965037822723,-0.04422282427549362,0.5442582964897156,-0.11763706975807942,0.04206882857112772,-0.9920048834004226,-0.01783107802749669,0.02548208316846488,2.9044052699859337,0.08780139443791707
1783166086375933952,2.2700717449188232,-0.46197766065597534,1.8279902935028076,0.2358996570110321,0.21895714104175568,-0.03042471408843994,0.9752598404884338,0.08956025540828705,-0.12008798122406006,0.46046996116638184,-0.10942036068978639,0.04181783729705263,-0.9929155045147117,-0.019929268666953142,0.030429409821593097,2.9207431345361035,0.08755680363010762
1783166086385853696,2.279991626739502,-0.29899168014526367,1.7766491174697876,0.29856088757514954,0.2011815458536148,-0.03522118553519249,0.9789202809333801,0.1978052258491516,-0.05611792206764221,0.5486825704574585,-0.10031224565511423,0.040872407324859875,-0.9938760448654428,-0.021844370536321035,0.0352284734909479,2.9389011156853933,0.08578506745260737
1783166086395772928,2.2899107933044434,0.31390106678009033,1.769903540611267,0.24707098305225372,0.18376944959163666,-0.03568029776215553,0.9823214411735535,0.26084113121032715,0.022969726473093033,0.4715663194656372,-0.09150381109783705,0.03978026346385083,-0.9947754839033032,-0.021593007890512772,0.03568787332765011,2.9566536696050423,0.083245604728534
1783166086405692928,2.299830675125122,0.5424239635467529,1.770596981048584,0.3285170793533325,0.16655217111110687,-0.03195907920598984,0.9855146408081055,0.29081475734710693,0.13983872532844543,0.42836475372314453,-0.08290086878677723,0.0383095782907955,-0.9956353181933071,-0.019239411515356623,0.03196452347698062,2.9741743689838827,0.07959931527141442
1783166086415611904,2.3097498416900635,1.075846791267395,2.15474009513855,0.4100923538208008,0.1470533162355423,-0.024644838646054268,0.9888215065002441,0.2717851996421814,0.22598455846309662,0.43781423568725586,-0.07323454626774341,0.03628481874429988,-0.9965410940489868,-0.015031714536677888,0.024647333455267262,2.9939589443602044,0.0746121565222743
1783166086425530880,2.319668769836426,1.408106803894043,2.153186082839966,0.30255258083343506,0.1257873773574829,-0.012920288369059563,0.9919728636741638,0.134573295712471,0.1422690451145172,0.3657539486885071,-0.06276195371386559,0.03414113073254736,-0.9974070509208639,-0.008625273310335323,0.01292064819742951,3.0154605650031128,0.0692489957945008
1783166086435450880,2.3295886516571045,1.544853925704956,2.099949598312378,0.16792508959770203,0.10479428619146347,0.0014406621921807528,0.9944930076599121,0.22214055061340332,-0.044775620102882385,0.35740530490875244,-0.05246511007503928,0.0325009479870087,-0.9980932749588995,-0.000986716124992427,-0.0014406626684175022,3.036605511212904,0.06502737800355202
1783166086445369856,2.339507818222046,1.5432783365249634,1.817672610282898,0.09639711678028107,0.08595576882362366,0.01702306792140007,0.9961535334587097,0.26617130637168884,-0.09404943883419037,0.3652508854866028,-0.04326712845702299,0.031585712517721215,-0.9985384868315974,0.007155368594923692,-0.017023890299236316,3.055518181634983,0.06250966763239592
1783166086455289856,2.3494277000427246,1.2126270532608032,2.265470266342163,0.42077112197875977,0.0659276470541954,0.030371051281690598,0.9973620176315308,0.294698566198349,-0.2405456155538559,0.47338682413101196,-0.033425229126954455,0.029883499077252292,-0.9988933807010698,0.01420237909859905,-0.030375721536674213,3.075586656506645,0.058812436784671455
1783166086465208832,2.359346628189087,0.8883848190307617,2.530463218688965,0.025081561878323555,0.04218139499425888,0.04074278846383095,0.9982786178588867,0.23230895400047302,-0.5249499678611755,0.3951079249382019,-0.021665101115283667,0.028136896341775595,-0.9991734688260174,0.01977815249105542,-0.04075406829987413,3.09936364109997,0.05544470611876429
1783166086475128832,2.3692667484283447,0.6967573165893555,2.153459310531616,-0.06445711106061935,0.018177717924118042,0.0483219176530838,0.9986661672592163,0.21784523129463196,-0.4543735682964325,0.3735107183456421,-0.009775638921424636,0.02843297467937048,-0.9992620514354259,0.02390064635914942,-0.04834074394128741,3.1233926678185253,0.0564525891358559
1783166086485047808,2.379185676574707,0.6695120930671692,2.150899887084961,0.08412996679544449,-0.0030257748439908028,0.054937537759542465,0.9984849691390991,0.34572291374206543,0.04361896589398384,0.3390239477157593,0.0007433141655100214,0.02799433902853431,-0.9992291019682906,0.02751078600854326,-0.05496521121943178,-3.1385622969145888,0.05610051638160506
1783166086494967040,2.3891048431396484,1.02432382106781,2.1943066120147705,0.2783643901348114,-0.02450406551361084,0.06320296972990036,0.997700035572052,0.27941739559173584,0.16625870764255524,0.23983371257781982,0.011410523779166164,0.026682906709201756,-0.9990685868798657,0.03193569689779988,-0.06324512567384197,-3.117037035753434,0.05417968560593772
1783166086504886784,2.399024724960327,1.0331610441207886,2.162461757659912,0.09666996449232101,-0.04560719057917595,0.07354146987199783,0.9962487816810608,0.21307240426540375,-0.04175741225481033,0.18847405910491943,0.021878653734864067,0.025486768078189916,-0.9987366101242351,0.03737557174206784,-0.0736079227980803,-3.095845676587944,0.0527116664483392
1783166086514804736,2.408942699432373,0.9838977456092834,1.9522088766098022,0.33460867404937744,-0.06589983403682709,0.08359584957361221,0.9943183064460754,0.2131013721227646,-0.08042202144861221,0.2622581720352173,0.0319693343130307,0.024279693330472946,-0.9982833555613394,0.04264734005500447,-0.08369352067259771,-3.0754130412443597,0.0514053311765152
1783166086524724992,2.418862819671631,0.9352138042449951,2.076589584350586,0.20308126509189606,-0.08561795204877853,0.09338017553091049,0.991942286491394,0.20491117238998413,-0.008877009153366089,0.1977548599243164,0.041828607345772255,0.022524764633100734,-0.9977293042647144,0.047740672878801155,-0.09351642320931905,-3.0554926050855724,0.04917569002774312
1783166086534643968,2.428781747817993,0.7502967715263367,2.071542263031006,0.05908127501606941,-0.10575703531503677,0.10138115286827087,0.9892104864120483,0.06599263101816177,-0.044328540563583374,0.23005831241607666,0.05190810819641719,0.021606307358935643,-0.9970649025126731,0.05196464135974536,-0.10155563151599174,-3.0350866626216924,0.04875094440749485
1783166086544562944,2.4387006759643555,1.0949740409851074,1.649760127067566,0.0417797826230526,-0.12363952398300171,0.11034742742776871,0.9861729145050049,0.11889402568340302,-0.04815258830785751,0.10821807384490967,0.06084561459253116,0.021148933821189708,-0.9963127931793249,0.056669484313598924,-0.11057260260104045,-3.016870345007156,0.04935943820370548
1783166086554482944,2.4486207962036133,1.1554850339889526,1.6537706851959229,0.06494183093309402,-0.13969071209430695,0.12136728316545486,0.9827291369438171,0.26250872015953064,0.14762990176677704,0.07415562868118286,0.06886024079208145,0.020802089899690616,-0.9954555942172826,0.062399649591547236,-0.12166723624874859,-3.000392892887441,0.050402596250222795
1783166086564401920,2.4585397243499756,1.5790326595306396,1.5274279117584229,0.2916189134120941,-0.15502381324768066,0.134738028049469,0.9786795377731323,0.08939574658870697,0.1601228266954422,0.0050089359283447266,0.07654929874343323,0.020020607379244125,-0.9944540922286182,0.0692858295675737,-0.1351490734418241,-2.9844968675840176,0.05091276546863988
1783166086574321920,2.4684598445892334,1.7929930686950684,1.4092942476272583,-0.0026204409077763557,-0.169058695435524,0.1516588032245636,0.973867654800415,-0.021752431988716125,0.017759501934051514,-0.19068008661270142,0.0835806518854586,0.019395061037964897,-0.9932560957738177,0.07797631644548801,-0.1522462691684563,-2.9697104276776307,0.052190253195453305
1783166086584240896,2.4783787727355957,1.4008769989013672,1.6229615211486816,0.2701370418071747,-0.1832239031791687,0.16707830131053925,0.9687691330909729,-0.08047845959663391,0.11748285591602325,-0.07413119077682495,0.09071548334255249,0.018894785629709965,-0.9919816298301645,0.08594231395805992,-0.16786556039520228,-2.954669927232851,0.05386193427060201
1783166086594160896,2.4882986545562744,1.0070273876190186,1.451521873474121,0.08050713688135147,-0.19755686819553375,0.17927585542201996,0.9637588262557983,-0.15714891254901886,-0.0014499574899673462,-0.24404770135879517,0.09805966194879523,0.017638812009649105,-0.9907412822689756,0.09222143697910028,-0.18025033422812026,-2.9394076956095843,0.053936970419893426
1783166086604079872,2.498217821121216,0.7065196633338928,1.0304079055786133,0.1598632037639618,-0.20903681218624115,0.1874697357416153,0.9597699642181396,-0.052117303013801575,-0.09756498038768768,-0.273490846157074,0.10394469400331205,0.016992425445606554,-0.9897455461970158,0.09649059707268196,-0.18858557224565292,-2.9271428313762407,0.054692176326972076
1783166086613998848,2.508136749267578,0.4850515127182007,0.8945248126983643,-0.0357668437063694,-0.21809570491313934,0.19330382347106934,0.9565920233726501,-0.027464017271995544,-0.11035701632499695,-0.3195679187774658,0.10859585484793093,0.01659459262771315,-0.9889492538421377,0.0995541603833804,-0.1945283653060264,-2.917431842032734,0.05551990267395645
1783166086623918848,2.518056631088257,0.31239959597587585,0.8602952361106873,0.2771524488925934,-0.22513073682785034,0.19718366861343384,0.9541671276092529,-0.10142260789871216,-0.07218366861343384,-0.33441615104675293,0.11227859114179332,0.01570596455163158,-0.988350594112664,0.10153813948899652,-0.1984843587409081,-2.9098855710265963,0.054953147605939875
1783166086633837824,2.5279757976531982,-0.16395291686058044,0.6308201551437378,0.028237272053956985,-0.23224297165870667,0.19828614592552185,0.9522321224212646,-0.15266002714633942,-0.03397947549819946,-0.3838726282119751,0.11605535541907684,0.014430158046586997,-0.9878804696206064,0.10205462062324026,-0.1996090298611904,-2.902369742407341,0.05328116015649832
1783166086643757824,2.537895679473877,0.04009581729769707,0.5136269330978394,0.17106792330741882,-0.2373541295528412,0.19781528413295746,0.9510688185691833,-0.21029292047023773,0.031844720244407654,-0.4116554856300354,0.11874293906804365,0.01382120911896832,-0.9875947499377284,0.10181181701421985,-0.19912866578655908,-2.897022812385103,0.05254030020174923
1783166086653677056,2.5478148460388184,-0.2204066663980484,0.5298753380775452,-0.0868491381406784,-0.2422441691160202,0.19740688800811768,0.9499202966690063,-0.13985122740268707,-0.0881233960390091,-0.4228816032409668,0.12132993710852244,0.013106377122486218,-0.9873137188603233,0.10158234351380951,-0.19871205127414066,-2.891899344101688,0.05156733281682482
1783166086663596800,2.557734727859497,-0.495299756526947,0.34568846225738525,-0.1334640383720398,-0.24644622206687927,0.19318781793117523,0.9497067332267761,-0.21221774816513062,0.014682695269584656,-0.31367456912994385,0.1234603550728345,0.013426650439454034,-0.9872553381529092,0.09951991734962269,-0.1944101407562031,-2.8876956317128775,0.05208896417607586
1783166086673515776,2.5676536560058594,-0.30901458859443665,0.2773096263408661,0.03882277384400368,-0.24917666614055634,0.18967869877815247,0.9497017860412598,-0.08447204530239105,0.09500455856323242,-0.41474366188049316,0.12488926520943518,0.013204478821586613,-0.9872570715311781,0.09773386057982024,-0.1908348900815278,-2.885002580221871,0.05144035862546585
1783166086683435008,2.577572822570801,-0.5862600207328796,0.18392720818519592,-0.24818475544452667,-0.25099465250968933,0.18521198630332947,0.9501041173934937,-0.029705971479415894,0.053313374519348145,-0.4124608635902405,0.1258551162353937,0.01291600324058612,-0.9873627647305571,0.09543760326999803,-0.18628757156671727,-2.883317056998678,0.05042153877797122
1783166086693354752,2.5874927043914795,-0.8523258566856384,0.012549174018204212,-0.5835624933242798,-0.25205355882644653,0.1771453320980072,0.9513616561889648,0.05591702461242676,0.13843698799610138,-0.36400485038757324,0.12624966243689492,0.01458646078962309,-0.9876578610195743,0.09154405167123966,-0.17808514975722184,-2.8826031831924546,0.05278663606790852
1783166086703273728,2.597411632537842,-0.7147331237792969,-0.05983767658472061,-0.32385584712028503,-0.25264793634414673,0.168169304728508,0.9528315663337708,0.20295006036758423,0.1052224189043045,-0.491665244102478,0.1264079127099233,0.01643011553732741,-0.9880009283720871,0.08720796642176439,-0.16897223498715666,-2.882402206984919,0.055329309828333735
1783166086713193984,2.6073317527770996,-1.039810061454773,-0.09214280545711517,-0.022369245067238808,-0.25203028321266174,0.15985921025276184,0.9544243812561035,0.28515711426734924,-0.20212605595588684,-0.5613274574279785,0.12608785010979878,0.0167473270092111,-0.988398560241125,0.08300420784389596,-0.16054802727258793,-2.883420553848037,0.05476907714343444
1783166086723112704,2.617250680923462,-1.4100538492202759,-0.494235098361969,-0.05789847671985626,-0.24952110648155212,0.1478458195924759,0.9570165872573853,0.3695467710494995,-0.24548682570457458,-0.51609867811203,0.12487634385658644,0.016278598619140487,-0.989061823378785,0.07679572755710402,-0.14838980065600677,-2.8865427275550957,0.0519753484919508
1783166086733032960,2.6271708011627197,-1.3243216276168823,-0.8974711894989014,-0.08973590284585953,-0.24302013218402863,0.13412609696388245,0.9607035517692566,0.43491464853286743,-0.13266125321388245,-0.5478312969207764,0.12159580444307808,0.016217719834994468,-0.9899943266629608,0.06973277890981953,-0.1345315389996841,-2.8938295129838414,0.049537005233202376
1783166086742951936,2.637089729309082,-0.6570269465446472,-1.2853540182113647,0.03593707084655762,-0.23281323909759521,0.12450244277715683,0.9645189642906189,0.46084064245224,-0.12036734074354172,-0.6486316919326782,0.11641144396284489,0.016189332837031858,-0.9909578104503539,0.06472106478613293,-0.12482635573947458,-2.9047455373453293,0.047542115945336964
1783166086752870912,2.6470086574554443,-0.5206884145736694,-1.5550916194915771,-0.2688555419445038,-0.21942278742790222,0.11882299929857254,0.968366801738739,0.3582472801208496,-0.08400245755910873,-0.6586593985557556,0.10954992948718367,0.016952826157678326,-0.9919153140990418,0.06176805449573823,-0.11910439652489488,-2.9187647891258948,0.04751931577981262
1783166086762790912,2.656928777694702,-0.3122766315937042,-1.5811972618103027,-0.3003476858139038,-0.20451362431049347,0.11376854032278061,0.9722300171852112,0.2059479057788849,0.03778177499771118,-0.5199898481369019,0.10188675049886546,0.01854048219255702,-0.9928601458077484,0.059195951592901114,-0.11401540691060308,-2.934260299232219,0.049218076812917726
1783166086772709888,2.6668477058410645,-0.2430698424577713,-1.5559494495391846,-0.4066081941127777,-0.189724862575531,0.1102864071726799,0.9756233096122742,0.1780061572790146,-0.011348441243171692,-0.5559611320495605,0.09427703375964866,0.020571825476576922,-0.993674224041389,0.057446044800192914,-0.11051120984391195,-2.9495245665759957,0.052055984149662185
1783166086782629888,2.6767678260803223,-0.38881346583366394,-1.4741616249084473,-0.4126652777194977,-0.1741558164358139,0.1051577627658844,0.9790869951248169,0.2104259729385376,-0.023324891924858093,-0.44145894050598145,0.0862934047775103,0.022961459980928692,-0.9944929742300284,0.05486243384170041,-0.10535254419514677,-2.9655580821422864,0.05547441957259372
1783166086792548864,2.6866867542266846,-0.49585404992103577,-1.4275864362716675,-0.34248653054237366,-0.15989837050437927,0.099668487906456,0.9820887446403503,0.29628145694732666,-0.06475640833377838,-0.31532567739486694,0.07902140068808783,0.02511019714209936,-0.9951953773294361,0.05206865887115749,-0.09983424797930784,-2.9801942664688656,0.058532884954494324
1783166086802467840,2.696605682373047,-0.8959119319915771,-1.4265731573104858,-0.18296372890472412,-0.14562499523162842,0.09244579821825027,0.9850109815597534,0.3412732481956482,-0.17005202174186707,-0.3253127932548523,0.07182683364926294,0.02650068187200064,-0.9958931732369379,0.04832482118884844,-0.09257798500907488,-2.9948148859547423,0.06001862358075651
1783166086812387840,2.7065258026123047,-1.302557110786438,-1.2934138774871826,0.023952381685376167,-0.13222604990005493,0.0813329666852951,0.9878771305084229,0.35108286142349243,-0.2747533917427063,-0.22892022132873535,0.06519305721858713,0.026818321344170153,-0.9966039088547495,0.04255938720265889,-0.08142290485048474,-3.008534808727088,0.05923440390234648
1783166086822306816,2.716444730758667,-1.572875738143921,-1.145046591758728,0.10450314730405807,-0.12019523978233337,0.06703216582536697,0.9904844760894775,0.35183894634246826,-0.19393952190876007,-0.17293399572372437,0.05933644543463258,0.026244047159088235,-0.9972730199906542,0.035169215842460584,-0.06708246441005056,-3.0208331556024017,0.05667633801137055
1783166086832227072,2.726364850997925,-1.680817723274231,-1.0981584787368774,0.15300311148166656,-0.10862275958061218,0.05087493360042572,0.9927803874015808,0.3102829158306122,-0.07190154492855072,-0.16280913352966309,0.05374958915881483,0.025177495677270345,-0.9978758950708234,0.026847774735913345,-0.050896906244435276,-3.0326134699219547,0.05322817314650628
1783166086842145792,2.736283779144287,-1.3786541223526,-1.1779515743255615,0.17897692322731018,-0.0971815288066864,0.035612598061561584,0.9946293234825134,0.3292219340801239,-0.032850757241249084,-0.1678624153137207,0.0482125830078137,0.024052511282195498,-0.9983667341617212,0.018996959543012955,-0.03562012947679529,-3.044195526366773,0.04991060509922955
1783166086852065792,2.746203660964966,-0.942603349685669,-1.3375829458236694,-0.007674088701605797,-0.08442779630422592,0.024165496230125427,0.996136486530304,0.2580117881298065,0.09447158873081207,-0.25159919261932373,0.04195822291687741,0.023524530567507078,-0.9987566509020769,0.013086066519595022,-0.024167849556887264,-3.0570394812023873,0.04812131624132613
1783166086861985024,2.7561228275299072,-0.45649659633636475,-1.4519622325897217,-0.03789910301566124,-0.07049715518951416,0.017148630693554878,0.997364342212677,0.18008577823638916,0.2733634412288666,-0.2844586968421936,0.03505942405493881,0.023593959146744028,-0.999062302567019,0.00941032956808053,-0.01714947042458764,-3.071026566254221,0.047828775619115756
1783166086871904000,2.7660417556762695,0.010400105267763138,-1.509216547012329,-0.1351902037858963,-0.05594876781105995,0.014813835732638836,0.9983235001564026,0.18157438933849335,0.2861047387123108,-0.2811606526374817,0.02780024458412513,0.0239861771997501,-0.9992929571981084,0.008079452209325728,-0.014814378064949866,-3.085608492918365,0.04841187594570183
1783166086881823744,2.7759616374969482,0.19750180840492249,-1.5014896392822266,-0.15318810939788818,-0.04104845970869064,0.015968119725584984,0.9990295767784119,0.13705675303936005,0.13875600695610046,-0.2132629156112671,0.020324684949211635,0.02481279087650479,-0.9994494100403044,0.008493047985970215,-0.01596879795542782,-3.100527419162963,0.04997065806957709
1783166086891742976,2.7858808040618896,0.34169095754623413,-1.4132312536239624,-0.18971362709999084,-0.026490364223718643,0.01857156865298748,0.9994765520095825,0.13816943764686584,0.07293538749217987,-0.18444359302520752,0.013004215160542242,0.025660198305788404,-0.9995398035304396,0.00962390393293508,-0.01857263634416168,-3.1150946190665176,0.051578840273538165
1783166086901662720,2.7958006858825684,0.46096569299697876,-1.31724214553833,-0.1443791687488556,-0.012793758884072304,0.022622155025601387,0.9996623396873474,0.13446734845638275,0.06331534683704376,-0.24780070781707764,0.006093529166567912,0.026661032063617602,-0.9995600756795558,0.011478587214646988,-0.022624085427720316,-3.1287952715735825,0.053477661936032136
1783166086911581952,2.8057198524475098,0.4942530393600464,-1.172912359237671,-0.19594450294971466,-0.00035509487497620285,0.02722547948360443,0.9996293783187866,0.1787150800228119,0.04847337678074837,-0.22390294075012207,-0.00019690435590729625,0.027498630883318897,-0.9995291495704222,0.013613735146516476,-0.027228843925224927,-3.141237427085958,0.05501413388611559
1783166086921501952,2.8156397342681885,0.22573000192642212,-0.9672852158546448,-0.12212833017110825,0.010597259737551212,0.03115059621632099,0.9994588494300842,0.20517727732658386,-0.0035016629844903946,-0.18360161781311035,-0.005740745487184609,0.028469901499538867,-0.9994592995303592,0.015420197767840699,-0.031155637118204956,3.1309900532255903,0.056790034740136434
1783166086931420928,2.825558662414551,-0.02199784852564335,-0.8201510310173035,0.051890574395656586,0.019405091181397438,0.03170473873615265,0.9993088245391846,0.3115580379962921,-0.010647613555192947,-0.030253708362579346,-0.010154683410553781,0.028657605636391685,-0.9994164050253499,0.015570447370832496,-0.03171005285133858,3.1221765811838305,0.05702508994194186
1783166086941339904,2.835477828979492,0.05849486216902733,-0.8398919701576233,0.0017251389799639583,0.027645070105791092,0.031627073884010315,0.9991177320480347,0.2814064621925354,-0.04195726290345192,-0.055925846099853516,-0.01427153357892291,0.02854422059909712,-0.9993718529718705,0.015415851364043984,-0.031632350478414256,3.1139302291020483,0.056671230415103614
1783166086951259904,2.845397710800171,0.016111653298139572,-0.7882044911384583,-0.0276546198874712,0.03584786131978035,0.03196444734930992,0.9988459944725037,0.17945365607738495,-0.03184237331151962,-0.011907458305358887,-0.018380457348023783,0.02868635941413445,-0.999299797395026,0.015465784232695713,-0.031969892566464764,3.1057187733396256,0.05682360568903113
1783166086961178880,2.855316638946533,-0.024837110191583633,-0.7171177864074707,-0.0320696085691452,0.043478693813085556,0.03199026733636856,0.9985419511795044,0.14708831906318665,-0.08246634900569916,0.061806440353393555,-0.02220060790685766,0.028888697733859946,-0.99921790665086,0.015365805080107342,-0.03199572734155577,3.098077960044693,0.05711020177039903
1783166086971098880,2.865236759185791,-0.20532633364200592,-0.5098583102226257,-0.08223577588796616,0.049557123333215714,0.031014597043395042,0.9982896447181702,0.11537512391805649,-0.1414577066898346,0.12968581914901733,-0.025232941326719098,0.02927823551231889,-0.9991434401062136,0.014781183747644304,-0.03101957189216584,3.0919913450369187,0.05782038056876953
1783166086981017856,2.8751556873321533,-0.5499420166015625,-0.4272556006908417,-0.04765915498137474,0.05408110469579697,0.02724616229534149,0.9981647729873657,0.11567293107509613,-0.1749512404203415,0.21715199947357178,-0.02744555578103598,0.029665502613043244,-0.9991007691422411,0.012820423896842346,-0.027249535339243635,3.087465040151194,0.058629261861972114
1783166086990937856,2.885075807571411,-0.7379015684127808,-0.2692398428916931,-0.10564908385276794,0.0576431006193161,0.020676029846072197,0.9981231093406677,0.1296737790107727,-0.16790808737277985,0.25469970703125,-0.029134256143060686,0.030182678934844154,-0.9990748578754519,0.009467423767426509,-0.020677503352562063,3.083905237179224,0.059806281978176966
1783166087000856832,2.8949947357177734,-0.689380943775177,-0.07145190984010696,-0.12145227938890457,0.05966345593333244,0.01357903704047203,0.9981262683868408,0.12930138409137726,-0.13087335228919983,0.23318171501159668,-0.030040591566499294,0.030755760668546003,-0.9990581624623112,0.005871127015520436,-0.013579454566184888,3.0818882377420302,0.06114456985001596
1783166087010775808,2.9049136638641357,-0.7466440200805664,0.021201252937316895,-0.023883052170276642,0.06018354371190071,0.006508335005491972,0.9981662631034851,0.10809038579463959,-0.08428238332271576,0.24368560314178467,-0.03019257955887866,0.031221981452433413,-0.9990537151022088,0.002313684841092006,-0.006508381138130073,3.081371453932549,0.06228674643480103
1783166087020695808,2.9148337841033936,-0.8492697477340698,0.08524708449840546,-0.04619022086262703,0.05958523973822594,-0.0013169222511351109,0.9982225298881531,0.13815341889858246,-0.023722749203443527,0.31067657470703125,-0.029770272917010107,0.03151852659670079,-0.9990584805051237,-0.001598281075416425,0.001316922628452815,3.081972059194108,0.06311481420775933
1783166087030614784,2.924752712249756,-0.9105409979820251,0.22505520284175873,0.08827883750200272,0.05853111669421196,-0.010265775956213474,0.9982326626777649,0.19000402092933655,-0.029346037656068802,0.3514680862426758,-0.02910192095397258,0.03153383891501707,-0.9990605266314148,-0.006056272762683219,0.0102659558567665,3.083024966541222,0.06340674308943896
1783166087040535040,2.9346728324890137,-0.859824001789093,0.37811025977134705,0.16048699617385864,0.05577120929956436,-0.019131353124976158,0.9982601404190063,0.20364345610141754,-0.1361420750617981,0.3172152042388916,-0.02758674377641368,0.031075117555486257,-0.9990817817352913,-0.0104325170073723,0.01913251998015019,3.0857822590485724,0.06272135367081529
1783166087050454016,2.944591760635376,-0.8274490237236023,0.516386866569519,0.20232735574245453,0.05144985392689705,-0.027743926271796227,0.9982901811599731,0.21571628749370575,-0.19497336447238922,0.31759727001190186,-0.0253054515692713,0.030161626609893608,-0.99911730066404,-0.014648146713884785,0.02774748688061542,3.090100240100143,0.06107281513795531
1783166087060372736,2.9545106887817383,-0.5678076148033142,0.45564574003219604,0.03965587541460991,0.04679006710648537,-0.035024598240852356,0.9982904195785522,0.23186592757701874,-0.10895733535289764,0.2639775276184082,-0.022873008998077825,0.02976234767890684,-0.9991293221230467,-0.01820890790234087,0.03503176359214249,3.094756733178387,0.06037955774876323
1783166087070292992,2.964430809020996,-0.13455303013324738,0.43254247307777405,0.015927843749523163,0.042696524411439896,-0.03868161514401436,0.9983388781547546,0.2334722876548767,0.0034643374383449554,0.1815773844718933,-0.020772665786766235,0.029706892482406138,-0.9991431060812108,-0.019975015015536026,0.03869126723502005,3.0988511354593227,0.06027431449548827
1783166087080211968,2.9743497371673584,0.19972561299800873,0.5166165828704834,-0.014851640909910202,0.03823310509324074,-0.03832535818219185,0.9985336661338806,0.17012566328048706,0.00905899703502655,0.22186434268951416,-0.018544163133123116,0.029771376541422336,-0.9991899170440183,-0.019730747687414986,0.038334746228984945,3.103322098567982,0.06030712791194506
1783166087090131712,2.984269618988037,0.39007261395454407,0.6909024119377136,-0.06030996888875961,0.03258670121431351,-0.035609424114227295,0.9988342523574829,0.0946105569601059,-0.0018051229417324066,0.35089707374572754,-0.01575647607155124,0.029990787414029517,-0.9992585615190953,-0.01829082277647948,0.03561695420510254,3.108979488982242,0.06058896681493906
1783166087100050944,2.9941887855529785,0.32882335782051086,0.8208916187286377,-0.06884752959012985,0.026017099618911743,-0.032293520867824554,0.9991399049758911,0.062148187309503555,-0.041726868599653244,0.42198753356933594,-0.012515255851524102,0.03033975174872964,-0.9993244954370585,-0.016537640966932363,0.03229913555276543,3.1155590405926192,0.06112237086169402
1783166087109970688,3.0041086673736572,0.11136473715305328,0.8747830986976624,0.07970128953456879,0.019274849444627762,-0.03087320178747177,0.9993376731872559,0.08877263963222504,-0.06347189843654633,0.5255038738250732,-0.009164566533153328,0.030436196610072835,-0.999371038358273,-0.015725426123847714,0.030878108364142565,3.122307420938049,0.061189667585066235
1783166087119889920,3.0140278339385986,0.155173197388649,0.8680047988891602,0.22700445353984833,0.010764830745756626,-0.030076928436756134,0.9994894862174988,0.16300225257873535,-0.07223324477672577,0.5909491777420044,-0.004932963717341161,0.029766245348789435,-0.9994291902198933,-0.01519397303576762,0.03008146527185744,3.130822740525483,0.05971088532777978
1783166087129809920,3.0239477157592773,0.5376032590866089,0.8214584589004517,0.3167486786842346,0.0028445192147046328,-0.026841260492801666,0.9996356964111328,0.21470004320144653,-0.18409624695777893,0.5731792449951172,-0.0010410877848059585,0.028363763846052627,-0.9995065458128977,-0.013456799990443323,0.02684448504064219,3.1387471054616163,0.056778502657466055
1783166087139728896,3.0338666439056396,0.6127336621284485,1.0264379978179932,0.04966343939304352,-0.006304732523858547,-0.02081921696662903,0.9997631907463074,0.22252176702022552,-0.40403124690055847,0.4825669527053833,0.0034369375595085907,0.027430168576163684,-0.9995644906458573,-0.01031982695098454,0.020820720965801776,-3.1352865113858353,0.05480481127531986
1783166087149647872,3.043785810470581,0.5005273818969727,1.1743125915527344,-0.1259436011314392,-0.017015423625707626,-0.015449163503944874,0.999735951423645,0.21019169688224792,-0.3808826208114624,0.51988685131073,0.008719546711505176,0.027772054938782296,-0.9995482358574419,-0.007485804020569097,0.015449778491260245,-3.124574379465798,0.05542345277824881
1783166087159567872,3.0537056922912598,0.4104315936565399,1.1877813339233398,-0.003616096917539835,-0.02874676138162613,-0.011056690476834774,0.9995255470275879,0.28466716408729553,-0.22231122851371765,0.47017043828964233,0.01452517812263245,0.02817548057933283,-0.9994843206071272,-0.005121732698365791,0.011056916094153562,-3.112840172511622,0.05620613695294336
1783166087169486848,3.063624620437622,0.31536567211151123,1.016275405883789,0.12126198410987854,-0.03954935073852539,-0.007435743231326342,0.9991897940635681,0.3342118263244629,-0.04323869198560715,0.45149362087249756,0.01987462151808971,0.02785913987093301,-0.9994092062412899,-0.0031660521788995926,0.007435811633992971,-3.1020318829157887,0.05558967579802574
1783166087179406848,3.07354474067688,0.26133066415786743,0.9723058342933655,0.23088036477565765,-0.04907074570655823,-0.004703201353549957,0.998784065246582,0.2999710142612457,-0.04671891778707504,0.47207146883010864,0.02459757758099478,0.027096659030166018,-0.9993286789923582,-0.0016862204085998126,0.004703218511579519,-3.092501640383356,0.054100968775847275
1783166087189325824,3.083463668823242,0.174856498837471,1.1083077192306519,0.13622961938381195,-0.059461887925863266,-0.00232857302762568,0.9982277154922485,0.20333701372146606,-0.20856314897537231,0.42373865842819214,0.029764415102796035,0.026141728129208654,-0.9992149285274925,-0.00038649666808764516,0.002328575080599788,-3.0820954997683283,0.05224330580730978
1783166087199245056,3.0933828353881836,0.11734633147716522,1.3009413480758667,0.04638947919011116,-0.07133911550045013,-0.001060561859048903,0.9974513649940491,0.10565614700317383,-0.18524925410747528,0.4630281925201416,0.03569411286469686,0.025794624237580787,-0.9990296916133683,0.00039081452100990104,0.001060562035690787,-3.0701928318440395,0.05159000121945739
1783166087209164800,3.1033027172088623,0.32797548174858093,1.3988378047943115,0.060064543038606644,-0.08480969071388245,0.0010809251107275486,0.9963967800140381,0.13243237137794495,-0.04943602904677391,0.42207562923431396,0.04241535338885793,0.02556799864570685,-0.9987715813812933,0.0016269368368056127,-0.0010809253690927734,-3.0566809285378422,0.05123363578854714
1783166087219083776,3.1132216453552246,0.5521289706230164,1.3818031549453735,0.0649983212351799,-0.09844282269477844,0.005497518461197615,0.9951275587081909,0.13304975628852844,0.014110025018453598,0.4000140428543091,0.04919581559821749,0.025333891993075064,-0.9984597942580923,0.004001243469587565,-0.005497546197116518,-3.0429886388970773,0.05100631833319676
1783166087229004032,3.1231417655944824,0.6344922780990601,1.4164139032363892,0.05945548042654991,-0.11219894140958786,0.011427761986851692,0.9936197996139526,0.14363206923007965,-0.03468215465545654,0.41417109966278076,0.05602751856182639,0.025101428202141174,-0.9980880798286137,0.007133891218589108,-0.011428010854084899,-3.029149564462899,0.05093160216200584
1783166087238922752,3.1330606937408447,0.5567473769187927,1.5487958192825317,0.014265365898609161,-0.1267130970954895,0.017503436654806137,0.991784930229187,0.1196940690279007,-0.13733071088790894,0.4162808060646057,0.0632470972087476,0.025034007396341644,-0.9976300782295726,0.0103595976711696,-0.01750432975021912,-3.014518418587024,0.051290125519944704
1783166087248843008,3.1429808139801025,0.17827732861042023,1.5217459201812744,0.009415749460458755,-0.14166510105133057,0.021206257864832878,0.9896875619888306,0.12414802610874176,-0.15617024898529053,0.4399237036705017,0.07072719153840054,0.024993472222587895,-0.9971053588749909,0.01240676000790177,-0.021207847335803966,-2.9994171972057697,0.05163178375022096
1783166087258761984,3.152899742126465,-0.008907745592296124,1.692283272743225,0.024151818826794624,-0.15742366015911102,0.02189321629703045,0.9872883558273315,0.11219660937786102,-0.1500975638628006,0.4364175796508789,0.07866514770184217,0.02482801361115019,-0.9965077814670038,0.012944914425488754,-0.021894966522912503,-2.9834731903936946,0.051554430467262796
1783166087268680704,3.162818670272827,-0.3424490988254547,1.6652849912643433,-0.045958228409290314,-0.17401781678199768,0.020287005230784416,0.9845337867736816,0.1291721910238266,-0.20362135767936707,0.37391066551208496,0.08706851330664218,0.02465379880214532,-0.9958208113108477,0.012341650703854335,-0.020288397835512992,-2.9666480526249495,0.05128369643005476
1783166087278600960,3.172738790512085,-0.6117005944252014,1.4898269176483154,-0.05192334204912186,-0.1892787665128708,0.01540204044431448,0.9818026423454285,0.1608821153640747,-0.12111492455005646,0.4141172170639038,0.0948526127363999,0.024605316470820152,-0.9951361244116557,0.010083945764259342,-0.015402649321971267,-2.9511422206148454,0.05091228404705292
1783166087288519936,3.1826577186584473,-0.5498139262199402,1.429115891456604,-0.08503355830907822,-0.20354938507080078,0.009474868886172771,0.9790185689926147,0.15633875131607056,-0.04264747351408005,0.31910741329193115,0.102163797096711,0.0245880325797311,-0.9944368755801111,0.007289996467867979,-0.00947501084855249,-2.9366014140918413,0.05041565663952366
1783166087298439936,3.192577838897705,-0.4173150360584259,1.2839871644973755,-0.041569970548152924,-0.21651983261108398,0.004500336945056915,0.9762680530548096,0.0901770293712616,-0.004057837184518576,0.24767005443572998,0.1088186217804474,0.024600712264037154,-0.9937448480845921,0.004958198249230404,-0.004500351916177817,-2.9233421179113974,0.049994080126661115
1783166087308358912,3.2024967670440674,-0.24990783631801605,1.3680084943771362,-0.03804204985499382,-0.22904807329177856,0.0011132359504699707,0.973414421081543,0.055540382862091064,-0.01740962266921997,0.13809674978256226,0.11524377484875782,0.02456185170976183,-0.9930276505792391,0.00341100117900991,-0.0011132361871516697,-2.910492847055851,0.049587739561503245
1783166087318278912,3.212416648864746,-0.18847696483135223,1.2649580240249634,0.14410299062728882,-0.24194669723510742,-0.0010050165001302958,0.970288872718811,0.0765567421913147,-0.0023671737872064114,-0.0020883679389953613,0.12185814269376175,0.02420803189932877,-0.992249162500179,0.0024665554402970888,0.0010050166404445722,-2.89722082830403,0.048661164983605135
1783166087328197888,3.2223358154296875,-0.1344718486070633,1.307039499282837,0.24178437888622284,-0.25410526990890503,-0.0020587886683642864,0.9671742916107178,0.01919621229171753,-0.04361076280474663,0.012485623359680176,0.12809765456511213,0.02312893511079887,-0.9914898870282401,0.0019499623970136997,0.0020587901415186098,-2.884669588931633,0.046380506794503736
1783166087338116864,3.23225474357605,-0.25408321619033813,1.3210994005203247,0.2776030898094177,-0.26667332649230957,-0.0033500483259558678,0.9637815356254578,-0.0936630368232727,-0.11757586151361465,0.0019170045852661133,0.1345652974116936,0.02175817026973447,-0.9906650994334698,0.0012646761301108565,0.003350054564785861,-2.871651495739293,0.04346441055537948
1783166087348036864,3.2421746253967285,-0.22381380200386047,1.3423951864242554,0.3523291051387787,-0.27920517325401306,-0.004727200139313936,0.9602200388908386,-0.14974993467330933,-0.05537717416882515,-0.0749049186706543,0.1410314420918155,0.020001184497424846,-0.9898029972030965,0.00046190576359674544,0.004727217974146162,-2.858623206220811,0.03973565081185856
1783166087357955840,3.25209379196167,-0.10103913396596909,1.187130331993103,0.28126397728919983,-0.2912208139896393,-0.005567065440118313,0.9566393494606018,-0.20938947796821594,0.027814388275146484,-0.15477502346038818,0.14724185488444164,0.018289136586901372,-0.9889313311112364,-9.162038716261368e-05,0.005567094089797827,-2.8460851235561506,0.036154856077884046
1783166087367875840,3.2620136737823486,0.29178670048713684,1.0884801149368286,0.1607825607061386,-0.3021673262119293,-0.004321248736232519,0.9532453417778015,-0.24293771386146545,0.18214717507362366,-0.1905040740966797,0.1528906040695216,0.023051884060718737,-0.9879733277888317,0.0013803936290442947,0.0043212622319739645,-2.834624337297619,0.04598802915292463
1783166087377795072,3.27193284034729,0.8486502766609192,0.894539475440979,0.12877961993217468,-0.3114244341850281,0.0014952935744076967,0.9502696990966797,-0.24097424745559692,0.3262177109718323,-0.24334537982940674,0.15759863240004027,0.028280795571223007,-0.9870841138798708,0.005272763923045036,-0.0014952941561560535,-2.824900618621933,0.05752479376705568
1783166087387714816,3.2818527221679688,1.4199576377868652,0.7490129470825195,0.08068183809518814,-0.31897610425949097,0.012585287913680077,0.9476789832115173,-0.18612027168273926,0.39528214931488037,-0.25462502241134644,0.16129963320038082,0.034061949991742425,-0.9862450422671848,0.011951212388472765,-0.012585620108106302,-2.816916986404602,0.07110784675737691
1783166087397633792,3.291771650314331,1.8400732278823853,0.4186132252216339,-0.00010009168181568384,-0.3245605528354645,0.027898000553250313,0.9454534649848938,-0.1293579638004303,0.38399776816368103,-0.270251989364624,0.1638181114247837,0.04058845676661073,-0.9854335711678126,0.020902600425674073,-0.02790161979808131,-2.810911985914174,0.0869863768790671
1783166087407553024,3.3016908168792725,2.2267584800720215,0.2394786924123764,0.09604372084140778,-0.32764190435409546,0.047181498259305954,0.943623423576355,-0.0868937075138092,0.30360281467437744,-0.2625318765640259,0.16484538492880965,0.047141473456986945,-0.9846773089551697,0.03184982841619621,-0.04719902062666328,-2.807399444769466,0.1036395212065528
1783166087417472768,3.311610698699951,2.2622034549713135,-0.0032740356400609016,-0.03784351050853729,-0.32863423228263855,0.06845429539680481,0.9419734477996826,-0.13976487517356873,0.1864285171031952,-0.30275213718414307,0.16460323619795303,0.05392466631532287,-0.9839099849798522,0.043808196106845325,-0.06850786971982831,-2.8059173554089383,0.12111527622111057
1783166087427391744,3.3215296268463135,2.179548501968384,-0.10150618106126785,0.02056417427957058,-0.3281896412372589,0.08913020044565201,0.940397322177887,-0.1430627405643463,0.1240198090672493,-0.2944623827934265,0.16348407145767585,0.06082555001838062,-0.9831067680921999,0.055445767814293306,-0.08924863720531848,-2.805817545192317,0.13871983206255964
1783166087437312000,3.3314497470855713,1.720792531967163,-0.11304112523794174,-0.027739975601434708,-0.32707786560058594,0.10765819251537323,0.9388447999954224,-0.15877720713615417,-0.03185253590345383,-0.3435385227203369,0.16197810759610712,0.06721856203619303,-0.9822953081539578,0.06588347831415088,-0.10786724940796014,-2.8063588261598684,0.1549159926100354
1783166087447230720,3.3413686752319336,1.1817251443862915,-0.04169272258877754,-0.030119476839900017,-0.3261772096157074,0.12078185379505157,0.9375604391098022,-0.09716254472732544,-0.11539552360773087,-0.24769562482833862,0.16066624879206748,0.07329902105195552,-0.9815332225063601,0.07352538107535382,-0.12107746176705253,-2.8067899519903188,0.16956374546319758
1783166087457150976,3.3512887954711914,0.6930170059204102,0.07838388532400131,-0.16297286748886108,-0.3266012370586395,0.12922360002994537,0.9362866878509521,-0.011029958724975586,-0.21609190106391907,-0.2589338421821594,0.16014224779598057,0.07918953797459927,-0.9807509188055173,0.07881042052862233,-0.1295859783841608,-2.8059640088255544,0.18312071538357147
1783166087467069952,3.3612077236175537,0.20496194064617157,0.06613859534263611,-0.22356143593788147,-0.32733044028282166,0.1325729638338089,0.9355638027191162,0.09609866142272949,-0.1386154294013977,-0.2228865623474121,0.15992816145214372,0.08493895708158453,-0.9800853336411085,0.08149353207962245,-0.13296441399385567,-2.8050291339645868,0.19551923007996838
1783166087476988672,3.371126651763916,0.16961060464382172,0.02053702063858509,-0.23747564852237701,-0.3278556764125824,0.13326780498027802,0.9352811574935913,0.23581457138061523,0.01951846480369568,-0.2582331895828247,0.15971043149704803,0.09046548146301406,-0.9795185419045703,0.08277759236545361,-0.13366547705955734,-2.804434721312698,0.2069737275989349
1783166087486908928,3.381046772003174,0.36370849609375,-0.2203434705734253,-0.30096977949142456,-0.3274441361427307,0.13466843962669373,0.9352242350578308,0.289342999458313,0.10997569561004639,-0.3924083113670349,0.1589288216898056,0.09641486884535025,-0.9789363106645231,0.08443585489557415,-0.13507885242386192,-2.804807679778174,0.21934328730583508
1783166087496827904,3.390965700149536,0.598465085029602,-0.5252559781074524,-0.270530104637146,-0.32433968782424927,0.1381535530090332,0.935797393321991,0.37811174988746643,0.1269984096288681,-0.43622493743896484,0.15663300127782226,0.10240884845284423,-0.978473867596751,0.08698993766920066,-0.13859684471779898,-2.8079573293514537,0.23193789957038996
1783166087506747904,3.400885820388794,0.9950383901596069,-0.7295465469360352,-0.16298241913318634,-0.31854692101478577,0.14485333859920502,0.9367741346359253,0.3596998453140259,0.12692096829414368,-0.5152804851531982,0.15276539104787748,0.10834214576414784,-0.9780843797563179,0.09097129015329929,-0.145364742835762,-2.8138123084682873,0.24472074536678903
1783166087516667392,3.4108052253723145,1.1945958137512207,-0.8530197143554688,-0.022793885320425034,-0.3113161325454712,0.15496279299259186,0.937586784362793,0.2797762155532837,0.03558896481990814,-0.5950117111206055,0.14796743204864038,0.11396012879826783,-0.977653553109931,0.09650021802528053,-0.15558978504090448,-2.8210067257361184,0.25728784465812266
1783166087526587136,3.420725107192993,1.1751607656478882,-0.9418405294418335,-0.12474524974822998,-0.30279430747032166,0.16591480374336243,0.9385030269622803,0.24351391196250916,-0.12198475003242493,-0.5058400630950928,0.1424054076615518,0.11959083995624835,-0.9772151930309738,0.10231910307839542,-0.1666855957974629,-2.8295009208871993,0.26983059908676127
1783166087536506112,3.4306440353393555,1.0077539682388306,-0.9981276988983154,0.00980244018137455,-0.293763667345047,0.17569351196289062,0.9395930171012878,0.1925520896911621,-0.20091629028320312,-0.3759942054748535,0.13661276157882749,0.1250867565609149,-0.9768059260586126,0.10742687366351288,-0.17661020127076238,-2.8385712250079966,0.28176115839275107
1783166087546425344,3.440563201904297,0.8909223079681396,-0.9843372702598572,0.10487376153469086,-0.284504234790802,0.18480931222438812,0.9406927824020386,0.152912437915802,-0.18712864816188812,-0.3168371915817261,0.13123249468652926,0.12592854093147773,-0.976979217774507,0.11149732600871036,-0.1858778239616659,-2.847897754700902,0.2839493358557245
1783166087556345344,3.4504830837249756,0.7266116738319397,-1.1010702848434448,0.11049462854862213,-0.27438852190971375,0.19247613847255707,0.9421593546867371,0.08824652433395386,-0.08621390163898468,-0.25638341903686523,0.12552767243367963,0.1265509602749163,-0.9772740303488265,0.1147310888796527,-0.19368483917331955,-2.8581976386915677,0.28526921357169055
1783166087566264320,3.460402250289917,0.6387854218482971,-0.9964526295661926,0.052244771271944046,-0.26417890191078186,0.1992180347442627,0.9436748623847961,0.054843515157699585,-0.021636217832565308,-0.22222375869750977,0.1198425049651077,0.12711404021948092,-0.9775885967170047,0.1174754748936652,-0.20055990041282443,-2.868633153765036,0.28623995882198355
1783166087576184320,3.4703221321105957,0.4692094027996063,-1.009422779083252,0.0535995215177536,-0.25444862246513367,0.20443302392959595,0.9452318549156189,0.04308384656906128,0.0009350478649139404,-0.18310105800628662,0.11447757246056549,0.12785320008357026,-0.9778903276812906,0.11949482447880186,-0.20588445768078073,-2.878634311700739,0.28733443990202906
1783166087586103296,3.480241060256958,0.21116995811462402,-0.9603168964385986,-0.05023003742098808,-0.2450791597366333,0.20758351683616638,0.947019100189209,0.1282426118850708,-0.07519826292991638,-0.18537676334381104,0.1094255053046897,0.1285988146025158,-0.9782494098535536,0.12048435610144578,-0.20910401981198495,-2.888358229678174,0.2881316107196924
1783166087596023296,3.490161180496216,-0.014898593537509441,-1.0060341358184814,0.050604697316884995,-0.2354864627122879,0.20839427411556244,0.9492725729942322,0.21891538798809052,-0.13243599236011505,-0.15593743324279785,0.1044088000711768,0.12934895466037077,-0.9787262745134161,0.12026069646894372,-0.20993289494429188,-2.898430865185053,0.2885415902588458
1783166087605942272,3.500080108642578,-0.1445082575082779,-1.0976537466049194,0.08702289313077927,-0.22510890662670135,0.20761537551879883,0.951957106590271,0.3312794864177704,-0.11760373413562775,-0.1288214921951294,0.0991643597534893,0.12958022878043937,-0.979381191894579,0.11911340121777743,-0.20913657802424848,-2.909388476526692,0.28756746534743743
1783166087615861248,3.5099990367889404,-0.16380925476551056,-1.2215263843536377,0.08313867449760437,-0.2138439416885376,0.2062183916568756,0.9548531174659729,0.3447796106338501,-0.059566184878349304,-0.17126864194869995,0.09352729983685784,0.1297456646431225,-0.9800982668684645,0.11758408200005245,-0.20770869411415976,-2.921273266506328,0.28628602685564836
1783166087625781248,3.5199191570281982,-0.03819885477423668,-1.3462164402008057,0.154244527220726,-0.20097574591636658,0.20533950626850128,0.9578328728675842,0.29539719223976135,0.04362285137176514,-0.1986016035079956,0.08706547712140006,0.1298625442080999,-0.9808425759553335,0.11620243773422693,-0.20681059478396857,-2.934769615311018,0.28480586117211965
1783166087635700224,3.5298380851745605,0.0908544659614563,-1.425972819328308,0.12339501827955246,-0.18710355460643768,0.2057160586118698,0.9605590105056763,0.2068636417388916,0.06567679345607758,-0.22278106212615967,0.08002764831073061,0.13001593146233162,-0.9815168629034876,0.11539577733185345,-0.2071953654134977,-2.949215436512971,0.28345784997323786
