time,seconds_elapsed,rotationRateX,rotationRateY,rotationRateZ,gravityX,gravityY,gravityZ,accelerationX,accelerationY,accelerationZ,quaternionW,quaternionX,quaternionY,quaternionZ,pitch,roll,yaw
1784201693232827136,0.1817760467529297,-0.05714980512857437,-0.03168438374996185,0.00395597331225872,0.05340106785297394,0.5905824899673462,-0.8052084445953369,0.0035905055701732635,0.011849701404571533,0.02038794755935669,0.9401466382523653,-0.3035250956238578,0.07258298604420554,-0.13685232927332475,-0.6317804772610016,0.06622258216686558,-0.2674483654477405
1784201693242747392,0.1916961669921875,-0.0654309019446373,-0.01138976588845253,-0.005895325914025307,0.05362579971551895,0.5920206904411316,-0.8041366934776306,-0.02793000638484955,-0.012217223644256592,0.0023636221885681152,0.9398788711783592,-0.3043534483037328,0.07280549861970219,-0.13673395561023222,-0.6335638737995396,0.06658882240774687,-0.2670973818545724
1784201693252667136,0.2016160488128662,-0.04384412243962288,0.003994135186076164,0.001174701377749443,0.05324568226933479,0.5932118892669678,-0.8032836318016052,-0.04752365127205849,-0.017390966415405273,-0.014312803745269775,0.9396451538623168,-0.3050688364755324,0.07274058768334957,-0.13678060292310348,-0.635042724944456,0.06618821054253496,-0.26734271362738127
1784201693262587392,0.21153616905212402,0.03499450162053108,0.010681865736842155,0.020087139680981636,0.05210309103131294,0.5934321284294128,-0.8031958937644958,-0.02138715609908104,-0.027498960494995117,-0.045223355293273926,0.9395997328336865,-0.3052658013685153,0.07221397435365814,-0.13693209645046775,-0.6353163295247939,0.06477895529081287,-0.2681260157026766
1784201693272506112,0.22145509719848633,0.03523058816790581,-0.022484190762043,-0.002241401933133602,0.05068245157599449,0.5924006700515747,-0.804047703742981,0.018989194184541702,-0.03679764270782471,-0.03675734996795654,0.9397963631392419,-0.3047511784282831,0.07143444325966558,-0.1371368094659911,-0.6340354188817017,0.06295085066991056,-0.26913907751683386
1784201693282426368,0.23137521743774414,0.06619862467050552,-0.04695810750126839,0.004585078917443752,0.04960952326655388,0.5905844569206238,-0.8054494857788086,0.03287949785590172,-0.02811497449874878,0.0026998519897460938,0.9401548739915541,-0.3037651758724216,0.07072458473211105,-0.13723528809360178,-0.6317828823484831,0.061514635428540035,-0.2697836018541333
1784201693292346112,0.24129509925842285,0.1124185174703598,-0.022918134927749634,-0.012671706266701221,0.04922502115368843,0.5883660912513733,-0.807094931602478,0.01391584798693657,-0.004854738712310791,0.004497885704040527,0.9405884099462493,-0.3025040753168467,0.07031225377425729,-0.13726221710152775,-0.6290366681887514,0.06091491710335284,-0.26999665712373266
1784201693302266368,0.25121521949768066,0.11606518179178238,0.023285314440727234,-0.007870025932788849,0.04928465932607651,0.5862641334533691,-0.8086194396018982,-0.010130602866411209,0.03304433822631836,0.020716607570648193,0.9409780564257967,-0.30127482425320457,0.07016948125028978,-0.1373683085992258,-0.6264395929746335,0.06087383424873543,-0.27019989037118236
1784201693312186368,0.2611351013183594,0.10891865938901901,0.019763929769396782,0.011242448352277279,0.04941833019256592,0.5848416090011597,-0.8096407055854797,0.0035449378192424774,0.028561651706695557,0.03785121440887451,0.9412393212795156,-0.3004375982571003,0.0701205566977416,-0.1374363947684735,-0.6246847591439271,0.060961727007874285,-0.2702927349733303
1784201693322106368,0.2710552215576172,0.07079710811376572,0.013481799513101578,-0.02036368101835251,0.04948895424604416,0.5842348337173462,-0.8100743889808655,0.013453550636768341,0.007439970970153809,0.04126030206680298,0.941343776758454,-0.30007639582324946,0.07012107997616089,-0.13751019964712669,-0.6239369189224615,0.06101603151112213,-0.27042222502443836
1784201693332026368,0.2809751033782959,0.09380374848842621,0.024833902716636658,-0.04586178436875343,0.04957478865981102,0.5839037299156189,-0.8103078007698059,-0.008574426174163818,-0.016002118587493896,0.032613158226013184,0.9413800872251289,-0.29986591690331493,0.07018917146597432,-0.13768585092605803,-0.6235290049585689,0.0611040308826164,-0.27076191345494455
1784201693341946368,0.2908952236175537,0.04984987899661064,0.06613820046186447,-0.07029042392969131,0.049616117030382156,0.5836279988288879,-0.8105039000511169,-0.041239045560359955,-0.02344733476638794,0.009005546569824219,0.9413796634243901,-0.2996769305107314,0.07029776807971554,-0.1380447613711979,-0.6231894348941334,0.06114008521406491,-0.27150842686225046
1784201693351865344,0.300814151763916,-0.043773747980594635,0.10021334141492844,0.005475872661918402,0.049825191497802734,0.5837324261665344,-0.8104158639907837,-0.028020374476909637,-0.024986088275909424,-0.004907011985778809,0.941304323929067,-0.29969586869124376,0.07052979300379042,-0.13839831352819024,-0.623318045539318,0.06140372886444527,-0.2721773709837303
1784201693361785344,0.31073427200317383,-0.1357976794242859,0.038351841270923615,0.02948586642742157,0.05014561489224434,0.5844932794570923,-0.8098475337028503,0.05645229294896126,-0.10541313886642456,-0.009991943836212158,0.9411518766140745,-0.30011172748252946,0.07077568690222912,-0.13840799584425062,-0.6242554065632785,0.06184087138469201,-0.27207113841031016
1784201693371705344,0.32065415382385254,-0.17336903512477875,-0.005788035690784454,-0.009633172303438187,0.0502999983727932,0.5852266550064087,-0.8093081712722778,0.0793691873550415,-0.1687837839126587,0.023907780647277832,0.9410166361290037,-0.30052856553208523,0.0709119819237073,-0.13835408498339233,-0.6251595866072719,0.06207200913979182,-0.27189479960771046
1784201693381625088,0.33057403564453125,-0.15481078624725342,0.026331815868616104,0.04268622398376465,0.050797853618860245,0.5860440731048584,-0.808685302734375,0.05972154811024666,-0.1025540828704834,0.0758056640625,0.9408724219177326,-0.300976585700337,0.07120698164174642,-0.13820928432785595,-0.6261679896994332,0.06273292928488544,-0.2713888872370434
1784201693391545344,0.34049415588378906,0.0895143374800682,0.10936567932367325,0.003303698729723692,0.05189691111445427,0.5857362151145935,-0.8088386058807373,0.031278736889362335,-0.061078011989593506,0.0702216625213623,0.9409303225505405,-0.30072904698168185,0.07171293924121187,-0.13809249103527177,-0.625788080241593,0.06407442895111914,-0.2707069716318662
1784201693401465088,0.3504140377044678,-0.12078537046909332,0.09259069710969925,-0.02726512961089611,0.05292916297912598,0.5852676033973694,-0.8091108202934265,-0.034679658710956573,-0.041383326053619385,0.10218644142150879,0.9409703874938199,-0.3003678604887222,0.0722753718769806,-0.13831174634606344,-0.6252100341138062,0.06532338134348337,-0.2707672871415812
1784201693411385344,0.3603341579437256,-0.27274712920188904,0.023960348218679428,0.029430542141199112,0.05372276157140732,0.5867477655410767,-0.8079857230186462,-0.05901756137609482,-0.06486666202545166,0.18640375137329102,0.9406783972843641,-0.3011710798067142,0.07282251386338942,-0.1382642209478271,-0.6270367083551852,0.06639201923141042,-0.2703449658319453
1784201693421305088,0.3702540397644043,-0.236525759100914,-0.07343251258134842,-0.1029629185795784,0.05349463224411011,0.5885565876960754,-0.8066842555999756,-0.03269690275192261,-0.09713202714920044,0.10819792747497559,0.9403318555261064,-0.3022342898562773,0.0728856355806405,-0.13826812733634297,-0.6292722770734305,0.06621726276720549,-0.27043400031540715
1784201693431224320,0.3801732063293457,-0.1786661297082901,-0.13303276896476746,-0.18290632963180542,0.051736053079366684,0.5905383229255676,-0.805349588394165,0.023703385144472122,0.031104743480682373,-0.04462599754333496,0.9399063131899984,-0.3034716106549706,0.07232010130135619,-0.13874804612887195,-0.63172572216441,0.06415234126083463,-0.27214946231426723
1784201693441144320,0.3900930881500244,0.32640981674194336,-0.024151289835572243,-0.07186421751976013,0.05042185261845589,0.5899587273597717,-0.8058575391769409,0.039666030555963516,0.17522376775741577,-0.2662554979324341,0.9399734609602286,-0.3031946830069809,0.071723179227728,-0.13920745293687253,-0.6310077065106545,0.06248772724586788,-0.27365469798608916
1784201693451064320,0.4000132083892822,1.2111244201660156,0.13393962383270264,-0.06202327460050583,0.05058062821626663,0.583824098110199,-0.8103030323982239,-0.03422321006655693,0.22928625345230103,-0.28845179080963135,0.9410662377173065,-0.29958829305053064,0.07138155647979516,-0.1398067271108207,-0.6234309347713064,0.06234097883536344,-0.2748733596673104
1784201693460984320,0.40993309020996094,2.0050220489501953,0.23399750888347626,-0.06585130840539932,0.05209439992904663,0.5701290965080261,-0.8199017643928528,-0.022980626672506332,0.2221682071685791,-0.25898611545562744,0.9434457904312211,-0.2915236393222013,0.0711553147714658,-0.14092847832200678,-0.6066630133750973,0.06345207156307757,-0.27669397656957123
1784201693470904320,0.41985321044921875,1.9739511013031006,0.22104091942310333,0.03570741042494774,0.05379900708794594,0.5534407496452332,-0.8311492204666138,0.10621993243694305,0.19443827867507935,-0.08913886547088623,0.9462554025260853,-0.281820170499025,0.07073043960286662,-0.14203936059641228,-0.5864896766350929,0.06463828770175449,-0.2784650122745981
1784201693480824320,0.42977309226989746,1.524562954902649,0.2433057427406311,0.06413505971431732,0.05628572031855583,0.5385017395019531,-0.8407424092292786,0.10911954939365387,-0.005191802978515625,0.15846091508865356,0.9486700733685316,-0.27316255313692117,0.07078847050040121,-0.14281622310133338,-0.5686580363249548,0.06684788580730801,-0.279300419290402
1784201693490744320,0.4396932125091553,0.626517117023468,0.2755722403526306,0.025501446798443794,0.05939875915646553,0.5296245813369751,-0.8461498618125916,-0.021297551691532135,-0.1948772668838501,0.23772090673446655,0.9500464486099347,-0.2679447443126793,0.07162882421956537,-0.14313148869809963,-0.5581579201433642,0.0700838950104443,-0.27897493402261514
1784201693500664320,0.449613094329834,-0.9223152995109558,0.11521131545305252,-0.05303890258073807,0.06152460724115372,0.5309488773345947,-0.8451674580574036,-0.18336603045463562,-0.3143351674079895,0.1965773105621338,0.9497389381347429,-0.26850504489581845,0.07294741941356352,-0.14345615283559746,-0.5597199517026731,0.07266758316944359,-0.2789361321797382
1784201693510584320,0.4595332145690918,-1.5682400465011597,0.2837134301662445,0.12491042912006378,0.06351909041404724,0.541397213935852,-0.8383641242980957,-0.19132672250270844,-0.39312756061553955,0.0885930061340332,0.9480142131419339,-0.2742484067156554,0.07487149916959354,-0.14300793877085166,-0.5720980528952254,0.07562103859782066,-0.2771913542212173
1784201693520503296,0.4694521427154541,-1.670232892036438,0.24607445299625397,0.04329758509993553,0.0662175863981247,0.5547246336936951,-0.8293948173522949,-0.1223088949918747,-0.34975337982177734,0.018481731414794922,0.9457376054184555,-0.28162020347030053,0.0774121628210496,-0.14240029268311258,-0.588032009264488,0.07966944906760631,-0.2747610922462876
1784201693530423296,0.4793722629547119,-1.3792312145233154,0.1037919893860817,0.085051991045475,0.0677947849035263,0.5668551921844482,-0.8210232257843018,0.05767822265625,-0.016821622848510742,-0.023092985153198242,0.9436109934026574,-0.28845143026239134,0.07927276998224768,-0.1418098923431202,-0.6026834774872926,0.08238661889215883,-0.2727165377175481
1784201693540343296,0.4892921447753906,-0.9516103267669678,0.0012608193792402744,0.117069311439991,0.06869056820869446,0.5759115219116211,-0.814621090888977,0.07983848452568054,0.2590494155883789,-0.08442676067352295,0.942042462605842,-0.2936432464876179,0.08039340465696303,-0.14094898447287266,-0.6137187421249312,0.08412310628516143,-0.27036775645498734
1784201693550263296,0.49921226501464844,-0.6663248538970947,-0.09608118236064911,0.0793398767709732,0.0688500851392746,0.5818018913269043,-0.8104111552238464,0.017362050712108612,0.2617650032043457,-0.12257224321365356,0.9410490484532396,-0.29709111051350456,0.08081636705189776,-0.14011567923430457,-0.6209423908563878,0.08475346205135137,-0.2684069294726833
1784201693560183296,0.5091321468353271,-0.6002403497695923,-0.13878735899925232,-0.022638952359557152,0.067857526242733,0.5865322947502136,-0.8070781826972961,-0.010469220578670502,0.2296144962310791,0.06270873546600342,0.940236321020295,-0.299934166079611,0.0806250718624061,-0.1396234995515881,-0.6267706700721982,0.08388072488738428,-0.26764491652670824
1784201693570103296,0.519052267074585,-0.5629556179046631,-0.13509637117385864,0.016296861693263054,0.06657883524894714,0.5910987854003906,-0.8038466572761536,-0.0011338889598846436,0.1798362135887146,0.05117642879486084,0.9394343910376056,-0.30270227953931844,0.08029945411745072,-0.139234661140813,-0.6324204220015871,0.08263667926695513,-0.2672284699038573
1784201693580023296,0.5289721488952637,-0.47054043412208557,-0.1986391246318817,-0.09574898332357407,0.06477674096822739,0.595224916934967,-0.8009440302848816,0.009274162352085114,-0.02556854486465454,-0.051045775413513184,0.9387103774598243,-0.30525431343938686,0.07967310431179091,-0.13890581267520088,-0.6375454972696403,0.08069985257017702,-0.2671720513225014
1784201693589943296,0.5388922691345215,-0.12378402799367905,-0.08467821031808853,-0.12250719219446182,0.06279570609331131,0.5977758765220642,-0.7991999983787537,-0.0982571393251419,-0.010571956634521484,0.06708335876464844,0.9382187072767303,-0.3068643619758181,0.0789572980793692,-0.139088689923262,-0.6407238779803885,0.07841210094078785,-0.26832306815131574
1784201693599862272,0.5488111972808838,0.3775842785835266,-0.035964466631412506,-0.24165727198123932,0.061025239527225494,0.5970621109008789,-0.7998704314231873,-0.09648667275905609,0.3037099242210388,-0.05765819549560547,0.9382705709992123,-0.3065031154927872,0.07823437151407203,-0.1399411166040005,-0.639833790259033,0.07614639102707768,-0.2708750951190959
1784201693609780992,0.558729887008667,0.9747944474220276,-0.022198054939508438,-0.31828853487968445,0.0584435909986496,0.5923171043395996,-0.8035824298858643,-0.025255724787712097,0.4105362296104431,-0.04093044996261597,0.9390171326481183,-0.30379700769807805,0.07691652069970968,-0.1415554948656623,-0.6339316807791674,0.07260097586450717,-0.2754195990196901
1784201693619701248,0.5686500072479248,1.6389905214309692,0.044433701783418655,-0.4428911805152893,0.05558289587497711,0.5831197500228882,-0.8104825019836426,-0.048960573971271515,0.4385477304458618,-0.05522489547729492,0.9404932115124297,-0.29849535521602916,0.07522817069157044,-0.14392229316759575,-0.6225636300361231,0.06847279478762092,-0.2816627123339525
1784201693629620992,0.5785698890686035,2.054422378540039,0.2514357268810272,-0.4911925494670868,0.05377428978681564,0.5685703158378601,-0.8208752274513245,-0.11900560557842255,0.3693416118621826,-0.16476625204086304,0.9427579714725156,-0.2900324258296101,0.07378069887738438,-0.14712216040353804,-0.604766874390744,0.06541501756018935,-0.2892001060405224
1784201693639541248,0.5884900093078613,2.02005934715271,0.3632799983024597,-0.40590909123420715,0.05373787507414818,0.5521906018257141,-0.8319842219352722,-0.09713385254144669,0.1272069811820984,-0.015076935291290283,0.9451766280654696,-0.28047907631908253,0.07307109481060069,-0.15044314430545047,-0.5849894968763857,0.06450042042257853,-0.2962611819609516
1784201693649460992,0.59840989112854,1.6716294288635254,0.2864186763763428,-0.29872825741767883,0.054267141968011856,0.5374017357826233,-0.8415785431861877,-0.028708655387163162,-0.2162042260169983,0.07049089670181274,0.9472515294454233,-0.2719053273230916,0.07265138171514803,-0.15330910249686433,-0.5673530730835745,0.0643934128249271,-0.3021306180046724
1784201693659381248,0.6083300113677979,1.3569910526275635,0.25330865383148193,-0.016468340530991554,0.05526876449584961,0.5252633690834045,-0.8491429686546326,-0.020783912390470505,-0.35979706048965454,0.08461660146713257,0.9489998618375769,-0.26494317686336677,0.07234379000646893,-0.15482513771365694,-0.553024566074982,0.06499602296076412,-0.30499098817361503
1784201693669300992,0.6182498931884766,1.1847466230392456,0.18063530325889587,0.1564771980047226,0.057035502046346664,0.5150818824768066,-0.8552412390708923,-0.009260237216949463,-0.22310495376586914,0.07698202133178711,0.950512633712388,-0.2591193958552388,0.0723637161882993,-0.1553912080492832,-0.5411031842986116,0.0665907666410147,-0.30562059788084633
1784201693679221248,0.6281700134277344,1.0475636720657349,-0.05428027734160423,-0.0031880890019237995,0.05736673250794411,0.505980908870697,-0.8606348633766174,0.1553255170583725,-0.010970532894134521,0.010094702243804932,0.9519366436047715,-0.25407979958365845,0.0715962206139165,-0.15535158341393984,-0.5305188211752514,0.06655783976899042,-0.3054511383727151
1784201693689139968,0.6380889415740967,1.2893487215042114,-0.031598594039678574,-0.04322278872132301,0.05636562779545784,0.4964108467102051,-0.8662558197975159,0.03772005811333656,0.019748210906982422,-0.026306986808776855,0.9532980846273256,-0.24885753106261752,0.07029939988073731,-0.15604699313372206,-0.5194592999447767,0.06497650924969753,-0.30723347176012034
1784201693699059968,0.6480088233947754,1.2547926902770996,-0.10056940466165543,-0.09856780618429184,0.05494904890656471,0.4856836795806885,-0.8724058270454407,0.07253812253475189,0.013950079679489136,-0.037521541118621826,0.9547881709913993,-0.24306144651174885,0.0686892296849153,-0.15678808811874487,-0.5071451358747461,0.06290255530122582,-0.3092133980676228
1784201693708979968,0.6579289436340332,1.2600111961364746,-0.09012817591428757,-0.06323377788066864,0.05355563387274742,0.4750296175479889,-0.8783385753631592,0.057207901030778885,0.0928415060043335,0.02732539176940918,0.9562368274355177,-0.2373427702840124,0.06707539122443824,-0.15741849642773678,-0.4949976800769604,0.06089839643377923,-0.3109268518071085
1784201693718899968,0.6678488254547119,1.2602431774139404,-0.0045863790437579155,-0.11941422522068024,0.05244290456175804,0.46433478593826294,-0.8841057419776917,-0.007673617452383041,-0.04183414578437805,-0.0009650588035583496,0.9576173511079614,-0.2316002862638764,0.06563866501232532,-0.15818319221042162,-0.4828833535709453,0.05924803198434138,-0.3128181915689308
1784201693728819968,0.6777689456939697,1.2062164545059204,0.019245032221078873,-0.12210212647914886,0.05173923820257187,0.45389389991760254,-0.8895523548126221,-8.824095129966736e-05,-0.07971787452697754,0.02291417121887207,0.9588775223804101,-0.2259763283929426,0.06448661434374146,-0.15915448272253455,-0.4711304972570502,0.05809777557769504,-0.3150125929270348
1784201693738739968,0.6876888275146484,1.2176628112792969,0.06901658326387405,-0.1513359099626541,0.051314834505319595,0.44345641136169434,-0.89482581615448,0.0324559211730957,-0.035588979721069336,0.00012671947479248047,0.9600659190474943,-0.22034911007484906,0.06350884546944129,-0.1602695851489943,-0.4594513426525146,0.05728343481793484,-0.31742206220708424
1784201693748659968,0.6976089477539062,1.0987374782562256,0.07749414443969727,-0.204647034406662,0.05107272416353226,0.43321824073791504,-0.8998408317565918,0.013807650655508041,0.02079179883003235,-0.002762317657470703,0.9611578685921164,-0.21482889251549248,0.06267477039988414,-0.1615424560134779,-0.44806042633911225,0.05669667897189979,-0.3201069575070328
1784201693758579968,0.707528829574585,0.7986812591552734,0.1275799572467804,-0.24475184082984924,0.05087929219007492,0.42506274580955505,-0.9037327766418457,-0.005606461316347122,-0.060759156942367554,0.0489048957824707,0.9619175091810105,-0.21041821174734363,0.062111013054944215,-0.16303734035544817,-0.4390312122708263,0.05623967345698279,-0.32324200656359436
1784201693768499200,0.7174479961395264,0.5460809469223022,0.18089348077774048,-0.25001344084739685,0.0510830394923687,0.4192195534706116,-0.906446635723114,0.0070376917719841,-0.22734028100967407,0.058393657207489014,0.9623526331306994,-0.20720620562790326,0.061986048504922266,-0.16462304904178174,-0.4325855026144607,0.056295717351283955,-0.3264735185529378
1784201693778418944,0.7273678779602051,0.4008750021457672,0.2176770567893982,-0.23055852949619293,0.05175395309925079,0.4151715040206909,-0.9082698822021484,0.04542926698923111,-0.12818419933319092,0.06126976013183594,0.9625720806235534,-0.20491652851926342,0.06224371247813305,-0.16610218442255306,-0.4281313004213962,0.05691926179535002,-0.3293786650048065
1784201693788339200,0.7372879981994629,0.4325212240219116,0.32470738887786865,-0.22881129384040833,0.05312677100300789,0.4115040600299835,-0.909858226776123,0.011158507317304611,-0.01649978756904602,0.018439769744873047,0.9627226255046598,-0.20276872894623107,0.06289467789026597,-0.16761333730747788,-0.4241037084552032,0.05832394333216241,-0.33219139015581695
1784201693798258944,0.7472078800201416,0.3847249448299408,0.3393007218837738,-0.23789401352405548,0.055286020040512085,0.4076783061027527,-0.9114503860473633,-0.018787004053592682,0.013754189014434814,0.006665229797363281,0.962860785919585,-0.20046754222888258,0.06393400529277735,-0.16918717030104474,-0.4199100262867551,0.06058296163702624,-0.3349610898310177
1784201693808179200,0.7571280002593994,0.331414133310318,0.33403483033180237,-0.315662682056427,0.05711429566144943,0.40450960397720337,-0.9127485752105713,0.026854820549488068,0.004593789577484131,-0.005006551742553711,0.9628870016003481,-0.1985276795724365,0.06490363054278611,-0.1709470198128459,-0.41644254694069466,0.062492484367600395,-0.3382025637949992
1784201693818098944,0.7670478820800781,-0.06886884570121765,0.3867558538913727,-0.4111652374267578,0.05888667330145836,0.4033403694629669,-0.9131532907485962,-0.026065010577440262,-0.13359549641609192,0.01999533176422119,0.9626102555725967,-0.19761471485936866,0.0661194917719525,-0.17308409155288682,-0.41516439631329527,0.06439800527981807,-0.34224428692468
1784201693828019200,0.7769680023193359,-0.4609045088291168,0.5022593140602112,-0.5528762936592102,0.060998059809207916,0.4058295488357544,-0.9119109511375427,-0.07209119200706482,-0.2827064096927643,0.08888238668441772,0.9618126106334061,-0.19855234221684506,0.06798152695612988,-0.17570409670788492,-0.4178863123427791,0.06679087234081195,-0.3472083230287131
1784201693837938944,0.7868878841400146,-0.8449634909629822,0.6112287044525146,-0.7317909002304077,0.06338506937026978,0.41208192706108093,-0.9089394211769104,-0.11903387308120728,-0.33458250761032104,0.0768929123878479,0.9604069206801101,-0.2013746497400454,0.07055883601748429,-0.17913207015288957,-0.42473782417769795,0.06962249025445887,-0.353778254248183
1784201693847859200,0.7968080043792725,-1.0635087490081787,0.6804822087287903,-0.8386690616607666,0.06593482941389084,0.4211982190608978,-0.9045687913894653,-0.08355873823165894,-0.21172556281089783,0.04910004138946533,0.958507820900621,-0.20563457141467997,0.07368875970279613,-0.18315907761435396,-0.43476604208650926,0.07276221340738724,-0.36154519697092413
1784201693857778176,0.8067269325256348,-0.8689096570014954,0.7002071738243103,-0.8823904395103455,0.06836812198162079,0.43053677678108215,-0.8999799489974976,-0.03231160342693329,-0.09273770451545715,-0.02305471897125244,0.9564447998209304,-0.20997959029117738,0.07693242007047278,-0.18762563000268515,-0.4450873946185827,0.07582064398332258,-0.37025467400752904
1784201693867697920,0.8166468143463135,-0.4571632742881775,0.6987010836601257,-0.9178885817527771,0.07069689780473709,0.43701109290122986,-0.8966734409332275,-0.003390379250049591,0.11970579624176025,-0.08399367332458496,0.9546344853939438,-0.21278584466180586,0.079909124209768,-0.1923791270403018,-0.45227297862019283,0.07868076777860422,-0.3796046652503551
1784201693877618176,0.8265669345855713,0.24014738202095032,0.7517144680023193,-0.8718225359916687,0.07309193164110184,0.438579797744751,-0.8957149982452393,-0.003786511719226837,0.342853307723999,-0.11192965507507324,0.9533631517384642,-0.21295366120748557,0.08242115964016478,-0.19737313075371438,-0.4540177576001527,0.08142136951947629,-0.3894711696316095
1784201693887537920,0.83648681640625,0.40027493238449097,0.705122172832489,-0.7873633503913879,0.07607579231262207,0.4354287087917328,-0.8970029354095459,0.02222132682800293,0.3547629117965698,-0.11384600400924683,0.9526862564257097,-0.21056552033066558,0.08462082014392978,-0.20221352230771658,-0.4505144402826052,0.08460861122330962,-0.39890541576774174
1784201693897458176,0.8464069366455078,-0.2367856800556183,0.40533706545829773,-0.8497889041900635,0.0774495080113411,0.4350309371948242,-0.8970783948898315,0.1277812123298645,0.09078693389892578,0.09120070934295654,0.9517455083037555,-0.20981258418908771,0.08625241604890822,-0.20668728959798002,-0.45007262214475807,0.08612172122808656,-0.4079661137850145
1784201693907377920,0.8563268184661865,-1.1933155059814453,0.0030041630379855633,-1.105342984199524,0.07499966770410538,0.44175881147384644,-0.8939933776855469,0.20614351332187653,-0.5720384120941162,0.17010122537612915,0.9499500196684539,-0.21320632035006595,0.08686984937986847,-0.21116720131328073,-0.4575582197376946,0.08369687855527477,-0.4179725936014849
1784201693917298176,0.8662469387054443,-2.848682165145874,-0.3992958962917328,-1.7179157733917236,0.06714201718568802,0.46021032333374023,-0.885267436504364,0.15638399124145508,-1.0051474571228027,0.2854596972465515,0.9464306964591076,-0.22331911734593513,0.08657287777012086,-0.2165699896125428,-0.47823207027239045,0.07569884704551048,-0.43144806649146566
1784201693927217920,0.876166820526123,-3.8512134552001953,-0.3687792420387268,-2.8570573329925537,0.052638158202171326,0.4913440942764282,-0.8693734407424927,-0.09098348766565323,-0.9655567407608032,0.3803902864456177,0.9402263667165979,-0.24079024907763194,0.08563488291286397,-0.22508011344497839,-0.5136323126313924,0.0604734071659581,-0.4540491145245874
1784201693937138176,0.8860869407653809,-3.7895195484161377,0.13760271668434143,-2.8755197525024414,0.03572894260287285,0.5262433290481567,-0.8495830297470093,-0.44982194900512695,-0.363172709941864,0.16444820165634155,0.9319272582704519,-0.2605683051356853,0.08551393111089134,-0.23728247395823227,-0.5541766153221656,0.04202991274532643,-0.48667934087131953
1784201693947057920,0.8960068225860596,-3.1231014728546143,0.7868790626525879,-2.3271331787109375,0.026307031512260437,0.5557531118392944,-0.8309310674667358,-0.28552332520484924,0.17698919773101807,-0.07476961612701416,0.9240768173801517,-0.2769258311461851,0.08858080755839812,-0.2480879268194867,-0.5892686181096578,0.03164913214214913,-0.5149674031929901
1784201693956977152,0.905925989151001,-2.051758050918579,1.0038093328475952,-2.496121883392334,0.019994445145130157,0.577653169631958,-0.8160374164581299,-0.18686455488204956,0.5537707805633545,-0.12613177299499512,0.9169414430285563,-0.28880985669920234,0.09257516938627444,-0.2593013530844177,-0.6158507542580066,0.024496972323386563,-0.543395594732314
1784201693966896896,0.9158458709716797,-0.9359821081161499,1.1375490427017212,-2.1367948055267334,0.015023939311504364,0.5898296236991882,-0.8073880076408386,-0.014947662129998207,0.5688770413398743,-0.22630345821380615,0.9112633661313646,-0.29513455523326204,0.09592498692610894,-0.27072721657984367,-0.6308478422221065,0.018605932063528553,-0.5714983305508022
1784201693976817152,0.9257659912109375,0.4276123046875,1.373441457748413,-2.0892701148986816,0.012842471711337566,0.5925837159156799,-0.8054065108299255,0.05138176679611206,0.5719975829124451,-0.29408079385757446,0.9073438712367445,-0.29581021994267465,0.09895988187331617,-0.2818340976518218,-0.6342626310157292,0.015943977828505027,-0.597099284634366
1784201693986736896,0.9356858730316162,1.825010895729065,1.5090099573135376,-2.0325582027435303,0.012188750319182873,0.5833184719085693,-0.812152087688446,-0.033245883882045746,0.5602972507476807,-0.37803345918655396,0.9053869562238492,-0.2894609277438888,0.10067934456711787,-0.2938544789300437,-0.6228082607036963,0.015006838926613475,-0.6228414770116976
1784201693996657152,0.945605993270874,2.3098061084747314,1.722904086112976,-1.8648549318313599,0.013862978667020798,0.5663575530052185,-0.8240430355072021,-0.0661243349313736,0.5791502594947815,-0.19797539710998535,0.9046700315524648,-0.27857105552528055,0.10186580316297245,-0.305930742407064,-0.6020794951903977,0.016821537973659505,-0.6469685976771277
1784201694006576896,0.9555258750915527,2.9043776988983154,1.952083945274353,-1.8029669523239136,0.01881244406104088,0.5448826551437378,-0.8383012413978577,-0.12473894655704498,0.3261042833328247,-0.12895339727401733,0.9044429951622845,-0.2648274788939473,0.10351708318932389,-0.318014878434789,-0.5762491720564963,0.022437384763697724,-0.669573955218367
1784201694016497152,0.9654459953308105,2.7660627365112305,2.236210584640503,-1.4204518795013428,0.02788727916777134,0.5208031535148621,-0.8532211780548096,-0.12114899605512619,0.04052191972732544,-0.08499598503112793,0.9044436090431934,-0.24921326745618097,0.10621753100608565,-0.32953353033601096,-0.547791517187439,0.03267306929329953,-0.6896208589031226
1784201694026416896,0.9753658771514893,1.9008471965789795,2.3910577297210693,-1.140099048614502,0.04109366983175278,0.501152753829956,-0.8643825650215149,-0.09181387722492218,-0.11635661125183105,0.10216027498245239,0.9039488684907641,-0.235507913331408,0.11110688747435825,-0.3392162497092505,-0.5249303653454763,0.04750529733648419,-0.7052327755689143
1784201694036337152,0.9852859973907471,0.7086739540100098,2.4439480304718018,-1.0634583234786987,0.05647456645965576,0.49038535356521606,-0.8696739673614502,-0.12709224224090576,-0.29023581743240356,0.1981651782989502,0.9021685666532999,-0.22612033636778667,0.11845929756183149,-0.3477483372858244,-0.5125318832739806,0.0648465823810278,-0.7188187068541487
1784201694046256128,0.9952049255371094,-0.3120418190956116,2.5089762210845947,-0.7137201428413391,0.07327032834291458,0.4892742335796356,-0.869046688079834,-0.06681586056947708,-0.415879487991333,0.17754888534545898,0.8993272734326293,-0.22152297788864805,0.12807895984045234,-0.35458956376097234,-0.5112573848507663,0.08411223131680386,-0.7291421357094158
1784201694056175872,1.005124807357788,-0.8481404185295105,2.5816643238067627,-0.8205584287643433,0.09124736487865448,0.4948628544807434,-0.8641670346260071,-0.008086957037448883,-0.3717396855354309,0.10691910982131958,0.8956987647022815,-0.22013735523003547,0.13948488120077207,-0.3602875786076884,-0.517676999367573,0.10520014907886024,-0.7369964175958661
1784201694066096128,1.015044927597046,-0.7933986783027649,2.645354747772217,-1.1933484077453613,0.10830436646938324,0.5028632283210754,-0.8575539588928223,-0.030667640268802643,-0.12195807695388794,0.011225223541259766,0.8911031278112794,-0.21983313058512233,0.1513156620486136,-0.3670314685021955,-0.5269080814366581,0.12562939970621975,-0.7474920998366041
1784201694076015872,1.0249648094177246,-0.38289475440979004,2.7604992389678955,-1.4118874073028564,0.12449993938207626,0.5093831419944763,-0.851486086845398,-0.00761760026216507,0.18580728769302368,-0.04466259479522705,0.8859264348379964,-0.21849834588777464,0.16283557604172422,-0.3753363518331903,-0.5344678128037036,0.14518608050299167,-0.7616651928339397
1784201694085936128,1.0348849296569824,0.3262453079223633,2.831724166870117,-1.5213195085525513,0.1403989940881729,0.511206865310669,-0.8479125499725342,0.01667499542236328,0.32666850090026855,-0.10800480842590332,0.880858399339666,-0.2144474656872235,0.17336673121186927,-0.3847657722654072,-0.5365884288534585,0.1640930742278414,-0.7784517822628483
1784201694095855872,1.0448048114776611,0.48157793283462524,2.7785909175872803,-1.7894500494003296,0.15544971823692322,0.5096359252929688,-0.8462308645248413,-0.013283580541610718,0.26694488525390625,-0.02072775363922119,0.8756740955686406,-0.2084334118890084,0.18286632226364385,-0.39536099563838534,-0.5347615586943568,0.18167119620194264,-0.7982961099537336
1784201694105776128,1.054724931716919,0.4554041028022766,2.6366264820098877,-1.9896992444992065,0.1683187186717987,0.5085324048995972,-0.8444309234619141,-0.034743279218673706,0.06728851795196533,0.11289405822753906,0.8698877765748301,-0.2027123827305539,0.1915521257270037,-0.4068300812876917,-0.5334794644964598,0.19674930389386525,-0.8209966795499846
1784201694115695872,1.0646448135375977,0.19436798989772797,2.4341681003570557,-2.1419177055358887,0.1788332611322403,0.5091728568077087,-0.8418798446655273,0.01910373568534851,-0.17424243688583374,0.17368221282958984,0.8635514832199376,-0.19807960862039056,0.19956086581370547,-0.4185915463791936,-0.5342234712718248,0.20931014870340614,-0.8452464509964728
1784201694125616128,1.0745649337768555,-0.18777865171432495,2.266066312789917,-2.3142454624176025,0.18689018487930298,0.5129738450050354,-0.837812602519989,0.08671514689922333,-0.2914925217628479,0.15156376361846924,0.8565342417214425,-0.19530806400512615,0.20724012591955793,-0.43041321339254296,-0.5386456306222959,0.21947592463669888,-0.8704928553915489
1784201694135535104,1.0844838619232178,-0.5196596384048462,2.2122740745544434,-2.4816579818725586,0.19294726848602295,0.520462691783905,-0.8317992091178894,0.12150585651397705,-0.28308171033859253,0.1319701075553894,0.8486708070230254,-0.19453810597611537,0.21507047993203313,-0.44233185194296737,-0.5473927029486448,0.2279326798525525,-0.896688801896988
1784201694145455104,1.0944039821624756,-0.4568362236022949,2.263683557510376,-2.5888919830322266,0.1981464922428131,0.5293806791305542,-0.824920654296875,0.1127208024263382,-0.2272719144821167,-0.1063385009765625,0.8401117286504751,-0.19434214308511263,0.22309372353714416,-0.4546126901792571,-0.5578704270024526,0.2357347211857538,-0.9242178764769091
1784201694155375104,1.1043238639831543,-0.5144656896591187,2.314235210418701,-2.7261924743652344,0.20272839069366455,0.5384901762008667,-0.817881166934967,0.033004626631736755,-0.14049512147903442,-0.09822601079940796,0.8310382736700714,-0.19406242544935834,0.23108265017361948,-0.4672430977798589,-0.5686442580471851,0.24297317435134153,-0.9530567236349964
1784201694165295104,1.114243984222412,-0.3779323995113373,2.441080093383789,-2.7927191257476807,0.2069525122642517,0.5477824807167053,-0.8106201887130737,-0.08228820562362671,-0.08820295333862305,-0.08914482593536377,0.8213010392942688,-0.19356696573300988,0.23921064317216378,-0.4803903156571674,-0.57971133087808,0.24996200181919084,-0.9835977407688244
1784201694175215104,1.1241638660430908,0.06861923635005951,2.6284022331237793,-2.58125638961792,0.21244676411151886,0.5544937252998352,-0.8046136498451233,-0.08679063618183136,-0.0724533200263977,-0.2179540991783142,0.8116589407181999,-0.19130011720147547,0.247178979604896,-0.49347408559590256,-0.5877544979895928,0.25814452781506936,-1.0140148276401102
1784201694185135104,1.1340839862823486,0.8966371417045593,3.0401833057403564,-2.911844253540039,0.22000224888324738,0.5567849278450012,-0.8009929060935974,-0.07904157042503357,-0.03455287218093872,-0.1828022599220276,0.8018421473329194,-0.18590005099029994,0.2548425361042266,-0.5074897012717406,-0.5905102250056337,0.2680518742733615,-1.0465547353689382
1784201694195055104,1.1440038681030273,2.4853625297546387,3.319761037826538,-3.212494373321533,0.22858653962612152,0.550046443939209,-0.8032416105270386,0.025441765785217285,0.046877384185791016,-0.4153710603713989,0.7913372889421489,-0.17485840817333326,0.26039148247462174,-0.5247915606212787,-0.5824198713499578,0.2772507163874351,-1.0875683123332498
1784201694204975104,1.1539239883422852,4.428006649017334,3.478080987930298,-2.8961126804351807,0.23918476700782776,0.529409646987915,-0.8139508962631226,0.31483131647109985,0.28048110008239746,-0.7259966135025024,0.7816966945940229,-0.15641188630534358,0.2618393858987039,-0.5439906115643772,-0.5579045406537401,0.28581107226905855,-1.1335742852680315
1784201694214895104,1.1638438701629639,7.8261189460754395,4.470505237579346,-3.202204465866089,0.2555570602416992,0.4874199330806732,-0.8349325656890869,0.5058107376098633,0.3057929575443268,-0.8696420192718506,0.7727439507147248,-0.1264409579341056,0.2579658743132706,-0.5659798363781293,-0.5091324770664486,0.2970263934242771,-1.1864970137493362
1784201694224815104,1.1737639904022217,11.831913948059082,3.3746211528778076,-2.9550325870513916,0.27558645606040955,0.41244426369667053,-0.8682982325553894,0.7779566049575806,0.14459308981895447,-0.6502564549446106,0.7637131261917767,-0.08121960243582543,0.2434219584474802,-0.5923609150722504,-0.4251355410234798,0.3073307372238589,-1.2525777416969348
1784201694234734080,1.183682918548584,15.283844947814941,1.9931966066360474,-2.172075033187866,0.28934648633003235,0.29949599504470825,-0.9091649055480957,1.3902037143707275,0.31929367780685425,-1.1772608757019043,0.7566162544909265,-0.02500718713950303,0.2116416840089103,-0.6181540325072458,-0.3041643721403276,0.30811945500278065,-1.3224478730273976
1784201694244653824,1.1936028003692627,16.943050384521484,1.1720329523086548,-1.513842225074768,0.2999837100505829,0.154743954539299,-0.9413097500801086,1.8119242191314697,0.3786575198173523,-1.4862110614776611,0.7487604814982055,0.039262209418891095,0.16674409096481177,-0.6403223708267075,-0.15536828803412125,0.30851196028141253,-1.3907774250905696
1784201694254574080,1.2035229206085205,14.948782920837402,-0.14226660132408142,-1.360425591468811,0.30391925573349,0.006868175230920315,-0.9526730179786682,1.9074606895446777,0.4140607714653015,-0.503015398979187,0.7383216622932575,0.09960922145527833,0.11722408713822527,-0.6566716406622399,-0.006868229321735585,0.3088113563095168,-1.4527992038093624
1784201694264493824,1.2134428024291992,11.43927001953125,-1.2391568422317505,-1.2492064237594604,0.297727108001709,-0.1135922372341156,-0.9478688836097717,1.8822503089904785,0.2136898934841156,-0.17855018377304077,0.7261578029180216,0.14449530177797257,0.07201860396300269,-0.6683033090130022,0.11383795230945995,0.30434330598130777,-1.5053426640988217
1784201694274414080,1.223362922668457,9.16518783569336,-2.1677281856536865,-0.2121669352054596,0.2836107015609741,-0.20696303248405457,-0.9363393187522888,1.8668714761734009,-0.49642133712768555,-0.3132486939430237,0.7159202581147726,0.17538602697802194,0.03271233524966175,-0.6750020386298836,0.208469759089364,0.2941088854191708,-1.5429662763645648
1784201694284333824,1.2332828044891357,6.57566499710083,-3.046940565109253,0.6521968245506287,0.2580881714820862,-0.2810491621494293,-0.9243386387825012,1.662276268005371,-1.022722840309143,-0.41109538078308105,0.7096935429412538,0.19446571995463977,-0.003712019180532518,-0.6771295482490347,0.2848871662597113,0.2722795941501702,-1.5631299312179199
1784201694294254080,1.2432029247283936,4.964541912078857,-2.6002020835876465,1.0974054336547852,0.22936049103736877,-0.3353586196899414,-0.9137441515922546,1.2532902956008911,-1.1002187728881836,-0.34570103883743286,0.7066455404739272,0.20489693514858068,-0.03384036019265296,-0.6764053587371589,0.3419858608457536,0.24593064264173356,-1.5697496403593252
1784201694304173824,1.2531228065490723,3.9987285137176514,-2.11196231842041,1.4828777313232422,0.20326866209506989,-0.3776412904262543,-0.9033653140068054,0.7319425344467163,-1.3846267461776733,-0.08648759126663208,0.7057790080900623,0.2119541249796927,-0.058247593029128845,-0.6734677003646676,0.3872476331459226,0.2213265141296646,-1.56752032960121
1784201694314094080,1.26304292678833,3.4475760459899902,-1.3034439086914062,2.5491902828216553,0.1807996779680252,-0.41509899497032166,-0.8916301131248474,0.3331926465034485,-1.6278239488601685,-0.2971820831298828,0.7078060717134682,0.2190673377186678,-0.07870471433886247,-0.6669525091469753,0.4280516148552168,0.20006172127992392,-1.5550031015560704
1784201694324013824,1.2729628086090088,3.1265499591827393,-0.910131573677063,3.237185001373291,0.1574949473142624,-0.44845423102378845,-0.8798205256462097,0.5659548044204712,-1.9439102411270142,-0.21917849779129028,0.7134817632349121,0.22520379975211902,-0.09681415879250609,-0.6563948264762978,0.46503516699939584,0.1771319379568292,-1.5295473110123567
1784201694333933056,1.2828819751739502,1.7072070837020874,-0.8100060224533081,3.6037726402282715,0.1347024142742157,-0.4756138324737549,-0.8692794442176819,0.9016897678375244,-1.9541499614715576,-0.06828159093856812,0.7211785659366321,0.22989098532829375,-0.11184998367430304,-0.6438487376958708,0.49566172422934834,0.15373597898236704,-1.496587878264009
1784201694343853056,1.292801856994629,0.1440509408712387,-0.6836839914321899,4.267740249633789,0.10975435376167297,-0.48791056871414185,-0.8659660816192627,1.380892038345337,-1.695774793624878,0.4819939136505127,0.7321515538663617,0.2284998311659565,-0.12167489504206536,-0.6300295315401779,0.5096944615997893,0.1260699178613358,-1.45402065833413
1784201694353773056,1.3027219772338867,-1.4563038349151611,-1.1001414060592651,5.066006660461426,0.07938548177480698,-0.48659229278564453,-0.8700149059295654,1.7355101108551025,-1.687647819519043,0.8337600231170654,0.7468581804444195,0.22041104959612734,-0.12810747121679653,-0.6141745349976043,0.5081848530754248,0.09099414246944663,-1.40008252287013
1784201694363693056,1.3126418590545654,-1.9741756916046143,-1.7549190521240234,5.353119850158691,0.04216038063168526,-0.4742959141731262,-0.8793553709983826,1.8959804773330688,-1.7101218700408936,0.6969518065452576,0.763529460742669,0.2060913639325072,-0.13359885230043475,-0.5972440968575935,0.49416408653748534,0.047907958526276,-1.33969009137539
1784201694373613056,1.3225619792938232,-1.8897532224655151,-2.5376126766204834,5.605570316314697,-0.0018863260047510266,-0.45819491147994995,-0.8888497352600098,1.840372085571289,-1.6183431148529053,0.012629091739654541,0.7799548158430993,0.1886215487940949,-0.14141089532515574,-0.5797372913677279,0.4759633214057417,-0.0021222070990490247,-1.2778786100275121
1784201694383533056,1.332481861114502,-1.3115942478179932,-3.114567279815674,6.172744274139404,-0.05324770510196686,-0.4422301650047302,-0.8953195810317993,1.8027899265289307,-1.2852783203125,-0.4367421865463257,0.7958842961791092,0.16995312039743485,-0.1531539819578881,-0.5605604449505405,0.45808367801891214,-0.05940343276036116,-1.2133915161282647
1784201694393453056,1.3424019813537598,-0.37871885299682617,-3.395501136779785,7.101493835449219,-0.1108853742480278,-0.42928647994995117,-0.8963356614112854,1.819335699081421,-1.0336956977844238,-0.5095939040184021,0.8119819973740715,0.15238728654381162,-0.16914577906920397,-0.5374506012255158,0.4437025962872225,-0.12308430501077716,-1.1415935788463127
1784201694403373056,1.3523218631744385,0.49575692415237427,-3.380685567855835,7.90119743347168,-0.17269264161586761,-0.41940850019454956,-0.8912203907966614,1.8576902151107788,-0.9695380330085754,-0.2871243357658386,0.8284635449104826,0.13723095119628068,-0.188566892115993,-0.5091742846628293,0.4327936509293806,-0.19139900752731007,-1.0599728661700907
1784201694413293056,1.3622419834136963,0.8921689987182617,-3.18839168548584,8.231578826904297,-0.23488247394561768,-0.409551203250885,-0.8815316557884216,1.8464242219924927,-1.0774636268615723,0.16928189992904663,0.8445340997887749,0.1242823827834936,-0.20925597858983186,-0.47699902246418224,0.4219620738865634,-0.2603983624549023,-0.9722093536168628
1784201694423213056,1.372161865234375,0.7918658256530762,-2.884927988052368,8.277865409851074,-0.29431694746017456,-0.395273894071579,-0.8701356649398804,1.8825585842132568,-1.2749836444854736,0.5942872762680054,0.859565116818218,0.11196641866795647,-0.2289010589124189,-0.4429621863044574,0.40636599591372563,-0.3261623744670981,-0.8839028774871469
1784201694433132032,1.3820807933807373,0.9227292537689209,-2.491938352584839,8.50648307800293,-0.34947526454925537,-0.37578535079956055,-0.858284592628479,2.0093111991882324,-1.5002217292785645,0.7881399393081665,0.8735987357279732,0.10004518878841921,-0.24667523149542558,-0.4073912451378059,0.38524410349167043,-0.3866796246447495,-0.7963776081731216
1784201694443052032,1.3920009136199951,0.672630250453949,-2.038219928741455,8.99720573425293,-0.4001605808734894,-0.3506007492542267,-0.8467293977737427,2.2681872844696045,-1.6806797981262207,0.6980324983596802,0.8871489439275192,0.08841755140393172,-0.26233115361851694,-0.3692311582485965,0.35821248962936836,-0.4414847256992708,-0.7075779796074917
1784201694452972032,1.4019207954406738,-0.7520650625228882,-1.7384432554244995,9.613883972167969,-0.44638529419898987,-0.3117187023162842,-0.8387917280197144,2.5848283767700195,-1.7856476306915283,0.7046517729759216,0.9007443312811937,0.07289787537845345,-0.274390278471963,-0.32871793881404365,0.3170013328855389,-0.48905628160247294,-0.6201189159452726
1784201694462892032,1.4118409156799316,-2.3278703689575195,-1.676680564880371,10.116551399230957,-0.48831772804260254,-0.2529889643192291,-0.8351899981498718,2.8375914096832275,-1.9098070859909058,1.135681390762329,0.9139332781471583,0.04964540580227316,-0.2827371934516471,-0.28691622528311816,0.2557684692056189,-0.5290775651672629,-0.5387479520603418
1784201694472812032,1.4217607975006104,-3.673384428024292,-1.465293526649475,10.244117736816406,-0.5232402086257935,-0.1769646406173706,-0.8336085081100464,2.9256603717803955,-2.02439022064209,1.7235164642333984,0.9256432379144178,0.019443080346169022,-0.2877806629074004,-0.24492598893425638,0.17790155471893926,-0.56052489648341,-0.46601428420408014
1784201694482732032,1.4316809177398682,-4.7146148681640625,-1.1937257051467896,10.265710830688477,-0.5477167963981628,-0.08763336390256882,-0.832061767578125,2.954867124557495,-1.951963186264038,2.1786651611328125,0.9351641140565645,-0.016170614073777144,-0.2893227187016118,-0.20371321118123792,0.08774591858339675,-0.5821631991978121,-0.40266897528384954
1784201694492652032,1.4416007995605469,-5.3478522300720215,-1.0232268571853638,10.386216163635254,-0.5606744885444641,0.010610354132950306,-0.8279682993888855,3.1292169094085693,-1.8394982814788818,2.3256337642669678,0.9420768568844025,-0.05537535026180606,-0.28800941342621367,-0.16271224710080476,-0.010610553252520537,-0.5952382812119398,-0.3453129651065029
1784201694502572032,1.4515209197998047,-5.661431789398193,-1.1290241479873657,10.562816619873047,-0.5630336999893188,0.11421263962984085,-0.8185037970542908,3.351165533065796,-1.7588354349136353,2.469855785369873,0.945821378653862,-0.09690823113808339,-0.285231295386712,-0.12113522429043126,-0.11446241698269272,-0.6025464295592398,-0.29036352172441415
1784201694512492032,1.4614408016204834,-6.160867214202881,-0.9474750757217407,10.567549705505371,-0.5540217757225037,0.21984899044036865,-0.8029484748840332,3.4556636810302734,-1.7172855138778687,2.492004871368408,0.9461521277460958,-0.13970500798900234,-0.2810840911486832,-0.07918518337183328,-0.22165967105610654,-0.6039722611583703,-0.23630084033627227
1784201694522411008,1.4713599681854248,-6.68064022064209,-0.7110418081283569,10.641458511352539,-0.5318154692649841,0.3273860514163971,-0.7810189723968506,3.4109201431274414,-1.7473078966140747,2.6886422634124756,0.9429080381138473,-0.18463173092920934,-0.2745935777754965,-0.03786586050646127,-0.3335358315088423,-0.5978090057904312,-0.18391917262531338
1784201694532331008,1.4812798500061035,-6.718232154846191,-0.5751032829284668,10.910977363586426,-0.496210515499115,0.4327777624130249,-0.7526476979255676,3.3986153602600098,-1.9724658727645874,2.755089044570923,0.9361138572078226,-0.23006666744124604,-0.265980229622383,0.003835948301619063,-0.44757177279261273,-0.5828758828651807,-0.1281424400689631
1784201694542251008,1.4911999702453613,-6.790276527404785,-0.45844072103500366,11.219429969787598,-0.4538763165473938,0.5164835453033447,-0.7261136174201965,3.441303014755249,-2.1259500980377197,2.862710475921631,0.9279764896276015,-0.2661558845328516,-0.25710743455890667,0.04377694599061126,-0.5427392792932658,-0.5586540896193493,-0.06499208150777978
1784201694552171008,1.50111985206604,-6.889751434326172,-0.5647701025009155,11.54868221282959,-0.39373332262039185,0.6117649078369141,-0.6860888004302979,3.5545151233673096,-2.189737319946289,2.933799982070923,0.9139566753470424,-0.31108370121210005,-0.24532130808455715,0.08790685288081534,-0.6582897843305254,-0.5209929200686716,0.010183216789154804
1784201694562091008,1.5110399723052979,-7.404005527496338,-0.6688850522041321,11.735591888427734,-0.32207417488098145,0.6996014714241028,-0.6378291249275208,3.660437822341919,-2.327531337738037,3.016491174697876,0.8951466494781625,-0.35625521753201017,-0.23273947867514133,0.13276683914375725,-0.7748396354204451,-0.4676027134348371,0.10074265514956342
1784201694572011008,1.5209598541259766,-8.551091194152832,-0.6857635974884033,11.836442947387695,-0.23968705534934998,0.780469536781311,-0.577423095703125,3.577669143676758,-2.507382869720459,3.083648681640625,0.8703283011707345,-0.4037599927492223,-0.21969599252813393,0.1767488471497843,-0.895416470998265,-0.39345359556117365,0.20987293598622334
1784201694581931008,1.5308799743652344,-9.580557823181152,-0.7640785574913025,11.830009460449219,-0.14758718013763428,0.851857602596283,-0.5025500655174255,3.4234509468078613,-2.7716116905212402,2.971651077270508,0.8386747403471038,-0.45398197001549573,-0.20645907330415142,0.21885984436906106,-1.0195217465816082,-0.2856454331384016,0.35009414537202277
1784201694591851008,1.540799856185913,-10.476058006286621,-0.9127415418624878,11.660141944885254,-0.048633333295583725,0.9089539051055908,-0.41405004262924194,3.3485753536224365,-2.9039642810821533,2.825076103210449,0.8000597896673936,-0.5053822564001796,-0.19381369244356453,0.258706896611747,-1.1407679534745752,-0.11692188707189952,0.550437649178279
1784201694601771008,1.550719976425171,-10.885977745056152,-1.204637885093689,11.483027458190918,0.053845878690481186,0.947511613368988,-0.3151542544364929,3.3805413246154785,-2.7674427032470703,2.9168083667755127,0.7550350449533397,-0.5560810427205726,-0.18219975738446295,0.295802462417284,-1.245360971832524,0.16922164379921356,0.868423772063388
1784201694611692032,1.560640811920166,-11.0241117477417,-1.9017738103866577,11.403550148010254,0.1628497838973999,0.9629902243614197,-0.21477852761745453,3.764014720916748,-2.4909749031066895,2.917140483856201,0.7040463364015727,-0.6029235561827286,-0.17056939626934053,0.33422752578991755,-1.2978847981403645,0.6487423695059359,1.3859095404104462
1784201694621612032,1.5705609321594238,-8.561427116394043,-1.3710285425186157,10.05967903137207,0.26064416766166687,0.9576629400253296,-0.12225500494241714,3.0672519207000732,-2.1115784645080566,3.062700033187866,0.6524668672244626,-0.6422399924324931,-0.16248165480913887,0.36798701675416917,-1.2787715096568495,1.1322142715925148,1.9099310908761176
1784201694631531008,1.5804798603057861,-1.3533079624176025,-10.556249618530273,16.09958839416504,0.40790271759033203,0.904449999332428,-0.12484229356050491,4.291102409362793,-2.0235753059387207,2.0369668006896973,0.6110021041743527,-0.6489787729853758,-0.1280835859991547,0.4348535023934057,-1.1300885900858564,1.2737901261932987,2.1141397699834568
1784201694641451008,1.5903997421264648,-9.945070266723633,-8.981377601623535,-0.9987455606460571,0.45603659749031067,0.8802998065948486,-0.1307780146598816,9.93066692352295,9.959986686706543,8.238688468933105,0.5678291787718841,-0.6408369564081802,-0.15472228868689583,0.4929087287926429,-1.0764937178234044,1.2915200881145283,2.2753072585123673
1784201694651371008,1.6003198623657227,-8.441407203674316,-2.0320534706115723,3.3638222217559814,0.45963355898857117,0.8862468004226685,-0.057476382702589035,0.6229774951934814,2.0762012004852295,6.863308429718018,0.5293615395421434,-0.6603249119036985,-0.18770407167307607,0.49851230615336123,-1.0891787582549166,1.4463937980542017,2.4927723772841084
1784201694661291008,1.6102397441864014,-6.633788108825684,4.149337291717529,6.844557762145996,0.5179598927497864,0.8553807735443115,0.006430662702769041,0.2794796824455261,2.099804162979126,1.5523462295532227,0.4899963036748973,-0.6859659496055521,-0.18073750954523973,0.5066441761369752,-1.0262854769321652,1.5832110573056999,2.6411402182863815
1784201694671211008,1.6201598644256592,-8.957378387451172,7.973756790161133,2.4571547508239746,0.5503931045532227,0.8273637890815735,0.11196749657392502,-0.8628625869750977,2.4643232822418213,2.960496664047241,0.45611793622045926,-0.7260319539571055,-0.16988628181698695,0.485770277307638,-0.9743978047913087,1.771489557296387,2.7842723816186625
1784201694681131008,1.630079746246338,-8.970329284667969,9.069485664367676,2.014003038406372,0.5528966188430786,0.8014692068099976,0.22793103754520416,1.0254725217819214,0.6934953927993774,1.4698076248168945,0.4263588464112475,-0.7662415061153179,-0.16382757776801327,0.4519431978430259,-0.9297479109642146,1.9618173420799028,2.915063450746905
1784201694691051008,1.6399998664855957,-7.87676477432251,3.7874388694763184,1.3798067569732666,0.5477263927459717,0.7667774558067322,0.33473601937294006,2.5213043689727783,0.8672557473182678,2.570446014404297,0.3935873155167632,-0.8007328207960382,-0.16184856799260403,0.4215697517434218,-0.8738058114595113,2.119364788576095,3.028165901705995
1784201694700971008,1.6499197483062744,-5.290841102600098,-1.6532256603240967,0.7181729674339294,0.5518375635147095,0.7379043698310852,0.3885516822338104,3.8774683475494385,1.36231529712677,1.2158184051513672,0.36628777001735435,-0.8158558194748132,-0.16927823539673487,0.4141949148584103,-0.8299600157771241,2.1842721203174578,3.1012563579591412
1784201694710891008,1.6598398685455322,-2.85121488571167,-2.3577849864959717,0.7484680414199829,0.5642022490501404,0.7179312705993652,0.40773800015449524,3.8769445419311523,2.6649270057678223,1.5330731868743896,0.3465349260911049,-0.8197629092037789,-0.1784874628748492,0.4195765103860429,-0.8008258938235661,2.1965825344759677,-3.138950878918304
1784201694720811008,1.669759750366211,0.942396342754364,-2.776797294616699,0.9549217820167542,0.5752761960029602,0.7123382687568665,0.4020339846611023,1.7012282609939575,2.1147336959838867,1.0155991315841675,0.3398780772428793,-0.8169624892154836,-0.1832737790295816,0.4283291482567736,-0.792824266363352,2.1807526207097636,-3.129771627076811
1784201694730731008,1.6796798706054688,0.8280713558197021,-3.5621163845062256,3.6321516036987305,0.6117950677871704,0.6983952522277832,0.37141743302345276,-0.6671692132949829,1.9875330924987793,-0.007068037986755371,0.3343400019007652,-0.8094635906280021,-0.17457780167744863,0.4500089782052084,-0.7731528969142443,2.1164160450500615,3.116044336096804
1784201694740649984,1.689598798751831,-2.755913257598877,-0.4011865556240082,-2.453665256500244,0.6245914697647095,0.6918141841888428,0.3623242974281311,-3.6944613456726074,2.1400036811828613,0.5266679525375366,0.32800111356354295,-0.8060401467271583,-0.17737371355933895,0.45962289793377503,-0.763998479155299,2.0964535025951,3.120024026151823
1784201694750569984,1.6995189189910889,-5.5961527824401855,3.243727684020996,-4.146695613861084,0.592890739440918,0.6967639923095703,0.4037333130836487,-2.015620231628418,0.9575023651123047,1.297713279724121,0.3200977201049109,-0.8138907216385207,-0.19861657320568724,0.4423469617503734,-0.7708761994267256,2.1686273192613403,-3.0856372982215903
1784201694760489984,1.7094388008117676,-6.73866081237793,3.2552413940429688,-2.1227951049804688,0.5557551383972168,0.6892456412315369,0.4648403823375702,0.6720432639122009,0.40041494369506836,0.5646395683288574,0.3052150464621308,-0.8268075766554219,-0.22092854923010644,0.41764046217767253,-0.760447346012155,2.267348876750842,-2.9886349116073254
1784201694770409984,1.7193589210510254,-6.08214807510376,0.6498101949691772,-0.6197544932365417,0.5387483239173889,0.6632770299911499,0.5194361805915833,1.3624968528747559,0.6603314280509949,0.29227036237716675,0.28270226020181455,-0.8391235375819005,-0.2357748569767764,0.40045147705548956,-0.7251891651237922,2.337946238810614,-2.9134327156396185
1784201694780329984,1.729278802871704,-5.327208995819092,0.6459102630615234,-1.2726248502731323,0.5299857258796692,0.6372005939483643,0.5595449805259705,0.8492103815078735,1.5022494792938232,0.27732330560684204,0.26100922408389643,-0.8468760380059125,-0.2501468795091253,0.3900021906676897,-0.6908604655819545,2.383318082613806,-2.851977671920883
1784201694790249984,1.739198923110962,-2.9389986991882324,0.021078884601593018,-1.4849328994750977,0.517402172088623,0.618696391582489,0.591193437576294,0.6972126364707947,2.2817399501800537,0.5882346034049988,0.24598270093493954,-0.852378446282418,-0.26276931308100093,0.3793359636045949,-0.6670823196619468,2.4226592796355586,-2.80248345839002
1784201694800169984,1.7491188049316406,-1.7456125020980835,0.253684401512146,-1.9207236766815186,0.5063627362251282,0.6151374578475952,0.6043200492858887,0.14993298053741455,1.8136497735977173,-0.33803892135620117,0.24054451202736044,-0.8527519227421473,-0.2738141331375925,0.37413679342174094,-0.6625603208787652,2.444162422483099,-2.7690158887646854
1784201694810089984,1.7590389251708984,-0.8639371395111084,0.05366635322570801,-2.2030441761016846,0.49246424436569214,0.6170184016227722,0.6138134598731995,0.057111501693725586,1.442795991897583,-0.11247080564498901,0.2391551100979778,-0.8521969576459709,-0.28401950698496436,0.3686434721106416,-0.6649482244683933,2.465449149165127,-2.739794322129585
1784201694820009984,1.7689588069915771,-0.7314052581787109,-0.14229276776313782,-1.6251428127288818,0.48087817430496216,0.6225666999816895,0.6173871755599976,0.07560986280441284,0.45334577560424805,-0.15384042263031006,0.2393970429030186,-0.8496002528048031,-0.2947422661205272,0.36605393225469207,-0.6720182986522069,2.4798553786457997,-2.7125308254653326
1784201694829929984,1.778878927230835,-0.6415161490440369,0.04745212942361832,-0.9570369124412537,0.47340214252471924,0.6253965497016907,0.6202978491783142,0.16128718852996826,0.28996288776397705,-0.08022838830947876,0.2389165846706567,-0.847806830081312,-0.302278862665785,0.3643760430688192,-0.6756396606548547,2.4897063046229606,-2.692971935471693
1784201694839848960,1.7887978553771973,0.6075373888015747,-0.4198542535305023,-0.965202808380127,0.4701199531555176,0.6275539994239807,0.6206150054931641,0.07078880071640015,0.5727938413619995,-0.025400221347808838,0.23929881176854598,-0.8467733798619357,-0.30542158214104814,0.363907289311411,-0.678407583132232,2.493304596230727,-2.6852665548628702
1784201694849768960,1.798717737197876,0.7106866836547852,-0.21572403609752655,-1.1056281328201294,0.46541911363601685,0.63825523853302,0.6132010817527771,-0.6485245227813721,0.815617561340332,0.0356941819190979,0.244443256592744,-0.84323889899391,-0.3091095466427112,0.36557765533542497,-0.6922296557991231,2.492356930313345,-2.6804063969203282
1784201694859688960,1.8086378574371338,0.0790894627571106,0.19390255212783813,-0.9572781920433044,0.4585460126399994,0.6444428563117981,0.6119058728218079,-0.5654491186141968,1.1451689004898071,0.5960103869438171,0.24760098825181506,-0.8416247415636733,-0.31244315513099824,0.36433605956739484,-0.7002944295538025,2.498492647566941,-2.672766831320606
1784201694869608960,1.8185577392578125,0.6039620041847229,0.053157418966293335,-1.9251724481582642,0.4485583007335663,0.6541301608085632,0.6090230941772461,-0.5744280815124512,0.8371418118476868,0.2803201675415039,0.25252528203149216,-0.8388742468994637,-0.31749257736711123,0.3629317024430406,-0.7130320400077588,2.5067740358500177,-2.6614549309195965
1784201694879528960,1.8284778594970703,-1.011362910270691,0.9510148763656616,-1.8248313665390015,0.4343288242816925,0.6597751975059509,0.6132333278656006,-0.8670680522918701,0.6739649772644043,0.27504175901412964,0.2548585713343318,-0.8371989255069413,-0.32513785681543694,0.3583719079953738,-0.720519561638262,2.5253443630347765,-2.6393603031888464
1784201694889448960,1.838397741317749,0.2000487744808197,1.7860996723175049,-1.188580870628357,0.41483551263809204,0.6639314889907837,0.6221785545349121,-0.7288004159927368,0.15860867500305176,0.32298123836517334,0.2579967493746746,-0.837418945536716,-0.33138919839075487,0.3497832185134585,-0.7260640292625054,2.5535346449104144,-2.6170042419469937
1784201694899368960,1.8483178615570068,0.09525837004184723,0.7753323912620544,-1.1682134866714478,0.4006423354148865,0.6706593036651611,0.6242607235908508,-0.49089810252189636,-0.3645833730697632,-0.09452146291732788,0.26295979782807055,-0.8367557135785433,-0.33461954962040197,0.34456012252621704,-0.7350972999813491,2.571012868597803,-2.6056578685417247
1784201694909288960,1.8582377433776855,-0.8550099730491638,0.9045697450637817,-0.8816637396812439,0.38873162865638733,0.6711894869804382,0.6311835050582886,-0.23300039768218994,0.16662490367889404,0.2017938494682312,0.26361745526428504,-0.8370375228006154,-0.3390574168462959,0.33898990539012763,-0.7358122504974866,2.5895803384005287,-2.5893448689615433
1784201694919208960,1.8681578636169434,-0.3716338872909546,0.8983472585678101,-1.1769379377365112,0.37627795338630676,0.6705748438835144,0.6393312811851501,-0.30595019459724426,0.3183320164680481,-0.03993546962738037,0.26407311154936974,-0.8379372366465613,-0.34282185094517625,0.33256548691016136,-0.7349833691844343,2.6096353638135383,-2.5738942494446153
1784201694929128960,1.878077745437622,0.47570353746414185,1.078572392463684,-1.0386804342269897,0.3618756830692291,0.6762514114379883,0.6416618227958679,-0.012510448694229126,-0.016400396823883057,-0.03407222032546997,0.2689063832789309,-0.8375961272698403,-0.3453456836577616,0.32689202362851455,-0.7426620891887927,2.6280899993938185,-2.5632138931430806
1784201694939048960,1.8879978656768799,-0.028407175093889236,-0.06989295035600662,0.030167171731591225,0.3549305498600006,0.6794508695602417,0.6421610116958618,0.4507487714290619,-0.0123060941696167,0.16365563869476318,0.2712166180401266,-0.8369311215925429,-0.3473136942135323,0.32459363477857506,-0.747013978180466,2.636669149276504,-2.556388880934434
1784201694948967936,1.8979167938232422,-1.3416748046875,0.2564185857772827,-0.4932635426521301,0.3523590862751007,0.6772515773773193,0.6458896994590759,0.8577086925506592,-0.36662834882736206,0.2210993766784668,0.269900051371463,-0.8374135693943204,-0.3488314307908158,0.32281440943381706,-0.7440206205599936,2.642179572112109,-2.550555967980531
1784201694958887936,1.9078369140625,-2.007993459701538,0.8439590930938721,-1.433595895767212,0.34029048681259155,0.668476939201355,0.6613178253173828,0.7658344507217407,-0.010899364948272705,0.655363142490387,0.26515437353703136,-0.8395419642220115,-0.3547227129003205,0.31469721244486026,-0.7321590456994393,2.6663616908253602,-2.527219065190292
1784201694968807936,1.9177567958831787,-1.7360128164291382,1.588404893875122,-3.0659704208374023,0.31396347284317017,0.6642807722091675,0.6783493161201477,0.6983503103256226,0.13093096017837524,0.09711748361587524,0.2636826376545376,-0.8394963498347094,-0.3666340791345247,0.3021535283078162,-0.7265312237097294,2.708116952521425,-2.485082883287109
1784201694978727936,1.9276769161224365,-1.1827760934829712,0.6771834492683411,-0.44885677099227905,0.2930157780647278,0.6595386862754822,0.6922072172164917,1.177412748336792,0.17308777570724487,0.004982173442840576,0.2629319651036483,-0.8405740865570701,-0.3735489587340802,0.2911413272184777,-0.7202048586503197,2.741157335049285,-2.457745578090286
1784201694988647936,1.9375967979431152,-1.1995023488998413,0.42180758714675903,-0.7873488068580627,0.28819897770881653,0.6537635922431946,0.6996676325798035,1.1559691429138184,-0.09103471040725708,-0.08348709344863892,0.25959780674378724,-0.8411756611175698,-0.3771701550241339,0.2877068886400611,-0.7125475479893933,2.7508627565123334,-2.445598564889009
1784201694998567936,1.947516918182373,-1.465237021446228,0.6708121299743652,-1.8392049074172974,0.2755385637283325,0.6488211154937744,0.7093027234077454,0.45976725220680237,-0.1573200821876526,0.28741687536239624,0.25712521615996364,-0.840698329047764,-0.3845486555561214,0.28148793066835404,-0.7060341319889786,2.771070501993555,-2.4214694798273673
1784201695008487936,1.9574368000030518,-0.5360228419303894,2.26202130317688,-2.1643240451812744,0.250531941652298,0.6479210257530212,0.7193278074264526,0.4861776828765869,-0.09926062822341919,0.30543726682662964,0.25936631118244885,-0.840015454612684,-0.39247669116364114,0.2703059823722399,-0.7048518828888717,2.806445439519382,-2.3916879379528635
1784201695018407936,1.9673569202423096,-1.7322535514831543,-0.9977862238883972,-1.0648258924484253,0.2328418493270874,0.6441152095794678,0.7286293506622314,0.2668072283267975,0.7181438207626343,0.17725449800491333,0.2590572489242457,-0.8395760618203877,-0.3992827486659,0.26186789105649333,-0.6998659996487608,2.8322875838680766,-2.3674231368677816
1784201695028327936,1.9772768020629883,0.02244681678712368,0.34937357902526855,-1.30398690700531,0.22892780601978302,0.6406264305114746,0.7329320311546326,0.07814003527164459,0.5889113545417786,-0.15065687894821167,0.25587249490362096,-0.8374036028143902,-0.40647413826720696,0.2608890758530393,-0.6953137993734293,2.838848823768975,-2.3482367010060097
1784201695038247936,1.987196922302246,-0.8032156825065613,0.5877542495727539,-1.5982314348220825,0.21353426575660706,0.6431359052658081,0.7353768944740295,0.30169397592544556,-0.4907922148704529,-0.13682037591934204,0.25889287494583996,-0.8353910610647354,-0.41208034578911296,0.25551122911879154,-0.6985864460718799,2.858990356315958,-2.3286104583256138
1784201695048167936,1.9971168041229248,-2.6570236682891846,-0.2813934087753296,-1.2987501621246338,0.19847050309181213,0.6332194209098816,0.7480924725532532,0.14469963312149048,-0.25637322664260864,0.17323315143585205,0.25450446581750397,-0.8346262368415186,-0.4212425316211357,0.24734826983470443,-0.6857057909990809,2.8822646646728742,-2.299801035676645
1784201695058086912,2.007035732269287,-2.7705750465393066,-0.7502160668373108,0.40513893961906433,0.19904449582099915,0.6144177317619324,0.7634608745574951,0.5339877605438232,-0.6220318078994751,-0.06738531589508057,0.24328832611966114,-0.8364839314730885,-0.42664396191759507,0.24306473239329657,-0.6616477793242004,2.886556465568572,-2.286303220368358
1784201695068006912,2.016955852508545,-2.48195481300354,0.044523946940898895,-0.46300843358039856,0.2027897983789444,0.5930683612823486,0.7791962027549744,0.3134760856628418,-0.4438372850418091,-0.042867839336395264,0.23085243654483528,-0.8395362342005492,-0.42985696700655135,0.2389753079371481,-0.6348644390035136,2.8869856404615644,-2.27921707966594
1784201695077926912,2.0268757343292236,-1.7892522811889648,0.25380563735961914,-1.7820237874984741,0.19363287091255188,0.5791152119636536,0.7919168472290039,0.136552095413208,0.2886980175971985,0.05038374662399292,0.22409870060901152,-0.8395707889284113,-0.4371261891498821,0.23199454546614617,-0.6176429902193322,2.901786159908713,-2.2583603429803714
1784201695087846912,2.0367958545684814,-0.6872862577438354,0.4405773878097534,-1.1833707094192505,0.17935149371623993,0.5725196599960327,0.8000343441963196,0.48690831661224365,0.6390893459320068,-0.07405143976211548,0.22232185390967074,-0.8381934283656004,-0.4443522845301406,0.22484663030539087,-0.6095757361735333,2.921059089036035,-2.2363032917421464
1784201695097766912,2.04671573638916,0.0635858029127121,-0.016439348459243774,-0.7789676785469055,0.17096666991710663,0.5717096328735352,0.8024451732635498,0.5779041647911072,0.33318227529525757,-0.15875327587127686,0.2227761521761528,-0.8365557706199559,-0.4487728151920634,0.22169378206507,-0.6085881100441052,2.931674269838135,-2.2229700686336784
1784201695107686912,2.056635856628418,0.7859447598457336,-0.26429498195648193,-0.6351926326751709,0.1684318631887436,0.5777007937431335,0.7986816763877869,0.2988532781600952,0.004010021686553955,-0.22324228286743164,0.22555930701330235,-0.833933985002539,-0.45154728499864977,0.22311912718011842,-0.6159091039407104,2.933750744672395,-2.2153804645907584
1784201695117606912,2.0665557384490967,-0.12313148379325867,0.6022030115127563,-0.48345324397087097,0.16340477764606476,0.5806061625480652,0.7976183891296387,0.23869483172893524,-0.16950392723083496,0.017170310020446777,0.227772870110012,-0.8327435553461946,-0.45315270263220636,0.22205909115967995,-0.619472960714577,2.9395228010981227,-2.2097507386246704
1784201695127526912,2.0764758586883545,0.2951081097126007,0.41956743597984314,-0.10702633857727051,0.15548667311668396,0.5817598700523376,0.7983604073524475,0.15058936178684235,-0.4212679862976074,0.03527301549911499,0.23012658456410365,-0.8326473440076346,-0.45373846269787904,0.21877283151950994,-0.6208907293245491,2.949243007949394,-2.205581171774126
1784201695137446912,2.086395740509033,-0.2148246467113495,-0.22810937464237213,0.13799619674682617,0.1547607034444809,0.5822595953941345,0.7981369495391846,0.4367767572402954,-0.4111628532409668,-0.21090257167816162,0.23054645638784713,-0.8325769826600667,-0.4537444642137035,0.2185858321640946,-0.6215052208134645,2.950066938146853,-2.205297476995978
1784201695147366912,2.096315860748291,-0.5356681942939758,-0.0956040546298027,0.23276744782924652,0.15731820464134216,0.5777960419654846,0.8008760213851929,0.34727469086647034,-0.17786329984664917,-0.025653362274169922,0.22786091497945962,-0.833626128190063,-0.45332713143665837,0.21826887230749928,-0.616025755141075,2.947629577921867,-2.207330346231834
1784201695157286912,2.1062357425689697,-0.20371614396572113,-0.5675427913665771,0.4361587464809418,0.16170184314250946,0.5763802528381348,0.8010233640670776,0.18113262951374054,-0.29314661026000977,-0.20020854473114014,0.2262634363162034,-0.8340118075042311,-0.45269854707894575,0.2197571406490309,-0.6142921583777913,2.9424005516582046,-2.2103701717103106
1784201695167206144,2.116154909133911,-0.5682775974273682,-0.3419909179210663,0.07719500362873077,0.16618512570858002,0.5716312527656555,0.8035050630569458,0.14028766751289368,0.14922451972961426,0.01511383056640625,0.22290643325016735,-0.8348378141836602,-0.4525465270084598,0.22036387661190374,-0.6084925765825826,2.9376430585328164,-2.2123524864519952
1784201695177125888,2.12607479095459,-0.2932889759540558,0.05251917615532875,-0.1763771027326584,0.1655980497598648,0.5680848360061646,0.8061373233795166,0.038808733224868774,0.17108154296875,-0.059158384799957275,0.22096358404214309,-0.834852851496514,-0.4539706788701094,0.21933207826325754,-0.6041768260857784,2.9389894613946232,-2.208824761233752
1784201695187046144,2.1359949111938477,0.05998627468943596,-0.32058730721473694,-0.15663482248783112,0.16468995809555054,0.5682202577590942,0.8062276840209961,0.32420164346694946,0.07200801372528076,-0.10002028942108154,0.22093672080235477,-0.8342260061861417,-0.45517117797678736,0.2192559354081105,-0.6043414342222476,2.940092540471827,-2.205646182421908
1784201695196965888,2.1459147930145264,0.019748568534851074,-0.46780094504356384,0.24179430305957794,0.16737359762191772,0.5683947801589966,0.8055514097213745,0.2795257866382599,-0.20164990425109863,-0.13877296447753906,0.2203852959653323,-0.834076021046743,-0.4550745915497879,0.22057767055670496,-0.6045534948824094,2.9367322472788273,-2.2067544608054046
1784201695206886144,2.155834913253784,-0.47482040524482727,-0.15994004905223846,-0.1862369328737259,0.1677272766828537,0.5663749575614929,0.806899905204773,0.10415385663509369,-0.24798494577407837,-0.08375519514083862,0.2191932183714469,-0.834205416829074,-0.45557794795146306,0.22023740659475474,-0.6021006307560511,2.9366449267911365,-2.205706460855584
1784201695216805888,2.165754795074463,-0.35528334975242615,-0.4217877984046936,0.3210325241088867,0.1706559956073761,0.5634083151817322,0.808360755443573,0.2501813769340515,-0.1686636209487915,-0.18473422527313232,0.21699710231500677,-0.8345418183142205,-0.455763473258094,0.22075269353229987,-0.5985054541693211,2.9335340772030585,-2.206267240348449
1784201695226726144,2.1756749153137207,-1.1067779064178467,-0.19074872136116028,-0.08831796050071716,0.17293936014175415,0.5572572946548462,0.8121310472488403,0.24946974217891693,-0.30345773696899414,-0.172146737575531,0.21326366074697,-0.835210164753482,-0.4566065232517128,0.2201209522894433,-0.5910789952234725,2.9317814018123083,-2.2050775576047434
1784201695236645888,2.1855947971343994,-1.3774583339691162,-0.6492139101028442,0.6307953596115112,0.1785406768321991,0.5464591979980469,0.8182334303855896,0.1989160180091858,-0.1828116774559021,-0.08620810508728027,0.20658333344259244,-0.836730475411091,-0.45716388040437345,0.2195602755804066,-0.5781304804676332,2.9267573986639825,-2.2056056168578624
1784201695246566144,2.1955149173736572,-0.7103077173233032,-0.42788681387901306,0.06679482012987137,0.18469005823135376,0.5369981527328491,0.8231173753738403,0.21415941417217255,0.04106569290161133,-0.19927716255187988,0.20049404973367746,-0.8380195757694782,-0.45747334815166174,0.21964368733318632,-0.5668746035304184,2.92086959363066,-2.2067474407047674
1784201695256485888,2.205434799194336,-0.26082682609558105,-0.46812599897384644,0.19649875164031982,0.18924985826015472,0.5333606600761414,0.8244457840919495,0.031773701310157776,0.13256341218948364,-0.25497257709503174,0.19748190106580757,-0.8380677947167366,-0.4581105377964378,0.22085739557151712,-0.5625685296204469,2.9159536219478044,-2.2065447570821157
1784201695266406144,2.2153549194335938,-0.20073845982551575,-0.10865091532468796,0.1641669124364853,0.19282276928424835,0.5307328701019287,0.8253133893013,0.04406994581222534,0.0073378682136535645,-0.10297751426696777,0.1954501672193261,-0.8385126966886609,-0.4577697692639064,0.22168127740117297,-0.55946503249413,2.912073870518298,-2.2083650088239435
1784201695276325888,2.2252748012542725,-0.31372013688087463,-0.47361046075820923,0.026827964931726456,0.1956648826599121,0.5290547609329224,0.8257220387458801,0.055204927921295166,-0.19781678915023804,-0.034568846225738525,0.1938927042484577,-0.8384993771122771,-0.45801726534790116,0.2225865103476356,-0.5574862719901349,2.9089220256715533,-2.2085636279285272
1784201695286244864,2.2351937294006348,-0.7508109211921692,-0.21335652470588684,0.12344878166913986,0.19881846010684967,0.5244242548942566,0.8279191255569458,0.18095749616622925,-0.18525201082229614,0.07158637046813965,0.1907321990206771,-0.8387404679447052,-0.45877443309923804,0.22284877954873136,-0.5520388050878238,2.9059130496629426,-2.2075907017685723
1784201695296164864,2.2451138496398926,-0.7450209856033325,-0.3982878625392914,0.29620230197906494,0.2022150456905365,0.517410397529602,0.8315021395683289,0.1811620444059372,-0.07945257425308228,0.06165587902069092,0.18660295831751705,-0.8398185426787211,-0.4587547267453272,0.22232483029658523,-0.5438219900455215,2.9030312848908446,-2.2084737918763726
1784201695306084864,2.2550337314605713,-0.2614223062992096,-0.4763030409812927,-0.16729770600795746,0.20601676404476166,0.5127111673355103,0.8334770798683167,0.21498845517635345,0.032958269119262695,-0.0346032977104187,0.18324624235999898,-0.8399603429430932,-0.4595706162039306,0.22289501504032608,-0.5383396091759242,2.8992722269455986,-2.2074640910428314
1784201695316004864,2.264953851699829,0.6415703892707825,-0.35165610909461975,-0.26224952936172485,0.20820356905460358,0.5146380662918091,0.831744372844696,0.14126844704151154,0.18152880668640137,-0.21428227424621582,0.1832772412210272,-0.8387637278039912,-0.4608118831931644,0.22480480792506813,-0.5405854603294814,2.896311335857058,-2.2051138575604807
1784201695325924864,2.274873733520508,1.2557613849639893,-0.1425636112689972,0.41013020277023315,0.21113088726997375,0.5217028260231018,0.826589047908783,0.19032780826091766,0.27411919832229614,-0.21565783023834229,0.1862516230967294,-0.8380134876869779,-0.4593777672254266,0.22806947908469938,-0.5488457337449387,2.8915153717080586,-2.2094539688217187
1784201695335845120,2.2847938537597656,1.722599744796753,-0.1079755425453186,0.38870537281036377,0.2141111046075821,0.5332252979278564,0.8184301257133484,0.06514005362987518,0.06960391998291016,-0.1365451216697693,0.19174721758073343,-0.8371842749697069,-0.45644009628932103,0.23241796974653067,-0.5624085028659805,2.885715310948539,-2.217562590740438
1784201695345764864,2.2947137355804443,1.352587342262268,-0.20684991776943207,0.49651414155960083,0.21771040558815002,0.5455866456031799,0.8092823028564453,0.17930805683135986,-0.3834466338157654,-0.0037553906440734863,0.19774263381870696,-0.8364363686029852,-0.4527862016828849,0.23718521261757303,-0.577088962566608,2.878797587122448,-2.227688295625244
1784201695355685120,2.304633855819702,0.67578125,-0.09439817816019058,0.562403678894043,0.22160844504833221,0.5523278117179871,0.8036315441131592,0.11945599317550659,-0.41313713788986206,0.19803166389465332,0.20088459325161134,-0.8364178615631039,-0.4496898185539237,0.24047786539092278,-0.5851540619962687,2.872521151256369,-2.236485138741863
1784201695365604864,2.314553737640381,0.14776906371116638,-0.2510269284248352,0.8337289690971375,0.22587735950946808,0.5536291599273682,0.8015449047088623,0.08956758677959442,-0.40459656715393066,0.2227928638458252,0.20144934318276098,-0.837613441135551,-0.44629158262597307,0.2421687849720114,-0.5867159005504763,2.8669132674426727,-2.2459384640404108
1784201695375525120,2.3244738578796387,0.28532975912094116,-0.24292543530464172,0.7330458164215088,0.23249322175979614,0.5533014535903931,0.7998775839805603,0.18167604506015778,-0.15384173393249512,0.08172941207885742,0.20066531550175004,-0.8388861619233822,-0.44295460896787064,0.2445292891728988,-0.5863224768253644,2.858725604953566,-2.2558654242771072
1784201695385444864,2.3343937397003174,0.08514821529388428,-0.20822285115718842,0.6356827616691589,0.2374187856912613,0.5537665486335754,0.7981070280075073,0.05126224458217621,0.07979357242584229,-0.0015372633934020996,0.20050332516543215,-0.8397887547436365,-0.44023671784321633,0.24646473843860675,-0.5868808962373195,2.852451806354755,-2.263841909542785
1784201695395365120,2.344313859939575,0.05765241011977196,-0.28321945667266846,0.3641510307788849,0.24266137182712555,0.5528527498245239,0.7971630692481995,0.03835971653461456,0.14024704694747925,0.07553279399871826,0.199436454280314,-0.8406130035624537,-0.4381224831080995,0.24828104935240056,-0.585783916683934,2.84609840464467,-2.270379768329079
1784201695405283840,2.3542327880859375,-0.1495705544948578,-0.3082451820373535,0.6085720062255859,0.24748699367046356,0.5513172745704651,0.796742856502533,0.048045188188552856,-0.03958338499069214,0.07367944717407227,0.19793745118949627,-0.8411664710519068,-0.4368184821415666,0.24989849658774468,-0.5839423026481859,2.8404183056299206,-2.274803469490798
1784201695415204096,2.3641529083251953,-0.6261670589447021,-0.11245942860841751,0.36515310406684875,0.25186145305633545,0.5469088554382324,0.7984089255332947,0.07533279061317444,-0.24722617864608765,0.0415111780166626,0.1952893647725487,-0.8425476520923081,-0.4351067890378585,0.25031516167902657,-0.5786674760026658,2.8360186859430168,-2.2798174138970095
1784201695425123840,2.374072790145874,-0.6484305262565613,-0.36872315406799316,0.46689438819885254,0.25597018003463745,0.5406702160835266,0.8013454079627991,0.12903955578804016,-0.19722551107406616,0.07078570127487183,0.19144507650082013,-0.843632365742207,-0.434692012041903,0.2503516249056922,-0.5712336258865699,2.832410917752152,-2.2814831350906135
1784201695435044096,2.383992910385132,-0.7043055891990662,-0.32610058784484863,0.2834802269935608,0.2606980800628662,0.5338408946990967,0.8043941855430603,0.1843702495098114,0.05585014820098877,-0.05097639560699463,0.18725066633051526,-0.844871499352931,-0.4340382951850373,0.25047950272638503,-0.563136380207105,2.8281818391279088,-2.2837864501956626
1784201695444963840,2.3939127922058105,-0.015543375164270401,-0.4385392367839813,-0.08126471936702728,0.2635304927825928,0.5309743285179138,0.8053682446479797,0.07796120643615723,0.1856698989868164,-0.07009297609329224,0.185087839986285,-0.8449450218937803,-0.43445600618017266,0.25111428423775767,-0.5597499392517381,2.8253565174674686,-2.2833275871473075
1784201695454884096,2.4038329124450684,-0.07264340668916702,-0.5534102916717529,0.035420890897512436,0.26730039715766907,0.5306909084320068,0.8043122887611389,0.16247868537902832,0.16459119319915771,-0.08638602495193481,0.18393739666463493,-0.8444153424356446,-0.4348779847942787,0.25300407639823175,-0.5594155457318971,2.8207416715287814,-2.283326784249086
1784201695464803840,2.413752794265747,0.31713682413101196,-0.3737768828868866,-0.47293180227279663,0.2694988250732422,0.532056450843811,0.8026748299598694,0.0544452965259552,0.09724670648574829,0.11060971021652222,0.18374605325810658,-0.8433754080117536,-0.4359533536364153,0.25475502928650007,-0.5610274433428386,2.8176678167457228,-2.281498569021401
1784201695474724096,2.423672914505005,-0.1414019763469696,-0.2879524528980255,0.030255021527409554,0.2714322805404663,0.5337783098220825,0.8008776903152466,0.08057272434234619,0.0629470944404602,0.16076159477233887,0.1837779676772909,-0.8422775199742502,-0.43704397599446615,0.25648932062316177,-0.563062387634757,2.8148239036220075,-2.279596006134754
1784201695484643840,2.4335927963256836,-0.12081786245107651,-0.050847239792346954,-0.22382918000221252,0.27272406220436096,0.5323870182037354,0.8013648390769958,0.09080129861831665,0.03972595930099487,0.30871206521987915,0.18263502507381105,-0.8421291280766391,-0.43760821634368774,0.25683070270951064,-0.5614179161749211,2.8135633361854486,-2.278476020614985
1784201695494564096,2.4435129165649414,-0.214956134557724,-0.0012812819331884384,-0.24620682001113892,0.27132517099380493,0.5324706435203552,0.8017841577529907,0.029746025800704956,-0.22274768352508545,0.23187685012817383,0.18252541496822453,-0.8414279835348647,-0.43919360748254926,0.25650035973016244,-0.5615167024238199,2.815287470368261,-2.274338602217508
1784201695504483840,2.45343279838562,-0.9762784838676453,-0.15302154421806335,-0.02343633584678173,0.2704157829284668,0.5275444984436035,0.8053399920463562,0.2320256233215332,-0.19363635778427124,0.2834815979003906,0.17999103281744028,-0.8417779477458599,-0.4405449817654689,0.2548202221155948,-0.5557075374490189,2.817643131288432,-2.2704365727488582
1784201695514404096,2.463352918624878,-1.3993664979934692,-0.23127481341362,0.044637490063905716,0.2723727822303772,0.5184072852134705,0.8105965256690979,0.20827904343605042,-0.20750951766967773,0.24294644594192505,0.17471583037533917,-0.8425095964832625,-0.44212650225115013,0.25332991933305216,-0.5449873461354557,2.8174303379833434,-2.2663776997171037
1784201695524323072,2.4732718467712402,-1.7575792074203491,-0.0624743327498436,-0.10001503676176071,0.2728706896305084,0.5053623914718628,0.818627119064331,0.1328299641609192,-0.13953298330307007,0.21912306547164917,0.16774509349592426,-0.8436540337979681,-0.44447884615941163,0.25009599217804857,-0.529801895844597,2.8198476199082467,-2.2597866327726535
1784201695534242816,2.483191728591919,-1.6352827548980713,-0.0467318557202816,0.1119270846247673,0.2732233703136444,0.49152055382728577,0.8268957734107971,0.1418767273426056,-0.025166183710098267,0.19007205963134766,0.16056059041792628,-0.8450053326548079,-0.4465577929493819,0.24652065856558616,-0.5138349180608072,2.8224658602688564,-2.253780653726392
1784201695544163072,2.4931118488311768,-1.8644744157791138,0.20070084929466248,-0.2032042294740677,0.2725321650505066,0.4767826497554779,0.8357060551643372,0.1302388608455658,0.07808801531791687,0.20410418510437012,0.1531764471470416,-0.8463619006422514,-0.4489148856463747,0.24224774910309954,-0.49699092351989116,2.826357076026505,-2.2468559085976016
1784201695554082816,2.5030317306518555,-1.1608494520187378,0.30014753341674805,-0.00841530878096819,0.2698453366756439,0.46483203768730164,0.8432765603065491,0.16808193922042847,0.12319603562355042,0.22915714979171753,0.1476616408991717,-0.8474286580987374,-0.451113022578277,0.2378191478314337,-0.4834449037773241,2.831893109408814,-2.2401711818749703
1784201695564003072,2.5129518508911133,-1.5541157722473145,0.3533170223236084,0.03572312369942665,0.26719141006469727,0.4535489082336426,0.8502364158630371,0.20255038142204285,0.030978620052337646,0.20303189754486084,0.14281082621830082,-0.84894262727378,-0.4521223546545733,0.23342409630643435,-0.4707433417604023,2.8371093467825794,-2.2364215414098547
1784201695573922816,2.522871732711792,-1.733189344406128,0.3231194317340851,-0.1541057527065277,0.26370278000831604,0.43899717926979065,0.8589190244674683,0.20272782444953918,0.1227702796459198,0.3869609236717224,0.13634718781843738,-0.8502967322589343,-0.45437318248567427,0.22792501938228563,-0.45448223784854036,2.8437107002362363,-2.2294310318400505
1784201695583843072,2.53279185295105,-1.5705835819244385,0.45601198077201843,0.29795998334884644,0.26070085167884827,0.4250803291797638,0.8667996525764465,0.33523112535476685,-0.08837994933128357,0.2591463327407837,0.13038268654577326,-0.8519820210741142,-0.45555070882773535,0.22271168234236186,-0.4390506409871209,2.8494364375434023,-2.225188876218683
1784201695593762816,2.5427117347717285,-2.2003259658813477,0.6696494221687317,0.051975663751363754,0.25594890117645264,0.40822285413742065,0.8762672543525696,0.19461262226104736,-0.17302387952804565,0.43022072315216064,0.12357214430744401,-0.85421641743977,-0.4565609976533528,0.2158617717616302,-0.4205064564769275,2.8574084549678505,-2.2209339479886676
1784201695603683072,2.5526318550109863,-2.19659161567688,0.593773603439331,-0.10963772982358932,0.24851058423519135,0.3880901038646698,0.8874843120574951,0.21515822410583496,-0.038206130266189575,0.5055057406425476,0.11562885916312511,-0.8562312086674313,-0.4589229504726454,0.20709363205908032,-0.3985583787119076,2.8685682992069568,-2.2130319108079894
1784201695613601536,2.5625503063201904,-2.248558521270752,0.8028191924095154,0.17710548639297485,0.24263602495193481,0.3680357038974762,0.8975954651832581,0.3056733012199402,-0.018090635538101196,0.4005308151245117,0.10757739755802072,-0.8583032594269102,-0.46055754614896766,0.19907135816782262,-0.37689555070774766,2.8775846445267477,-2.2072457001461516
1784201695623521280,2.572470188140869,-1.9565246105194092,1.040406584739685,0.27138271927833557,0.23517146706581116,0.34803447127342224,0.907505452632904,0.18388062715530396,0.017962753772735596,0.4870867133140564,0.10020225112281668,-0.8608347535483174,-0.4612117155117894,0.19028063438280662,-0.35547368566648524,2.888029790096774,-2.203669270038082
1784201695633441536,2.582390308380127,-1.9114426374435425,1.1318362951278687,0.3722077012062073,0.225946307182312,0.3301948308944702,0.9164711236953735,0.1464596688747406,-0.0033516287803649902,0.41704005002975464,0.09441718324723158,-0.8635079591608469,-0.46107436553085124,0.18124499175787995,-0.33650996133708727,2.899873609689802,-2.2019640929290634
1784201695643360256,2.5923092365264893,-1.4411747455596924,1.2378178834915161,0.42618224024772644,0.21629755198955536,0.31336209177970886,0.9246729016304016,0.23904001712799072,0.0548478364944458,0.5823158025741577,0.08927987623155692,-0.8661988678920846,-0.4604736416177113,0.17231586565453774,-0.3187313747302469,2.911806396711048,-2.201467179920463
1784201695653280512,2.602229356765747,-1.2591596841812134,1.4429256916046143,0.4708728790283203,0.20526331663131714,0.30056530237197876,0.931411623954773,0.22759801149368286,-0.07140880823135376,0.5363160371780396,0.08644568411719834,-0.8689366677634358,-0.45897155070457163,0.16377231193176855,-0.30528531868230546,2.9246811299496898,-2.2031874294177647
1784201695663200256,2.612149238586426,-1.264642596244812,1.5583484172821045,0.5416314601898193,0.19285887479782104,0.2874440848827362,0.9381797909736633,0.16660767793655396,0.037812262773513794,0.5877295732498169,0.08383434010330923,-0.8719101066571517,-0.45701494567803946,0.15453769758010918,-0.29155723821845103,2.938849919968209,-2.205892796782148
1784201695673120512,2.6220693588256836,-1.1833842992782593,1.8334943056106567,0.39776191115379333,0.1785883605480194,0.2757932245731354,0.9444810748100281,0.2179875671863556,0.040140002965927124,0.4907149076461792,0.08225392892681033,-0.8746761492487778,-0.4551726846323623,0.1448923923564835,-0.27941482748444085,2.9547127971297544,-2.20829522495989
1784201695683040256,2.6319892406463623,-1.207912564277649,1.9283207654953003,0.4657436013221741,0.1623387634754181,0.2630479037761688,0.9510266184806824,0.23809759318828583,0.048063457012176514,0.5182725191116333,0.08058094779858335,-0.877472064714171,-0.4533829226535709,0.13413920417727754,-0.2661800160165157,2.972523751803257,-2.210456912023516
1784201695692960512,2.64190936088562,-0.9599946141242981,2.1450459957122803,0.44254976511001587,0.14384262263774872,0.25259748101234436,0.9568196535110474,0.2865467667579651,-0.010410010814666748,0.38590800762176514,0.08045642894919044,-0.8802306937086123,-0.45122471317787766,0.12295099733606232,-0.25536386791140353,2.9923759667006666,-2.2133975144179026
1784201695702880256,2.651829242706299,-0.7764900326728821,1.9451485872268677,0.39639610052108765,0.1256374716758728,0.2433667629957199,0.9617629647254944,0.3745761513710022,0.11573357880115509,0.3877091407775879,0.08073438548447331,-0.8826797316029222,-0.44917476231736775,0.11225202290311259,-0.24583547223069432,3.011695736735763,-2.2162157187777445
1784201695712800512,2.6617493629455566,-0.5811969041824341,1.9566783905029297,0.4200320839881897,0.1075446680188179,0.23693108558654785,0.9655557870864868,0.3665459156036377,0.06435373425483704,0.31398534774780273,0.08221178280382106,-0.8848877158385802,-0.44693580897088286,0.1022906335784519,-0.2392057718123272,3.0306687371566055,-2.219535829406801
1784201695722720512,2.6716692447662354,-0.5594836473464966,2.218290090560913,0.45522281527519226,0.08847814053297043,0.23050540685653687,0.9690403342247009,0.2613295912742615,0.053842127323150635,0.31440699100494385,0.08388473474701784,-0.8871465731179247,-0.4443997293638117,0.09188721000411536,-0.23259705027054028,3.0505402051406927,-2.2234520503753763
1784201695732640512,2.681589365005493,-0.2957245707511902,2.2064473628997803,0.582389771938324,0.06834342330694199,0.22613801062107086,0.971695065498352,0.1985480785369873,-0.031588390469551086,0.23802196979522705,0.08671473759063215,-0.889436282024279,-0.44130561021233483,0.0814441819561947,-0.2281111584762796,3.071374064605176,-2.2284927370174583
1784201695742560512,2.691509246826172,-0.26807987689971924,1.9549764394760132,0.27047207951545715,0.049361687153577805,0.2231852263212204,0.97352534532547,0.1621403843164444,-0.03771468997001648,0.23228508234024048,0.08983465683339299,-0.8913455061531602,-0.43848129962128046,0.07188195925563508,-0.22508090298853764,3.0909319761825698,-2.232974720737516
1784201695752480512,2.7014293670654297,-0.027039840817451477,1.785976767539978,0.23092401027679443,0.032480716705322266,0.22158271074295044,0.974600613117218,0.11281347274780273,0.09984372556209564,0.19280362129211426,0.09296985890264238,-0.8925051524424463,-0.43673202395203814,0.06368957447710254,-0.22343722835158134,3.1082777762203655,-2.235175558985893
1784201695762399488,2.711348295211792,0.5058948993682861,1.8804996013641357,0.2746858596801758,0.01516741793602705,0.22398065030574799,0.974475622177124,0.07325726002454758,0.2736084461212158,0.08584237098693848,0.09802296667861901,-0.8935365352197573,-0.4345460488721554,0.056157974524040824,-0.22589699317487644,3.1260292127775484,-2.2380679526152947
1784201695772319232,2.7212681770324707,1.1783925294876099,2.369704008102417,0.07296893000602722,-0.004835953004658222,0.23184800148010254,0.9727400541305542,-0.08352769911289215,0.31061720848083496,0.0338212251663208,0.10613007363731557,-0.8940132973444632,-0.43256242416766966,0.04864570311022881,-0.2339770195413753,-3.136621219418716,-2.2397304434886385
1784201695782239488,2.7311882972717285,1.6006356477737427,2.326953172683716,0.03059244528412819,-0.027463482692837715,0.2455849051475525,0.9689857959747314,0.03272777050733566,0.20958472788333893,0.03583580255508423,0.11749334246886364,-0.893836242885025,-0.43075475147046033,0.041259318106282514,-0.24812303542200898,-3.113257734834623,-2.2399054774469613
1784201695792159232,2.7411081790924072,1.8007346391677856,2.319145917892456,-0.003909439779818058,-0.04923473298549652,0.2622988224029541,0.9637298583984375,0.20389781892299652,0.1793363094329834,0.0670013427734375,0.13007455326484335,-0.893345705098541,-0.428717148856418,0.03486648552878869,-0.2654036511881583,-3.0905493401953206,-2.2398992332563017
1784201695802079488,2.751028299331665,1.8026620149612427,2.2154409885406494,-0.29925933480262756,-0.0715944692492485,0.2792554497718811,0.9575439691543579,0.1724092960357666,0.08283558487892151,0.10907578468322754,0.14290416636270867,-0.8920711191235329,-0.42776291065328703,0.028396691759873367,-0.2830186366925972,-3.066962661703969,-2.236701841142585
1784201695811999232,2.7609481811523438,1.8049523830413818,2.165642738342285,-0.20092810690402985,-0.09370114654302597,0.2957051694393158,0.95067298412323,0.2946441173553467,-0.05290725827217102,0.11953294277191162,0.1554991602446964,-0.8904030747853103,-0.4272222427129076,0.0219924289818047,-0.3001936169742576,-3.0433470080236784,-2.2319956420716043
1784201695821919488,2.7708683013916016,1.5509430170059204,1.8763713836669922,-0.1439974457025528,-0.11315619200468063,0.31175118684768677,0.9434016942977905,0.27698981761932373,-0.17755016684532166,0.0840335488319397,0.16740534754595163,-0.8889638446867834,-0.42596259623371807,0.01657021219112907,-0.3170355103832391,-3.02221807588924,-2.2288011038788347
1784201695831839232,2.7807881832122803,1.1615092754364014,1.5329829454421997,-0.0523168183863163,-0.1294032335281372,0.32374322414398193,0.9372539520263672,0.1334926038980484,-0.1328253149986267,0.12581056356430054,0.17673655104759928,-0.8877329282781945,-0.42492026874700045,0.011712225063539467,-0.32968312570819963,-3.004393698064674,-2.225877528828657
1784201695841759488,2.790708303451538,0.7516534328460693,1.1306523084640503,-0.3317210376262665,-0.14223702251911163,0.3325262665748596,0.9323063492774963,0.13305124640464783,-0.05414491891860962,0.04173851013183594,0.1838100451958756,-0.8865372725063523,-0.4245053973807506,0.007794191610384487,-0.3389810136838786,-2.990195397479465,-2.2224895924520616
1784201695851679232,2.800628185272217,0.6632296442985535,1.1050443649291992,-0.22564886510372162,-0.15304532647132874,0.338430255651474,0.928462564945221,0.08769190311431885,0.052133798599243164,0.02818751335144043,0.18907831518176552,-0.8853441225368612,-0.42473175112274203,0.004275060789820646,-0.3452482174771034,-2.9782243557103936,-2.218435061227918
1784201695861599488,2.8105483055114746,0.5516431927680969,1.376057744026184,-0.26538214087486267,-0.16479676961898804,0.3434474468231201,0.9246004819869995,-0.05727966129779816,-0.004107236862182617,-0.14693617820739746,0.1941643795936635,-0.8844055552719984,-0.42441376702489814,8.649234192391374e-06,-0.35058518294654756,-2.965209210218632,-2.2154201709350496
1784201695871519232,2.8204681873321533,0.3029513657093048,1.3799737691879272,-0.04933547601103783,-0.17888802289962769,0.34637054800987244,0.9208834767341614,-0.24756459891796112,-0.054653048515319824,-0.21130406856536865,0.1988071724413374,-0.8835461053013177,-0.4240141669355723,-0.005825337870678834,-0.35369938474900753,-2.9497252953927706,-2.2123224011511944
1784201695881439488,2.830388307571411,-0.03590177744626999,1.0900261402130127,-0.041387539356946945,-0.190154030919075,0.34784626960754395,0.9180656671524048,-0.13426309823989868,-0.09877705574035645,-0.3330742120742798,0.20211128666782627,-0.8832835082022049,-0.4228984183030521,-0.010873597839392988,-0.35527294479672356,-2.9373559504076736,-2.2117466774615355
1784201695891358464,2.8403072357177734,0.2815886437892914,1.0205203294754028,-0.1397596150636673,-0.20067542791366577,0.3488602042198181,0.9154376983642578,-0.11431179940700531,-0.12626495957374573,-0.39416682720184326,0.20503231800582716,-0.8828458744932814,-0.4222582410644641,-0.015587234430559245,-0.3563546148465871,-2.9257935840351785,-2.2103215189058187
1784201695901278464,2.8502273559570312,-0.4833410084247589,0.5681989789009094,0.13702696561813354,-0.20819205045700073,0.3482119143009186,0.914004921913147,-0.04647719860076904,-0.09352737665176392,-0.42943131923675537,0.20645475751514158,-0.88280093772197,-0.4215032129986562,-0.019341487363967357,-0.3556629578730518,-2.9176337315845307,-2.2102678942051677
1784201695911198464,2.86014723777771,-0.5698884725570679,0.002844220958650112,0.0941162258386612,-0.20978514850139618,0.3430396020412445,0.9155949354171753,-0.013878196477890015,0.1373681128025055,-0.3333958387374878,0.2043104179150463,-0.8836549831140676,-0.420655845466474,-0.021442984399467988,-0.3501509526215026,-2.916356030193144,-2.2129929804361144
1784201695921118464,2.8700673580169678,-0.13713118433952332,0.452615886926651,-0.12079128623008728,-0.21173840761184692,0.33999475836753845,0.9162808060646057,-0.17398855090141296,0.024690330028533936,-0.46729087829589844,0.1938768517947321,-0.9526538110515719,-0.22492472266636285,-0.06535585387179002,-0.3469113137412416,-2.914494390328506,-2.63792018818806
1784201695931038464,2.8799872398376465,0.01822071336209774,0.12389881908893585,0.3514711260795593,-0.21492618322372437,0.3398550748825073,0.9155901670455933,-0.07712703943252563,0.19173061847686768,-0.40016353130340576,0.1869449098704453,-0.9695871509135672,-0.13302573577370325,-0.0851853367335997,-0.3467628022927586,-2.9110265356278995,-2.8283428977922185
1784201695940958464,2.8899073600769043,0.051941126585006714,-0.02330634742975235,-0.09064822643995285,-0.21478891372680664,0.34083428978919983,0.9152584075927734,-0.07668450474739075,0.23532232642173767,-0.4572504758834839,0.18252086942569234,-0.9753218612019018,-0.07985274748460187,-0.09516823953853358,-0.34780418881949715,-2.911088030940929,-2.937541706567115
1784201695950878464,2.899827241897583,0.5849179029464722,-0.39816543459892273,-0.30851322412490845,-0.2132921814918518,0.3431268334388733,0.9147514700889587,0.039876073598861694,0.1683172583580017,-0.4030023217201233,0.18043725178467176,-0.9772965735142214,-0.04761460502830477,-0.10033253655132578,-0.3502438120072587,-2.9125160599966478,-3.0035240986328793
1784201695960798464,2.909747362136841,0.7170487642288208,-0.2680678963661194,0.0950973704457283,-0.21102525293827057,0.34890004992485046,0.9130921959877014,0.16431809961795807,0.023216068744659424,-0.44393014907836914,0.18125151567198675,-0.9776660931320694,-0.02674143452510863,-0.10296532112763868,-0.3563971321456364,-2.9144697476911263,-3.045823785130585
1784201695970718464,2.9196672439575195,0.6324109435081482,-0.399475634098053,0.04754696041345596,-0.20792996883392334,0.35591763257980347,0.9110918641090393,0.03690941631793976,0.040917783975601196,-0.41887354850769043,0.18317834768230426,-0.9774643852684057,-0.010454642055060921,-0.10440270263017154,-0.3638958199348813,-2.91721487116208,-3.078752372107222
1784201695980638464,2.9295873641967773,0.6857335567474365,-0.3366290330886841,-0.28016671538352966,-0.204864963889122,0.3605847656726837,0.9099498391151428,-0.017562389373779297,0.1691392958164215,-0.3756482005119324,0.18440002404773329,-0.9772277938669829,0.0008721273836954972,-0.10498402096716963,-0.3688947711766705,-2.9201461556578443,-3.101899016972796
1784201695990558464,2.939507246017456,0.8545874953269958,-0.624389111995697,-0.42497092485427856,-0.20292776823043823,0.36755111813545227,0.9075936675071716,0.20077629387378693,0.11723586916923523,-0.3892222046852112,0.18728741043135302,-0.9765901990210568,0.008271558018095829,-0.1054823601540069,-0.3763744358700335,-2.921621836865423,-3.1164769907107086
1784201696000478464,2.949427366256714,0.8021727800369263,-0.5146682262420654,-0.3257806897163391,-0.19862858951091766,0.37409675121307373,0.905868649482727,0.24561044573783875,0.012911856174468994,-0.2906497120857239,0.1901560431351152,-0.9760862051601291,0.013785704982523093,-0.10443312488782214,-0.38342261217339463,-2.92574004374735,-3.1277845252103216
1784201696010397440,2.959346294403076,0.652907133102417,-0.12418010830879211,-0.1182568222284317,-0.1963774561882019,0.38033127784729004,0.9037609100341797,0.23016045987606049,-0.031973183155059814,-0.23463261127471924,0.19294271821534859,-0.9754633881937149,0.018751832819509272,-0.10436758688219049,-0.390154471154829,-2.927629493764196,-3.1376022896570515
1784201696020317440,2.969266176223755,0.6410341858863831,-0.22248297929763794,-0.05495694279670715,-0.19493059813976288,0.38595050573349,0.9016900062561035,0.2484431117773056,-0.07325205206871033,-0.24064850807189941,0.19544468696773173,-0.974831969918082,0.02340151979138633,-0.1046734255188462,-0.3962379235954101,-2.9286854561332882,3.13648773345595
1784201696030237440,2.9791862964630127,0.08276209235191345,-0.4531667232513428,0.15725702047348022,-0.19184595346450806,0.38961970806121826,0.9007726907730103,0.45185577869415283,-0.2958697974681854,-0.2336280345916748,0.19700399824758388,-0.9744973019280675,0.027227781570378976,-0.10393765144631063,-0.4002186390104586,-2.931748690505037,3.1284382538799718
1784201696040157440,2.9891061782836914,-0.15332339704036713,-0.625901997089386,0.2028399407863617,-0.18580904603004456,0.38955968618392944,0.9020634889602661,0.5616940259933472,-0.30273711681365967,-0.17574501037597656,0.19649833926864174,-0.9746835570049617,0.031995668915877,-0.10176802460114885,-0.40015344786943785,-2.9384516292447347,3.1172940900990898
1784201696050077440,2.999026298522949,-0.36110591888427734,-1.0034308433532715,-0.08742610365152359,-0.17905256152153015,0.38711634278297424,0.904478132724762,0.48111557960510254,-0.2048501968383789,-0.22619467973709106,0.19495265416973753,-0.9752058535139067,0.03482252978102596,-0.0987637910924011,-0.39750203228623454,-2.946157192492276,3.109690533237672
1784201696059997440,3.008946180343628,-0.15429572761058807,-1.2501308917999268,0.2632538974285126,-0.16813379526138306,0.38476306200027466,0.9075729846954346,0.41114524006843567,-0.05080917477607727,-0.26246178150177,0.193566198823144,-0.975911534704404,0.03719100648005552,-0.09351853553503156,-0.3949511167134536,-2.9584128910795364,3.1021614216071187
1784201696069917440,3.0188663005828857,-0.04350396618247032,-1.0529404878616333,0.14347660541534424,-0.15751266479492188,0.38442686200141907,0.9096181988716125,0.21952442824840546,-0.08170780539512634,-0.25667959451675415,0.19323725092541857,-0.976320640114085,0.04008887488685593,-0.08860101304076037,-0.39458689651605555,-2.970129477143917,3.0938716661026424
1784201696079837440,3.0287861824035645,-0.029868053272366524,-1.2089335918426514,0.319824755191803,-0.14659787714481354,0.3842678368091583,0.9115081429481506,0.12071900069713593,-0.030050337314605713,-0.2699372172355652,0.19307995307147455,-0.9766995820864901,0.0425676722174514,-0.08346261751259347,-0.3944146399936319,-2.9821281910032833,3.0864080745408073
1784201696089757440,3.0387063026428223,0.0983700156211853,-1.2132924795150757,0.3403157591819763,-0.13446734845638275,0.38502928614616394,0.9130558967590332,0.20468828082084656,-0.07120177149772644,-0.3295140266418457,0.19339382300954439,-0.976942600710269,0.04594659391291121,-0.0779159983828198,-0.3952395464312145,-2.9953719771358664,3.076928308870324
1784201696099677440,3.048626184463501,-0.1498323380947113,-1.086480975151062,0.3176138997077942,-0.12255055457353592,0.38522160053253174,0.914650559425354,0.14461475610733032,-0.13487064838409424,-0.341652512550354,0.1934596671022539,-0.9771927871279242,0.049188702120477545,-0.07244354371885958,-0.395447932523526,-3.008399706593721,3.067726077748981
1784201696109597440,3.058546304702759,-0.2503409683704376,-1.193617343902588,0.26041045784950256,-0.11100099235773087,0.3838426470756531,0.9167025089263916,0.14667604863643646,-0.14672109484672546,-0.2604067921638489,0.19275761566261732,-0.9775709854391866,0.052021501711337036,-0.06703148800606044,-0.39395414929509387,-3.021092044482723,3.0593384794541034
1784201696119517440,3.0684661865234375,-0.40951862931251526,-1.1893903017044067,0.39546388387680054,-0.09916296601295471,0.38118621706962585,0.9191645383834839,0.1742057204246521,-0.17047762870788574,-0.2367916703224182,0.19143933963080934,-0.9780575261720922,0.05464187048385618,-0.061389114236465446,-0.391079038325069,-3.0341245024356756,3.051279150290258
1784201696129437440,3.0783863067626953,-0.6510414481163025,-1.1768029928207397,0.32737845182418823,-0.0869244709610939,0.37670302391052246,0.9222463965415955,0.1712293177843094,-0.12487205862998962,-0.19405150413513184,0.18918572603860406,-0.9786745316885204,0.05761396290966297,-0.055546530145150784,-0.38623453473176717,-3.0476173012069165,3.0423799163908773
1784201696139356416,3.0883052349090576,-0.7289455533027649,-1.1517176628112793,0.3984374701976776,-0.07512859255075455,0.3705833852291107,0.9257559776306152,0.10988809168338776,-0.12328410148620605,-0.15164685249328613,0.18612604634973573,-0.9794158150942077,0.06018845444770249,-0.04979185888683409,-0.37963703997954334,-3.0606163382278533,3.0344064980826446
1784201696149276416,3.0982253551483154,-0.6988063454627991,-0.9830325245857239,0.3958599269390106,-0.06365428119897842,0.3641929626464844,0.9291459918022156,0.10470040142536163,-0.07163611054420471,-0.1379622220993042,0.1829439920835493,-0.9800958503724557,0.06312772168279342,-0.04425687393519896,-0.3727661110507999,-3.07319115508264,3.0258543260763027
1784201696159196416,3.108145236968994,-0.7168670892715454,-0.9228171706199646,0.3937768042087555,-0.05337319150567055,0.35793083906173706,0.9322214722633362,0.08122047781944275,-0.028386801481246948,-0.13996988534927368,0.17984509508547541,-0.9806941156692206,0.065952909124263,-0.03930675394595533,-0.36605097995244346,-3.084401323673006,3.017881098917073
1784201696169116416,3.118065357208252,-0.6493757367134094,-0.9278534054756165,0.31292974948883057,-0.043708816170692444,0.35190361738204956,0.9350154399871826,0.13762664794921875,-0.03957134485244751,-0.12240839004516602,0.17690515085472802,-0.9812411329226378,0.0683635094494475,-0.03459727130249107,-0.3596040133913945,-3.0948800346006724,3.0109687857084766
1784201696179036416,3.1279852390289307,-0.7703109383583069,-0.9130880236625671,0.2967933714389801,-0.034056730568408966,0.34550222754478455,0.9377995729446411,0.14742955565452576,-0.11550655961036682,-0.08353644609451294,0.1738048356492566,-0.9817822177196358,0.07073510647985692,-0.029866571076994777,-0.3527739141656316,-3.105293031051956,3.0042165901384834
1784201696188956416,3.1379053592681885,-0.9558762907981873,-0.9518876075744629,0.30265340209007263,-0.023905783891677856,0.3374439775943756,0.941041886806488,0.17444899678230286,-0.13547870516777039,-0.03932386636734009,0.1698950973530425,-0.9824411179560343,0.07300952002951198,-0.024792174139855922,-0.3442002968976803,-3.1161945883506634,2.997651465166307
1784201696198876416,3.147825241088867,-1.02472984790802,-0.9713872671127319,0.22877223789691925,-0.01391114853322506,0.32811838388442993,0.9445342421531677,0.09563721716403961,-0.07521918416023254,0.0029298067092895508,0.16536192299540944,-0.9831716794585427,0.07510377973692398,-0.019706507150949404,-0.334310991805782,-3.12686566751668,2.9915951553843962
1784201696208796416,3.157745361328125,-0.9878370761871338,-0.9920458793640137,0.1673492193222046,-0.004019102081656456,0.31861379742622375,0.9478763341903687,0.03470452129840851,-0.03806561231613159,-0.0024720430374145508,0.16077449937408497,-0.9838808300430981,0.07692003002790541,-0.014611861491820912,-0.3242666975170829,-3.137352566716059,2.986243164310258
1784201696218716416,3.1676652431488037,-0.8727619051933289,-0.8353095054626465,0.21028897166252136,0.005024656653404236,0.3100219666957855,0.9507161974906921,0.05678869038820267,-0.013421624898910522,-0.05011188983917236,0.15666094128225638,-0.984465117625184,0.07865444024173783,-0.009964548334172825,-0.3152161471501088,3.1363075746900875,2.9813002038895027
1784201696228636416,3.1775853633880615,-0.8552047610282898,-0.8468620777130127,0.16198748350143433,0.013567078858613968,0.30172303318977356,0.9532991051673889,0.09780682623386383,0.030231952667236328,-0.08836984634399414,0.1527062450279408,-0.9849730523102945,0.0804838159358119,-0.005590855151759824,-0.3064993832424739,3.127361901444627,2.976333404973072
1784201696238556416,3.1875052452087402,-0.8010730743408203,-0.766889214515686,0.15533490478992462,0.021666578948497772,0.29391342401504517,0.9555866718292236,0.08476347476243973,0.01815938949584961,-0.10272693634033203,0.14901271457181292,-0.9854269430539132,0.08201871364659181,-0.001409075816286237,-0.2983185391661742,3.1189229481726026,2.972105326027674
1784201696248476416,3.197425365447998,-0.7389527559280396,-0.7035850286483765,0.0788346379995346,0.029166443273425102,0.28672489523887634,0.957568883895874,0.03685833513736725,-0.04090580344200134,-0.09364676475524902,0.14563466402371944,-0.9858129907925658,0.08340976193951448,0.0024709238247470062,-0.2908064304431569,3.1111432218679305,2.968315233514452
1784201696258396416,3.2073452472686768,-0.8409004211425781,-0.6543168425559998,0.14805206656455994,0.03592676296830177,0.2792455852031708,0.9595473408699036,0.05806737765669823,-0.06879636645317078,-0.02921903133392334,0.1420929967852152,-0.9861927147948141,0.08483869724734285,0.005991117903460386,-0.2830083650285782,3.104168769120583,2.964630350144058
1784201696268315392,3.217264175415039,-0.9494059681892395,-0.612608015537262,0.062288518995046616,0.04249122738838196,0.27072975039482117,0.9617173671722412,0.08156272768974304,-0.02838963270187378,0.02947843074798584,0.13802817441298498,-0.9866206884117031,0.08624554938701462,0.009467973042648273,-0.2741510245674301,3.0974387131453907,2.9611141606415297
1784201696278235392,3.227184295654297,-0.8708534240722656,-0.5102440714836121,-0.056801918894052505,0.04782014712691307,0.2617556154727936,0.9639487266540527,0.05235379934310913,-0.011130034923553467,0.11582416296005249,0.13368313973295434,-0.9871113361635155,0.0870951394239787,0.01242709042347338,-0.2648407843726314,3.092024688119587,2.958979995861619
1784201696288155392,3.2371041774749756,-1.0872989892959595,-0.41350820660591125,0.03095996007323265,0.052101489156484604,0.25260043144226074,0.9661669135093689,0.0477825403213501,-0.04898717999458313,0.17215394973754883,0.12921032567716287,-0.9875994815798621,0.08792456448063399,0.014874432832257012,-0.25536691853942195,3.087718866398557,2.957085671036843
1784201696298075392,3.2470242977142334,-1.0385046005249023,-0.24609071016311646,0.033460404723882675,0.05553894117474556,0.24227043986320496,0.968617856502533,0.07747192680835724,-0.07500359416007996,0.2864633798599243,0.1241183594363307,-0.9881085739870222,0.08916486020183262,0.01690348142106578,-0.24470532307807583,3.084317024242242,2.9545594044419734
1784201696307995392,3.256944179534912,-1.0750749111175537,-0.06362006068229675,0.04708403721451759,0.057183753699064255,0.2320801168680191,0.9710143804550171,0.054434288293123245,-0.0937286764383316,0.3228393793106079,0.11902621974052327,-0.9886076822560284,0.09034397644043822,0.018044139009822983,-0.23421563927480143,3.0827698541054187,2.952406536504492
1784201696317915392,3.26686429977417,-1.1419734954833984,0.18727821111679077,0.07519795745611191,0.056660741567611694,0.22121568024158478,0.9735776782035828,0.0850323885679245,-0.10823954641819,0.39815711975097656,0.1135077502972473,-0.9891069886148789,0.09195766436617314,0.018089511526896876,-0.22306085805224893,3.0834597499336014,2.9496724350334884
1784201696327835392,3.2767841815948486,-1.1333162784576416,0.20989049971103668,0.21123558282852173,0.05499868467450142,0.2101428508758545,0.9761226773262024,0.13163156807422638,-0.1653582751750946,0.42927300930023193,0.10784640741117997,-0.9895600986753298,0.093979500695731,0.01754718249351003,-0.21172107232851925,3.0853081331662593,2.9462364546754958
1784201696337755392,3.2867043018341064,-1.2929242849349976,0.189472034573555,0.27997416257858276,0.053903497755527496,0.19824816286563873,0.9786683320999146,0.2097378522157669,-0.12325125932693481,0.45857203006744385,0.10181773454130735,-0.9899493232909142,0.0966152399641719,0.017288363556228457,-0.1995702777290162,3.086569836733154,2.9415064265406654
1784201696347675392,3.296624183654785,-1.1722021102905273,0.4674992561340332,0.21909472346305847,0.05111323297023773,0.18583610653877258,0.9812506437301636,0.21368780732154846,0.016846448183059692,0.5060237646102905,0.09545162961100656,-0.9903421049944441,0.09923624986009914,0.016241210383569724,-0.1869227183970671,3.0895498051640953,2.9369721006851237
1784201696357595392,3.306544303894043,-0.857958197593689,0.4873208999633789,0.21956050395965576,0.04673600569367409,0.17561961710453033,0.9833481907844543,0.1771562099456787,0.13524770736694336,0.46104884147644043,0.0901168643773358,-0.9905948252159277,0.10196070768494409,0.01431425231563917,-0.1765351313649534,3.094100966188149,2.932253828221051
1784201696367515392,3.3164641857147217,-0.18907755613327026,0.5562806129455566,0.14041632413864136,0.042365387082099915,0.17004486918449402,0.9845250248908997,0.1581656038761139,0.2778463363647461,0.4479241371154785,0.08711067426625753,-0.9906485406545494,0.10429752187828999,0.01221146141085799,-0.170875206491665,3.0985878876431565,2.9281176038428165
1784201696377435392,3.3263843059539795,0.5656399130821228,0.8280620574951172,0.14438575506210327,0.036113299429416656,0.17182403802871704,0.9844655394554138,0.09561581909656525,0.34192413091659546,0.4023142457008362,0.08769167324009086,-0.9903951959283126,0.1065369445325466,0.00879875733994036,-0.17268094692421274,3.104925941368779,2.924102428472515
1784201696387354368,3.336303234100342,0.9979699850082397,1.2751771211624146,0.11198277771472931,0.02592179924249649,0.1796061098575592,0.9833970069885254,0.06691267341375351,0.2723897695541382,0.4719405174255371,0.09106022596127715,-0.9898807527887535,0.1087870090100957,0.0030859578992300032,-0.18058603123793904,3.115239311261516,2.9202868331561675
1784201696397274368,3.3462233543395996,1.1853963136672974,1.594177484512329,0.0910617783665657,0.012169481255114079,0.19034996628761292,0.9816408157348633,0.125174880027771,0.06473119556903839,0.5943173766136169,0.0956989307795691,-0.9891616445871724,0.11126387219848267,-0.004613091213292791,-0.1915186163244468,3.129196206903757,2.916377560122865
1784201696407194368,3.3561432361602783,1.0132176876068115,1.5788311958312988,0.1778063029050827,-0.003303136210888624,0.20140963792800903,0.9795013666152954,0.2232585847377777,-0.16307958960533142,0.6513730883598328,0.10038700848721374,-0.988473242856433,0.11256698498748416,-0.013102864540216448,-0.20279684403205053,-3.1382204033015966,2.915153436126181
1784201696417114624,3.366063356399536,0.5152401328086853,1.6926898956298828,0.2832469642162323,-0.01855180412530899,0.20875023305416107,0.9777928590774536,0.3479890823364258,-0.26944974064826965,0.7205254435539246,0.10316109606752948,-0.9876776611872203,0.11571193978163256,-0.02147752614577388,-0.21029686377233378,-3.122621785412841,2.910346956780651
1784201696427034368,3.375983238220215,0.1786360889673233,1.6114563941955566,0.457764208316803,-0.0340254083275795,0.21221786737442017,0.9766299724578857,0.3632337749004364,-0.3018479347229004,0.6953214406967163,0.10390369612145922,-0.9869331883849466,0.11948997035856998,-0.02981777650447218,-0.21384396046847606,-3.1067671283830016,2.904359769357427
1784201696436954624,3.3859033584594727,-0.07111462205648422,1.4960994720458984,0.2616402506828308,-0.04827406257390976,0.21293951570987701,0.9758720397949219,0.35483840107917786,-0.2615845799446106,0.6552314162254333,0.10327676447726679,-0.9862681734751966,0.12333333202413747,-0.03738790378134257,-0.21458249913433627,-3.092165327502738,2.898107837059694
1784201696446874368,3.3958232402801514,-0.015601498074829578,1.3538285493850708,0.21911877393722534,-0.061631519347429276,0.21219976246356964,0.9752810597419739,0.3001874089241028,0.0017132312059402466,0.6353148221969604,0.1019506642331328,-0.9857296430660605,0.12640257530245436,-0.04433526700827879,-0.21382544366131215,-3.07848297407402,2.893294981312932
1784201696456794624,3.405743360519409,0.19877977669239044,1.4650198221206665,0.03318353369832039,-0.07476568222045898,0.21331384778022766,0.9741186499595642,0.21185064315795898,0.24470920860767365,0.5232719779014587,0.10155747127797096,-0.9850932862581312,0.12903702096415617,-0.051251504558257485,-0.21496562968342825,-3.0649907098291975,2.8893657292561015
1784201696466714368,3.415663242340088,0.2829984426498413,1.9677116870880127,-0.300620436668396,-0.09149181842803955,0.21546946465969086,0.9722151160240173,0.04014600068330765,0.33804309368133545,0.5145402550697327,0.1015077171804021,-0.9844424898092322,0.13030938211206905,-0.059905292938731584,-0.21717256012649927,-3.0477624338809104,2.888621710708291
1784201696476634624,3.4255833625793457,0.38111862540245056,2.1624062061309814,-0.18794982135295868,-0.11221011728048325,0.21854370832443237,0.9693544507026672,0.11146241426467896,0.21501955389976501,0.5374664068222046,0.10168423463730995,-0.9836117549279456,0.1310920785995529,-0.07059193370791358,-0.22032184921901296,-3.0263480069225976,2.8893628247003207
1784201696486554368,3.4355032444000244,0.04043786972761154,2.1353297233581543,-0.18058264255523682,-0.1334025263786316,0.22054575383663177,0.9662107825279236,0.3045603632926941,-0.009470924735069275,0.5253205299377441,0.10124028804278647,-0.982641881487613,0.1323644154773499,-0.08151685723956749,-0.22237396932201894,-3.004392338928866,2.889141214098343
1784201696496474624,3.4454233646392822,-0.3143923878669739,1.9120756387710571,-0.18114857375621796,-0.15326644480228424,0.2187301069498062,0.96367347240448,0.39992475509643555,-0.11794580519199371,0.5437575578689575,0.09894625347886049,-0.9818429289434677,0.13349611431077169,-0.09150359957976786,-0.22051287588587165,-2.9838697123092315,2.888816931295783
1784201696506394368,3.455343246459961,-0.579008936882019,1.6623210906982422,-0.00501884613186121,-0.17039723694324493,0.21416214108467102,0.9618210792541504,0.48980942368507385,-0.17911265790462494,0.4563157558441162,0.0953594656437316,-0.981133266401434,0.13523332505255742,-0.09998070556678837,-0.21583398178425822,-2.966250919595727,2.886695573261326
1784201696516313344,3.4652621746063232,-0.7063429355621338,1.4911482334136963,-0.010335314087569714,-0.18551671504974365,0.20781220495700836,0.9604154229164124,0.39045751094818115,-0.12292754650115967,0.3517794609069824,0.09092970977227985,-0.9804709448243062,0.1374206150045681,-0.10735042517750136,-0.2093377976362898,-2.9507796993550675,2.883197125784581
1784201696526233344,3.475182294845581,-0.5518714785575867,1.475469946861267,-0.12228019535541534,-0.19948580861091614,0.20177654922008514,0.9589011073112488,0.20923620462417603,-0.012338697910308838,0.2161170244216919,0.08675845424031982,-0.9798412223531946,0.13914645120554756,-0.1141154627206244,-0.20317143409171484,-2.9364823910840787,2.880441808942028
1784201696536153344,3.4851021766662598,-0.18983447551727295,1.587712049484253,-0.1560479998588562,-0.2141781598329544,0.19756345450878143,0.9566067457199097,0.1265926957130432,0.17266054451465607,0.13752472400665283,0.08348915069851501,-0.9790745126116391,0.14041537195068235,-0.12135157809042918,-0.1988717587121201,-2.921331524293747,2.878765140999322
1784201696546073344,3.4950222969055176,0.3615836799144745,1.653690218925476,-0.07677289098501205,-0.22994695603847504,0.1982261687517166,0.9528014063835144,0.07697764039039612,0.203079953789711,0.012408435344696045,0.08260252622773846,-0.977940059713512,0.14154129359887663,-0.1295224016755357,-0.1995478520717226,-2.9047831568488096,2.877937033524604
1784201696555993344,3.5049421787261963,0.6311496496200562,1.6561453342437744,-0.2041497528553009,-0.24587737023830414,0.20272569358348846,0.9478641152381897,-0.00030791759490966797,0.11082714796066284,-0.08475083112716675,0.08368229735985361,-0.9765747143430911,0.1422458755010963,-0.1380766295339626,-0.20414061385163743,-2.8877852884920023,2.8784466138280695
