time,seconds_elapsed,rotationRateX,rotationRateY,rotationRateZ,gravityX,gravityY,gravityZ,accelerationX,accelerationY,accelerationZ,quaternionW,quaternionX,quaternionY,quaternionZ,pitch,roll,yaw
1784028335867893248,0.18721222877502441,-0.4995764195919037,-0.14432814717292786,-0.06408214569091797,0.16359826922416687,0.5850837230682373,-0.7943000793457031,-0.0017177760601043701,-0.061020612716674805,0.08842849731445312,0.7994019985843159,-0.3069898451498568,-0.09277498931069089,0.5080417230002293,-0.6249832908535224,0.20312481812897418,1.1980949739571212
1784028335877813248,0.19713234901428223,-0.46195554733276367,-0.14290601015090942,-0.10692574828863144,0.16253705322742462,0.5891852378845215,-0.7914811372756958,-0.010376393795013428,-0.02581554651260376,0.0677567720413208,0.7987116701496618,-0.30874776215645117,-0.09452114146015667,0.5077402477426853,-0.6300501219266175,0.2025422165875805,1.198718267823644
1784028335887733248,0.20705223083496094,-0.31993556022644043,-0.10646461695432663,-0.1631259024143219,0.1612679362297058,0.5931384563446045,-0.7887834906578064,-0.02406090497970581,0.024201631546020508,0.036982953548431396,0.7982228586041654,-0.310405731083717,-0.09621089633355716,0.5071804019070731,-0.6349514931004997,0.20167211929488282,1.198535983463535
1784028335897653248,0.21697235107421875,-0.1536075472831726,-0.06037408113479614,-0.21206575632095337,0.15943118929862976,0.5966535806655884,-0.786502480506897,-0.03255435824394226,0.032313644886016846,0.004703164100646973,0.7981036677507908,-0.31172769890746127,-0.09784984682449077,0.5062428362523164,-0.6393246472559596,0.19999906720150673,1.1969279973281768
1784028335907573248,0.22689223289489746,-0.022994214668869972,-0.008111223578453064,-0.24078357219696045,0.15688197314739227,0.5994052886962891,-0.7849212288856506,-0.017477676272392273,0.0039730072021484375,-0.005667150020599365,0.7983875731363553,-0.3124984508301998,-0.09941879144462619,0.5050127809416208,-0.6427579161318581,0.19727026153574143,1.1938725192953537
1784028335917493248,0.23681235313415527,-0.07321450859308243,0.0466950349509716,-0.27929607033729553,0.15438857674598694,0.6016468405723572,-0.7836997509002686,0.0003050118684768677,-0.027611196041107178,-0.013694047927856445,0.7989059643829762,-0.3130612079549424,-0.1007115494831324,0.5035863441584173,-0.6455612700263547,0.19450896417989644,1.190109145731969
1784028335927413248,0.24673223495483398,-0.12492743879556656,0.0656786561012268,-0.2526794970035553,0.1523103564977646,0.6035559177398682,-0.7826377153396606,0.005709663033485413,-0.07265686988830566,-0.014069437980651855,0.7994588724325441,-0.31358324866218634,-0.10171870905506539,0.5021795766212194,-0.6479534789336117,0.19220905595402235,1.186443924184113
1784028335937332480,0.2566514015197754,-0.19507989287376404,0.023198038339614868,-0.21304792165756226,0.15074989199638367,0.6049190163612366,-0.7818871140480042,0.03559044003486633,-0.09873920679092407,-0.03229135274887085,0.7999208291912904,-0.31394998811228786,-0.10242974351117547,0.5010690720041091,-0.6496641698647291,0.190465527462268,1.1835221992568834
1784028335947252224,0.2665712833404541,-0.22665925323963165,-0.03680788725614548,-0.15707553923130035,0.1495794653892517,0.6058059930801392,-0.7814249992370605,0.05078369379043579,-0.10337990522384644,-0.025413990020751953,0.800204156449491,-0.3141394776787094,-0.10297516306341044,0.5003856554132736,-0.6507785589332153,0.18913099537398334,1.1816406780699558
1784028335957172480,0.2764914035797119,-0.20245563983917236,-0.08664175122976303,-0.12063043564558029,0.14875023066997528,0.606207013130188,-0.781272292137146,0.03997050225734711,-0.08696573972702026,-0.010216355323791504,0.8003342102601303,-0.3141341433236001,-0.10336150205702221,0.5001011873681055,-0.6512826730380185,0.18814301810657177,1.180700277654903
1784028335967092224,0.2864112854003906,-0.08171504735946655,-0.10491964221000671,-0.14139853417873383,0.14793071150779724,0.605934739112854,-0.7816389799118042,0.01578083634376526,-0.05980747938156128,0.0030898451805114746,0.8005260452703468,-0.3137721205998339,-0.10357391224138539,0.49997739787724205,-0.6509403555880527,0.18704480513408542,1.1798528912557735
1784028335977012480,0.29633140563964844,0.08266004174947739,-0.08284736424684525,-0.1929863691329956,0.14688457548618317,0.6047033667564392,-0.7827891111373901,-0.00903668999671936,-0.017560482025146484,0.0026682615280151367,0.8010320567880073,-0.31287556518006737,-0.10351002539887239,0.4997422514645628,-0.6493933890559288,0.18548570054307656,1.178172569392352
1784028335986932224,0.30625128746032715,0.24561560153961182,-0.07625778764486313,-0.28799572587013245,0.14536933600902557,0.6024731993675232,-0.7847890257835388,-0.006392285227775574,0.013341009616851807,-0.004853308200836182,0.8019707162055034,-0.3113755056714816,-0.10320263380116623,0.49923695378401106,-0.646596220660156,0.1831576779672132,1.1751378286711383
1784028335996852480,0.31617140769958496,0.37581196427345276,-0.09060849249362946,-0.3939884603023529,0.14312106370925903,0.5993967056274414,-0.7875531911849976,0.007605239748954773,0.029189109802246094,-0.012678742408752441,0.8033656153392154,-0.30928475323026805,-0.102792715007248,0.4983778219546639,-0.6427471856518674,0.1797669279132469,1.1705058027048638
1784028336006772224,0.32609128952026367,0.43139946460723877,-0.07852991670370102,-0.4895266592502594,0.1402583122253418,0.595797598361969,-0.7907924652099609,0.030930042266845703,0.02732551097869873,-0.013650834560394287,0.8051389701807424,-0.3068071053674663,-0.10233845028015516,0.49713918320131917,-0.6382584180356581,0.17553874175713707,1.1644493494195072
1784028336016692480,0.3360114097595215,0.33856111764907837,-0.03708900138735771,-0.5743808150291443,0.137195885181427,0.5925841927528381,-0.7937387824058533,0.04764910042285919,0.005651891231536865,-0.0016713738441467285,0.807092401605153,-0.3045281898001701,-0.10194703563820683,0.49545043105851,-0.634263206276308,0.17115652468527948,1.1574100956764362
1784028336026612224,0.3459312915802002,0.26358988881111145,-0.06067650765180588,-0.4270782172679901,0.13448043167591095,0.5901446342468262,-0.7960177659988403,0.09058669209480286,-0.04989200830459595,0.027615725994110107,0.8088327667895227,-0.30274161983800735,-0.10167901437743697,0.4937594366344058,-0.6312379819613261,0.16736119505118882,1.1509126225590673
1784028336036531200,0.3558502197265625,0.11968144029378891,-0.2030448317527771,-0.09827157109975815,0.13289879262447357,0.5882635712623596,-0.7976740002632141,0.24255895614624023,-0.061835408210754395,0.04553782939910889,0.8096883860335997,-0.3014202223075071,-0.10153246140765852,0.4931953572677646,-0.6289099080481343,0.16509150564492497,1.1479978553775863
1784028336046451456,0.3657703399658203,0.006256348453462124,-0.36847734451293945,-0.015926498919725418,0.13198596239089966,0.5871409773826599,-0.7986521124839783,0.35397595167160034,-0.008405625820159912,0.08310645818710327,0.8096304515532112,-0.3005250386916438,-0.10177742570546379,0.4937860920621179,-0.6275224214367194,0.16378058796536882,1.1485708327715378
1784028336056371200,0.375690221786499,-0.05919536203145981,-0.3983793258666992,-0.15169577300548553,0.13098813593387604,0.5869560837745667,-0.7989522218704224,0.26471805572509766,0.0022773146629333496,0.11396992206573486,0.8093528131358378,-0.30007141581810376,-0.10237691791425912,0.49439269993156176,-0.6272940118543845,0.16250418357961127,1.149530516891559
1784028336066291456,0.38561034202575684,-0.026062175631523132,-0.33777791261672974,-0.45769020915031433,0.12899033725261688,0.5874687433242798,-0.7989004850387573,0.1429823338985443,0.031153082847595215,0.13405978679656982,0.8095503610014951,-0.2998010856244557,-0.10329122488902508,0.49404295946218,-0.6279273791300836,0.16007832991782167,1.1479486264473933
1784028336076211200,0.39553022384643555,0.19365261495113373,-0.1987486630678177,-0.5352177619934082,0.12643997371196747,0.5874109268188477,-0.7993506193161011,0.13436323404312134,0.14476680755615234,0.13222110271453857,0.8104961051794513,-0.29921545910242686,-0.103898082324816,0.4927184608958099,-0.6278559266386345,0.1568786045533014,1.1434749778492321
1784028336086131456,0.40545034408569336,0.38968807458877563,-0.24423056840896606,-0.5005638003349304,0.12440682202577591,0.5859670042991638,-0.8007282018661499,0.2909679412841797,0.2404794692993164,0.1108020544052124,0.8117470268262853,-0.2980932808354854,-0.1038089436806499,0.491356299483823,-0.6260729090865649,0.15413476985697905,1.1386043066605402
1784028336096051200,0.41537022590637207,0.5748465061187744,-0.4052703380584717,-0.6585363745689392,0.12221165746450424,0.5836717486381531,-0.8027400374412537,0.41691190004348755,0.24997693300247192,0.07553666830062866,0.8131245899149065,-0.29648971601617125,-0.10355592595168775,0.49010029847734143,-0.6232432827307196,0.15108299404031603,1.133608512766016
1784028336105971456,0.4252903461456299,0.7331491708755493,-0.4258427321910858,-0.7599484324455261,0.12215125560760498,0.581383466720581,-0.804408073425293,0.4042311906814575,0.23233723640441895,0.04705333709716797,0.8144735789273598,-0.2955085103384763,-0.10232636683231486,0.48870927422154803,-0.6204279873240739,0.15070104154036956,1.12927573956798
1784028336115891200,0.4352102279663086,0.8898908495903015,-0.44886070489883423,-0.8424353003501892,0.1235274001955986,0.578747570514679,-0.8060969114303589,0.4527665376663208,0.24266356229782104,0.04662120342254639,0.8158834904303093,-0.29476577130296044,-0.10032294765277439,0.4872191826251605,-0.6171920976861909,0.15205848739809757,1.1252257572919793
1784028336125811456,0.4451303482055664,1.0119671821594238,-0.5163368582725525,-1.03937828540802,0.12221992015838623,0.5748147368431091,-0.8091046214103699,0.49962151050567627,0.2153615951538086,-0.008964776992797852,0.8180456237598401,-0.2926959318492799,-0.09887760101638332,0.48513263574154414,-0.6123777472463106,0.14992232324168664,1.118045275180196
1784028336135730176,0.4550492763519287,1.119118094444275,-0.5747773051261902,-1.1803503036499023,0.11516580730676651,0.5686772465705872,-0.8144587278366089,0.5380476713180542,0.20785778760910034,-0.05498707294464111,0.8214276241759151,-0.28805088537129986,-0.09898139138885428,0.4821681149238779,-0.6048968724661298,0.14047037743862748,1.1054886729213982
1784028336145650432,0.4649693965911865,1.1832275390625,-0.7011533379554749,-1.2336845397949219,0.10574036091566086,0.5613555908203125,-0.8207916617393494,0.6045867800712585,0.2318878173828125,-0.040322840213775635,0.825266187129017,-0.2822427674534696,-0.09971556752450295,0.47888584558652536,-0.5960228983238324,0.12812160646383863,1.0909898660641149
1784028336155570176,0.47488927841186523,1.2451961040496826,-0.8203244805335999,-1.2480685710906982,0.09463373571634293,0.5533273816108704,-0.8275706768035889,0.6386273503303528,0.25815021991729736,-0.018468081951141357,0.8292069847158179,-0.2756836591202706,-0.10106031827661992,0.4756059559945496,-0.5863536254717242,0.11385669383866716,1.075917984064018
1784028336165490432,0.48480939865112305,1.3963830471038818,-0.8694595694541931,-1.2848910093307495,0.08257274329662323,0.5440680980682373,-0.8349680304527283,0.6102220416069031,0.2618553638458252,-0.0073018670082092285,0.8332911518103798,-0.2683261995171071,-0.10255259210521837,0.4723449958950358,-0.5752780452672794,0.09857278535154503,1.0605480626965038
1784028336175410176,0.49472928047180176,1.5176162719726562,-0.9072234630584717,-1.336045503616333,0.06982529163360596,0.5334542393684387,-0.8429418802261353,0.5842732191085815,0.2604758143424988,-0.033248305320739746,0.837575613627946,-0.2602114907227977,-0.10401467749753203,0.46897545567044285,-0.5626792058397454,0.08264655265482587,1.0447527683306064
1784028336185330432,0.5046494007110596,1.617582082748413,-0.8928287625312805,-1.4832357168197632,0.05643763393163681,0.5215493440628052,-0.8513525128364563,0.561787486076355,0.20299899578094482,-0.0985834002494812,0.8421726117295611,-0.2514323967730136,-0.10538265343352457,0.46521133588883995,-0.5486658476527735,0.06619488137328336,1.0279945901751322
1784028336195250176,0.5145692825317383,1.4836699962615967,-0.92379230260849,-1.6755332946777344,0.04213878884911537,0.5095003843307495,-0.8594380021095276,0.5656797885894775,0.11633878946304321,-0.1694316267967224,0.8470615024827142,-0.24254090608155762,-0.10702765345129553,0.46065795911116747,-0.5346040887512158,0.04899139906891507,1.0096075844522598
1784028336205170432,0.5244894027709961,1.2676786184310913,-1.0205234289169312,-1.9022111892700195,0.026276040822267532,0.4987713098526001,-0.8663352131843567,0.6049342751502991,0.025078147649765015,-0.25936663150787354,0.8520773103301563,-0.23412216693719173,-0.10963210765296282,0.4551173159146728,-0.52218059102386,0.03032081355007829,0.9892516085266564
1784028336215090176,0.5344092845916748,1.1274231672286987,-1.1609513759613037,-2.130216121673584,0.008283660747110844,0.4892020523548126,-0.8721311092376709,0.6508044600486755,-0.05655437707901001,-0.3475190997123718,0.8572282228753384,-0.2259850905027019,-0.11342473576279695,0.44858143012866225,-0.5111746227436488,0.009497897045545989,0.9666974057251561
1784028336225009408,0.5443284511566162,1.1032419204711914,-1.3111974000930786,-2.3415367603302,-0.011924892663955688,0.47986695170402527,-0.8772602081298828,0.6872788667678833,-0.10027405619621277,-0.4002971053123474,0.8625645996874802,-0.21768725097330477,-0.11824614520707426,0.44114890578406296,-0.5005030526175497,-0.013592498546375866,0.9420387674619018
1784028336234928384,0.5542473793029785,1.3374056816101074,-1.4330333471298218,-2.532871961593628,-0.03422782942652702,0.46907487511634827,-0.8824948668479919,0.6891045570373535,-0.11444532871246338,-0.43645960092544556,0.8682018711519855,-0.2084636153355631,-0.12367490124138614,0.43298138898504146,-0.4882429537265961,-0.038765870705010065,0.9155735880934833
1784028336244848384,0.5641674995422363,1.800384283065796,-1.4591245651245117,-2.6816444396972656,-0.0577712245285511,0.4542999565601349,-0.888973593711853,0.6872572898864746,-0.09878543019294739,-0.4765506982803345,0.8743521991458554,-0.19730725189637488,-0.12877517772777985,0.4242583414425776,-0.47158622826799673,-0.06489518115717238,0.8879203323781885
1784028336254768384,0.574087381362915,2.117260694503784,-1.5154485702514648,-2.7881815433502197,-0.08187337964773178,0.4351000487804413,-0.8966519236564636,0.69716876745224,-0.0734209418296814,-0.4587404727935791,0.8808946574191605,-0.18415999649961848,-0.13326334462404438,0.4151513824423077,-0.4501493794523663,-0.09105759804912365,0.8599621969791875
1784028336264688384,0.5840075016021729,2.2800686359405518,-1.648499846458435,-2.911358594894409,-0.10686174035072327,0.41287732124328613,-0.904495894908905,0.7081495523452759,-0.07913708686828613,-0.4330589771270752,0.8875293437329321,-0.16964799373696635,-0.13773741865524486,0.405634810592496,-0.42561097709537277,-0.11759993264071161,0.8319442745785834
1784028336274608384,0.5939273834228516,2.373798370361328,-1.8422064781188965,-2.9737162590026855,-0.13321664929389954,0.3884698450565338,-0.9117809534072876,0.7408064007759094,-0.1651727259159088,-0.4213946461677551,0.8940259454097689,-0.15408841279332466,-0.14271048615193632,0.3957374256773847,-0.39897042929272214,-0.14507945765804098,0.8040631086893213
1784028336284528384,0.6038475036621094,2.2805004119873047,-2.0687294006347656,-2.9814887046813965,-0.16097955405712128,0.3629781901836395,-0.917786717414856,0.76991206407547,-0.297685831785202,-0.38687026500701904,0.9000687091160818,-0.13797902856276337,-0.14855447973716587,0.38570687371002976,-0.37146207787621927,-0.17363351039811836,0.7770100334061824
1784028336294448384,0.6137673854827881,1.9548401832580566,-2.342621088027954,-3.04782772064209,-0.19051270186901093,0.33838987350463867,-0.9215189814567566,0.7521429657936096,-0.42988160252571106,-0.3716023564338684,0.9054588308343431,-0.12223924616454943,-0.15587842062406032,0.37537161355588383,-0.3452053057971565,-0.2038656298363651,0.7503369883006618
1784028336304368384,0.6236875057220459,1.5038996934890747,-2.627215623855591,-3.212458610534668,-0.22227942943572998,0.316226601600647,-0.9222757816314697,0.7189072370529175,-0.5348392724990845,-0.3876302242279053,0.9102228635750592,-0.10762524843829292,-0.16516332295645025,0.36418698308096353,-0.32174931293137826,-0.2365015517533398,0.722644137653582
1784028336314288384,0.6336073875427246,1.155303955078125,-2.9372947216033936,-3.3696584701538086,-0.2565952241420746,0.2963929772377014,-0.9199511408805847,0.703555703163147,-0.5870119333267212,-0.3768017888069153,0.9144126191468215,-0.09413406312273852,-0.17653107274394472,0.35188774027598163,-0.30091371763426505,-0.2720094300601742,0.6932231306693624
1784028336324207616,0.643526554107666,0.9537352919578552,-3.2751073837280273,-3.4877846240997314,-0.29349285364151,0.2775142788887024,-0.914793848991394,0.7195792198181152,-0.5862300992012024,-0.33833420276641846,0.9179733404214699,-0.08112770395627515,-0.18979296696525402,0.3387062792719898,-0.2812057897179692,-0.3104552010940224,0.6626605532731061
1784028336334127360,0.6534464359283447,0.936703085899353,-3.6510963439941406,-3.5893497467041016,-0.3330390751361847,0.25809139013290405,-0.9069034457206726,0.7420662045478821,-0.5400891304016113,-0.2657192349433899,0.9208277093331062,-0.06789526831143006,-0.20478897395422252,0.3248507573687318,-0.26104614530292375,-0.3519382858076871,0.6316277153836094
1784028336344047616,0.6633665561676025,1.106858253479004,-3.988602876663208,-3.6235666275024414,-0.37496644258499146,0.23625235259532928,-0.8964290022850037,0.7733123898506165,-0.493408739566803,-0.16945838928222656,0.9228747998808736,-0.05354279166909873,-0.22117563242917712,0.3106711266293865,-0.23850720342742462,-0.39617270295809004,0.6013447676321869
1784028336353967360,0.6732864379882812,1.256143569946289,-4.272672653198242,-3.6367881298065186,-0.41826751828193665,0.2114952802658081,-0.883358359336853,0.790307343006134,-0.4591759443283081,-0.08856546878814697,0.9240126197120686,-0.037927428438861155,-0.23850017079516164,0.2964451326492452,-0.2131045891910754,-0.442221309160862,0.5728240264520705
1784028336363887616,0.6832065582275391,1.2819961309432983,-4.649707317352295,-3.534353256225586,-0.4627731740474701,0.18453854322433472,-0.8670561909675598,0.80028235912323,-0.4507738947868347,-0.02330935001373291,0.9240374623200206,-0.021364263678094027,-0.2569347423143295,0.2822813614978189,-0.18560231537277325,-0.4902654482953789,0.5464097059814746
1784028336373807360,0.6931264400482178,1.2024389505386353,-5.224661350250244,-3.1449472904205322,-0.5090959668159485,0.15774782001972198,-0.8461306095123291,0.7699906826019287,-0.4638696610927582,0.0855562686920166,0.9223346680120867,-0.004629364518168129,-0.27733241081269505,0.2690060125599962,-0.15840949794978484,-0.5416504751771932,0.5235048438903431
1784028336383727616,0.7030465602874756,1.1106348037719727,-5.609455585479736,-2.9148247241973877,-0.5570161938667297,0.13226677477359772,-0.8199014663696289,0.5700472593307495,-0.4910924732685089,0.16276651620864868,0.9186473529415551,0.01188766139146672,-0.2998465351258653,0.2569779874413562,-0.13265550592314318,-0.5967454988833191,0.5046731853858527
1784028336393647360,0.7129664421081543,0.6698793172836304,-5.411468982696533,-3.207754373550415,-0.6033133268356323,0.10730679333209991,-0.7902520895004272,0.2555350065231323,-0.5204079747200012,0.20400941371917725,0.9140612195094051,0.027496158390589654,-0.3226730876890872,0.2441683931987887,-0.10751380413015175,-0.6520499640996851,0.4856797777974131
1784028336403567616,0.7228865623474121,0.10233134776353836,-5.202585697174072,-3.5689315795898438,-0.645666241645813,0.08320324867963791,-0.7590733766555786,0.11141026020050049,-0.5172547698020935,0.3341466188430786,0.9095510479756375,0.04088266645461546,-0.3446620549255208,0.22859056913129883,-0.08329954628336439,-0.7048411135204561,0.46179511533875905
1784028336413487360,0.7328064441680908,-0.3098956346511841,-5.343498229980469,-3.6502678394317627,-0.6852958798408508,0.05984834209084511,-0.7258015275001526,0.31136399507522583,-0.5255313515663147,0.4392566680908203,0.904652608275109,0.052398113618454395,-0.36654287850006323,0.21096102602964123,-0.05988412857403928,-0.7567009728301788,0.43439270797335516
1784028336423406336,0.7427253723144531,-0.557111918926239,-5.8193254470825195,-3.5856828689575195,-0.7243112325668335,0.03751221299171448,-0.6884519457817078,0.642875075340271,-0.448934942483902,0.5134642124176025,0.898448720899367,0.06257283884744777,-0.38969045998406254,0.19239525186430378,-0.037521017573508474,-0.8107750676806106,0.40580711740019454
1784028336433326592,0.7526454925537109,-0.2532540559768677,-6.28957462310791,-3.3681719303131104,-0.763329803943634,0.014435148797929287,-0.6458476185798645,0.886071503162384,-0.32447847723960876,0.5925487279891968,0.8902887489281279,0.07293615801719709,-0.41443515499907335,0.1740967542145247,-0.014435650254107665,-0.8685751366859972,0.37953218203858374
1784028336443246336,0.7625653743743896,0.41367536783218384,-6.5009613037109375,-3.072321653366089,-0.7999594211578369,-0.011334283277392387,-0.5999469757080078,0.9784720540046692,-0.24714958667755127,0.6566944718360901,0.8803963037213484,0.08509566506038642,-0.4390731517194259,0.1577203409709591,0.01133452625533031,-0.9273132633730398,0.3602005258130786
1784028336453166592,0.7724854946136475,0.7147840857505798,-6.516739845275879,-2.8603007793426514,-0.8300922513008118,-0.039850275963544846,-0.5562003254890442,0.9569385647773743,-0.20459552109241486,0.7549918293952942,0.8703524491568408,0.09882163474372813,-0.4605801991678995,0.14348101274456623,0.039860831684726275,-0.9804575601604031,0.3480438452554167
1784028336463086336,0.7824053764343262,-0.15490716695785522,-6.2407026290893555,-2.8679251670837402,-0.8531957864761353,-0.06721960753202438,-0.5172412991523743,0.9302526712417603,-0.2457229048013687,1.0000293254852295,0.8614137158652189,0.11058746767041655,-0.47869590604355544,0.12879106640148247,0.06727033537274753,-1.0258013354995479,0.33471851978440176
1784028336473006592,0.792325496673584,-1.5577627420425415,-6.119050979614258,-2.8939108848571777,-0.8790850043296814,-0.08847564458847046,-0.46838197112083435,0.9308428168296814,-0.5302987694740295,1.2126294374465942,0.8496365564509701,0.11761372120374523,-0.5019721443998172,0.11094459358280381,0.08859148189458568,-1.0812494623776245,0.31289032740407974
1784028336482926336,0.8022453784942627,-2.89456844329834,-6.391313552856445,-2.7645506858825684,-0.9027339816093445,-0.10402582585811615,-0.4174327254295349,1.1048672199249268,-0.8145227432250977,1.3074169158935547,0.8370708671846999,0.11849969597809838,-0.5265372296113643,0.08960378695511162,0.10421436364756094,-1.137670749181552,0.2799394608526104
1784028336492846592,0.8121654987335205,-3.4659440517425537,-6.764870643615723,-2.492420196533203,-0.9247845411300659,-0.11564793437719345,-0.3624904453754425,1.3251597881317139,-0.8215926885604858,1.3403041362762451,0.8227140577232646,0.11478775728718764,-0.55279159807356,0.0662338861785016,0.11590728333463317,-1.1972289863840075,0.23977489446814426
1784028336502766336,0.8220853805541992,-3.3108880519866943,-6.968514442443848,-2.1937308311462402,-0.9443177580833435,-0.1263560652732849,-0.30380573868751526,1.3563661575317383,-0.5890674591064453,1.2017091512680054,0.8062452318809408,0.1094675012611202,-0.5797533956835629,0.043259113613869936,0.12669473520009084,-1.2595340985430967,0.1995949951610406
1784028336512686592,0.832005500793457,-2.7856221199035645,-7.080664157867432,-1.889077067375183,-0.9604178071022034,-0.13760535418987274,-0.24220338463783264,1.187788963317871,-0.32221826910972595,1.1216132640838623,0.7877828273263099,0.10455478760300993,-0.606602507155845,0.02236025831879518,0.1380433623479411,-1.3237618402059885,0.1643722418385918
1784028336522605312,0.8419244289398193,-2.100191116333008,-5.502678871154785,-1.4498074054718018,-0.971274733543396,-0.14769433438777924,-0.18657918274402618,0.855368971824646,-0.12700964510440826,1.2072854042053223,0.7702343514241129,0.10025030903930122,-0.6298097198222127,0.005349332498659485,0.14823663863155398,-1.3810109993411301,0.1364321828373444
1784028336532525568,0.8518445491790771,-1.6161153316497803,-6.297629356384277,-2.4429285526275635,-0.9773046374320984,-0.16462071239948273,-0.13332460820674896,0.26961737871170044,0.10576760768890381,1.1944513320922852,0.7526796935688334,0.09929342286825493,-0.6507522662792649,-0.011639168561333105,0.16537346963846902,-1.4352125670596336,0.11349837271913063
1784028336542445312,0.8617644309997559,-0.9258567094802856,-6.431818962097168,-1.832878589630127,-0.9799618124961853,-0.18484026193618774,-0.07422430068254471,0.7066462635993958,0.06434156000614166,1.1274164915084839,0.7323853990538265,0.10147527413348187,-0.6727485540454505,-0.026906225938309578,0.1859093266376905,-1.4951986332693634,0.09898772584831658
1784028336552365568,0.8716845512390137,-1.2899718284606934,-6.172723770141602,-1.7474634647369385,-0.9793376922607422,-0.2016555815935135,-0.015256927348673344,0.9054698348045349,0.2340804636478424,1.3505687713623047,0.7113449914935249,0.10250387577659237,-0.6941645999557957,-0.04020972818245063,0.20304792933888424,-1.5552187656838388,0.08699783367583025
1784028336562285312,0.8816044330596924,-1.5063776969909668,-5.986683368682861,-1.7148464918136597,-0.9748497605323792,-0.2191489338874817,0.040516361594200134,0.2593957185745239,0.05331644415855408,1.6206164360046387,0.6904967545277022,0.10247199936818026,-0.7139731582931702,-0.05436883002302972,0.22094211790433418,-1.612334070240522,0.07308147506297386
1784028336572205568,0.8915245532989502,-2.037827730178833,-5.71164083480835,-1.8085039854049683,-0.9670140147209167,-0.23734061419963837,0.09248442947864532,-0.03648024797439575,-0.14374765753746033,1.7310476303100586,0.6700019553208099,0.10097669649262603,-0.7321515700424882,-0.06967917869244304,0.23962731655139638,-1.6661454991472633,0.056122349254389144
1784028336582125312,0.9014444351196289,-1.628243088722229,-5.7265825271606445,-2.0948967933654785,-0.955499529838562,-0.2584090828895569,0.1422853171825409,-0.22929954528808594,0.03851473331451416,1.5902128219604492,0.6491884751442044,0.09968006115831853,-0.7491372008818576,-0.08609024023367069,0.26137500240481215,-1.7186220228555056,0.038901236232101274
1784028336592045568,0.9113645553588867,-1.8127086162567139,-5.7416672706604,-1.8288835287094116,-0.9409515261650085,-0.2794932723045349,0.19103285670280457,0.0727723240852356,0.08015251159667969,1.1592020988464355,0.6279929746406575,0.10002440073661453,-0.7651872652420968,-0.10054011190039068,0.28326630445023876,-1.7710949421566355,0.02791373580011835
1784028336601965312,0.9212844371795654,-0.6364436149597168,-5.50972318649292,-2.2046468257904053,-0.92299485206604,-0.30195701122283936,0.23854269087314606,-0.038949787616729736,0.33526691794395447,1.3982523679733276,0.6062192964179495,0.1009909558730554,-0.7804307607760055,-0.11500806705895432,0.3067448100027164,-1.8237065792762257,0.019084623130747328
1784028336611885568,0.9312045574188232,-0.4057193696498871,-4.764895915985107,-1.8181705474853516,-0.9038714170455933,-0.32108280062675476,0.2827053964138031,-0.014188885688781738,0.06346863508224487,1.5155733823776245,0.5855662308080247,0.10392663259487006,-0.7940730180055949,-0.125536902166487,0.32687259037624433,-1.8739287044405095,0.019039539799625436
1784028336621804544,0.9411234855651855,0.8955302834510803,-3.00089693069458,-1.7763782739639282,-0.8865392208099365,-0.3354112505912781,0.31866565346717834,-0.8659175634384155,0.1873246729373932,1.640532374382019,0.5686411333299282,0.10871830910740055,-0.8046820196653245,-0.1315848074626862,0.34204174706048834,-1.9158640437272711,0.026878330759148673
1784028336631724288,0.9510433673858643,1.282096028327942,-2.498818874359131,-2.61271333694458,-0.8702217936515808,-0.3507334291934967,0.3459775447845459,-1.177980899810791,0.014628022909164429,1.4042208194732666,0.5558282717440592,0.11923166926774792,-0.8116480625843703,-0.13441094957116412,0.35835417978443923,-1.9492095534020195,0.047140422647476136
1784028336641644544,0.9609634876251221,1.381171464920044,-2.9338839054107666,-1.9603999853134155,-0.8516516089439392,-0.36656486988067627,0.3745933175086975,-0.41746777296066284,-0.5379151701927185,1.5322060585021973,0.5420462077018994,0.13054737275860873,-0.8186904400742628,-0.13743866596168283,0.3753141828037628,-1.9851719728869974,0.06966088133719663
1784028336651564288,0.9708833694458008,1.9614602327346802,-2.903262138366699,-0.909831166267395,-0.8352749347686768,-0.3712761402130127,0.4055483937263489,-0.010016024112701416,-0.584122359752655,1.221740484237671,0.5279306672682319,0.13853561035551673,-0.8267902279197525,-0.13606942111203651,0.3803830097620915,-2.022798516353646,0.09211434450323862
1784028336661484544,0.9808034896850586,3.4172425270080566,-2.4752628803253174,-0.9871411919593811,-0.8204214572906494,-0.36750328540802,0.4380072057247162,-0.41801249980926514,-0.19218912720680237,0.8397333025932312,0.5140579273150093,0.14727269297702295,-0.83505350113984,-0.12938686491566387,0.37632303219316526,-2.061179724810502,0.12173460867883326
1784028336671404288,0.9907233715057373,5.32717752456665,-2.4090254306793213,-1.1691679954528809,-0.8053493499755859,-0.35660865902900696,0.4735426902770996,-0.7737522125244141,-0.45129844546318054,0.3954606056213379,0.4998110208337967,0.16136119481707825,-0.8430503633746067,-0.11583438579447163,0.36463535701772004,-2.1023430479718845,0.16806866580751564
1784028336681324544,1.0006434917449951,7.413996696472168,-2.648080587387085,-0.7562050223350525,-0.789336085319519,-0.3327835500240326,0.5159491300582886,-0.3321390748023987,-0.61109459400177,0.08541494607925415,0.4830080113821619,0.17971599255507453,-0.8518666205315214,-0.09342719753146432,0.33925383666948417,-2.149732841236892,0.23103740452856844
1784028336691244288,1.0105633735656738,8.701305389404297,-3.0590829849243164,-0.38399362564086914,-0.7718581557273865,-0.2929880917072296,0.5642634630203247,0.061347901821136475,-0.7806966304779053,-0.10524845123291016,0.4625452992458673,0.20010465881036704,-0.8614463664128121,-0.06261164165096103,0.2973505759625133,-2.2020557765190474,0.3046954946913541
1784028336701164544,1.0204834938049316,8.463028907775879,-2.8023877143859863,-0.24854448437690735,-0.7532653212547302,-0.24509161710739136,0.6103451251983643,-0.08546441793441772,-0.6835887432098389,0.1446748971939087,0.4404125319742115,0.22018980240523509,-0.8698787342772745,-0.0293965765172773,0.2476141837596136,-2.2517656166513103,0.3773094025973312
1784028336711084288,1.0304033756256104,7.489005088806152,-2.422158718109131,0.23123756051063538,-0.736728847026825,-0.1947309374809265,0.6475420594215393,-0.3193167448043823,-0.526170551776886,0.38387584686279297,0.41978946617574764,0.2369830002478848,-0.8761336046800364,0.0024168683361324157,0.19598312657279637,-2.2918547294612703,0.4394379029389441
1784028336721003520,1.0403225421905518,6.572329521179199,-2.2476606369018555,0.4351958632469177,-0.721832275390625,-0.14625151455402374,0.6764380931854248,-0.31416308879852295,-0.8018685579299927,0.5157768726348877,0.4010409112875791,0.24992822638300866,-0.8807695017049089,0.03077500165436964,0.14677797947189503,-2.323741334378683,0.4892863068308444
1784028336730923520,1.0502424240112305,6.266695022583008,-2.012741804122925,1.2068281173706055,-0.7082254886627197,-0.09668903052806854,0.6993337869644165,-0.342296302318573,-0.9420682787895203,0.5806191563606262,0.3834191447377823,0.2590825448914284,-0.8846146762377085,0.057643957650124845,0.09684032494305049,-2.3498774614208715,0.5293192797276034
1784028336740843520,1.0601625442504883,6.184130668640137,-2.055285692214966,1.7210153341293335,-0.6943398714065552,-0.042214326560497284,0.7184078693389893,-0.12450772523880005,-1.0075139999389648,0.591070830821991,0.3654219991458246,0.2649185561706512,-0.888269154951944,0.08522180969217341,0.042226875123868475,-2.3732291519996793,0.5626118658778276
1784028336750763520,1.070082426071167,6.087267875671387,-1.810353398323059,2.3277289867401123,-0.679979145526886,0.015547431074082851,0.7330665588378906,-0.07015818357467651,-0.9686571955680847,0.6199150085449219,0.3473998768706161,0.267743311538854,-0.8915418132278655,0.11304877417136955,-0.015548057721915733,-2.3937463374556844,0.5895922761626051
1784028336760683520,1.0800025463104248,5.393596172332764,-1.3381153345108032,2.6659321784973145,-0.6664891242980957,0.07458655536174774,0.7417742013931274,-0.17430061101913452,-0.9776780009269714,0.5147259831428528,0.3306690536124358,0.2674046566946488,-0.8940815712230487,0.14060878593671688,-0.07465588879217319,-2.409603190693594,0.6098548349969011
1784028336770603520,1.0899224281311035,4.2308149337768555,-0.8439610600471497,2.9216692447662354,-0.6544104218482971,0.12795962393283844,0.7452337145805359,-0.2738580107688904,-1.0830682516098022,0.47955870628356934,0.3166877225406407,0.2637336695463523,-0.8961369300031117,0.16459652549388837,-0.12831141267866902,-2.420993903034415,0.6208373192592118
1784028336780523520,1.0998425483703613,3.4149200916290283,-0.6278300881385803,3.145705461502075,-0.6430200338363647,0.17476248741149902,0.7456431984901428,-0.1882331371307373,-1.187671422958374,0.46649986505508423,0.30515662326632514,0.2568756662946703,-0.8982407716140585,0.18454802080304347,-0.17566454211764515,-2.4299610737429407,0.6225118726134354
1784028336790443520,1.10976243019104,3.1728086471557617,-0.2775261402130127,3.5311810970306396,-0.631058931350708,0.21794778108596802,0.7444884181022644,-0.14059311151504517,-0.9724339246749878,0.47772520780563354,0.29484869280116965,0.24749260027611075,-0.9005507286611388,0.20203943743899694,-0.21971121134118887,-2.4384696694073957,0.6172758860002505
1784028336800363520,1.1196825504302979,3.573547601699829,-0.3731675148010254,3.594329595565796,-0.6182165145874023,0.2617982029914856,0.7411273121833801,-0.2576226592063904,-0.6640657186508179,0.20934253931045532,0.2847632252949147,0.2371107609005314,-0.9024090745615735,0.21987758545593653,-0.2648849233088374,-2.4463684807519837,0.6103547145603299
1784028336810283520,1.1296024322509766,3.9690468311309814,-0.5099256634712219,3.907945156097412,-0.6023992896080017,0.3105008900165558,0.7353261113166809,-0.11816656589508057,-0.8498227596282959,0.11326092481613159,0.2730601990983076,0.2267318211601546,-0.9034687226851374,0.2403645821946603,-0.3157199236204305,-2.455237144929396,0.6053943608434472
1784028336820203520,1.1395225524902344,4.837687969207764,-0.4111030399799347,4.258439540863037,-0.5835779905319214,0.36311671137809753,0.726348876953125,-0.15188026428222656,-1.1342501640319824,0.03625476360321045,0.2602681764263575,0.21516869299327387,-0.9038124167753989,0.262842064118909,-0.37161075775439156,-2.4647574801113206,0.5995593481168973
1784028336830122496,1.1494414806365967,5.2628865242004395,-0.4496594965457916,4.660165786743164,-0.5613704919815063,0.4216458797454834,0.712093710899353,-0.1799471378326416,-0.8046873211860657,-0.18250709772109985,0.24620740362104013,0.20229831451291436,-0.9028412006327082,0.2886778759545398,-0.43525967066078186,-2.4740032828657164,0.5939197988035447
1784028336840042240,1.1593613624572754,5.069943904876709,-0.22081995010375977,4.160976886749268,-0.5392246842384338,0.4808749854564667,0.6913723945617676,-0.2895258665084839,-0.41999247670173645,-0.21891456842422485,0.23295064653699094,0.18967325268957974,-0.8998390177846002,0.31630325131554465,-0.5016523993502362,-2.4792075283476853,0.5912434827321845
1784028336849962496,1.1692814826965332,3.4214816093444824,-0.23713180422782898,4.3370513916015625,-0.5157730579376221,0.5304412245750427,0.6727632284164429,-0.26758265495300293,-0.5590667128562927,-0.18088090419769287,0.22082468437028158,0.17620952785265806,-0.8974028135713181,0.3389024756110151,-0.5591209858101075,-2.4875212145982704,0.5819278131737292
1784028336859882240,1.179201364517212,1.8915272951126099,-0.22115075588226318,4.335719585418701,-0.49036097526550293,0.5679904222488403,0.6610091328620911,-0.20492100715637207,-0.7301303148269653,-0.3303511142730713,0.20997631892616764,0.16043249412449592,-0.89708749663117,0.3541262503440441,-0.6040621148513552,-2.503336415619516,0.5591043885343868
1784028336869802496,1.1891214847564697,0.6468075513839722,0.009754098020493984,4.508578777313232,-0.46403542160987854,0.5961375832557678,0.6552030444145203,-0.15159568190574646,-0.5067668557167053,-0.40195298194885254,0.20059007567124032,0.1424508891882671,-0.8985039012972126,0.36354102062331395,-0.6386817765319048,-2.525363542500446,0.5241592702728932
1784028336879722240,1.1990413665771484,-0.5363540649414062,0.08282674849033356,4.580416202545166,-0.43686068058013916,0.6160869002342224,0.6554309129714966,-0.18699491024017334,-0.4608287215232849,-0.4152117967605591,0.19248767289291788,0.12207193599476018,-0.9015619261369264,0.36774044020727253,-0.6637650675968144,-2.5536885668763585,0.4770658257133746
1784028336889642496,1.2089614868164062,-1.1515493392944336,-0.07606862485408783,4.5527567863464355,-0.4086756706237793,0.6289018392562866,0.6614125967025757,-0.18306013941764832,-0.5545458197593689,-0.37404388189315796,0.18467851203146457,0.10076166744597218,-0.9058440169993609,0.3676785690118604,-0.6801399436291562,-2.588127488246577,0.4218684081179414
1784028336899562240,1.218881368637085,-1.3588931560516357,-0.12147556245326996,4.737215042114258,-0.37909024953842163,0.6380528211593628,0.6702084541320801,-0.05342021584510803,-0.465109646320343,-0.3398250937461853,0.17640661029640464,0.07913275621867882,-0.9104077223591948,0.3657547556112854,-0.691966785289126,-2.6268284040733114,0.3626110752530088
1784028336909482496,1.2288014888763428,-1.593425989151001,-0.2619874179363251,4.532226085662842,-0.3481636643409729,0.6444318294525146,0.6808007955551147,0.0095711350440979,-0.4982679486274719,-0.27304017543792725,0.16763545713273667,0.057092068361382836,-0.9149540405679137,0.36262650342030395,-0.7002800540003676,-2.6688641981821446,0.30010726638125224
1784028336919402240,1.2387213706970215,-1.9258499145507812,-0.31206366419792175,4.399962902069092,-0.31781038641929626,0.6467099189758301,0.6933708190917969,-0.03132602572441101,-0.4992336630821228,-0.2870292067527771,0.15880980525896135,0.03600833461720453,-0.9194502765283656,0.35790236760219307,-0.7032629674665622,-2.7118120022819316,0.23809483973213058
1784028336929322496,1.2486414909362793,-2.38167405128479,-0.12349853664636612,4.370078086853027,-0.2882482707500458,0.6446083784103394,0.7080909013748169,0.00817328691482544,-0.45843595266342163,-0.29224324226379395,0.15030476997307374,0.014915304602953662,-0.924025423260318,0.3512306130811184,-0.7005108842461297,-2.7549994184245787,0.17505258829546774
1784028336939241472,1.2585604190826416,-3.1336679458618164,0.07682455331087112,4.26009464263916,-0.2604428827762604,0.6360931396484375,0.7263299226760864,0.004293590784072876,-0.3406524658203125,-0.2942773103713989,0.14277229118830326,-0.007090636367448966,-0.929039653541738,0.34124941037771095,-0.6894244170870927,-2.7973002013609993,0.1094271905841398
1784028336949161472,1.2684805393218994,-3.670985460281372,0.26019731163978577,4.065603733062744,-0.23598618805408478,0.6213634610176086,0.7471400499343872,-0.0695711076259613,-0.22834277153015137,-0.27393442392349243,0.13645795640158487,-0.02889153957693575,-0.934203034556094,0.328343241499821,-0.6704816798256654,-2.8356563089620277,0.04548849403509469
1784028336959081472,1.2784004211425781,-4.376753330230713,0.25380465388298035,3.7544803619384766,-0.21438737213611603,0.5992196798324585,0.7713453769683838,-0.07128766179084778,-0.11118263006210327,-0.15276938676834106,0.1307302301341517,-0.050224585774392226,-0.9397607093519972,0.3118282776159297,-0.6425260527267186,-2.8704956470265337,-0.01607322081261219
1784028336969001472,1.288320541381836,-5.006590366363525,0.22859011590480804,3.4545938968658447,-0.19546084105968475,0.5700125694274902,0.7980480790138245,-0.03200191259384155,0.01485675573348999,-0.03790098428726196,0.1250855728064998,-0.07033280234510658,-0.9455566292749124,0.2921122496445993,-0.6065211733811008,-2.901397421424016,-0.07300374782549218
1784028336978921472,1.2982404232025146,-5.418608665466309,0.30494293570518494,3.299638271331787,-0.17922274768352509,0.5335545539855957,0.8265582919120789,-0.018729493021965027,0.03231757879257202,0.06574511528015137,0.11957520248080661,-0.0897619749073202,-0.9514315175593366,0.26911444033212994,-0.562797761187432,-2.9280678782903355,-0.12619211599509075
1784028336988841472,1.3081605434417725,-5.408626556396484,0.4183443486690521,2.988060712814331,-0.16649411618709564,0.49329403042793274,0.8537803888320923,-0.020151421427726746,0.10926035046577454,0.034494876861572266,0.11474376757447778,-0.10832311996538156,-0.9566380115543447,0.2448340983907782,-0.5158725276177406,-2.949001544309594,-0.1745511247205034
1784028336998761472,1.3180804252624512,-5.497128963470459,0.41926339268684387,2.547778367996216,-0.15750440955162048,0.4505533277988434,0.8787456154823303,-0.10422958433628082,0.18122154474258423,0.019554436206817627,0.11052029483063192,-0.12486056636178469,-0.9611361209555072,0.22002818661288925,-0.4673850451231803,-2.964238118026888,-0.2160492309283474
1784028337008681472,1.328000545501709,-5.230337619781494,0.4532530605792999,2.171581506729126,-0.15146589279174805,0.4064183235168457,0.9010452032089233,-0.14193011820316315,0.17257648706436157,-0.011930704116821289,0.10670400151201824,-0.13950505594964369,-0.9649149860798478,0.19517099782881003,-0.41853061779598466,-2.975049487206506,-0.25171754069541763
1784028337018601472,1.3379204273223877,-4.784913539886475,0.5387978553771973,1.992538571357727,-0.14823347330093384,0.36375898122787476,0.9196231365203857,-0.13161276280879974,0.07673183083534241,-0.08098459243774414,0.1036573942039137,-0.1526638539698561,-0.9677320469293654,0.17159165952886488,-0.37230015449408355,-2.9817779219093827,-0.2827697476204208
1784028337028521472,1.3478405475616455,-4.155864715576172,0.5334560871124268,1.6553624868392944,-0.14710786938667297,0.32469460368156433,0.9343085885047913,-0.14645595848560333,0.15752887725830078,-0.07810747623443604,0.10126295002053444,-0.16392633667657588,-0.9696816168680458,0.1503046270437097,-0.33068881161495817,-2.985423696446927,-0.3088255176826975
1784028337038441472,1.3577604293823242,-3.3503260612487793,0.30280664563179016,1.345114827156067,-0.1464231014251709,0.2920144200325012,0.9451393485069275,-0.174484521150589,0.35129615664482117,-0.06914734840393066,0.09909597359662875,-0.1732830324682435,-0.9708463630692311,0.13270437211021036,-0.2963323799526479,-2.9878922947556563,-0.33026769267942846
1784028337048360448,1.3676793575286865,-3.3074965476989746,0.1421695500612259,1.0879682302474976,-0.14558151364326477,0.2624298930168152,0.9539061188697815,-0.11905167996883392,0.7417510747909546,0.10398590564727783,0.09670393932928394,-0.18095626459367706,-0.971703598265893,0.11702720563107426,-0.26553948286511214,-2.9901450677655004,-0.3479687739728917
1784028337058280448,1.3775994777679443,-3.558957576751709,-0.05929717794060707,0.8119077682495117,-0.14392951130867004,0.23062923550605774,0.9623380303382874,-0.30734914541244507,0.9610974192619324,0.20383018255233765,0.09333097166236215,-0.1870737106504935,-0.9727139545510268,0.10059982108093729,-0.23272430857621085,-2.9931307758940853,-0.3626177717286933
1784028337068200448,1.387519359588623,-3.2665863037109375,-0.13522790372371674,0.45743250846862793,-0.1412704586982727,0.19867248833179474,0.9698310494422913,-0.4238846004009247,0.9944733381271362,0.053179383277893066,0.08914707739950559,-0.19145819888090987,-0.9737860635347869,0.08448293771895027,-0.20000322597386663,-2.9969449701671382,-0.3737333774692029
1784028337078120448,1.3974394798278809,-2.9455320835113525,-0.2692587077617645,-0.3252982199192047,-0.13966217637062073,0.16852830350399017,0.9757525324821472,-0.5614181756973267,0.9773457050323486,-0.1392807960510254,0.08540115099078135,-0.193247037234657,-0.9749522242353539,0.06950149220896723,-0.16933643026460451,-2.9994254856063374,-0.3792650215444896
1784028337088040448,1.4073593616485596,-2.3051950931549072,-0.5228118896484375,-0.25634098052978516,-0.13698427379131317,0.14152531325817108,0.9804110527038574,-0.5131469368934631,0.9813384413719177,-0.2253451943397522,0.0812987537170291,-0.19271356950132537,-0.9762515051090619,0.05643554374766956,-0.14200206970201867,-3.002770099219298,-0.3799026756142845
1784028337097960448,1.4172794818878174,-1.90657377243042,-0.9935241937637329,-0.5066546201705933,-0.12986235320568085,0.12099315226078033,0.9841219782829285,-0.23068754374980927,0.8777861595153809,-0.2911442518234253,0.07563502972616043,-0.19114727866324197,-0.9775089241780393,0.04709843977991256,-0.12129032250891326,-3.010393082956441,-0.3782392719624879
1784028337107880448,1.427199363708496,-2.0296742916107178,-1.0425721406936646,-0.6410012245178223,-0.12112274765968323,0.1006743386387825,0.9875189661979675,-0.5236220955848694,0.8926423192024231,0.17072981595993042,0.06923165104727627,-0.18922644061515542,-0.9787506447584559,0.03804514623478602,-0.10084518212627304,-3.019548626018564,-0.37579025686137046
1784028337117800448,1.437119483947754,-2.4132730960845947,-1.33805513381958,-0.9071481227874756,-0.11016036570072174,0.07763173431158066,0.9908771514892578,-0.5284962058067322,1.2121174335479736,0.2698800563812256,0.06148306572582467,-0.18571277765330185,-0.9802802426728877,0.027948822081609797,-0.07770992727825933,-3.0308727298906426,-0.3701509047441878
1784028337127720448,1.4470393657684326,-2.698117733001709,-1.1581261157989502,-0.8416061401367188,-0.09770901501178741,0.052005209028720856,0.9938555955886841,-0.3829886317253113,0.9016081094741821,0.07514488697052002,0.05285855454634451,-0.18208884555659843,-0.981718617270278,0.016682632565543306,-0.05202867858420696,-3.0435944882285026,-0.3642391183813835
1784028337137640448,1.4569594860076904,-3.4797277450561523,-1.121295690536499,-1.2736510038375854,-0.08735523372888565,0.021400827914476395,0.9959474802017212,-0.44011059403419495,0.5194469690322876,-0.14169931411743164,0.044930388695604555,-0.17784243196278413,-0.98302890002913,0.0027566681031833407,-0.021402461932796817,-3.0541058614853966,-0.3570169272763901
1784028337147560448,1.4668793678283691,-3.7580082416534424,-1.12246835231781,-1.1178736686706543,-0.07647784054279327,-0.016678130254149437,0.996931791305542,-0.6474906802177429,0.302292138338089,-0.234602689743042,0.03625695162232837,-0.17224022945781106,-0.9842759822299075,-0.014816952959303364,0.016678903816638693,-3.0650293934183335,-0.34711425478916746
1784028337157479424,1.4767985343933105,-3.2148029804229736,-0.940427839756012,-0.7946905493736267,-0.06717924773693085,-0.052203405648469925,0.9963743090629578,-0.21071380376815796,0.004824869334697723,-0.5233060717582703,0.02873707353075445,-0.16835338171704867,-0.984806733916985,-0.031417013135771985,0.052227145044448184,-3.074270840157071,-0.3403870603165584
1784028337167399424,1.4867184162139893,-1.5530160665512085,-1.1468371152877808,-0.8371511697769165,-0.056471746414899826,-0.07609200477600098,0.995500385761261,-0.4483194947242737,-0.023990385234355927,-0.485002338886261,0.02159944686377128,-0.16472397806060934,-0.9851985553326459,-0.042229000500293754,0.07616562763423967,-3.084926388239368,-0.3334923268114881
1784028337177319424,1.496638536453247,0.6765714287757874,-1.2448782920837402,-0.6285818815231323,-0.04392194375395775,-0.07954452186822891,0.9958634972572327,-0.42147111892700195,0.15608258545398712,-0.6408064365386963,0.01528746295634019,-0.16082187336160184,-0.985935123157721,-0.04283326361202533,0.07962864503634708,-3.097516834269886,-0.32514025853063655
1784028337187239424,1.5065584182739258,2.0092597007751465,-1.1739146709442139,-0.6373729705810547,-0.032099008560180664,-0.06642980128526688,0.9972748160362244,-0.28162169456481934,0.16936558485031128,-0.31342148780822754,0.010577139307401832,-0.1587306305989411,-0.9866316392905802,-0.03536660859435409,0.06647875353103397,-3.1094170379647994,-0.3200989980898398
1784028337197159424,1.5164785385131836,2.4734199047088623,-0.7923172116279602,-0.08532368391752243,-0.02316192537546158,-0.0461697094142437,0.9986653327941895,-0.5170907378196716,0.1939358115196228,0.16751837730407715,0.007816918233917723,-0.1568959205943795,-0.9872772341185051,-0.02462459007667884,0.04618612783588631,-3.118403929767606,-0.31573544551847704
1784028337207079424,1.5263984203338623,1.7654188871383667,-0.18033480644226074,-0.09282847493886948,-0.01856308802962303,-0.023894520476460457,0.9995422959327698,-0.33174818754196167,-0.10835340619087219,0.05860912799835205,0.007308089886198296,-0.15574986570414862,-0.9876806849099626,-0.013248709392134163,0.023896795036196346,-3.123023200427578,-0.3130310850601966
1784028337216999424,1.5363185405731201,0.6429345011711121,-0.14373651146888733,-0.31702935695648193,-0.019858377054333687,-0.011108042672276497,0.99974125623703,-0.28385257720947266,-0.10955846309661865,0.1870570182800293,0.008951524498824895,-0.15462010884307945,-0.9879085219394254,-0.007023025923480291,0.011108271381604584,-3.1217317490236587,-0.3106164410853794
1784028337226919424,1.5462384223937988,0.8508017063140869,-0.18220773339271545,-0.5203179717063904,-0.018726643174886703,-0.00424683652818203,0.9998157620429993,0.2388041615486145,0.17418396472930908,0.07893502712249756,0.00893356408682245,-0.15160334480117982,-0.9883948092518828,-0.0035186105710717274,0.004246849221161176,-3.122864749306837,-0.3044342495870388
1784028337236839680,1.5561587810516357,2.101010322570801,-0.44695451855659485,-0.8004292249679565,-0.01668599806725979,0.009404902346432209,0.9998165965080261,0.8206411004066467,-0.33826231956481934,-0.09739649295806885,0.008948753164293754,-0.14835802706196835,-0.9888873556764337,0.0034127565900960396,-0.0094050410610201,-3.12490514417237,-0.297750727479473
1784028337246759680,1.5660786628723145,2.2714688777923584,-0.22444207966327667,-0.6350322961807251,-0.015265487134456635,0.031092897057533264,0.9993997812271118,0.5531682968139648,-0.7617142200469971,-0.12931329011917114,0.009814774121217581,-0.1454625804879995,-0.9892120800794132,0.014272739603615445,-0.03109790972327768,-3.1263191863820943,-0.29176762555054075
1784028337256679680,1.5759987831115723,4.350612640380859,-0.05711696296930313,-0.29095280170440674,-0.011777976527810097,0.06362159550189972,0.9979044795036316,0.6134320497512817,-0.758155882358551,0.27774542570114136,0.01037732999319722,-0.14274695711198102,-0.9892297749312818,0.03065967765139522,-0.0636645952403887,-3.1297904925726874,-0.28624787950822583
1784028337266598656,1.5859177112579346,4.018979549407959,-0.671816885471344,0.41573697328567505,-0.012842033989727497,0.10621053725481033,0.9942607879638672,0.943048357963562,-0.42206746339797974,0.2652301788330078,0.013990843462291052,-0.14320950676773336,-0.9882415798115436,0.05170966959272666,-0.1064112430595988,-3.1286772089533175,-0.28713549740008737
1784028337276518912,1.5958378314971924,5.662416934967041,-0.10748708248138428,0.1563895046710968,-0.0066820248030126095,0.15192432701587677,0.9883697628974915,0.9246355295181274,0.08100110292434692,0.5742677450180054,0.014361979664025444,-0.14457703381474332,-0.9865507336669358,0.07489300985523781,-0.1525149149923253,-3.134832103709575,-0.29050789798620835
1784028337286438656,1.605757713317871,6.303478240966797,0.033472705632448196,0.35613909363746643,-0.0044992538169026375,0.21465197205543518,0.9766802191734314,0.13625890016555786,-0.5962895750999451,-0.0030168890953063965,0.01798819962252826,-0.14503396741477692,-0.9835167766740696,0.10647208660019374,-0.21633547657902252,-3.136986005372237,-0.29231871134084275
1784028337296358912,1.615677833557129,6.181899070739746,-0.7822295427322388,-0.45719048380851746,-0.0007211950141936541,0.2706979811191559,0.962664008140564,0.33089086413383484,-0.27422279119491577,0.6710944771766663,0.020289890124775615,-0.14449847272187652,-0.9800266311613742,0.13511585828745354,-0.27411802355637427,-3.1408434878781515,-0.2926740396952787
1784028337306278656,1.6255977153778076,6.819156169891357,-0.8940412998199463,-0.46636080741882324,0.006395378150045872,0.3357190489768982,0.9419406056404114,0.5852336287498474,0.3512469232082367,-0.1063082218170166,0.02102745896310921,-0.14021193836994408,-0.975351685144667,0.16907873129011838,-0.3423684824303947,3.1348031808768786,-0.2867279669509528
1784028337316198912,1.6355178356170654,4.90961217880249,-0.7958993315696716,-0.6853086948394775,0.012934955768287182,0.3892860412597656,0.9210262298583984,0.43944236636161804,0.5802574753761292,0.3718816041946411,0.02120680582535131,-0.13689561705602524,-0.9704497399152205,0.19757840230981608,-0.3998563803196241,3.1275495072822745,-0.2831245624440483
1784028337326118656,1.6454377174377441,4.7393798828125,-1.5509039163589478,-0.9776430726051331,0.017699871212244034,0.4330595135688782,0.9011915922164917,0.5024722218513489,-0.043533146381378174,0.2025986909866333,0.020606364029631744,-0.12995850159038896,-0.9662849341925576,0.22131337908689633,-0.4478843290380534,3.121954657412529,-0.27185435962843346
1784028337336038912,1.655357837677002,4.419281005859375,-0.7359294891357422,-0.626902163028717,0.024887623265385628,0.47388482093811035,0.8802351951599121,0.6406397223472595,0.041557133197784424,-0.33354318141937256,0.018786174385947638,-0.12503438671259406,-0.9615009140106543,0.24398676439831435,-0.4936972048940048,3.113326351258922,-0.2657535564886702
1784028337345958656,1.6652777194976807,3.498291492462158,-0.9914829730987549,-0.03668254241347313,0.0317951999604702,0.5101368427276611,0.8595055341720581,0.2794535756111145,0.41849786043167114,-0.23491740226745605,0.016979281796041662,-0.12151007818292835,-0.9565500915856417,0.26449767068848473,-0.5353438933772744,3.1046170847108514,-0.26284730664626316
1784028337355878912,1.6751978397369385,2.0703775882720947,-1.17642080783844,-0.6976346373558044,0.03881562128663063,0.5312786102294922,0.8463075757026672,0.41314971446990967,-0.10325431823730469,0.27043747901916504,0.0138851906897267,-0.1179207678522077,-0.9535452142440305,0.27686359940216865,-0.5601090938862343,3.0957600970293835,-0.25926605692499816
1784028337365798656,1.6851177215576172,1.9913358688354492,-1.1921606063842773,-0.32587677240371704,0.04467148333787918,0.5482310056686401,0.8351328372955322,0.6306214928627014,-0.4371013641357422,0.29154545068740845,0.011179934223833612,-0.11491200167174673,-0.950979315809498,0.2868945552135149,-0.5802475578513057,3.0881533106701524,-0.2564624621332181
1784028337375718912,1.695037841796875,1.5954172611236572,-0.7993478178977966,-0.4066164493560791,0.05207483097910881,0.5627990961074829,0.8249515295028687,0.7113834023475647,-0.10073256492614746,0.2810359001159668,0.007418585595619726,-0.11183427086862109,-0.9486668806191596,0.29575174984517577,-0.597768199360942,3.0785515827129033,-0.25411789257137873
1784028337385637888,1.7049567699432373,1.6480584144592285,-0.814792811870575,0.20197470486164093,0.05869812145829201,0.5753448009490967,0.8158017992973328,0.3712945580482483,0.26179802417755127,0.2874543070793152,0.004296965352575861,-0.11012088465871074,-0.946453531631902,0.30344778341141615,-0.6130256764496904,3.0697649854152225,-0.2544018031911035
1784028337395557632,1.714876651763916,1.1859670877456665,-0.824228048324585,-0.2204008400440216,0.06676588207483292,0.5878612995147705,0.8062021732330322,0.2714757025241852,0.024382472038269043,0.0847739577293396,0.0005700125206286784,-0.10897085328932596,-0.944047898710835,0.3112856182089121,-0.6284125304046847,3.058965896319709,-0.2567066120486936
1784028337405477888,1.7247967720031738,-0.20249000191688538,-0.4333638548851013,-0.38880637288093567,0.06921709328889847,0.5918688178062439,0.8030567765235901,0.13050520420074463,-0.17545652389526367,0.07559001445770264,-0.001326370642654814,-0.10630081080751362,-0.9435192317805308,0.31379900468290756,-0.633375388158408,3.055613127528552,-0.2525746347795944
1784028337415397632,1.7347166538238525,-0.722649335861206,-1.1105982065200806,0.18080876767635345,0.07465563714504242,0.5877195596694946,0.8056129813194275,0.4256037473678589,-0.12115156650543213,-0.11239099502563477,-0.005033873742036179,-0.10449774625957034,-0.9443975388944478,0.3117181102278634,-0.6282373519266577,3.0491872087660084,-0.25044307865540405
1784028337425317888,1.7446367740631104,-1.2440307140350342,-0.8376535177230835,0.30641648173332214,0.08374833315610886,0.579426646232605,0.810710608959198,0.5795512199401855,-0.18840479850769043,-0.1773943305015564,-0.010381028085125898,-0.10425794921258257,-0.9457724752781922,0.3074688956969006,-0.6180250113864822,3.038655397268521,-0.2524726565967085
1784028337435237632,1.754556655883789,-1.2790441513061523,-0.9829996824264526,0.03588084131479263,0.09253353625535965,0.5686216950416565,0.8173781633377075,0.45208317041397095,-0.034503042697906494,-0.09253990650177002,-0.01558703751706813,-0.1043749790990073,-0.9475204247822738,0.3017747412840788,-0.6048293021941443,3.028864850894119,-0.25463008090948314
1784028337445157888,1.7644767761230469,-1.3741581439971924,-1.0711383819580078,-0.1930423527956009,0.09991486370563507,0.5579966902732849,0.8238063454627991,0.22163361310958862,0.19296467304229736,-0.023055553436279297,-0.020871401221299178,-0.10179852587711151,-0.9494947292494519,0.2960764369836297,-0.5919697368005943,3.020897753051107,-0.25045633868337164
1784028337455077632,1.7743966579437256,-2.125819206237793,-0.5178768634796143,-0.32700222730636597,0.10529333353042603,0.543801486492157,0.8325823545455933,0.14189904928207397,0.07578164339065552,0.12718021869659424,-0.025182471688278873,-0.0994763118495919,-0.9520481296638822,0.28822682569093216,-0.57496033277082,3.015794506031554,-0.24545739242743125
1784028337464997888,1.7843167781829834,-2.500356912612915,-0.580289900302887,-0.40076324343681335,0.1073017418384552,0.5249810218811035,0.8443230986595154,0.0625438541173935,0.04360729455947876,0.1162635087966919,-0.028105276058175456,-0.09654401392329387,-0.9554270236890178,0.27757630280372547,-0.5526928002345353,3.015184167920812,-0.23730615539433172
1784028337474917632,1.794236660003662,-2.6132211685180664,-0.7527509927749634,-0.5342623591423035,0.1097438856959343,0.5032039880752563,0.8571708798408508,0.2148868590593338,0.17048680782318115,-0.037606120109558105,-0.03138042192736969,-0.09335461906467303,-0.9590987220153713,0.2653861280378881,-0.5273023786296632,3.014255053086863,-0.22847621889525885
1784028337484837888,1.80415678024292,-2.0036494731903076,-0.7603042721748352,-0.4395880401134491,0.11468721181154251,0.48322412371635437,0.8679524660110474,0.2674844264984131,0.1994694173336029,-0.1830463409423828,-0.03592582165995872,-0.08950793431851634,-0.9622705305208349,0.25442711259839923,-0.504333618728036,3.0102183592218092,-0.21939538857610047
1784028337494756608,1.8140757083892822,-1.1562367677688599,-0.7507245540618896,-0.6187710165977478,0.11917804926633835,0.47039636969566345,0.8743709325790405,0.15103986859321594,0.17834651470184326,-0.37710195779800415,-0.03984761085701545,-0.08553190556224581,-0.9642975486112516,0.2474406578216353,-0.48973987492573406,3.006125966338368,-0.2108339742229036
1784028337504676864,1.82399582862854,0.2804030776023865,-0.6944141387939453,-0.16989070177078247,0.12397368252277374,0.46665921807289124,0.8757054209709167,0.13054293394088745,0.16865578293800354,-0.4540287256240845,-0.043203469943610365,-0.08268179436145981,-0.9648919291297294,0.2455215340202855,-0.4855096939856299,3.00095715463472,-0.20584355245243818
1784028337514596608,1.8339157104492188,0.19378650188446045,-1.0386765003204346,0.10644932091236115,0.13089141249656677,0.4689760208129883,0.8734579682350159,0.46746671199798584,0.29535192251205444,-0.5451041460037231,-0.046994364701590005,-0.0814364209524062,-0.9644154111582764,0.24710831571715497,-0.48813104873216523,2.9928452221795396,-0.20558952729636526
1784028337524516864,1.8438358306884766,0.05435163900256157,-0.7561023235321045,0.04919001832604408,0.13908079266548157,0.47034698724746704,0.871453046798706,0.39755553007125854,-0.48340851068496704,-0.22986674308776855,-0.05130012266101691,-0.08091826632165422,-0.9639391888788009,0.24827770284420486,-0.48968392466920796,2.9833309082785204,-0.20711812357116682
1784028337534436608,1.8537557125091553,-1.2988563776016235,-0.691738486289978,0.062344107776880264,0.1455530822277069,0.4646575450897217,0.8734462261199951,0.10516411066055298,-1.0325589179992676,-0.00650256872177124,-0.055140085429068404,-0.07982402021011197,-0.9645471753164924,0.2454315114681271,-0.4832478209313101,2.9764676907705305,-0.20591999149033385
1784028337544356864,1.863675832748413,-1.3210951089859009,-0.7340646386146545,0.05052899196743965,0.15262369811534882,0.4524160325527191,0.8786500096321106,0.21775288879871368,-0.3865896165370941,0.18165278434753418,-0.05940576259750973,-0.07918348644126783,-0.9659477061851631,0.2390522547313448,-0.4694726382791114,2.9696062064222883,-0.2048096074263567
1784028337554276608,1.8735957145690918,-1.2419220209121704,-0.8804073333740234,-0.20595970749855042,0.15896695852279663,0.44123393297195435,0.88319993019104,0.16882234811782837,-0.047999680042266846,0.04410719871520996,-0.06361542640065539,-0.0769852442036818,-0.9673020467930458,0.2331375289612569,-0.4569732154161739,2.9635096169279658,-0.20035698893407455
1784028337564196864,1.8835158348083496,-1.3958587646484375,-0.5525655150413513,-0.14325398206710815,0.16461369395256042,0.43051624298095703,0.8874446153640747,0.13711358606815338,-0.12833121418952942,0.11333352327346802,-0.06734978272211664,-0.07506675882304426,-0.9685490596129117,0.22746793507012458,-0.44506466798720073,2.9581854010798425,-0.19631151309202177
1784028337574116608,1.8934357166290283,-1.575988531112671,-0.5019848346710205,-0.3572666347026825,0.1680152863264084,0.417367547750473,0.8930707573890686,0.05134508013725281,-0.21248772740364075,0.28078794479370117,-0.07008094621176579,-0.07268681899011943,-0.9701814321009227,0.22034819744223874,-0.4305465522394228,2.9556341354445963,-0.190336202313209
1784028337584036864,1.9033558368682861,-1.8975516557693481,-0.5020639300346375,-0.1911253035068512,0.17205238342285156,0.40230995416641235,0.8991910219192505,0.06738851964473724,-0.24845564365386963,0.22870802879333496,-0.07315526046027948,-0.07031243050773196,-0.9719319357318773,0.21225632102477646,-0.4140385937047243,2.952536461285999,-0.18425487253078718
1784028337593956608,1.9132757186889648,-2.1180901527404785,-0.45619454979896545,-0.11357136815786362,0.17592905461788177,0.38416239619255066,0.9063488245010376,0.20018482208251953,-0.12537336349487305,0.2889636158943176,-0.07605936047764626,-0.06856706016039574,-0.9738957706140539,0.20258468184134432,-0.39430043237149937,2.9498693833255696,-0.178986636062432
1784028337603875584,1.9231946468353271,-2.069166898727417,-0.3748205900192261,-0.248961940407753,0.17899490892887115,0.36586952209472656,0.9132907390594482,0.13976116478443146,-0.06708723306655884,0.20003610849380493,-0.07860078739874234,-0.0663682379327315,-0.9758281672060563,0.1928119751663951,-0.37456693144924286,2.948056810167085,-0.1726018946996322
1784028337613795840,1.933114767074585,-2.380699872970581,-0.1277981400489807,-0.10084880888462067,0.1806993931531906,0.345571905374527,0.9208298325538635,0.09505744278430939,-0.045278966426849365,0.2510755658149719,-0.08041648288359161,-0.06435186682479638,-0.977892509149614,0.18198411163281922,-0.3528481607215157,2.9478195350395096,-0.16607431031349826
1784028337623715584,1.9430346488952637,-2.671556234359741,-0.10200808197259903,-0.030603677034378052,0.1818786859512329,0.3222934603691101,0.9290034770965576,0.20239870250225067,-0.020169347524642944,0.24453496932983398,-0.08189505239875298,-0.06291944981908773,-0.9800728894343674,0.169680774887765,-0.32815124105526555,2.948259730998893,-0.16032783431588443
1784028337633635840,1.9529547691345215,-2.5395262241363525,-0.019564680755138397,-0.3315434753894806,0.18149104714393616,0.29805874824523926,0.9371346235275269,0.23725587129592896,0.16051357984542847,0.219710111618042,-0.08267203780084335,-0.060818993490486604,-0.982277133129403,0.1568369986868272,-0.3026583043111546,2.950294906869118,-0.15293390080877423
1784028337643555584,1.9628746509552002,-1.8034591674804688,0.11046656221151352,-0.054520394653081894,0.18070754408836365,0.27819424867630005,0.9433733224868774,0.27833789587020874,0.3118479251861572,0.13867342472076416,-0.08302458290254465,-0.059174303399924424,-0.9839639526178475,0.1463570306476451,-0.2819136248637015,2.9523306545726244,-0.1470674055246333
1784028337653475840,1.972794771194458,-1.624375581741333,0.264929860830307,-0.2747737765312195,0.17755946516990662,0.26240426301956177,0.948481559753418,0.27776283025741577,0.341965913772583,0.22899365425109863,-0.08197717074054389,-0.05801596487824108,-0.9853298507261486,0.13798233255469083,-0.2655129241867074,2.9565307413865654,-0.1424067268253025
1784028337663395584,1.9827146530151367,-1.6877998113632202,0.5960603356361389,-0.27192845940589905,0.17364130914211273,0.2468155473470688,0.9533788561820984,0.29925909638404846,0.2191726565361023,0.40842247009277344,-0.08061534764424451,-0.05613959346897137,-0.9866801794222043,0.12966053834572136,-0.24939274915637777,2.9614348742850662,-0.13631487133841672
1784028337673315840,1.9926347732543945,-1.561596155166626,0.8666315674781799,-0.22714103758335114,0.16665083169937134,0.23192428052425385,0.9583517909049988,0.37969011068344116,0.12391063570976257,0.4772558808326721,-0.07757420464037222,-0.05490955070161154,-0.9880085199237072,0.12168083528717381,-0.23405543061653566,2.969421129420315,-0.1313285183896705
1784028337683235584,2.0025546550750732,-1.7542349100112915,0.8153616786003113,-0.32732677459716797,0.1584666222333908,0.21679043769836426,0.9632708430290222,0.300548255443573,0.05757787823677063,0.5239729881286621,-0.0739444729740217,-0.05351961013406643,-0.9893285967779452,0.11356459179994352,-0.21852551248350077,2.978544154497712,-0.1260140726172742
1784028337693155840,2.012474775314331,-1.8493987321853638,0.7186328172683716,-0.32314908504486084,0.15092331171035767,0.19932202994823456,0.9682418704032898,0.38905471563339233,-0.0014918744564056396,0.5746350288391113,-0.07073551271052853,-0.051638429599132785,-0.9906838145904918,0.10428522468623821,-0.20066601610464577,2.9869634070509705,-0.11975124265380707
1784028337703075584,2.0223946571350098,-1.9194023609161377,0.7812120318412781,-0.10277437418699265,0.14496508240699768,0.18109031021595,0.9727235436439514,0.32691293954849243,-0.053740471601486206,0.49741482734680176,-0.06827018832418258,-0.050307120603389335,-0.9918825319784949,0.09474875217578321,-0.18209497931050472,2.993651394341186,-0.11488230860930221
1784028337712995840,2.0323147773742676,-1.6005618572235107,1.352709174156189,0.0037376834079623222,0.13817328214645386,0.16203473508358002,0.9770632386207581,0.26812249422073364,0.05689835548400879,0.6221950054168701,-0.06528255536822397,-0.05020931571947424,-0.9929806935961291,0.08489103533920457,-0.16275228786909157,3.0011073030798823,-0.1125186342517514
1784028337722914816,2.04223370552063,-1.1658604145050049,1.5384060144424438,-0.1757921278476715,0.12449784576892853,0.14860861003398895,0.9810280203819275,0.10378891229629517,0.14370402693748474,0.5197349786758423,-0.05871036052531967,-0.05007864003288735,-0.9939849815085958,0.07771187712292535,-0.14916110762297563,3.0153619253964594,-0.11012257851587666
1784028337732834816,2.0521538257598877,-0.677385151386261,1.5817170143127441,-0.15568256378173828,0.10925915092229843,0.13977544009685516,0.984136700630188,0.18905016779899597,0.16352351009845734,0.598886251449585,-0.05128357737898,-0.04962396279288125,-0.9947893315959706,0.07281201654991942,-0.14023463070687106,3.0310251361454097,-0.10745845530460217
1784028337742754816,2.0620737075805664,-0.7181912064552307,1.6405822038650513,-0.1982121765613556,0.09350880235433578,0.1334402859210968,0.9866353273391724,0.3274964392185211,0.02161949872970581,0.6406227350234985,-0.043553266440343866,-0.049145704789788934,-0.9954407921347186,0.06917598476744824,-0.133839502579901,3.0470994612691644,-0.10499908259564114
1784028337752674816,2.071993827819824,-0.6454859972000122,1.830896258354187,-0.0864265039563179,0.0764414370059967,0.1265948861837387,0.989004909992218,0.2900899350643158,0.018439918756484985,0.7882168292999268,-0.035168130181544355,-0.04889426974937289,-0.9960480902434101,0.06527492046962301,-0.12693548227370727,3.064454752897007,-0.10300256209238202
1784028337762594816,2.081913709640503,-0.6219372749328613,2.1401567459106445,-0.013238037936389446,0.05699997395277023,0.12037467956542969,0.9910908937454224,0.20658035576343536,-0.1471385806798935,0.7786083221435547,-0.025557281786527147,-0.04915444129277435,-0.9965587188931117,0.061655767717588496,-0.12066729614646791,3.084143580499581,-0.10203975638093403
1784028337772514816,2.0918338298797607,-0.32904675602912903,2.166536331176758,0.020079072564840317,0.03593119978904724,0.11534275114536285,0.9926757216453552,0.20372334122657776,-0.07046665251255035,0.7322694063186646,-0.015099719078330914,-0.049695581294998015,-0.9969293940496448,0.05860170875399595,-0.11560004911654126,3.105412138066993,-0.10170863500834806
1784028337782434816,2.1017537117004395,-0.025011491030454636,2.2986207008361816,0.1362437605857849,0.013991174288094044,0.1135549396276474,0.9934333562850952,0.19999808073043823,0.027955085039138794,0.5373589992523193,-0.0041096099551002335,-0.05070607860340347,-0.9970684896522034,0.05715339739613521,-0.1138004091552311,3.1275099278176275,-0.10242497243964976
1784028337792354816,2.1116738319396973,0.1721264123916626,2.3905692100524902,0.08754896372556686,-0.009086641483008862,0.11465197056531906,0.9933643341064453,0.22533419728279114,0.047259047627449036,0.44007694721221924,0.007539283434433904,-0.052064763601948144,-0.9969811501169098,0.057105850115716894,-0.1149046566372883,-3.1324455679936665,-0.10382394242735445
1784028337802274816,2.121593713760376,0.5953538417816162,2.3819215297698975,0.17079484462738037,-0.03227952867746353,0.11830109357833862,0.9924531579017639,0.19307664036750793,0.04312165081501007,0.4414154291152954,0.01931209280515415,-0.05330338953655386,-0.9966871712722865,0.05831433302942025,-0.1185787879572715,-3.1090791267381044,-0.10492919240061324
1784028337812194816,2.131513833999634,0.9954445362091064,2.3530430793762207,0.19755269587039948,-0.054960574954748154,0.1258515864610672,0.990525484085083,0.25894007086753845,0.1005583256483078,0.3583972454071045,0.030961877826382156,-0.054688350070311115,-0.9961284743260826,0.061470520722527705,-0.12618618972278417,-3.086163213064462,-0.1061889270588467
1784028337822114816,2.1414337158203125,1.0397911071777344,2.170330762863159,0.011654995381832123,-0.07730846852064133,0.1360170841217041,0.9876853823661804,0.2866132855415344,0.03721591830253601,0.32731688022613525,0.042537336777501614,-0.05588973914736602,-0.9953486958661459,0.06593783978140093,-0.13644001826413424,-3.063479552854759,-0.10684415381335587
1784028337832034816,2.1513538360595703,0.9863866567611694,1.988299012184143,-0.25225502252578735,-0.09783681482076645,0.14572182297706604,0.9844760298728943,0.22100576758384705,-0.09663431346416473,0.38954734802246094,0.05312188802382598,-0.05568941208055726,-0.9945535246553451,0.07028539172298034,-0.14624254307678652,-3.0425383144960536,-0.10461012299353653
1784028337841953792,2.1612727642059326,0.9291808605194092,2.2113773822784424,0.05030455440282822,-0.11828228086233139,0.15531666576862335,0.9807576537132263,0.2731742858886719,-0.29864251613616943,0.3717506527900696,0.06368763705642609,-0.055506710210195535,-0.9936286257669802,0.07459853705034611,-0.15594800144172383,-3.021569369034975,-0.10222033897585973
1784028337851873536,2.1711926460266113,0.2920256555080414,2.370798110961914,-0.1365555077791214,-0.14106445014476776,0.16079403460025787,0.9768552780151367,0.19981077313423157,-0.2883574962615967,0.4366731643676758,0.07540035926978429,-0.056182852435707094,-0.9926082464068291,0.07672796699251216,-0.16149510865121727,-2.9981773672771332,-0.10145634620127637
1784028337861793792,2.181112766265869,0.13603311777114868,2.2213783264160156,-0.11841033399105072,-0.16302518546581268,0.16312545537948608,0.9730432033538818,0.1457217037677765,-0.22429794073104858,0.3347419500350952,0.08658163364537629,-0.056188733111042805,-0.9916473289222454,0.077343846021831,-0.16385772316703592,-2.9755928387732355,-0.09954112178447065
1784028337871713536,2.191032648086548,-0.06246691942214966,1.8946948051452637,0.17254041135311127,-0.18278831243515015,0.16301143169403076,0.9695444107055664,0.37002885341644287,-0.177629292011261,0.23254334926605225,0.09668741428890829,-0.05730656825957587,-0.9907008423262883,0.07667792917033737,-0.1637421406720949,-2.9552497698599662,-0.10022582237199683
1784028337881633792,2.2009527683258057,0.1138620376586914,1.7879115343093872,0.056596770882606506,-0.20008444786071777,0.1635374277830124,0.966033935546875,0.2983968257904053,-0.03557722270488739,0.09300225973129272,0.10560098144433272,-0.058603051045271665,-0.9897386802994038,0.07636376345165231,-0.1642752896563515,-2.937360901736502,-0.10141192969518567
1784028337891553536,2.2108726501464844,0.7291507124900818,1.803877353668213,0.37456631660461426,-0.21687258780002594,0.1676696091890335,0.9616926908493042,0.21400399506092072,0.1051727831363678,0.031715333461761475,0.11441612676169854,-0.059987231204836455,-0.9885584827760436,0.07786215735296564,-0.16846533255607188,-2.9197915745380847,-0.10241058712119284
1784028337901473792,2.220792770385742,1.1602410078048706,1.8033263683319092,0.4064025282859802,-0.23324841260910034,0.17828132212162018,0.9559344053268433,0.17602801322937012,0.11949393153190613,-0.06021314859390259,0.12337231074056328,-0.06226851699037289,-0.9869598939642554,0.08253470802432634,-0.1792395065217928,-2.9022685541010698,-0.1044072609684722
1784028337911393536,2.230712652206421,0.938412070274353,1.5021686553955078,0.2160114347934723,-0.2482026219367981,0.18894602358341217,0.9501028060913086,0.13601993024349213,0.005878239870071411,-0.008467435836791992,0.13160210869188252,-0.06384669886903699,-0.9853806421564199,0.08734761426501486,-0.1900887192159735,-2.8860656636787874,-0.10491502449318461
1784028337921313792,2.2406327724456787,1.173983097076416,1.3840867280960083,0.24420152604579926,-0.2609996795654297,0.1990816742181778,0.9445879459381104,0.21575728058815002,-0.02296467125415802,-0.0905836820602417,0.13867452753574597,-0.06459108683285389,-0.9839318900145897,0.09206298032324997,-0.20042075525370973,-2.8720083752996937,-0.1038340845761921
1784028337931233536,2.2505526542663574,0.8538423180580139,1.3868327140808105,0.4692765772342682,-0.27280646562576294,0.21024787425994873,0.9388142824172974,0.17725595831871033,-0.24465645849704742,-0.18548798561096191,0.14545849562684107,-0.06674927505498796,-0.9823195408725776,0.09713202428702661,-0.21182848913424543,-2.858794607922513,-0.10542823448768336
1784028337941153792,2.2604727745056152,0.6249904632568359,1.1061632633209229,0.19441573321819305,-0.28362196683883667,0.21738582849502563,0.933971107006073,-0.04818040132522583,-0.12978512048721313,-0.11695456504821777,0.15150348611501588,-0.06793872922877148,-0.9810045218871305,0.10030530562871745,-0.21913544583458364,-2.846769375256269,-0.1056206068888214
1784028337951073536,2.270392656326294,0.46075907349586487,0.9505858421325684,0.3747069835662842,-0.2921764850616455,0.2236955761909485,0.929835319519043,0.08805957436561584,-0.02444624900817871,-0.24149584770202637,0.15645197107724004,-0.06996005659358676,-0.9798077602500651,0.10298183175722832,-0.2256044886859834,-2.837138026138813,-0.10780673140481789
1784028337960993792,2.2803127765655518,0.3743877112865448,0.5814411044120789,-0.11665128171443939,-0.2979345917701721,0.2275354415178299,0.9270721673965454,-0.14084717631340027,0.155353382229805,-0.35868215560913086,0.15969712008942596,-0.07054688648793518,-0.9790603832036715,0.10469383524698779,-0.22954598624584518,-2.8306460841287358,-0.107729269131063
1784028337970912768,2.290231704711914,0.7229519486427307,0.8188924789428711,0.29501718282699585,-0.3036346435546875,0.23385679721832275,0.9236434698104858,-0.1805725395679474,0.11778202652931213,-0.5234968662261963,0.16304660839164858,-0.07118398782144705,-0.9781383176591133,0.10767606989552564,-0.23604259286468768,-2.823985594323289,-0.10731916206130626
1784028337980832768,2.300151824951172,0.7719993591308594,0.7165714502334595,-0.002321307547390461,-0.31011074781417847,0.2409723997116089,0.9196540117263794,-0.33483245968818665,0.08867846429347992,-0.5318672060966492,0.1668299455544795,-0.07158511441258761,-0.9770888257363821,0.1110888327719088,-0.24336764704824043,-2.816362818450026,-0.10614537619264991
1784028337990752768,2.3100717067718506,0.9584430456161499,0.7640917301177979,0.22509466111660004,-0.3160782754421234,0.2492697834968567,0.9154012203216553,-0.1692427694797516,0.2835976481437683,-0.5150715112686157,0.1704169354710104,-0.0719406566686708,-0.9759739574131481,0.11514137935066378,-0.25192616859031963,-2.809120564990781,-0.10466930086234337
1784028338000672768,2.3199918270111084,1.0943188667297363,0.31274640560150146,0.0008924619760364294,-0.3211444318294525,0.25900664925575256,0.9109235405921936,-0.1213909387588501,0.15690213441848755,-0.5393263101577759,0.1735688855059505,-0.07187151771326188,-0.9748313980218466,0.12005015779447119,-0.26199361032066026,-2.8026495578630057,-0.10210690399406536
1784028338010592768,2.329911708831787,0.6512855291366577,-0.08976564556360245,-0.17063401639461517,-0.3224727213382721,0.26680251955986023,0.9082000255584717,-0.03418612480163574,-0.058489590883255005,-0.4716463088989258,0.17450055571870754,-0.07053637017365331,-0.9742302767542536,0.12429568639994742,-0.2700737494209482,-2.8004101145042384,-0.09775132842920634
1784028338020512768,2.339831829071045,0.3666377663612366,-0.16733421385288239,0.09441176056861877,-0.32168206572532654,0.2711023688316345,0.9072067141532898,0.20461660623550415,-0.2520899176597595,-0.30541539192199707,0.17422465530352738,-0.0699291357286083,-0.9740191276120127,0.12665849776020777,-0.2745380940952958,-2.8008388881900923,-0.09582004853683987
1784028338030432768,2.3497517108917236,-0.15187755227088928,-0.10196375846862793,-0.10080567002296448,-0.3198162317276001,0.27203699946403503,0.9075864553451538,0.08853879570960999,-0.20677518844604492,-0.35802602767944336,0.17330585087305161,-0.07006683068925275,-0.974106698240233,0.12716832020966704,-0.2755092413805488,-2.8027982523505526,-0.09619774394783123
1784028338040352768,2.3596718311309814,-0.4560379981994629,-0.19373974204063416,-0.011310141533613205,-0.31794726848602295,0.2693268358707428,0.9090504050254822,0.05574026703834534,-0.12336128950119019,-0.3105701804161072,0.1721772267454003,-0.07002681072839104,-0.9744852210085083,0.1258165786545475,-0.27269397157748665,-2.80513382458987,-0.09688041109992279
1784028338050272768,2.36959171295166,-0.5146212577819824,-0.484495609998703,-0.07871787250041962,-0.31516966223716736,0.2642778158187866,0.9114963412284851,0.15750056505203247,-0.14620527625083923,-0.31960785388946533,0.1704397912595678,-0.0698721661684681,-0.9751236134205302,0.12329709224848268,-0.2674550295253535,-2.8086896353263207,-0.09786871114632913
1784028338060192768,2.379511833190918,-0.5006977319717407,-0.5256089568138123,0.11175753176212311,-0.3103695809841156,0.26002201437950134,0.914362907409668,0.2609768509864807,-0.21299439668655396,-0.3722332715988159,0.16771900630252778,-0.06999849436005609,-0.9758492013245496,0.12119796083776958,-0.26304500973945066,-2.814357947751064,-0.09954426649022309
1784028338070112768,2.3894317150115967,-0.6647716760635376,-0.5715786814689636,0.13041546940803528,-0.3051089644432068,0.25451406836509705,0.9176771640777588,0.2051180899143219,-0.19933825731277466,-0.32813847064971924,0.1647720344349064,-0.07070663595642804,-0.9766468910559973,0.11837088589508735,-0.257345190761615,-2.8206106144960703,-0.1026572882117262
1784028338080032768,2.3993518352508545,-0.6444911956787109,-0.5732173323631287,0.16423921287059784,-0.2992788553237915,0.2494090348482132,0.9209924340248108,0.23601597547531128,-0.10651051998138428,-0.43062084913253784,0.1615715842637146,-0.0715821133503399,-0.9774314380810393,0.11575122187784505,-0.2520699596783756,-2.8274036533218454,-0.10607363647917793
1784028338089951744,2.409270763397217,-0.8148874044418335,-0.5737230181694031,0.08427567034959793,-0.29329976439476013,0.24276024103164673,0.9246854186058044,0.34557631611824036,-0.14588214457035065,-0.4022548198699951,0.15822345566187204,-0.07246726842064785,-0.9783103870372426,0.11235095057461367,-0.24521020500044893,-2.834441953761743,-0.10973390735107712
1784028338099871744,2.4191906452178955,-0.814321756362915,-0.7606721520423889,0.1464327871799469,-0.28664183616638184,0.23568378388881683,0.9285958409309387,0.37396782636642456,-0.12278394401073456,-0.44449520111083984,0.15447734370744579,-0.07309239041156806,-0.9792626863010342,0.10880714094853332,-0.2379221116880231,-2.8421888573342797,-0.11295196576937154
1784028338109791744,2.4291107654571533,-0.8865557909011841,-0.8662610054016113,0.14250165224075317,-0.2784501612186432,0.22799646854400635,0.932996928691864,0.4373246729373932,-0.14787258207798004,-0.44479191303253174,0.14994297718964483,-0.07399031912759428,-0.9803182682072806,0.10496989782468358,-0.2300194634150635,-2.8515612118060125,-0.11692802852126886
1784028338119711744,2.439030647277832,-1.051208734512329,-1.0607966184616089,0.26256200671195984,-0.2681327164173126,0.2193683385848999,0.9380735754966736,0.4740043580532074,-0.16597789525985718,-0.3905578851699829,0.14432955989444288,-0.07543721204246577,-0.9815019125334196,0.10065833802498461,-0.22116699513339053,-2.8631829170597216,-0.12230391331340436
1784028338129631744,2.44895076751709,-0.9717200994491577,-1.2572938203811646,0.1841643750667572,-0.2548742890357971,0.20980168879032135,0.9439396262168884,0.428595632314682,-0.011269614100456238,-0.33676207065582275,0.13714846012680948,-0.07670694409294863,-0.9828966729948807,0.09602291817824168,-0.21137213347534017,-2.8778703767604497,-0.1276302719708539
1784028338139551744,2.4588706493377686,-0.9437723159790039,-1.328609824180603,0.01971551775932312,-0.2396041750907898,0.20000705122947693,0.9500455856323242,0.31167149543762207,0.027181029319763184,-0.33319395780563354,0.12888068073529513,-0.07727684053586371,-0.9844039215426447,0.09147061747838997,-0.20136511895801107,-2.894541825509821,-0.13159646368290337
1784028338149471744,2.4687907695770264,-0.8499192595481873,-1.3122261762619019,0.20541614294052124,-0.22598415613174438,0.19186685979366302,0.9550490379333496,0.3085494339466095,0.007016226649284363,-0.31356942653656006,0.12157877509213386,-0.07796017852899942,-0.985619967768341,0.08771648948898435,-0.19306398815579043,-2.909245583106562,-0.135266883658187
1784028338159391744,2.478710651397705,-1.0475008487701416,-1.3157926797866821,0.004770657047629356,-0.21271643042564392,0.18303145468235016,0.9598181843757629,0.2989286184310913,-0.03212204575538635,-0.256891667842865,0.11444598651851697,-0.07861884380120117,-0.9867766585673111,0.08362390276028753,-0.18406911460378272,-2.9234961544057287,-0.13880010652762023
1784028338169311744,2.488630771636963,-1.1289573907852173,-1.4289506673812866,0.14765587449073792,-0.1989196091890335,0.17270539700984955,0.9646782875061035,0.2635405361652374,-0.055075377225875854,-0.19323956966400146,0.10696848736098996,-0.07891695916667026,-0.9879834276474554,0.07885868360589347,-0.1735756848705334,-2.938239792549944,-0.1416613999269271
1784028338179231744,2.4985506534576416,-1.2011711597442627,-1.4946362972259521,0.0510459765791893,-0.18425226211547852,0.16158321499824524,0.9695061445236206,0.357180118560791,-0.051140084862709045,-0.19249796867370605,0.09906538708933511,-0.07956462091622792,-0.9891524307240873,0.07370907293957706,-0.16229474220653758,-2.9537848091163283,-0.14521031783045504
1784028338189151744,2.5084707736968994,-1.213621735572815,-1.4088305234909058,0.08224020898342133,-0.1697380244731903,0.14996902644634247,0.9740116000175476,0.2624809145927429,0.014932692050933838,-0.18912994861602783,0.09121903231761525,-0.07989662513139004,-0.9902637692862188,0.06836201209528761,-0.150536951690176,-2.9690583575095815,-0.1479724033102042
1784028338199071744,2.518390655517578,-1.1243736743927002,-1.3432433605194092,0.04178733378648758,-0.15627072751522064,0.13872030377388,0.9779244065284729,0.24374936521053314,0.061169832944869995,-0.18429958820343018,0.08395317515570382,-0.08042186538486758,-0.9912086253676827,0.06316377740886014,-0.1391691078369747,-2.9831339996462436,-0.15084848135492254
1784028338208991744,2.528310775756836,-1.0537879467010498,-1.3573598861694336,0.03725486621260643,-0.14283379912376404,0.12803342938423157,0.9814304113388062,0.24282467365264893,0.10702818632125854,-0.18510490655899048,0.07672447882065152,-0.08062102852754711,-0.9920763378141771,0.05829300139994921,-0.12838583254153368,-2.9970709711851367,-0.15286733855058063
1784028338218911744,2.5382306575775146,-0.9712038636207581,-1.3426775932312012,-0.019885120913386345,-0.12953759729862213,0.11821828037500381,0.9845020174980164,0.2752285301685333,0.07126535475254059,-0.2135213017463684,0.0696067404809723,-0.08055067774573371,-0.9928557799245924,0.05388725298558636,-0.11849538887125133,-3.0107673943405016,-0.15413474012876704
1784028338228830720,2.548149824142456,-0.8124489188194275,-1.31878662109375,0.002933309180662036,-0.11633043736219406,0.10937940329313278,0.9871694445610046,0.24938708543777466,0.03368700295686722,-0.19812214374542236,0.06259093640098339,-0.08045820389464721,-0.9935347040547235,0.049976862960659826,-0.10959868664174185,-3.024291219865974,-0.1551690389126258
1784028338238749952,2.5580689907073975,-0.6343109011650085,-1.3252534866333008,-0.03983146697282791,-0.1033203974366188,0.1022367924451828,0.9893799424171448,0.2044098675251007,0.0477876216173172,-0.245849609375,0.05575062059378916,-0.08017619559433438,-0.9941135467071777,0.046924742987972945,-0.10241573629585544,-3.037540360181287,-0.15561575446682238
1784028338248670208,2.5679891109466553,-0.4073811173439026,-1.2687081098556519,-0.03989711403846741,-0.09061417728662491,0.09712421149015427,0.9911385178565979,0.1479414701461792,0.03880106657743454,-0.259968101978302,0.04916091072069542,-0.07993448739285089,-0.9945751481849341,0.044875898655006775,-0.09727756062199647,-3.050421771003413,-0.1559551810173546
1784028338258589952,2.577908992767334,-0.3893672227859497,-1.259863018989563,-0.10082197934389114,-0.07813285291194916,0.09326563775539398,0.9925709366798401,0.09218619763851166,0.027675524353981018,-0.2581806182861328,0.042726751842022785,-0.0792888345731587,-0.9949868095084016,0.043462951595428255,-0.0934013793403156,-3.0630369887152105,-0.15536742823472383
1784028338268510208,2.587829113006592,-0.41197624802589417,-1.2082267999649048,-0.12616176903247833,-0.06599800288677216,0.08921515941619873,0.9938234090805054,0.10492317378520966,-0.03934943675994873,-0.19346940517425537,0.03646493367197604,-0.07860966978599807,-0.9953553304897169,0.04193586238709986,-0.08933393607211401,-3.07528183863312,-0.1546608478402365
1784028338278429952,2.5977489948272705,-0.44680240750312805,-1.1579777002334595,-0.15854313969612122,-0.054413191974163055,0.08494563400745392,0.9948985576629639,0.10639990121126175,-0.12358090281486511,-0.1729077696800232,0.030466604341882194,-0.07768105818237293,-0.9956982154265517,0.0402794111580448,-0.08504812278080541,-3.0869548871321144,-0.15339250864683146
1784028338288350208,2.6076691150665283,-0.5738908648490906,-1.1111063957214355,-0.16236397624015808,-0.04320523887872696,0.07978702336549759,0.9958750605583191,0.11563871800899506,-0.16351200640201569,-0.10778313875198364,0.02462881841011496,-0.07674084129389218,-0.9960162582052707,0.03815547558832785,-0.07987191758158232,-3.0982356453994755,-0.1520590172220767
1784028338298269952,2.617588996887207,-0.5945932269096375,-1.091181755065918,-0.15720543265342712,-0.032283637672662735,0.073857381939888,0.996746301651001,0.11848053336143494,-0.1582384705543518,-0.06904232501983643,0.018912329964144377,-0.07580451917290013,-0.9963065871766063,0.035626635162474656,-0.07392469570585558,-3.1092149496463426,-0.15068105021451192
1784028338308190208,2.627509117126465,-0.655726969242096,-1.0614686012268066,-0.1461895853281021,-0.02155902422964573,0.06761269271373749,0.9974786639213562,0.12672260403633118,-0.10405068844556808,-0.0789300799369812,0.013290823144210982,-0.0748865280602102,-0.9965597586814745,0.03292431108682202,-0.06766431546046757,-3.119982499478139,-0.14927673445664003
1784028338318109952,2.6374289989471436,-0.6052379608154297,-0.9967826008796692,-0.15724490582942963,-0.011407952755689621,0.06124914065003395,0.99805748462677,0.12034044414758682,-0.061050768941640854,-0.04639720916748047,0.007961893695867747,-0.07407892086436878,-0.9967653007956194,0.030132231377489715,-0.061287502716709796,-3.1301629959210002,-0.14801553762232006
1784028338328030208,2.6473491191864014,-0.5247904062271118,-0.833801805973053,-0.14614719152450562,-0.002326217945665121,0.05560363084077835,0.9984502792358398,0.11215898394584656,-0.07421935349702835,-0.055136680603027344,0.003197110221173747,-0.07320011755973656,-0.9969287263408751,0.027652715027443316,-0.05563232178287747,-3.1392628291756304,-0.14652338027494743
1784028338337949952,2.65726900100708,-0.4315454363822937,-0.7289542555809021,-0.11706279963254929,0.005441224668174982,0.0508810430765152,0.9986901879310608,0.14501044154167175,-0.0661855936050415,-0.017946481704711914,-0.0008700625747808317,-0.07244652203025044,-0.9970439233704721,0.025579168642778555,-0.05090302307869353,3.136144346242889,-0.1452064017832018
1784028338347870208,2.667189121246338,-0.2677687406539917,-0.5925195217132568,-0.07643215358257294,0.012030888348817825,0.04734833538532257,0.9988059997558594,0.19136877357959747,-0.03868134319782257,0.005558013916015625,-0.004298807347223223,-0.0718859317003849,-0.9971135468423556,0.024052618795083015,-0.04736604583370394,3.1295479664248487,-0.14422433783902672
1784028338357788928,2.6771080493927,-0.09938159584999084,-0.4689464271068573,-0.04533309116959572,0.017258401960134506,0.04548138007521629,0.9988160729408264,0.1747124195098877,-0.08643597364425659,0.029611051082611084,-0.006981911594978639,-0.07153494884604797,-0.9971413020208182,0.02330676722607815,-0.045497073800391155,3.124315513927005,-0.14362777882401018
1784028338367709184,2.687028169631958,0.13120639324188232,-0.429555207490921,-0.08291451632976532,0.021806081756949425,0.04574895650148392,0.9987149834632874,0.19933955371379852,-0.05874944478273392,0.07956266403198242,-0.009249982305803914,-0.07116431242093195,-0.9971424798479319,0.02360018416078405,-0.045764928613563634,3.1197619823633596,-0.1429945446555093
1784028338377628928,2.6969480514526367,0.07330502569675446,-0.2662331163883209,-0.07602758705615997,0.025453921407461166,0.04689125716686249,0.9985754489898682,0.20420610904693604,-0.06636147946119308,0.20114666223526,-0.011041055780999566,-0.07069057835387883,-0.9971411925602508,0.02429558322207045,-0.0469084574472294,3.116107938916666,-0.14214752959041338
1784028338387549184,2.7068681716918945,-0.07980203628540039,-0.17087802290916443,-0.030613265931606293,0.0277668796479702,0.046889882534742355,0.9985142946243286,0.1972392350435257,-0.18226584792137146,0.359991192817688,-0.01220109023045374,-0.07045207830838277,-0.9971427492656592,0.02437417576170587,-0.04690708044565689,3.113791624056353,-0.1417256868148213
1784028338397468928,2.7167880535125732,-0.1111714094877243,-0.08537431806325912,-0.08050066977739334,0.02916349470615387,0.04575518146157265,0.9985270500183105,0.19982515275478363,-0.20096758008003235,0.4754873514175415,-0.012945067362242123,-0.07015182932852103,-0.9971671127758912,0.02385328384288291,-0.04577116012971691,3.1123944405952724,-0.14113920815913844
1784028338407389184,2.726708173751831,-0.20696930587291718,0.00030105654150247574,-0.019031312316656113,0.029859019443392754,0.044234439730644226,0.9985750317573547,0.1595941185951233,-0.15544047951698303,0.5244964361190796,-0.013351655150594569,-0.0698794537176092,-0.9971982631802548,0.02311498790894771,-0.0442488770541925,3.1116999314833933,-0.14058436721128165
1784028338417308928,2.7366280555725098,-0.15483632683753967,0.17236895859241486,-0.03212873637676239,0.029217328876256943,0.042447447776794434,0.9986712336540222,0.11975422501564026,-0.09797418117523193,0.574219822883606,-0.013096105251281796,-0.0697706869287132,-0.997230000556635,0.02219893841704458,-0.04246020343419778,3.1123447935789375,-0.14032238836473285
1784028338427229184,2.7465481758117676,-0.06842274963855743,0.3716878294944763,0.0340677946805954,0.0268620103597641,0.040993329137563705,0.9987981915473938,0.0979548767209053,-0.068947434425354,0.5612145066261292,-0.011972004516870523,-0.06974046671937041,-0.9972639390833449,0.021390122072920268,-0.041004818344312785,3.114704802311154,-0.1401876475039779
1784028338437148928,2.7564680576324463,0.21016253530979156,0.6302450895309448,0.029531896114349365,0.022267205640673637,0.04166169837117195,0.9988835453987122,0.1435347944498062,0.0037179403007030487,0.5009485483169556,-0.009651222916322566,-0.06996214307308804,-0.9972698129236236,0.02156494639421325,-0.041673761074671245,3.119304251076366,-0.14054235639464804
1784028338447069184,2.766388177871704,0.7291142344474792,0.6645004749298096,0.1741703748703003,0.01647997833788395,0.04579085484147072,0.9988154172897339,0.1755061149597168,0.11039812862873077,0.48717737197875977,-0.006605171431705456,-0.07057037854745195,-0.9972098706077863,0.023426921115420236,-0.045806872565835564,3.1250946277195246,-0.14167805090314733
1784028338456988928,2.776308059692383,1.1878119707107544,0.6363300681114197,0.26216921210289,0.011295870877802372,0.055569007992744446,0.9983908534049988,0.2184862345457077,0.18178145587444305,0.45415419340133667,-0.0036408075837280236,-0.07173878628850915,-0.9970200458304609,0.028129515617186875,-0.05559764620335853,3.130279059370256,-0.14397341042392084
1784028338466909184,2.7862281799316406,1.2428005933761597,0.7698076963424683,0.4000126123428345,0.008052377961575985,0.06688307970762253,0.9977282881736755,0.22394225001335144,0.16683578491210938,0.6540203094482422,-0.001553054402225404,-0.07361151365894106,-0.9967173628551188,0.03366637611723075,-0.06693304370989119,3.1335221162932423,-0.14771041543759283
1784028338476828928,2.7961480617523193,0.7289817333221436,1.1240882873535156,0.2766866981983185,-0.0004306151531636715,0.07681211084127426,0.9970454573631287,0.04194977879524231,-0.32929930090904236,0.8751010894775391,0.0031213150572263234,-0.07556546721611188,-0.9963998150908921,0.038308109227435785,-0.0768878476146743,-3.1411607624301783,-0.15137059605911388
1784028338486749184,2.806068181991577,0.32252129912376404,1.3240879774093628,0.057764068245887756,-0.012240665964782238,0.08162868022918701,0.9965874552726746,-0.08915398269891739,-0.527154803276062,1.0367679595947266,0.00923795922225338,-0.0765679377701811,-0.9962083581164685,0.040259658586828104,-0.08171960456341525,-3.129310690373005,-0.15291496326706513
1784028338496668928,2.815988063812256,0.16348958015441895,1.5255534648895264,0.003844642546027899,-0.025982070714235306,0.08414677530527115,0.9961144924163818,0.039074115455150604,-0.37896186113357544,0.9453984498977661,0.016213484285081056,-0.07706164204803015,-0.9960515843419679,0.040985778213793136,-0.08424639456853007,-3.1155151488942474,-0.15332742846068556
1784028338506587904,2.825906991958618,0.07730375975370407,1.6317559480667114,-0.03417321294546127,-0.04155008867383003,0.08507522195577621,0.9955077767372131,0.16558878123760223,-0.2147596776485443,0.8886169195175171,0.024030368576489415,-0.07726991448827403,-0.9958831526636432,0.040848955403333685,-0.08517818387828285,-3.0998792823039776,-0.15309053006449785
1784028338516508160,2.835827112197876,0.3085276484489441,1.6239304542541504,0.03328598663210869,-0.05751797556877136,0.08673736453056335,0.9945691823959351,0.24137113988399506,-0.06285735964775085,0.7723678350448608,0.03207985160996191,-0.07746036292071527,-0.9956327074609922,0.041063098622566276,-0.08684649142166345,-3.083824949759174,-0.15277671808316654
1784028338526427904,2.8457469940185547,0.5981113910675049,1.7476747035980225,0.14678345620632172,-0.0740850493311882,0.09138401597738266,0.9930561184883118,0.2667882740497589,0.04699794948101044,0.6373608112335205,0.040579846403910755,-0.07823065027951855,-0.995192460509169,0.042722810668724416,-0.09151168595040332,-3.067127515868631,-0.15348332921049918
1784028338536348160,2.8556671142578125,0.848246157169342,1.80210542678833,0.09234071522951126,-0.0911952331662178,0.0985918939113617,0.9909403920173645,0.1763850450515747,0.09003724902868271,0.583674967288971,0.049472487262121105,-0.0790573270705284,-0.9945954684612706,0.04563139978845731,-0.09875231964310768,-3.0498221745378284,-0.1541021449903573
1784028338546267904,2.865586996078491,0.8399145603179932,1.9139575958251953,0.11779487878084183,-0.10926860570907593,0.10709138959646225,0.9882267713546753,0.18695107102394104,-0.013493962585926056,0.5579006671905518,0.05891935949576048,-0.07982177586921776,-0.9938520349080227,0.049144786732667776,-0.10729714953015183,-3.031469607622791,-0.15436747623343855
1784028338556188160,2.875507116317749,0.7825016379356384,1.9771987199783325,0.08075776696205139,-0.1280892789363861,0.1149505078792572,0.9850786924362183,0.22939234972000122,-0.09705192595720291,0.5760482549667358,0.06873521061041211,-0.08048070725751495,-0.9930066498413783,0.0523092138845583,-0.11520518048198965,-3.0122886535700335,-0.15427463096540855
1784028338566107904,2.8854269981384277,0.698571503162384,2.1783576011657715,0.14413590729236603,-0.14822028577327728,0.12248946726322174,0.9813392758369446,0.2519495487213135,-0.18088486790657043,0.4769124984741211,0.07924087072363739,-0.08139452282210013,-0.9919902004438534,0.05523740149393641,-0.12279785294765445,-2.991686932219985,-0.15450380903450897
1784028338576028160,2.8953471183776855,0.6150081157684326,2.05079984664917,0.045071907341480255,-0.16863812506198883,0.12886515259742737,0.9772180318832397,0.25460612773895264,-0.16600504517555237,0.44424498081207275,0.08986929172016862,-0.0821786926103781,-0.990886309489588,0.05757192885061953,-0.1292245066046186,-2.970706132002115,-0.15440671527364003
1784028338585947904,2.9052670001983643,0.5890322923660278,2.0449094772338867,0.024518195539712906,-0.1882588416337967,0.1345607489347458,0.9728575944900513,0.2857930362224579,-0.06887167692184448,0.38824158906936646,0.10008328865990633,-0.0826511430126703,-0.9897462165044953,0.05961970267030236,-0.1349701642898323,-2.950444034796577,-0.15366960591152057
1784028338595868160,2.915187120437622,0.6488460898399353,2.0965166091918945,-0.027883758768439293,-0.2081766128540039,0.14052748680114746,0.9679433107376099,0.2198801338672638,0.003820642828941345,0.2920205593109131,0.11048848801970762,-0.0829507845379193,-0.9884790495801724,0.06181075662888163,-0.14099417091037875,-2.929748562211547,-0.1524277671748127
1784028338605787904,2.925107002258301,0.6585092544555664,2.1085402965545654,-0.047563519328832626,-0.22837723791599274,0.14671772718429565,0.9624539017677307,0.17724506556987762,-0.008015349507331848,0.21198445558547974,0.12107623394715923,-0.08300840118234036,-0.98708488333383,0.0641368567278324,-0.14724927445796682,-2.9086150398240784,-0.15053250349763891
1784028338615708160,2.9350271224975586,0.6496188044548035,2.0440425872802734,-0.08782918751239777,-0.24817587435245514,0.15276572108268738,0.9565936326980591,0.19298481941223145,0.002248317003250122,0.15999877452850342,0.131489178683561,-0.0829176562535431,-0.9856071658748417,0.06643629056917703,-0.15336623686245238,-2.8877519354395274,-0.1482534151209959
1784028338625627904,2.9449470043182373,0.48954400420188904,1.944838523864746,0.022537436336278915,-0.26699358224868774,0.1581619679927826,0.9506310224533081,0.16773515939712524,-0.08017431199550629,0.1238166093826294,0.14143256020526498,-0.08307719466614205,-0.9840801175310719,0.06842041148346566,-0.1588289182947445,-2.8677872674473908,-0.14651672506389646
1784028338635548160,2.954867124557495,0.3447098433971405,1.7552510499954224,-0.040223948657512665,-0.2843756079673767,0.16186314821243286,0.9449498653411865,0.12824776768684387,-0.15241800248622894,0.1087455153465271,0.15060338473540405,-0.08330393459434696,-0.9826165959883914,0.06959552620550166,-0.16257840618085523,-2.849271365063287,-0.14516588235144265
1784028338645467904,2.964787006378174,0.43679216504096985,1.5813980102539062,0.0924178808927536,-0.29981327056884766,0.16545169055461884,0.9395413398742676,0.14150330424308777,-0.11702029407024384,0.014895915985107422,0.15881284951058264,-0.08368030437607714,-0.9812075561328107,0.07076620764764005,-0.16621599646991364,-2.832700889976225,-0.14421849202933795
1784028338655387136,2.9747061729431152,0.48023709654808044,1.363752841949463,0.04715773090720177,-0.31328442692756653,0.1697821021080017,0.934359073638916,0.08577585220336914,-0.051602765917778015,-0.060106754302978516,0.16608592902708508,-0.08423499310771286,-0.9798387638705868,0.07235966240552284,-0.1706085532388651,-2.818079077181449,-0.14360848900436274
1784028338665307136,2.984626054763794,0.6150714755058289,1.2766929864883423,0.07962439209222794,-0.32520943880081177,0.17512394487857819,0.929284930229187,-0.02055475115776062,0.08326840400695801,-0.1392611265182495,0.17260948004371662,-0.08443757837857542,-0.9785258156951886,0.0745889804996058,-0.1760316510920605,-2.804956463844816,-0.1421671908480528
1784028338675227136,2.9945461750030518,0.7935144305229187,1.2058601379394531,0.10835617035627365,-0.336651474237442,0.1819201111793518,0.92388916015625,-0.04948744177818298,0.1283521205186844,-0.21080005168914795,0.17900130514909784,-0.08483049795741467,-0.9771122570094706,0.07755023580965284,-0.18293879550340073,-2.792160471332089,-0.14082171257097187
1784028338685147136,3.0044660568237305,0.7814083099365234,0.9769169092178345,0.025364648550748825,-0.3464220464229584,0.1891622245311737,0.9188088774681091,-0.1092512309551239,0.09777933359146118,-0.2529914379119873,0.18453339159657317,-0.08479878182179496,-0.9758143330382963,0.08088926396234837,-0.19030889275204602,-2.7810400935717827,-0.13857924785246756
1784028338695067136,3.0143861770629883,0.8671208620071411,0.6134374737739563,-0.128806009888649,-0.3538334369659424,0.19650280475616455,0.9144336581230164,-0.13356280326843262,0.06776419281959534,-0.29556751251220703,0.18881427475777698,-0.08437837398594504,-0.9747292502013778,0.08445377087612373,-0.1977899023393475,-2.7723929732737145,-0.13565230947513754
1784028338704987136,3.024306058883667,0.5623391270637512,0.5950257778167725,0.1067202240228653,-0.3586270809173584,0.20332318544387817,0.9110690951347351,-0.19503816962242126,-0.011428609490394592,-0.35184943675994873,0.19165649005571378,-0.08355479796709286,-0.9739369233939841,0.08793975189463703,-0.20475081004055554,-2.766586866214266,-0.13218340432325631
1784028338714907136,3.034226179122925,0.5730218291282654,0.8165712356567383,-0.11046774685382843,-0.36539721488952637,0.2082255482673645,0.9072633385658264,-0.29276010394096375,0.005550071597099304,-0.28172940015792847,0.19551829899235032,-0.083497872674549,-0.9729644335883946,0.09022674632623827,-0.20976039660534754,-2.7587207790316173,-0.13041894225968131
1784028338724827136,3.0441460609436035,0.18405131995677948,0.7567278742790222,-0.07477706670761108,-0.3731248378753662,0.21173487603664398,0.9032971262931824,-0.3633710443973541,-0.05826200544834137,-0.35979461669921875,0.19978728029513876,-0.08304402526869216,-0.9719836662802794,0.09184958315546937,-0.213349735510513,-2.749870163152413,-0.12797685267113088
1784028338734747136,3.0540661811828613,0.08475987613201141,0.3897927403450012,0.04053088650107384,-0.3780204653739929,0.2124617099761963,0.9010887742042542,-0.04100123047828674,0.06135730445384979,-0.20743930339813232,0.2024487710744366,-0.08312429384627473,-0.9714086315829048,0.0920338159786344,-0.21409349701904146,-2.7443767947495266,-0.12747857442365731
1784028338744667136,3.06398606300354,0.06495261937379837,0.3544708490371704,0.07207349687814713,-0.38137102127075195,0.21307781338691711,0.8995299339294434,-0.015067577362060547,0.22994586825370789,-0.31153249740600586,0.20430855142456406,-0.08348013647836247,-0.9709768484449067,0.09215791565681393,-0.21472404281034946,-2.740597269998294,-0.1277296018939888
1784028338754587136,3.073906183242798,0.3450676202774048,0.07423359900712967,-0.11652837693691254,-0.3835894763469696,0.21482735872268677,0.8981695771217346,-0.14027532935142517,0.15867730975151062,-0.33522701263427734,0.20556091058884138,-0.08311477331213613,-0.9706578752260283,0.09305907904729728,-0.2165150519286896,-2.7379622890516875,-0.12637217624179353
1784028338764507136,3.0838260650634766,0.2428407222032547,0.06287640333175659,0.12244433164596558,-0.38402658700942993,0.21802392601966858,0.8972116708755493,-0.08298385143280029,-0.04047270119190216,-0.34432488679885864,0.20595879792005162,-0.08291364949005202,-0.9704283463578502,0.09473669076566568,-0.2197892332264882,-2.7371649090826633,-0.1252316559791886
1784028338774427136,3.0937461853027344,0.15758974850177765,-0.10505561530590057,-0.13656221330165863,-0.38376152515411377,0.21927203238010406,0.8970214128494263,-0.1132631003856659,0.04334704577922821,-0.24746978282928467,0.20586788743132334,-0.08270394970761859,-0.9703972170154412,0.09543507002827004,-0.22106827739025228,-2.7373379044352224,-0.12456275489353504
1784028338784347136,3.103666067123413,0.2573036253452301,0.059897806495428085,0.0030884048901498318,-0.383470743894577,0.2212371528148651,0.8966630697250366,-0.19279274344444275,0.22482305765151978,-0.33333897590637207,0.20578108051331948,-0.08226213747106356,-0.9703424597397549,0.09655414342523838,-0.22308287705265728,-2.737467539391379,-0.12326556457686058
1784028338794267136,3.113586187362671,0.31861358880996704,-0.10154727846384048,-0.16398847103118896,-0.38328301906585693,0.22356736660003662,0.896165132522583,-0.13000744581222534,0.12637771666049957,-0.27508652210235596,0.20575622752650685,-0.08168695882140795,-0.970262748703916,0.09788697429010587,-0.2254729545238823,-2.7374437164058514,-0.12160379463036385
1784028338804187136,3.1235060691833496,0.1654396802186966,-0.1984834223985672,0.043871618807315826,-0.38189953565597534,0.22548767924308777,0.8962746262550354,-0.023679077625274658,-0.012734398245811462,-0.2960395812988281,0.20505509324218682,-0.08100309859488629,-0.9703482928146122,0.09907137966663114,-0.22744358315194935,-2.7387935688741454,-0.1199411868881516
1784028338814106112,3.133424997329712,0.07863341271877289,-0.4388326108455658,-0.08520939946174622,-0.37936776876449585,0.226703479886055,0.8970426321029663,0.10133743286132812,0.06014646589756012,-0.32515859603881836,0.2037412454616993,-0.08073770247255899,-0.9705682544568371,0.09984062414480611,-0.22869169966104697,-2.7414940893999584,-0.11942526644079873
1784028338824026112,3.1433451175689697,0.07553476095199585,-0.39646586775779724,0.0028896662406623363,-0.3751741349697113,0.22712694108486176,0.8986977338790894,0.19081750512123108,0.03038036823272705,-0.34693998098373413,0.20147301851005872,-0.08026137715105391,-0.971033969306925,0.10029820837731973,-0.22912649955349834,-2.74612215061419,-0.11883624764793292
1784028338833946112,3.1532649993896484,-0.1374472975730896,-0.48283058404922485,-0.06230425089597702,-0.3713250160217285,0.2268327921628952,0.9003692269325256,0.18631219863891602,-0.1316332072019577,-0.34868764877319336,0.19936592161243707,-0.07992494756602911,-0.9714919502193495,0.10034265649447749,-0.22882446541541607,-2.750430434281465,-0.11864667028040655
1784028338843866112,3.1631851196289062,-0.09492160379886627,-0.534553050994873,0.015007748268544674,-0.3665487468242645,0.22524617612361908,0.9027215242385864,0.27531641721725464,-0.017757147550582886,-0.3118859529495239,0.19668175920171327,-0.07944780173001105,-0.9721362102591619,0.09977732539041169,-0.22719569049927468,-2.755882933906226,-0.1185358197667537
1784028338853786112,3.173105001449585,-0.24824830889701843,-0.5795007944107056,-0.0002684097271412611,-0.36155712604522705,0.22371676564216614,0.9051121473312378,0.3920746147632599,-0.06850431859493256,-0.34921884536743164,0.19396138314358088,-0.0796506563018608,-0.9727342079869734,0.09911158829343862,-0.22562623405551976,-2.761550883645076,-0.11982657910258768
1784028338863706112,3.1830251216888428,-0.014494802802801132,-0.6683247089385986,-0.2072678655385971,-0.35598793625831604,0.22213907539844513,0.9077041149139404,0.3260807394981384,0.03510883450508118,-0.4193466305732727,0.19083187918014224,-0.07881474458096802,-0.973468176888629,0.09864644283600302,-0.22400781600131978,-2.7678414489280105,-0.11904584603427781
1784028338873626112,3.1929450035095215,-0.023343155160546303,-0.6346279978752136,-0.05168306455016136,-0.3502230644226074,0.22156883776187897,0.9100828170776367,0.3602786660194397,-0.11477261781692505,-0.45041197538375854,0.1876460590258794,-0.07784135639377582,-0.9741571465206273,0.09872923879325403,-0.22342299954646294,-2.774235816065567,-0.11780058378051665
1784028338883546112,3.2028651237487793,-0.31428492069244385,-0.7793338298797607,-0.0448933020234108,-0.34415456652641296,0.2197987288236618,0.9128229022026062,0.39789608120918274,-0.2786214053630829,-0.3309903144836426,0.18430647234116557,-0.07749658706712477,-0.9748875473747587,0.09807925297246611,-0.22160815022371996,-2.781050221593851,-0.1181034845569307
1784028338893466112,3.212785005569458,-0.5118408799171448,-1.0020856857299805,-0.0686793252825737,-0.336060494184494,0.21571093797683716,0.9168052077293396,0.3810281753540039,-0.18241629004478455,-0.2935906648635864,0.17978763375925982,-0.0771623070732289,-0.9759347188330434,0.09630013208611748,-0.21741985429661267,-2.790245354739967,-0.1190611032434794
1784028338903386112,3.222705125808716,-0.49973633885383606,-1.2257248163223267,-0.08858369290828705,-0.32592976093292236,0.2108275443315506,0.9215865135192871,0.3956471383571625,-0.1857268214225769,-0.30862557888031006,0.1741660169757211,-0.07674105911846871,-0.9771919225874118,0.09419653150483381,-0.2124214595223741,-2.8016595467234477,-0.12015285999199074
1784028338913306112,3.2326250076293945,-0.40434885025024414,-1.3157750368118286,-0.0037122098729014397,-0.31391069293022156,0.2061857134103775,0.9267944693565369,0.2865668833255768,-0.13680396974086761,-0.28104233741760254,0.16758242211284555,-0.07621820075065532,-0.9785642618062135,0.09229851129722044,-0.20767530039281998,-2.815014670768565,-0.12112584981234446
1784028338923226112,3.2425451278686523,-0.29020100831985474,-1.4133070707321167,0.042181745171546936,-0.30083075165748596,0.20287784934043884,0.931848406791687,0.23759835958480835,-0.06663212180137634,-0.269464373588562,0.16057101769573068,-0.0760259349701259,-0.9798695061473004,0.09106453518358121,-0.20429599504857165,-2.8293226147440227,-0.1225963359448937
1784028338933146112,3.252465009689331,-0.15115657448768616,-1.3663663864135742,0.10458946228027344,-0.2873910367488861,0.20105960965156555,0.9364728927612305,0.1402047574520111,-0.057916924357414246,-0.25631237030029297,0.15347979479785662,-0.07590916730058178,-0.9810577160061681,0.09059536815306295,-0.2024395072266012,-2.8438298593138267,-0.1239760065316924
1784028338943066112,3.262385129928589,-0.08552543073892593,-1.3543663024902344,0.11115505546331406,-0.27372968196868896,0.20000246167182922,0.9407820105552673,0.13299790024757385,-0.09927920997142792,-0.17430263757705688,0.1463498586574562,-0.07594344723065599,-0.9821525288014639,0.09050215027069562,-0.20136042849386032,-2.8584501789631123,-0.125545627826174
1784028338952986112,3.2723050117492676,-0.055996306240558624,-1.2569257020950317,0.16984286904335022,-0.2602190375328064,0.19957366585731506,0.9446992874145508,0.1613878607749939,-0.11520779132843018,-0.16601264476776123,0.13936744428097134,-0.07615144016525544,-0.9831330559575298,0.09070369648959939,-0.20092281664065698,-2.872806527920816,-0.12735068166282842
1784028338962906112,3.2822251319885254,-0.06914573162794113,-1.2267427444458008,0.1361040472984314,-0.24599717557430267,0.19890540838241577,0.9486420750617981,0.17565421760082245,-0.17418619990348816,-0.11464256048202515,0.13204253581188907,-0.07649754069487201,-0.9841083075866167,0.09079465710238831,-0.2002408878824917,-2.8878662701352025,-0.12952904356485104
1784028338972826112,3.292145013809204,-0.1520310342311859,-1.2436021566390991,0.1467023640871048,-0.23223823308944702,0.19755680859088898,0.9523845314979553,0.20471146702766418,-0.24920785427093506,-0.028404057025909424,0.12493679199061546,-0.076741449026486,-0.9850395972020182,0.09054516442316762,-0.19886497754696153,-2.902411266397873,-0.13152547922930613
1784028338982745088,3.3020641803741455,-0.12973670661449432,-1.209072232246399,0.22620394825935364,-0.21877819299697876,0.19609837234020233,0.9558669328689575,0.24487072229385376,-0.22211460769176483,0.02164161205291748,0.11802612196802166,-0.07727803718363349,-0.9858811104984325,0.09020191165271516,-0.19737744878184643,-2.9165888757656777,-0.13407835289718564
1784028338992665088,3.311984062194824,0.052772119641304016,-1.2441474199295044,0.2754622995853424,-0.2055862843990326,0.1957940012216568,0.9588527679443359,0.2739304304122925,-0.068993479013443,0.016931354999542236,0.11134198294092998,-0.0780170746338166,-0.9865798131282151,0.09042393258187174,-0.19706706065903756,-2.930381831399606,-0.13687202907565052
1784028339002585088,3.321904182434082,0.2672659158706665,-1.246641993522644,0.34665119647979736,-0.1923515498638153,0.19773957133293152,0.9611970782279968,0.2422020137310028,0.07585051655769348,-0.0341036319732666,0.10477252133917568,-0.07893848497906307,-0.9871004288293365,0.09178316639648501,-0.1990514241051813,-2.944084919549742,-0.13981449919668823
1784028339012505088,3.3318240642547607,0.48157715797424316,-1.24924898147583,0.3309582769870758,-0.179057776927948,0.20175190269947052,0.9629303812980652,0.18812143802642822,0.14698775112628937,-0.06726980209350586,0.09828166677727909,-0.07983244870684898,-0.9874674550640288,0.09421058554951521,-0.20314628029565063,-2.9577416128285305,-0.1425491959224749
1784028339022425088,3.3417441844940186,0.4820464551448822,-1.168766736984253,0.2729100286960602,-0.1663888692855835,0.20693179965019226,0.9641023874282837,0.08940833806991577,0.09592458605766296,-0.06911367177963257,0.09216138595119568,-0.08056437251269824,-0.987704695181735,0.09723652640132689,-0.2084378302496857,-2.970691926863576,-0.14485514696028648
1784028339032345088,3.3516640663146973,0.24057285487651825,-1.1385356187820435,0.1751813441514969,-0.1543363332748413,0.21082279086112976,0.9652639031410217,0.021996811032295227,-0.01612059772014618,-0.018226981163024902,0.0862711212730493,-0.0809509824398517,-0.9879670453927065,0.09962646553979283,-0.21241659518665518,-2.9830443587409423,-0.14657076316556292
1784028339042265088,3.361584186553955,-0.12275069952011108,-1.1046466827392578,0.11583242565393448,-0.14290930330753326,0.21142041683197021,0.966891348361969,0.009181231260299683,-0.09049446880817413,0.016278505325317383,0.08052633109926972,-0.08106783254243559,-0.9883691989645211,0.10034925592128076,-0.21302800037204397,-2.9948521948277285,-0.14796006815149368
1784028339052185088,3.371504068374634,-0.3505457937717438,-1.001328468322754,0.02763545885682106,-0.13227185606956482,0.20910640060901642,0.9689059853553772,0.033639028668403625,-0.05290214717388153,-0.014972209930419922,0.0750408826596182,-0.08104676910095208,-0.9888803864458471,0.09957865300210347,-0.21066106464065953,-3.005914664345473,-0.14918476659992538
1784028339062105088,3.3814241886138916,-0.5226534008979797,-0.928386926651001,-0.007158107124269009,-0.12261076271533966,0.20471680164337158,0.971111536026001,0.028677664697170258,-0.016987934708595276,-0.03957778215408325,0.06993999800105394,-0.08080111749227895,-0.9894579098798123,0.0977375300544083,-0.20617437540046743,-3.0159990402159345,-0.14995233211961198
1784028339072025088,3.3913440704345703,-0.47147253155708313,-0.9142463207244873,-0.08606437593698502,-0.11358591914176941,0.1997801810503006,0.9732345938682556,0.06330825388431549,0.03316044807434082,-0.06800723075866699,0.0651182869891117,-0.08028571006128658,-0.9900361143828988,0.09561471529180082,-0.201133571269388,-3.025408569291865,-0.15009640677594438
1784028339081945088,3.401264190673828,-0.39574846625328064,-0.9004288911819458,-0.06593820452690125,-0.10466412454843521,0.1953645944595337,0.9751301407814026,0.11204934120178223,0.04580061137676239,-0.10733199119567871,0.060374044136807435,-0.0796986032717248,-0.990562071362115,0.09375542734405874,-0.19662919453854596,-3.03466851650145,-0.15001389649021382
1784028339091865088,3.411184072494507,-0.34415000677108765,-0.8947185277938843,-0.14365935325622559,-0.09603160619735718,0.1915854513645172,0.9767664074897766,0.10504957288503647,0.0417671799659729,-0.11026573181152344,0.055782684698623644,-0.07880317238331616,-0.9910465448637851,0.09222258676609858,-0.1927772730213956,-3.0435917616522623,-0.14921324666169694
1784028339101785088,3.4211041927337646,-0.2777102589607239,-0.8225683569908142,-0.16061051189899445,-0.08779171854257584,0.18836283683776855,0.9781678915023804,0.11228206008672714,0.015998154878616333,-0.07355046272277832,0.05140839317036167,-0.07777872171278766,-0.9914809178541035,0.09095781563638794,-0.18949487425058542,-3.052081310740785,-0.1480613215736989
1784028339111705088,3.4310240745544434,-0.2743235230445862,-0.7405839562416077,-0.19511814415454865,-0.0803728997707367,0.18561340868473053,0.9793302416801453,0.10130796581506729,-0.040853291749954224,-0.06082749366760254,0.04745712450640871,-0.07657888721896679,-0.9918673206882201,0.08990365008975049,-0.18669608607905316,-3.0597069152615886,-0.14643743963939748
1784028339121625088,3.440944194793701,-0.32565048336982727,-0.6714035868644714,-0.16789086163043976,-0.07373897731304169,0.18248005211353302,0.9804404377937317,0.10576717555522919,-0.05337543785572052,0.017209649085998535,0.04389810073935106,-0.07546788678123265,-0.9922322412059937,0.08861547046778524,-0.18350826350506266,-3.0665239317449062,-0.14491458666306706
1784028339131545088,3.45086407661438,-0.374642014503479,-0.6003118753433228,-0.15914477407932281,-0.06756625324487686,0.17892225086688995,0.9815404415130615,0.10403475910425186,-0.021680429577827454,0.06707406044006348,0.04056962147491801,-0.07447443191938644,-0.9925843899716223,0.08708552096952292,-0.17989092177657523,-3.0728641165120862,-0.14358004615679779
1784028339141465088,3.4607841968536377,-0.3816756308078766,-0.4174331724643707,-0.09271298348903656,-0.06258367002010345,0.17512540519237518,0.9825552105903625,0.07862064242362976,-0.01750209927558899,0.11858022212982178,0.03785263724697848,-0.073694250009587,-0.9928981647298581,0.08537953075119166,-0.17603313729104433,-3.077983772417494,-0.14255602948113794
1784028339151384064,3.470703125,-0.40103307366371155,-0.19754770398139954,-0.12806378304958344,-0.059527866542339325,0.17109474539756775,0.9834545850753784,0.03557157143950462,-0.04423318803310394,0.1735430359840393,0.036116150253818806,-0.07313908638568586,-0.993165621784089,0.08347637807416529,-0.17194068853985656,-3.0811370634938138,-0.14180757228714608
1784028339161304064,3.4806230068206787,-0.3507905900478363,-0.04973757266998291,-0.12371908128261566,-0.05832258611917496,0.16733892261981964,0.9841727614402771,0.02960554137825966,-0.06519658863544464,0.21593093872070312,0.035317677887211636,-0.07254317357010075,-0.9933900885354071,0.08164708617897305,-0.16812991316544912,-3.0824013630847036,-0.14080382394828006
1784028339171224064,3.4905431270599365,-0.35271018743515015,0.06871716678142548,-0.17769336700439453,-0.058253705501556396,0.16374871134757996,0.9847808480262756,0.0659746453166008,-0.06764884293079376,0.2734133005142212,0.035093649054948876,-0.07189610021480944,-0.9935901497292482,0.0798631727768863,-0.16448947321259114,-3.0825075273568148,-0.13959622395680774
