time,seconds_elapsed,rotationRateX,rotationRateY,rotationRateZ,gravityX,gravityY,gravityZ,accelerationX,accelerationY,accelerationZ,quaternionW,quaternionX,quaternionY,quaternionZ,pitch,roll,yaw
1784547341618685952,0.20111584663391113,0.055442649871110916,-0.010732214897871017,0.4609870910644531,-0.0863746628165245,0.7168175578117371,-0.6918902397155762,0.1328681856393814,0.11484748125076294,-0.0002636909484863281,-0.18864864732285475,0.12588343913715777,-0.37176370316104157,0.900198252035946,-0.7992273301386894,-0.12419615727095626,-2.7809528069973064
1784547341628605184,0.21103501319885254,0.45026424527168274,-0.0034335553646087646,0.36246106028556824,-0.07677647471427917,0.7194702625274658,-0.6902665495872498,0.06830783188343048,0.06835627555847168,-0.013651847839355469,-0.19186083497469944,0.12250458033213593,-0.37397772501302007,0.8990677414916872,-0.8030393060785513,-0.11077197421409254,-2.7681721104468116
1784547341638524928,0.22095489501953125,0.7433342337608337,0.09420040249824524,0.334236741065979,-0.06732571870088577,0.7192716598510742,-0.6914590001106262,0.0014992952346801758,0.008374214172363281,-0.024178147315979004,-0.1948488841858107,0.11863054702234588,-0.37442928001311016,0.8987565999240995,-0.8027533296873633,-0.09706166311646097,-2.7558251019675617
1784547341648445184,0.23087501525878906,0.879448652267456,0.17122115194797516,0.28506600856781006,-0.058807309716939926,0.7163634300231934,-0.6952446699142456,-0.02044685184955597,0.00803232192993164,-0.027320027351379395,-0.19742204396317403,0.1146196048042666,-0.37314876794337126,0.8992479667844103,-0.798576231491096,-0.08438418898569774,-2.744990887522732
1784547341658364160,0.24079394340515137,0.7620571851730347,0.16235682368278503,0.1883295327425003,-0.05201626196503639,0.712409496307373,-0.6998336315155029,-0.029557231813669205,0.06769609451293945,-0.02218174934387207,-0.19929862159229586,0.11107118817394039,-0.371141999839697,0.9001093967397092,-0.7929257043533581,-0.07419019406418283,-2.7368616129913215
1784547341668283904,0.2507138252258301,0.4575076699256897,0.08530198037624359,0.1906834989786148,-0.047065384685993195,0.7096737027168274,-0.7029566764831543,0.00287594273686409,0.06602209806442261,-0.005310535430908203,-0.20069234248348827,0.10852673246758672,-0.369788609897537,0.9006668985799533,-0.7890349405151785,-0.0668536904191115,-2.730946242743483
1784547341678204160,0.2606339454650879,-0.050459880381822586,0.022379055619239807,0.20563077926635742,-0.043321095407009125,0.7096242308616638,-0.7032473087310791,0.06340166926383972,-0.0017842650413513184,0.0198061466217041,-0.2019178589284179,0.10702809616194252,-0.3700288442288725,0.9004736395002979,-0.7889647105201617,-0.06152376643610849,-2.7260392310409136
1784547341688122880,0.2705528736114502,-0.422626793384552,-0.0774519294500351,0.2091839760541916,-0.03970902040600777,0.7127103209495544,-0.7003336548805237,0.09216872602701187,-0.04419225454330444,0.07313638925552368,-0.20312780285745236,0.10614695628406516,-0.37224453651820955,0.8993920116245987,-0.7933545009004186,-0.05663949933844478,-2.7210762630855436
1784547341698043136,0.280472993850708,-0.5244147777557373,-0.14900459349155426,0.24014784395694733,-0.03610925376415253,0.7173911929130554,-0.6957342624664307,0.07952048629522324,-0.03982466459274292,0.07735657691955566,-0.20456644642969077,0.10566072528283806,-0.3754579703181884,0.897786096075467,-0.8000503497822888,-0.05185440337200926,-2.715458648249227
1784547341707962880,0.2903928756713867,-0.4942818582057953,-0.16322508454322815,0.1775294691324234,-0.03278099745512009,0.7220918536186218,-0.6910200119018555,0.04456079751253128,-0.015457391738891602,0.034892141819000244,-0.20606884429716812,0.1053663637756948,-0.3786659686130799,0.8961280809339482,-0.8068213793737063,-0.04740302629312349,-2.7097775399144375
1784547341717883136,0.30031299591064453,-0.4766416847705841,-0.11479976028203964,0.011361509561538696,-0.030449852347373962,0.7264409065246582,-0.6865540742874146,-0.00893310084939003,0.010955333709716797,0.02438366413116455,-0.2069571096873632,0.10529448587385742,-0.3816228866813606,0.8946764428813527,-0.8131287564856198,-0.044322670714551746,-2.7060339300487617
1784547341727802112,0.31023192405700684,-0.37342262268066406,-0.007172632962465286,-0.025050293654203415,-0.02892141416668892,0.7302528023719788,-0.6825645565986633,-0.07731027901172638,0.04446643590927124,0.027840495109558105,-0.20713162238865584,0.10525618032254946,-0.3842380132897801,0.8935204578107616,-0.8186919395215113,-0.04234636021857561,-2.704383627790108
1784547341737721856,0.32015180587768555,-0.1955777257680893,0.09879249334335327,0.0022243703715503216,-0.027417412027716637,0.7331434488296509,-0.6795212030410767,-0.12211873382329941,0.05248582363128662,0.01750338077545166,-0.20704085815875456,0.10495006839791332,-0.3862963705036456,0.8926896327621777,-0.8229327027824463,-0.040326259731789584,-2.7033921266822727
1784547341747642112,0.33007192611694336,0.06443122029304504,0.14194075763225555,-0.03693022578954697,-0.026339668780565262,0.7345425486564636,-0.6780511736869812,-0.12687382102012634,0.06297332048416138,0.0047571659088134766,-0.20670817660086938,0.10449043369884764,-0.38737081620268193,0.892354888619691,-0.8249922702344412,-0.03882661281656174,-2.7033275025996986
1784547341757561088,0.33999085426330566,0.35196518898010254,0.1602148711681366,-0.0358872264623642,-0.025932325050234795,0.7340216040611267,-0.6786308288574219,-0.09445952624082565,0.08091980218887329,-0.018299102783203125,-0.20624352685300962,0.10397464046460352,-0.38713545751036627,0.8926248186012362,-0.8242249236032684,-0.038194129773273314,-2.7041544370159034
1784547341767481088,0.3499109745025635,0.466322660446167,0.1551537960767746,-0.02820400893688202,-0.02575022354722023,0.7320253252983093,-0.6807906031608582,-0.07082264870405197,0.07011395692825317,-0.025752365589141846,-0.20582552948236818,0.10332806863151178,-0.38591192193945273,0.8933258755625194,-0.8212900491660015,-0.03780597757672598,-2.705151463030473
1784547341777401088,0.3598308563232422,0.4175887405872345,0.07593077421188354,-0.021364446729421616,-0.025844518095254898,0.7296584248542786,-0.6833232641220093,-0.0456123948097229,0.026445090770721436,-0.004390358924865723,-0.2055472050776282,0.10282444951872767,-0.38440278667456096,0.894098417796273,-0.8178222693699283,-0.03780378487618694,-2.706042001525411
1784547341787320064,0.3697500228881836,0.393746018409729,0.030804309993982315,-0.038873929530382156,-0.026402976363897324,0.7274439334869385,-0.6856589913368225,-0.027201160788536072,-0.027721643447875977,-0.01543658971786499,-0.20534897015483897,0.10263353997024349,-0.38293193046310997,0.894796824084949,-0.8145894207093358,-0.038488429252104474,-2.707026721918343
1784547341797240064,0.3796699047088623,0.4036403298377991,0.008605378679931164,-0.05298049747943878,-0.0272968839854002,0.7251371145248413,-0.6880632638931274,-0.04858507588505745,-0.02907693386077881,-0.010270476341247559,-0.20517360316151736,0.10261676197562748,-0.38136356378471753,0.8955084575327885,-0.811233464659941,-0.039651261419003145,-2.708168244819955
1784547341807160064,0.3895900249481201,0.27586930990219116,0.015328528359532356,-0.05405428260564804,-0.02844306454062462,0.7230209708213806,-0.6902403831481934,-0.09797602891921997,0.014314234256744385,-0.00844430923461914,-0.2048914374668005,0.1027255645520784,-0.3799042851774104,0.8961806911624064,-0.8081653197126772,-0.04118417640464267,-2.7096770270228228
1784547341817077504,0.3995072841644287,0.11688463389873505,0.012410655617713928,0.014294115826487541,-0.029347773641347885,0.7219985723495483,-0.6912719011306763,-0.10210671275854111,0.01690828800201416,0.01629936695098877,-0.20468253717757307,0.10293508864322656,-0.37916804493427037,0.8965161015540798,-0.8066864938613781,-0.04242926662375379,-2.7107780052641632
1784547341826997248,0.4094271659851074,0.06414313614368439,-0.048331789672374725,0.051441218703985214,-0.030156753957271576,0.7216537594795227,-0.6915969848632812,-0.050974227488040924,-0.050877392292022705,-0.00415802001953125,-0.20470765221905782,0.10331457546670596,-0.3788503608885306,0.8966009365549051,-0.8061882814840757,-0.043576914113618255,-2.7112428450128125
1784547341836917504,0.41934728622436523,0.12051732838153839,-0.16017839312553406,0.03967463970184326,-0.03168610855937004,0.7213149070739746,-0.6918821334838867,0.01203276589512825,-0.1368727684020996,-0.014203071594238281,-0.20492601500072863,0.1041602659126753,-0.378430396756926,0.8966306634170023,-0.8056989136867223,-0.04576499891931576,-2.7117146612686596
1784547341846837248,0.42926716804504395,0.22103646397590637,-0.18474286794662476,-0.001107676886022091,-0.03390829265117645,0.720075249671936,-0.6930669546127319,0.04378073662519455,-0.1847817301750183,-0.05688720941543579,-0.20524802300674466,0.10525628577093461,-0.3773428546378679,0.8968872484635712,-0.8039107993716809,-0.048886004741409264,-2.7124355030419545
1784547341856756480,0.43918633460998535,0.1345827430486679,0.05316934734582901,-0.3962666392326355,-0.03663833066821098,0.718436062335968,-0.6946274042129517,-0.01978866383433342,-0.1381901502609253,-0.06417685747146606,-0.2045890844304725,0.10613901354484379,-0.37605958830262537,0.8974725607692452,-0.80155138945494,-0.05269646881526827,-2.7156621326471533
1784547341866676224,0.44910621643066406,-0.034452881664037704,0.3961266875267029,-0.665230393409729,-0.03995785489678383,0.7173573970794678,-0.695558488368988,-0.21341431140899658,-0.13563138246536255,-0.05758476257324219,-0.2014679089664776,0.10640986739276237,-0.37536340744726826,0.8984374279220684,-0.8000019013765337,-0.05738407928201892,-2.7246729571432065
1784547341876596480,0.4590263366699219,-0.1229693666100502,0.4727191925048828,-0.37774842977523804,-0.041891179978847504,0.7171178460121155,-0.6956917643547058,-0.1130465418100357,-0.09220945835113525,-0.061067819595336914,-0.1979888606699939,0.10594609000993854,-0.37540584004988786,0.8992475719117274,-0.7996581382341373,-0.06014252405985769,-2.733586502216878
1784547341886515456,0.4689452648162842,0.18647529184818268,0.4635984003543854,-0.20932240784168243,-0.041864898055791855,0.7162277102470398,-0.6966098546981812,0.12240077555179596,0.031391918659210205,-0.10162317752838135,-0.19570719347997803,0.10482633255143858,-0.37510868163194555,0.9000020741366989,-0.7983817660580806,-0.06002586162557189,-2.7386831051942138
1784547341896435200,0.4788651466369629,0.664565920829773,0.3539113700389862,-0.036086734384298325,-0.04079432785511017,0.7124371528625488,-0.7005491852760315,0.21129602193832397,0.08578062057495117,-0.1569337248802185,-0.19441401330852873,0.1030718498383285,-0.3729632595024363,0.9013755744307772,-0.7929651713439734,-0.05816623644421265,-2.741086513769486
1784547341906355456,0.4887852668762207,1.054051399230957,0.206115260720253,0.15356388688087463,-0.038772400468587875,0.7057240605354309,-0.7074251174926758,0.2923887372016907,0.1475626826286316,-0.12808513641357422,-0.19462069618287628,0.10095267535932823,-0.36891192101415443,0.9032360497317551,-0.7834445965508634,-0.05475300283730504,-2.7397625569692
1784547341916274432,0.498704195022583,1.3459991216659546,0.17996342480182648,0.050915542989969254,-0.03654446080327034,0.6969481706619263,-0.7161897420883179,0.28724634647369385,0.15318000316619873,-0.10580122470855713,-0.19542187224145696,0.09864259807116749,-0.3635584727585744,0.9054861581614166,-0.7711329825616294,-0.050982009068128435,-2.7371697910599733
1784547341926194432,0.5086243152618408,1.5114508867263794,0.15377363562583923,-0.00038839029730297625,-0.035083070397377014,0.6864833235740662,-0.7262988090515137,0.2818481922149658,0.12153059244155884,-0.06760072708129883,-0.19594009811341037,0.09637419730967577,-0.35715909694060965,0.9081613730181957,-0.7566416766961314,-0.048266391746712635,-2.7357853540503183
1784547341936114432,0.5185441970825195,1.4431631565093994,0.14334017038345337,0.12525077164173126,-0.03338182717561722,0.6755462288856506,-0.7365615963935852,0.3440812826156616,0.035208165645599365,-0.016398608684539795,-0.19667267115777537,0.094017078491096,-0.350542429762786,0.9108241856396126,-0.7417052798510687,-0.04529016859738456,-2.7338796050375263
1784547341946033408,0.5284633636474609,1.2127991914749146,0.17758096754550934,0.3967147469520569,-0.030172178521752357,0.6657789945602417,-0.7455386519432068,0.378743976354599,-0.039497315883636475,0.04618263244628906,-0.1982828516246267,0.09140895603035666,-0.3447826443812763,0.9129365320319675,-0.7285373601095424,-0.04044823434227972,-2.7292752159424905
1784547341955953408,0.5383832454681396,1.3856557607650757,0.5060396194458008,-0.1938553899526596,-0.02567361108958721,0.6563885807991028,-0.7539860606193542,0.35639259219169617,-0.09385806322097778,0.06657755374908447,-0.1993598255878964,0.08799909867575877,-0.3395042598277281,0.9150129562587672,-0.7160217128377367,-0.034037361812331725,-2.7252803625567377
1784547341965873408,0.5483033657073975,1.5230733156204224,0.06748943030834198,-0.6640540361404419,-0.025853468105196953,0.6449885964393616,-0.7637547254562378,0.4547475278377533,-0.07937580347061157,0.04324996471405029,-0.1972305965169654,0.08558363590908882,-0.3328634541872639,0.9181380380160538,-0.70100839242167,-0.03383756466319506,-2.730764425047607
1784547341975793408,0.5582232475280762,1.5157618522644043,-0.4912303686141968,0.10700976848602295,-0.028306633234024048,0.633184552192688,-0.7734830975532532,0.8491684198379517,0.007699847221374512,0.12956225872039795,-0.19700546312647446,0.08503403717744859,-0.3256188736681737,0.9208314277132693,-0.6856606901251643,-0.036579992577314306,-2.7331189393173507
1784547341985712384,0.5681421756744385,1.7527509927749634,-0.6211984753608704,0.5568432211875916,-0.028300538659095764,0.6207168102264404,-0.7835239171981812,0.9294998645782471,0.03016209602355957,0.14781224727630615,-0.20076572228691136,0.08451402811796893,-0.3179550633798057,0.9227432280853781,-0.6696566215142973,-0.03610386397340458,-2.725683527524731
1784547341995632384,0.5780622959136963,2.1237738132476807,-0.5865865349769592,0.30431362986564636,-0.02746293880045414,0.6054873466491699,-0.7953809499740601,0.6715517044067383,0.017849445343017578,0.12809884548187256,-0.2049972999993157,0.08328433586044945,-0.3088255883784808,0.9250224543763896,-0.6503780669348699,-0.03451431933645826,-2.717053193414117
1784547342005552384,0.587982177734375,2.3927440643310547,-0.41785159707069397,0.33552026748657227,-0.025819774717092514,0.5874984264373779,-0.8088132739067078,0.5484638214111328,-0.00784754753112793,0.25331711769104004,-0.20866596676383378,0.08101844363707555,-0.29837788191122333,0.9278281960404625,-0.6279640167764489,-0.03191219642010473,-2.709522891599667
1784547342015471360,0.5979013442993164,2.711252450942993,-0.21639592945575714,0.5125507116317749,-0.01969396509230137,0.5669754147529602,-0.8234992623329163,0.5782266855239868,-0.019978344440460205,0.34281688928604126,-0.21301087658144738,0.07628351812689006,-0.28710833954296516,0.9307932257241439,-0.6028294223070845,-0.023910419329961716,-2.6990770000336757
1784547342025391360,0.6078212261199951,3.1694109439849854,-0.12139405310153961,0.6285702586174011,-0.012554853223264217,0.5429924130439758,-0.8396437168121338,0.5955626368522644,0.0002967715263366699,0.4264967441558838,-0.21769977717643757,0.07063109638362941,-0.2742068129715237,0.9340388575966049,-0.5739964964629017,-0.014951480947389423,-2.6880344124271973
1784547342035311360,0.6177413463592529,3.688159227371216,-0.12807448208332062,0.7020701169967651,-0.007982781156897545,0.5142787098884583,-0.8575859665870667,0.5983758568763733,0.04878586530685425,0.47530752420425415,-0.22239301712810292,0.06560001939150592,-0.2586574169292673,0.9377282919437643,-0.5401664242117146,-0.009308164338164312,-2.6784509903522835
1784547342045230336,0.6276602745056152,3.9937145709991455,-0.18968696892261505,0.8317831158638,-0.004153494723141193,0.4811667203903198,-0.876619279384613,0.6091339588165283,0.10440459847450256,0.5398425459861755,-0.22752866560602705,0.06042248072987676,-0.24091385592130718,0.941562724482812,-0.501985127301678,-0.0047380474727055115,-2.6685983688483446
1784547342055150336,0.637580156326294,3.7764604091644287,-0.25562772154808044,0.8972310423851013,-0.0010068563278764486,0.44684815406799316,-0.894609272480011,0.5774228572845459,0.09978270530700684,0.680711567401886,-0.23311048076994315,0.05548184990807305,-0.22274903985806102,0.944967841305647,-0.46323908152344256,-0.0011254700288683681,-2.6581434960592176
1784547342065070336,0.6475002765655518,3.051259994506836,-0.25982537865638733,0.9500990509986877,0.0015517015708610415,0.41616925597190857,-0.909285843372345,0.47465986013412476,-0.04635724425315857,0.8350823521614075,-0.23871439824520918,0.05126285269378926,-0.20671042613290988,0.9474483300543715,-0.4292283315114849,0.001706504203823771,-2.647584938096389
1784547342074989312,0.6574192047119141,1.7783845663070679,-0.159189835190773,0.9158573150634766,0.0039514037780463696,0.3941728472709656,-0.9190278053283691,0.35902467370033264,-0.3023607134819031,0.8734345436096191,-0.24405989422486055,0.04817714049946066,-0.1953587857995959,0.9486561954432643,-0.4051676698524633,0.004299520811506442,-2.6370927718425867
1784547342084909312,0.6673393249511719,0.36901530623435974,0.36673226952552795,0.6153837442398071,0.0080427760258317,0.38441604375839233,-0.9231249094009399,0.23187117278575897,-0.5033277869224548,0.7433763742446899,-0.24792896283361032,0.04559112806475012,-0.1906803383859894,0.9487326268412524,-0.3945751714888465,0.00871233356418601,-2.628630807726775
1784547342094829312,0.6772592067718506,-0.4660438895225525,0.8601471781730652,0.29134508967399597,0.016082925722002983,0.3853454291820526,-0.9226322174072266,0.07040388137102127,-0.536712646484375,0.49875831604003906,-0.2494607307448766,0.04206664737208119,-0.19213088125682906,0.9482012322762654,-0.39558213254888674,0.017429802342532507,-2.6235820870815783
1784547342104749568,0.6871793270111084,-0.6464160680770874,1.1580013036727905,0.1655576080083847,0.026494281366467476,0.39072179794311523,-0.9201274514198303,0.03016158938407898,-0.36826086044311523,0.22925525903701782,-0.24941920865713219,0.03767917265594614,-0.1962563289268246,0.9475515344934778,-0.40141558313611225,0.02878618801752343,-2.620963008416716
1784547342114668288,0.6970982551574707,-0.23945409059524536,1.2746891975402832,0.19889748096466064,0.03879765421152115,0.3950038552284241,-0.9178598523139954,0.12454769015312195,-0.10313373804092407,0.07511693239212036,-0.24899967621198082,0.03212538901948279,-0.20009506900505203,0.9470634188527061,-0.4060720562451127,0.04224454448928307,-2.6186964236731565
1784547342124588288,0.7070181369781494,0.5839697122573853,1.124423861503601,0.21170568466186523,0.050841741263866425,0.3935389220714569,-0.9179009795188904,0.19392448663711548,0.06567433476448059,0.04013913869857788,-0.2488093894510996,0.0259464563440305,-0.20093851310467617,0.9471242478122052,-0.40447798349296216,0.0553325949412605,-2.616453785024367
1784547342134508288,0.7169382572174072,1.5220938920974731,0.6589329242706299,0.2025814652442932,0.06017487496137619,0.3839279115200043,-0.9214001893997192,0.2753964066505432,0.09791409969329834,0.035810649394989014,-0.24904216362885567,0.020073527932353803,-0.197223098172962,0.9479863176793739,-0.3940464675767072,0.06521546324374652,-2.614767344322093
1784547342144427264,0.7268571853637695,2.3796815872192383,0.3614085912704468,0.07933969795703888,0.06558958441019058,0.36576810479164124,-0.9283919930458069,0.2792437672615051,0.08795198798179626,0.055802881717681885,-0.24952232126587173,0.015026360584059276,-0.1886218632691113,0.9497024573086796,-0.3744579770744309,0.07053140113355859,-2.614364608224614
1784547342154347520,0.7367773056030273,2.7508180141448975,0.3050214648246765,-0.17145231366157532,0.06880909204483032,0.34167325496673584,-0.9372965097427368,0.18285411596298218,0.06781163811683655,0.06720983982086182,-0.24922799076535349,0.010137825718267634,-0.17677379828261397,0.9521206896479665,-0.3486967097999385,0.07328084104333656,-2.6166461495112556
1784547342164267264,0.746697187423706,2.9759953022003174,0.07634992152452469,-0.5958582162857056,0.06882797926664352,0.3151562511920929,-0.9465406537055969,0.17985975742340088,0.0030657947063446045,0.21123486757278442,-0.24732373301385993,0.006273768011041756,-0.16337166412721363,0.9550399816822743,-0.32062128509028676,0.07258753528196472,-2.623050147374945
1784547342174186496,0.7566163539886475,3.2467124462127686,0.52955162525177,-0.8207753896713257,0.07043519616127014,0.2862643897533417,-0.9555582404136658,0.14910826086997986,-0.17598915100097656,0.13668006658554077,-0.24394250110329074,0.001194797359581161,-0.14906189315108614,0.9582646330830898,-0.2903257985690607,0.07357798091261354,-2.632286759392099
1784547342184106240,0.7665362358093262,2.996351718902588,0.5389150381088257,-0.908997654914856,0.07303709536790848,0.25709736347198486,-0.9636215567588806,0.018622450530529022,-0.26167500019073486,0.23567050695419312,-0.23960050216266543,-0.004390600367091641,-0.1347959070138423,0.9614584989962848,-0.2600173934936781,0.07564973166085945,-2.6432360932620518
1784547342194026496,0.776456356048584,2.730724811553955,0.41227686405181885,-1.1161843538284302,0.0756445899605751,0.23023098707199097,-0.9701915383338928,0.0146721750497818,-0.21669644117355347,0.3250499367713928,-0.23441039300381897,-0.00963675487376198,-0.12170197670279218,0.9644416256079357,-0.23231504641924441,0.07781130021857056,-2.655649628949419
1784547342203946240,0.7863762378692627,2.6172900199890137,0.6894248723983765,-1.4689873456954956,0.07843665778636932,0.20606324076652527,-0.9753900170326233,-0.059180065989494324,-0.14214417338371277,0.3753228783607483,-0.22770188659415894,-0.014659378222616698,-0.1099550292389586,0.9673917503377049,-0.20755014242707923,0.08024301791086892,-2.6708923132603215
1784547342213865216,0.796295166015625,2.631167411804199,0.7286742925643921,-1.6946216821670532,0.08313973248004913,0.18244506418704987,-0.979694664478302,-0.05422432720661163,0.06454895436763763,0.278858482837677,-0.21957779922622164,-0.02051632383141166,-0.09864969290049383,0.9703777087519493,-0.18347268619466284,0.08466005996635326,-2.688733474372016
1784547342223785472,0.8062152862548828,2.4712038040161133,0.48322218656539917,-2.1192688941955566,0.08604006469249725,0.15883883833885193,-0.9835483431816101,-0.007976092398166656,0.36728420853614807,0.2455417513847351,-0.20992509336668375,-0.02541702209725622,-0.08706208868060948,0.9735016968673101,-0.15951445102068648,0.08725711225018458,-2.7098400336955595
1784547342233705216,0.8161351680755615,2.577197551727295,1.151028037071228,-2.2838432788848877,0.09083191305398941,0.13625457882881165,-0.9865010380744934,-0.07723632454872131,0.42186614871025085,0.3122151494026184,-0.19857104415515356,-0.031036281202799724,-0.07606735414702603,0.9766370617398619,-0.136679744052795,0.09181594872916994,-2.7341297456751104
1784547342243624448,0.8260543346405029,1.9111698865890503,1.3548663854599,-2.2543137073516846,0.10082559287548065,0.11674445867538452,-0.9880308508872986,0.01967305690050125,0.20283561944961548,0.22548812627792358,-0.18684538992826577,-0.038696200580178156,-0.06698646183914138,0.9793386956275192,-0.11701128496705622,0.10169498538168506,-2.758587608992104
1784547342253544448,0.8359742164611816,1.555087924003601,1.3728784322738647,-2.6018974781036377,0.11210121959447861,0.1028331071138382,-0.9883615970611572,0.1415303647518158,0.1327473372220993,0.2808268070220947,-0.1742227210065374,-0.04633924631440926,-0.060595956796556424,0.981747048741102,-0.10301520954124338,0.11293861769327122,-2.784497268003687
1784547342263464448,0.8458943367004395,1.3892345428466797,1.2009950876235962,-2.7998900413513184,0.12210966646671295,0.09144820272922516,-0.9882947206497192,0.30223727226257324,-0.03779830038547516,0.19225895404815674,-0.16032400261661114,-0.053063666275859775,-0.055107957223003885,0.9840953023354494,-0.0915761470871199,0.12293288187239257,-2.812960130528265
1784547342273383424,0.8558132648468018,0.9146658182144165,1.3182095289230347,-3.1031947135925293,0.1319572478532791,0.08374898880720139,-0.9877111911773682,0.2852485775947571,-0.1697932928800583,0.15709900856018066,-0.14528533058979498,-0.05935432332327877,-0.05120028275158786,0.986279810297426,-0.08384719670756906,0.13281256347307485,-2.8435040746354634
1784547342283303168,0.8657331466674805,0.9267605543136597,1.703553557395935,-3.3778934478759766,0.14398972690105438,0.07990183681249619,-0.9863481521606445,0.16854079067707062,-0.18410411477088928,0.07426929473876953,-0.12869419320871026,-0.06646016501550094,-0.049081308597025274,0.9882368131448633,-0.07998710213775491,0.14495870870300015,-2.876787403831386
1784547342293223424,0.8756532669067383,1.511884331703186,1.7233911752700806,-3.5183305740356445,0.15906688570976257,0.07352825999259949,-0.9845259189605713,0.07430101931095123,-0.2442130744457245,-0.12962502241134644,-0.11082240137327144,-0.07524119678048045,-0.045560877312930764,0.9899401260566965,-0.07359467667911862,0.1601827629719459,-2.912714268060963
1784547342303142400,0.8855721950531006,2.1555700302124023,1.7041476964950562,-3.6749534606933594,0.17407812178134918,0.0619836151599884,-0.9827791452407837,0.09375940263271332,-0.0849786102771759,-0.2440427541732788,-0.09195946781770822,-0.08416785227524816,-0.0390666478384989,0.991429790255426,-0.06202337376633783,0.17531010368665867,-2.9511607771237096
1784547342313062400,0.8954923152923584,3.456387996673584,1.511973261833191,-3.74196195602417,0.18906714022159576,0.04196770116686821,-0.9810669422149658,0.28049159049987793,-0.05765373259782791,-0.3210875988006592,-0.07209992599879447,-0.09320725551132132,-0.02790948629628958,0.9926405275049545,-0.041980031258729573,0.190381853475233,-2.9925695692697367
1784547342322982400,0.9054121971130371,4.198485851287842,1.046918511390686,-3.8359720706939697,0.20058150589466095,0.011066065169870853,-0.9796144962310791,0.44758132100105286,-0.13067971169948578,-0.3514859080314636,-0.05150245069782498,-0.10038275107802548,-0.010772401248817134,0.9935565953299005,-0.011066291106769188,0.201963984143952,-3.0368911266203726
1784547342332902400,0.9153323173522949,4.495471954345703,1.0396556854248047,-3.7504196166992188,0.21111547946929932,-0.022648509591817856,-0.9771987199783325,0.3707631826400757,-0.10776835680007935,-0.14008033275604248,-0.030519249000862437,-0.10646421041194885,0.008125303113074488,0.9938148919560457,0.022650446690184463,0.21277143601831777,-3.08261249691401
1784547342342821376,0.9252512454986572,5.2730255126953125,0.7997866272926331,-3.528027296066284,0.22171539068222046,-0.062380045652389526,-0.9731140732765198,0.26264435052871704,-0.2650430500507355,-0.18853747844696045,-0.010004392960351924,-0.1119210517530534,0.030276035370915045,0.9932053727518764,0.062420573632000806,0.22401700183641804,-3.12847093955306
1784547342352741376,0.935171365737915,6.043553829193115,0.5409783720970154,-3.288069486618042,0.23050935566425323,-0.10934662818908691,-0.9669067859649658,0.20847074687480927,-0.2612740993499756,-0.04504084587097168,0.009844086287813312,-0.11566722483494293,0.0562822872211942,0.9916433042195113,0.10956571497963807,0.2340303729377772,3.1088468025640443
1784547342362661376,0.9450912475585938,6.768582344055176,0.6293900012969971,-3.452455759048462,0.2410687357187271,-0.16195525228977203,-0.9568993449211121,0.09729491174221039,-0.16317902505397797,-0.04422980546951294,0.0300202851647441,-0.11931388121546689,0.0855250018602169,0.9887104692808161,0.16267174658290048,0.24679144293463723,3.060665735045222
1784547342372580352,0.955010175704956,7.243638515472412,0.1395304799079895,-3.4423773288726807,0.25139492750167847,-0.2196899801492691,-0.9426223635673523,-0.12061184644699097,-0.3536132574081421,-0.040104687213897705,0.050985697904261384,-0.12160353990516429,0.11790419563847347,0.9842315512002121,0.22149667151861807,0.26063108880584596,3.0089339392762806
1784547342382500352,0.9649302959442139,7.6495747566223145,-0.3191151022911072,-3.2840635776519775,0.2591259479522705,-0.28008127212524414,-0.9243420362472534,0.13999822735786438,-0.29638051986694336,0.10346496105194092,0.0719806939981527,-0.1212527193825228,0.15207480142600788,0.9782586175886476,0.2838787563424225,0.27331982478645317,2.9553991255104934
1784547342392420352,0.9748501777648926,7.86606502532959,-0.5523802042007446,-3.394050121307373,0.26563921570777893,-0.34133380651474,-0.9016246795654297,0.18507492542266846,-0.3419089913368225,0.2789745330810547,0.09315584201704658,-0.1188676884706546,0.1872381627759733,0.970636118154999,0.3483355643347794,0.2865163233884974,2.899481266854822
1784547342402339584,0.984769344329834,7.742636203765869,-0.7391791343688965,-3.196233034133911,0.2726404070854187,-0.40128353238105774,-0.8744362592697144,-0.0480005145072937,-0.46280643343925476,0.27343833446502686,0.11432672559013449,-0.11535140596870469,0.22243185996664627,0.9613259483191214,0.4129177321260118,0.30223783837369644,2.8410860857071225
1784547342412259328,0.9946892261505127,8.281352996826172,-0.776461124420166,-3.241199254989624,0.2803483009338379,-0.46032771468162537,-0.8423201441764832,0.02876424789428711,-0.45379582047462463,0.39349812269210815,0.1347535005089439,-0.11093301026943293,0.25794146166509896,0.950263927331924,0.4783643101500173,0.3212963037814282,2.780870239969502
1784547342422179584,1.0046093463897705,9.047368049621582,-0.7803309559822083,-3.5018200874328613,0.2909715175628662,-0.5213319063186646,-0.8022148013114929,0.03133988380432129,-0.3549192547798157,0.2677451968193054,0.1564168582549364,-0.1059190954586582,0.2960975176048476,0.9362911998459448,0.548411032359686,0.3479527909679557,2.711734685638662
1784547342432099328,1.0145292282104492,8.649883270263672,-0.7959402799606323,-3.668560743331909,0.30467820167541504,-0.5799944400787354,-0.7554982900619507,0.09496474266052246,-0.40128302574157715,0.3540242910385132,0.17877468030595486,-0.10054945617686573,0.33487409001034973,0.919667772378647,0.6187218445327383,0.383331729631188,2.6337149811561673
1784547342442018304,1.0244481563568115,7.3624444007873535,-0.6492632627487183,-3.8143343925476074,0.32221218943595886,-0.626752495765686,-0.7094791531562805,0.014762908220291138,-0.5373099446296692,0.5916813015937805,0.20091474004594576,-0.09643221204961015,0.3687292533940907,0.9024261254478673,0.6773785750373184,0.42630231170780786,2.551269291497986
1784547342451938304,1.0343682765960693,5.824369430541992,-0.38894450664520264,-4.011959552764893,0.34373077750205994,-0.6587228775024414,-0.6692782044410706,-0.016368716955184937,-0.6482229232788086,0.5996065735816956,0.22245829001231635,-0.0946740041011556,0.39547153797925705,0.886087651231853,0.7191200406849354,0.47445590217076133,2.468373577105858
1784547342461858304,1.044288158416748,4.519222259521484,-0.23736672103405,-3.995211362838745,0.36878231167793274,-0.6775858998298645,-0.6362994909286499,-0.12294793128967285,-0.6632649302482605,0.5540851354598999,0.2430777497121777,-0.09569925904555676,0.4155621648836593,0.8712422275578076,0.7444751298215366,0.525264578945365,2.38826071611115
1784547342471777536,1.0542073249816895,3.733893394470215,-0.17489056289196014,-3.8772313594818115,0.39428481459617615,-0.6881538033485413,-0.60908442735672,-0.18583449721336365,-0.5885490775108337,0.38453608751296997,0.26239731166711416,-0.09795489453117871,0.4311178691265927,0.8577236790088449,0.758941482376714,0.5745030940160833,2.3132823022484224
1784547342481697280,1.0641272068023682,3.111021041870117,-0.13763347268104553,-3.780250310897827,0.4199729263782501,-0.6926689743995667,-0.5863721966743469,-0.2700095772743225,-0.4267615079879761,0.2474287748336792,0.2806121585963352,-0.10124333473037635,0.443355027326638,0.8452472204871244,0.7651829829899608,0.6215307147752227,2.2434463755301013
1784547342491617536,1.074047327041626,2.711029291152954,-0.12347147613763809,-3.6179277896881104,0.4448564350605011,-0.6933047771453857,-0.5669489502906799,-0.28924739360809326,-0.295876681804657,0.15140634775161743,0.2978829378132837,-0.10483363863254304,0.4533601635287292,0.833510693273703,0.766064869579924,0.6653107940930929,2.178473286547247
1784547342501536256,1.0839662551879883,2.6737117767333984,-0.10093926638364792,-3.409083843231201,0.4685481786727905,-0.6921169757843018,-0.5490325689315796,-0.27965959906578064,-0.19342684745788574,0.10520017147064209,0.31394794025487965,-0.10841254294837933,0.4623098776934107,0.8221636380947315,0.7644178837113911,0.706468585351122,2.1177838584326567
1784547342511456256,1.093886137008667,2.827610492706299,-0.1380801945924759,-3.3454692363739014,0.4911487400531769,-0.6907055377960205,-0.5307530760765076,-0.2701862156391144,-0.09786868095397949,0.12547963857650757,0.3294484195149356,-0.11138505574780234,0.4713987973333256,0.8104568802085385,0.762464260230922,0.7466620269992491,2.057926197972681
1784547342521376256,1.1038062572479248,2.9120006561279297,-0.2281549572944641,-3.3380753993988037,0.5131908655166626,-0.6888557076454163,-0.5119695663452148,-0.29331183433532715,-0.10122907161712646,0.07247072458267212,0.3448249461087433,-0.11381220918686609,0.4806890916691569,0.7981732083482161,0.7599093435669292,0.7865895238467909,1.997578856075871
1784547342531296256,1.1137261390686035,2.9679148197174072,-0.3608851134777069,-3.301208972930908,0.5346978902816772,-0.6860230565071106,-0.4934273958206177,-0.29519593715667725,-0.1272704005241394,-0.018291354179382324,0.36034312287612474,-0.11567527010003162,0.489801520275238,0.785408561491675,0.7560088530699483,0.825518139267941,1.9369524811275167
1784547342541215488,1.123645305633545,3.2141077518463135,-0.44213786721229553,-3.148219585418701,0.5546585321426392,-0.6834768652915955,-0.47456660866737366,-0.22329860925674438,-0.11950165033340454,-0.052014172077178955,0.3755988916442727,-0.11634874509682484,0.4991789908733027,0.7721456573134854,0.7525150833104,0.863059322663421,1.8762073367335144
1784547342551135232,1.1335651874542236,3.3456156253814697,-0.4609447419643402,-3.0838184356689453,0.5739018321037292,-0.6808938980102539,-0.4549947679042816,-0.20669907331466675,-0.057326316833496094,-0.051322340965270996,0.39043259372379535,-0.11640046256914327,0.5088747876091663,0.7583269849914853,0.7489824780897535,0.9004553015188745,1.815196587995821
1784547342561055488,1.1434853076934814,3.9885971546173096,-0.5891175866127014,-2.927252769470215,0.5920226573944092,-0.6795324087142944,-0.433295339345932,-0.2505767345428467,0.0005773305892944336,-0.015969157218933105,0.40513219264276473,-0.11495063536191123,0.5197486720689102,0.7433139090370703,0.7471251200375733,0.9389868527541848,1.7509545439239524
1784547342570974464,1.1534042358398438,4.632220268249512,-0.828961193561554,-2.8560521602630615,0.608606219291687,-0.6801986694335938,-0.4085685908794403,-0.194208025932312,0.03241729736328125,0.023436784744262695,0.4199060105365214,-0.11117692521457477,0.532311372907012,0.7266108006169558,0.7480336236372146,0.979580149304224,1.6810386829457142
1784547342580894464,1.1633243560791016,5.544339179992676,-1.1606628894805908,-2.854799270629883,0.6241330504417419,-0.6825462579727173,-0.38024792075157166,-0.16961956024169922,0.04764336347579956,0.006483882665634155,0.4354722027466831,-0.1045566171179106,0.5467576764739362,0.7074516700484405,0.7512410015643262,1.0236091139264885,1.6020528949177253
1784547342590814464,1.1732442378997803,5.987825393676758,-1.4102320671081543,-2.9844162464141846,0.6392921209335327,-0.6851860880851746,-0.3490353226661682,-0.19875562191009521,-0.009927988052368164,-0.09298127889633179,0.45206069981373326,-0.09533105115733537,0.5624894030467175,0.6856813196744106,0.7548591831621504,1.0710512369624057,1.51378019564347
1784547342600733184,1.1831631660461426,6.139863967895508,-1.5317302942276,-2.9634201526641846,0.6548858880996704,-0.6859212517738342,-0.31723278760910034,-0.1839233636856079,-0.13252967596054077,-0.15427905321121216,0.46891130648450724,-0.08513516712616807,0.5780446465818748,0.6623735274607914,0.7558689731824284,1.1196989412751113,1.4217912448705794
1784547342610653440,1.1930832862854004,6.381993293762207,-1.7636523246765137,-2.7949631214141846,0.6696193814277649,-0.685678243637085,-0.28540346026420593,-0.05879485607147217,-0.30316758155822754,-0.18853449821472168,0.48548770942722264,-0.07336801719410617,0.5932245787276699,0.6379681489105702,0.7555350490333668,1.1678949487625425,1.3276797733713417
1784547342620573184,1.203003168106079,6.444362163543701,-1.842888593673706,-2.7505080699920654,0.6836607456207275,-0.6841846108436584,-0.2539669871330261,-0.02049863338470459,-0.3769572973251343,-0.1690523326396942,0.5015921777555608,-0.06036065993498618,0.6077607199648748,0.6126897316573844,0.7534851150038702,1.2151143534810191,1.2326563420086738
1784547342630493440,1.212923288345337,6.654332160949707,-1.9920233488082886,-2.588685989379883,0.6973893046379089,-0.6811856031417847,-0.222787544131279,-0.038682639598846436,-0.32511621713638306,-0.17441394925117493,0.5171664650112145,-0.046371855689107615,0.6216557569253908,0.5864576441279549,0.7493808496277496,1.2615838683528449,1.1368276751432704
1784547342640412416,1.2228422164916992,7.097448348999023,-2.1880486011505127,-2.317441463470459,0.7096903920173645,-0.6780305504798889,-0.19134828448295593,-0.071827232837677,-0.2568449378013611,-0.17626643180847168,0.5320363452655715,-0.030270656068811488,0.6351452924809371,0.5591167327745034,0.74507990173577,1.307436659427355,1.038650113561292
1784547342650332416,1.232762336730957,7.906409740447998,-2.3355541229248047,-2.129082441329956,0.7206808924674988,-0.6752304434776306,-0.15710832178592682,-0.1137624979019165,-0.1576399803161621,-0.1852530837059021,0.5460152867234169,-0.011191055222004488,0.6490921368247802,0.5295484286325848,0.7412771109047567,1.3561546392759345,0.933479473697264
1784547342660252416,1.2426822185516357,8.79228401184082,-2.4780819416046143,-1.9057600498199463,0.7310091257095337,-0.6719334721565247,-0.11887495219707489,-0.09808975458145142,-0.11517596244812012,-0.1553560048341751,0.5591137650499796,0.011178929831950464,0.6636546951111307,0.49681926959789474,0.7368163444177677,1.4095898455424303,0.8184654457985602
1784547342670171136,1.252601146697998,9.746987342834473,-2.553004503250122,-1.6233956813812256,0.7402943968772888,-0.6679977178573608,-0.07578372955322266,-0.021986961364746094,-0.08445888757705688,-0.08083247393369675,0.5706107510823951,0.03724944196898639,0.6787640343389593,0.4607549964946848,0.7315148604609625,1.4687819697508058,0.6927364092264823
1784547342680091392,1.2625212669372559,10.658181190490723,-2.624267339706421,-1.3647897243499756,0.7489062547683716,-0.6621070504188538,-0.027453944087028503,-0.024510502815246582,-0.061632513999938965,-0.020245013758540154,0.5800804308752814,0.06695418256826335,0.6941110614081059,0.4209912925310321,0.7236268928739142,1.5341540151297675,0.5559016912614339
1784547342690011136,1.2724411487579346,11.077494621276855,-2.760559558868408,-1.1254677772521973,0.7570016980171204,-0.6529905200004578,0.023489300161600113,-0.030195116996765137,-0.07886672019958496,0.04854750633239746,0.587458636870954,0.09953229097655415,0.7084052324449516,0.37834865580806615,0.7115263578835368,1.6018157623226565,0.41232886711954375
1784547342699930368,1.282360315322876,11.185439109802246,-2.846104383468628,-0.8261900544166565,0.7647081613540649,-0.6401532292366028,0.0736553817987442,-0.06558108329772949,-0.12061941623687744,0.054365865886211395,0.5927801399218467,0.1336401237228852,0.7203943432728243,0.33434107145801045,0.6946977365035792,1.6668184128271835,0.2685398061788681
1784547342709850368,1.2922801971435547,10.944253921508789,-2.8692939281463623,-0.47620174288749695,0.7715644240379333,-0.6244623064994812,0.12138774991035461,-0.0898018479347229,-0.18523001670837402,-0.05487479269504547,0.5958006932211288,0.1684461980192778,0.7296024623054544,0.2903921187829719,0.6744429575644225,1.72684402029129,0.12868662002181777
1784547342719770368,1.3022003173828125,10.29638671875,-2.8448455333709717,-0.07919821888208389,0.7773537635803223,-0.6072031855583191,0.1643940955400467,-0.15281158685684204,-0.1730092167854309,-0.23066306114196777,0.5967930820019254,0.20269882765611877,0.7356019528137082,0.2482760383899625,0.6525358332173231,1.7792047448493227,-0.002356645140995166
1784547342729690368,1.3121201992034912,9.776845932006836,-2.7789306640625,0.2319021373987198,0.781902551651001,-0.5897733569145203,0.2019796222448349,-0.2958643436431885,-0.09859639406204224,-0.2740316390991211,0.5961209280578165,0.23585429787627862,0.7384866706635075,0.20892591972267593,0.6307781914822548,1.8235883859492459,-0.12322408621579375
1784547342739609600,1.3220393657684326,9.820049285888672,-2.7754857540130615,0.38662195205688477,0.7861579060554504,-0.5709532499313354,0.23657551407814026,-0.3920997381210327,-0.067413330078125,-0.36453574895858765,0.5938147066490285,0.26844906070581803,0.7390689120167706,0.1705762812992801,0.6076665002995079,1.8631026320286708,-0.2388384545477463
1784547342749529344,1.3319592475891113,9.818460464477539,-2.6959238052368164,0.6201818585395813,0.7902569770812988,-0.5501679182052612,0.26983174681663513,-0.41309022903442383,-0.05465996265411377,-0.32947838306427,0.5895877434245601,0.30119023687304675,0.7376993424166186,0.13217562928270762,0.5825652819683487,1.899832327235495,-0.3527795070436803
1784547342759449600,1.3418793678283691,9.846233367919922,-2.6661760807037354,0.9498753547668457,0.7935805916786194,-0.5286456346511841,0.30126991868019104,-0.40664827823638916,-0.05616265535354614,-0.06616249680519104,0.5834735299123901,0.33415640399864543,0.7341488017552412,0.09446504105986453,0.5570042180992807,1.9336232127067607,-0.4646902384838918
1784547342769368320,1.3517982959747314,9.986404418945312,-2.4813883304595947,1.0467675924301147,0.7965075969696045,-0.5055235624313354,0.3316947817802429,-0.41187936067581177,-0.22172558307647705,0.0865027904510498,0.575253063716154,0.36733309098151995,0.7286383149843415,0.056890090630798466,0.5299886769165181,1.9653912499907042,-0.5758646966519222
1784547342779288320,1.3617181777954102,9.575552940368652,-2.231599807739258,1.1569421291351318,0.7992559671401978,-0.4804440140724182,0.36105912923812866,-0.3876805305480957,-0.45237162709236145,0.03917887806892395,0.564859339372756,0.3995826263326051,0.7217085907004785,0.020110649296193085,0.5011609142300322,1.9950996733583284,-0.683785520060454
1784547342789208320,1.371638298034668,8.17641544342041,-1.9555025100708008,1.4395637512207031,0.8008486032485962,-0.4578639268875122,0.38600796461105347,-0.2942415475845337,-0.5437077283859253,0.04526647925376892,0.5539372462926736,0.4290301630636154,0.7133982720701456,-0.012228542331044857,0.4755909921183944,2.019939444131054,-0.7807207643243642
1784547342799127296,1.3815572261810303,6.590296268463135,-1.8119858503341675,1.7367379665374756,0.8011409640312195,-0.4417831003665924,0.4037337899208069,-0.19727426767349243,-0.5476120710372925,0.10453647375106812,0.5447016902659007,0.45444384231930063,0.7038094123579075,-0.03785794465714158,0.45758528405793264,2.0375977421983635,-0.861794249875279
1784547342809047552,1.391477346420288,5.363248825073242,-1.6619035005569458,1.8789262771606445,0.8002400398254395,-0.431985080242157,0.4159386157989502,-0.12586253881454468,-0.544821560382843,0.1006324291229248,0.5373160564349794,0.4763833271671416,0.6935619898380844,-0.05763850302979385,0.4466926553607735,2.0501324468535436,-0.9295870839582678
1784547342818968576,1.4013984203338623,4.416929721832275,-1.5488816499710083,2.1139400005340576,0.7984564304351807,-0.42772334814071655,0.42369794845581055,-0.10279309749603271,-0.45684388279914856,0.11771434545516968,0.5318366290443246,0.4955939350222755,0.6828144904863716,-0.07280651040852464,0.44197258516928717,2.0586593346661264,-0.9870784796227613
1784547342828888320,1.411318302154541,3.6809308528900146,-1.314509391784668,2.068833351135254,0.7955398559570312,-0.42738357186317444,0.42948785424232483,-0.1051863431930542,-0.35691821575164795,0.11856216192245483,0.5273782182124586,0.5128021298102291,0.672144258992852,-0.08442961854154905,0.4415967462014389,2.065828695352822,-1.0372370374889268
1784547342838807552,1.4212374687194824,3.3558499813079834,-1.3047858476638794,2.144564628601074,0.7920944094657898,-0.42919445037841797,0.4340263307094574,-0.07033824920654297,-0.2557268738746643,0.03841632604598999,0.5236398268922471,0.5282907385377072,0.6617568033542857,-0.09374567577649977,0.44360073112331233,2.0720625572085924,-1.0818422202456672
1784547342848727552,1.4311573505401611,3.021331787109375,-1.3467658758163452,2.114867687225342,0.7887184023857117,-0.4322264492511749,0.4371543526649475,0.03115171194076538,-0.23488783836364746,-0.10719817876815796,0.520555037033738,0.5429671283860773,0.6509714794702783,-0.10220270571812888,0.44696031594333596,2.076903595548873,-1.124185416954676
1784547342858647552,1.441077470779419,2.8227596282958984,-1.4208146333694458,1.942520022392273,0.7858280539512634,-0.4355878233909607,0.43901869654655457,0.0873560905456543,-0.1817522644996643,-0.16658833622932434,0.518085257787021,0.5562308687766093,0.6404034432111653,-0.10990119119818881,0.45069120485586334,2.080271735378684,-1.1629136892523204
1784547342868566528,1.4509963989257812,2.4906280040740967,-1.6439440250396729,2.0718674659729004,0.7838402390480042,-0.4396265745162964,0.43854641914367676,0.14380258321762085,-0.16076096892356873,-0.19728970527648926,0.516659573694875,0.5684944208716048,0.6293546769669365,-0.11742947692373756,0.45518288980489235,2.0808920958813863,-1.1992997830775258
1784547342878486272,1.46091628074646,2.200549840927124,-1.6135581731796265,2.2391326427459717,0.7812825441360474,-0.44635164737701416,0.43631112575531006,0.1877877116203308,-0.21459800004959106,-0.07951495051383972,0.5162800051802977,0.5802484530049993,0.6176303914801423,-0.12369022868465995,0.46268416762871334,2.0801076946374857,-1.233637995185224
1784547342888406528,1.4708364009857178,1.7255430221557617,-1.4864168167114258,2.36417555809021,0.7776472568511963,-0.45559945702552795,0.43323639035224915,0.15818947553634644,-0.31692251563072205,-0.030816346406936646,0.5166369829439672,0.5913810156384519,0.6057117233028145,-0.12832768031529915,0.4730454937857459,2.0790831811736448,-1.2654611747731979
1784547342898325504,1.48075532913208,1.4726381301879883,-1.1374284029006958,2.306680679321289,0.7724577784538269,-0.46727898716926575,0.4300691783428192,0.21065086126327515,-0.35106518864631653,0.002822697162628174,0.5175502406342873,0.6016055832014433,0.5942266476945888,-0.13079457664074112,0.48621057514316746,2.0788103671904823,-1.293621877848749
1784547342908245504,1.490675449371338,1.6428834199905396,-1.0577750205993652,2.382676124572754,0.7659531235694885,-0.4787757992744446,0.42905697226524353,0.285438597202301,-0.2728111743927002,0.05238837003707886,0.517641712137798,0.6116448014211451,0.5834544799995143,-0.13235816127304595,0.4992597765627858,2.0814071288233746,-1.3213385348744715
1784547342918165504,1.5005953311920166,2.159111499786377,-0.9689030051231384,2.6488301753997803,0.7581132650375366,-0.4900563359260559,0.4302433133125305,0.41530299186706543,-0.22074386477470398,0.03902560472488403,0.5165200159546839,0.6232074944451671,0.5716065709573621,-0.13448232578941485,0.5121543707195544,2.0869898919752186,-1.354526986717904
1784547342928085504,1.5105154514312744,2.3328604698181152,-0.9088143706321716,2.667661190032959,0.7489557266235352,-0.5004876852035522,0.434254914522171,0.41660207509994507,-0.15472465753555298,-0.0063984692096710205,0.5139454645671632,0.635853017352126,0.5593017036311898,-0.13686698056902238,0.5241619892393469,2.0962408322678847,-1.3920605951700102
1784547342938004480,1.5204343795776367,2.3361990451812744,-0.7647019624710083,2.6354525089263916,0.7390997409820557,-0.5104369521141052,0.43952903151512146,0.40608763694763184,-0.13764959573745728,-0.03430140018463135,0.5107799613861597,0.6485698453385267,0.5469201662702968,-0.13906601274073796,0.5356928422859636,2.1072960544830663,-1.4307489382776584
1784547342947924480,1.5303542613983154,1.813284993171692,-0.5326519012451172,2.396305561065674,0.7288910746574402,-0.5194852948188782,0.44592899084091187,0.41171860694885254,-0.18725597858428955,-0.12607434391975403,0.5072710353845995,0.660302813743943,0.535690859435405,-0.1403978292389839,0.546248504409293,2.1198406041457782,-1.4669474725260894
1784547342957844480,1.5402743816375732,1.1771482229232788,-0.6096950769424438,2.566021203994751,0.7184442281723022,-0.5311722755432129,0.44910356402397156,0.5582281351089478,-0.1990218162536621,-0.047995805740356445,0.505862540590922,0.6701030112614788,0.5248940185028123,-0.1398260942510423,0.5599835523137006,2.129471624978454,-1.4965822105988482
1784547342967763456,1.5501933097839355,0.4552602469921112,-0.3163469731807709,2.4867143630981445,0.7068452835083008,-0.5454597473144531,0.450381338596344,0.6136960983276367,-0.2723960876464844,-0.06543266773223877,0.5059585231104744,0.6785380302977493,0.5145646875424742,-0.13716880476980728,0.5769375585027888,2.13810002596901,-1.5212116544382275
1784547342977683456,1.5601134300231934,-0.7550495862960815,-0.269151508808136,2.374581813812256,0.6945207715034485,-0.5632801055908203,0.44761204719543457,0.5367109179496765,-0.2527751922607422,0.05188441276550293,0.5088447879994263,0.6841123359220644,0.5057631279890837,-0.131419145686194,0.5983502118583189,2.1432886955122843,-1.5351602617446984
1784547342987603456,1.570033311843872,-1.1766186952590942,-0.212728351354599,2.5208938121795654,0.6815218329429626,-0.5847024917602539,0.4400579631328583,0.5355954766273499,-0.2508993148803711,0.12874388694763184,0.5145360764322451,0.6874631412445825,0.49741673066683006,-0.1233841568459396,0.624513274162019,2.144142039730764,-1.540786738628767
1784547342997523456,1.5799534320831299,-1.2449642419815063,-0.0024821599945425987,2.6179792881011963,0.6664732098579407,-0.6075060963630676,0.4321453869342804,0.47752392292022705,-0.3762584924697876,0.08351010084152222,0.5205000330370704,0.6906997258294952,0.488882996486533,-0.1140481012850154,0.6529171272457212,2.1460503364267876,-1.5457988033003094
1784547343007442432,1.5898723602294922,-1.8726283311843872,0.11763834953308105,2.6058473587036133,0.6498664617538452,-0.6313906908035278,0.42310720682144165,0.36716240644454956,-0.40367406606674194,0.08377450704574585,0.5270590395548633,0.6931306440668753,0.4807530741285652,-0.10322436167505024,0.6833452612242406,2.1479219398458977,-1.5478025704221912
1784547343017362688,1.59979248046875,-2.9645845890045166,0.3127484619617462,2.668999195098877,0.6315897703170776,-0.6589864492416382,0.4084494709968567,0.4259662628173828,-0.47951745986938477,0.1795632243156433,0.5364427683977082,0.6931191420480596,0.4730862342797711,-0.08946684914308303,0.7194704133833638,2.144848600748692,-1.5399958293274207
1784547343027282432,1.6097123622894287,-3.322331428527832,0.5664355158805847,3.0296926498413086,0.6096248030662537,-0.6904948353767395,0.38932543992996216,0.48974037170410156,-0.3971668481826782,0.2851587235927582,0.5478352091125447,0.6915245881482778,0.4652488230256776,-0.07220670764600803,0.7621729684956531,2.1391378926072204,-1.5249373621082947
1784547343037201408,1.619631290435791,-3.1697473526000977,0.6667078137397766,3.2131004333496094,0.5816339254379272,-0.7252213358879089,0.36845073103904724,0.5695958733558655,-0.3809034824371338,0.2709992825984955,0.5595356408293571,0.6903323571245393,0.45570451446722215,-0.05190837590027741,0.8113558331376551,2.1354670721032507,-1.5104946247394264
1784547343047121408,1.6295514106750488,-2.7874505519866943,1.042533278465271,3.0081074237823486,0.5551885366439819,-0.7537913918495178,0.35151731967926025,0.6512171626091003,-0.39322715997695923,0.30474796891212463,0.5684522838534757,0.6892033666003932,0.4480595723542388,-0.03321775686868922,0.8538129000625135,2.135234460916177,-1.4980040298114288
1784547343057041408,1.6394712924957275,-2.4925289154052734,0.9090544581413269,3.216250419616699,0.5277709364891052,-0.7798153162002563,0.3366687297821045,0.7661895751953125,-0.3330538868904114,0.3181774318218231,0.5757089322146044,0.6887364317942202,0.4404276179942878,-0.014994632155934207,0.8943707694689711,2.138623221058372,-1.48950266442339
1784547343066960640,1.649390459060669,-2.023638963699341,0.822141706943512,3.3136720657348633,0.49901464581489563,-0.8041272163391113,0.3230539858341217,0.8556759357452393,-0.29574161767959595,0.2916616201400757,0.5817795987203502,0.6893486822814087,0.4316542370788663,0.0023504841054349137,0.9342057639054281,2.1453301508564415,-1.4872858358230843
1784547343076880384,1.6593103408813477,-1.2889283895492554,0.915684700012207,3.3396663665771484,0.4691690504550934,-0.8255654573440552,0.31356340646743774,0.7948995232582092,-0.23226529359817505,0.32164475321769714,0.5855519652951867,0.6914981274564779,0.42262517614387146,0.018632693583909662,0.9712035214480671,2.1599549508801603,-1.4945824926728635
1784547343086800640,1.6692304611206055,-0.3720891773700714,0.7556707859039307,3.4629669189453125,0.43853238224983215,-0.8433029055595398,0.31069234013557434,0.7125906944274902,-0.2298935055732727,0.32944440841674805,0.5861383010209263,0.696025248009774,0.4133945203767452,0.03310250204847004,1.0033995407408898,2.1871923458712357,-1.5169853285308137
1784547343096720384,1.6791503429412842,0.04732567071914673,0.6884414553642273,3.6212081909179688,0.4061454236507416,-0.8587751388549805,0.312331885099411,0.697705864906311,-0.2251482605934143,0.3214876651763916,0.5845519496714924,0.7027237354690605,0.4029209546388629,0.046185310117864836,1.0328741597742284,2.226356317609964,-1.5550008140425298
1784547343106639360,1.6890692710876465,-0.03455468639731407,1.0312787294387817,3.3840653896331787,0.373296320438385,-0.8722923398017883,0.3158416152000427,0.61153644323349,-0.13442152738571167,0.3561553955078125,0.5818629530578941,0.7095196456272485,0.39306829449576136,0.059284776862398046,1.059870824510015,2.2730150072892923,-1.5991560730244558
1784547343116559616,1.6989893913269043,-0.18617163598537445,1.1500719785690308,3.284097909927368,0.34076356887817383,-0.8844596147537231,0.31876569986343384,0.5653643608093262,-0.10997098684310913,0.32764244079589844,0.5790333971615816,0.7152251957388358,0.38449417879425996,0.07305837763406585,1.085334594752364,2.3228529887186657,-1.6432299663860617
1784547343126479360,1.708909273147583,-0.2521985173225403,0.9661365747451782,3.283235549926758,0.30840426683425903,-0.8957233428955078,0.32025963068008423,0.5730348825454712,-0.12470799684524536,0.22721046209335327,0.5764933563150192,0.7203113709717256,0.375874098024564,0.08674969695385897,1.1100555109418413,2.3750502866744374,-1.6897147117735003
1784547343136398592,1.7188284397125244,-0.14466886222362518,0.8798248767852783,3.3606503009796143,0.27569952607154846,-0.9060684442520142,0.3209827244281769,0.5802880525588989,-0.17075955867767334,0.1314404010772705,0.5740484667009054,0.7254436672321747,0.3663643663206894,0.09988527752113457,1.1338980671365275,2.4319409491157833,-1.7429663949538299
1784547343146318336,1.7287483215332031,-0.23984305560588837,0.9203507304191589,3.2561864852905273,0.24286538362503052,-0.915140688419342,0.32176733016967773,0.5387356281280518,-0.2173667550086975,0.09467557072639465,0.5712986380922177,0.7304454743706459,0.3568376092610475,0.11284640786639663,1.1558567831370297,2.4950357319976613,-1.8024885684634826
1784547343156238592,1.738668441772461,-0.6780129671096802,1.0016149282455444,3.0035061836242676,0.21118009090423584,-0.9236183166503906,0.31989359855651855,0.4618239998817444,-0.20069491863250732,0.14215776324272156,0.569362295561579,0.7340936595693599,0.34792714491265997,0.126014646217421,1.1774152631468116,2.558110092231804,-1.8606251728065697
1784547343166158336,1.7485883235931396,-1.02615487575531,0.8983750939369202,2.929691791534424,0.1810196042060852,-0.9320902228355408,0.31375187635421753,0.42928627133369446,-0.12365037202835083,0.2073054015636444,0.5689481892517495,0.7360066976407736,0.339367178910777,0.13936359397729065,1.2001411273130522,2.6182930360333616,-1.9150695870116126
1784547343176077568,1.758507490158081,-1.1680822372436523,0.6203379034996033,3.0070483684539795,0.15109670162200928,-0.9403765797615051,0.30473265051841736,0.4221912920475006,-0.10480481386184692,0.13566651940345764,0.5695993043822811,0.7373107253017059,0.3297563063809962,0.15228397918086206,1.2237356985479924,2.681283679251701,-1.9745659466931147
1784547343185997568,1.7684273719787598,-1.4117451906204224,0.7055761218070984,2.8726465702056885,0.12162821739912033,-0.9481709599494934,0.2935609519481659,0.3076472580432892,-0.23780298233032227,0.08406347036361694,0.5709429448033884,0.7378927402305621,0.3198355612945285,0.16505616789881497,1.247429573637458,2.7488026102903014,-2.039205969011503
1784547343195917568,1.7783474922180176,-1.541342854499817,0.753510057926178,2.8999743461608887,0.09236985445022583,-0.9554980397224426,0.28016313910484314,0.23680801689624786,-0.3593670725822449,0.13188517093658447,0.5728265761386429,0.737480689421983,0.3101673810195433,0.17829238687430318,1.271343483464072,2.8231154472088837,-2.1094650182201358
1784547343205836544,1.7882664203643799,-1.2167381048202515,0.7635766267776489,3.1360995769500732,0.06168404594063759,-0.9616072177886963,0.26740655303001404,0.3068767189979553,-0.3820357918739319,0.1350591778755188,0.5740320779094562,0.7373300402478051,0.3000794634857948,0.191790932208174,1.292799982227171,2.9148831332227836,-2.1971949515864324
1784547343215756544,1.7981863021850586,-0.964028000831604,0.7672762870788574,3.246898651123047,0.029056301340460777,-0.9658417105674744,0.2574988007545471,0.38236644864082336,-0.36818844079971313,0.08512210845947266,0.5736940164798552,0.7382262367097945,0.2894329390783269,0.20524574586075206,1.308672129806622,3.0292274305873925,-2.3080685352860404
1784547343225676544,1.8081064224243164,-0.8031435012817383,0.6601662039756775,3.182248830795288,-0.003600027412176132,-0.9684691429138184,0.2491082400083542,0.4007863402366638,-0.3260103464126587,0.04421153664588928,0.57253185990327,0.7394742374121263,0.2788045399658145,0.21829630743636552,1.3190107722424183,-3.1271420005736004,-2.431697079597242
1784547343235595520,1.8180253505706787,-1.2572314739227295,0.21943752467632294,3.215846300125122,-0.03535708785057068,-0.9702091217041016,0.23967568576335907,0.4283777177333832,-0.333898663520813,-0.0285092294216156,0.5719516303264717,0.7405456972563013,0.2672637456414683,0.2302902843392381,1.3260925189974369,-2.9951284722851037,-2.563354772306255
1784547343245515520,1.8279454708099365,-1.8446300029754639,-0.14445869624614716,3.3486826419830322,-0.06688626110553741,-0.9722159504890442,0.22432658076286316,0.3592141270637512,-0.2379128336906433,0.017921924591064453,0.5739416527956729,0.7402120921976952,0.253474548713938,0.24171819833380742,1.3345181209967356,-2.8518204807480547,-2.7106430386188443
1784547343255435520,1.8378653526306152,-1.9666485786437988,-0.14401555061340332,3.3819262981414795,-0.099191814661026,-0.9735167026519775,0.20597651600837708,0.1537877768278122,-0.13556838035583496,0.03404426574707031,0.5770371653461195,0.7390925368215372,0.23818160972729407,0.2530610715184292,1.3401406734034533,-2.6927986079807673,-2.8759194196010003
1784547343265355520,1.847785472869873,-1.9737080335617065,0.06217071786522865,3.2889044284820557,-0.13119681179523468,-0.9736031889915466,0.18677350878715515,-0.08137336373329163,-0.02226167917251587,0.06318068504333496,0.5801132254163689,0.7372260213903329,0.22334849744497007,0.26472997373115015,1.340519353539165,-2.529232316929663,-3.0443082060526283
1784547343275274496,1.8577044010162354,-1.7869682312011719,0.3271738886833191,3.1871140003204346,-0.16287484765052795,-0.9721616506576538,0.16844536364078522,-0.20466358959674835,0.022866487503051758,0.04230906069278717,0.5823718394966948,0.7350614838528203,0.20954068492437075,0.2768040820603592,1.3342863738916078,-2.3730059974023154,3.080288787265771
1784547343285194496,1.867624282836914,-1.685646653175354,0.5365186333656311,2.910531997680664,-0.19297267496585846,-0.9695355892181396,0.1508723497390747,-0.22240211069583893,0.0328899621963501,0.009924784302711487,0.5839921658299468,0.7324798153951122,0.19725489017029385,0.2889931439600464,1.3233276220592025,-2.2343610667050218,2.941989237403683
1784547343295114496,1.8775444030761719,-1.628319501876831,0.4517320394515991,2.734236001968384,-0.2205415666103363,-0.9661477208137512,0.13386569917201996,-0.1484006941318512,0.07230311632156372,0.03416407108306885,0.585398028260858,0.7295422759632859,0.18628181206268069,0.3006265661918388,1.309855734801838,-2.1163369224102504,2.825605649361375
1784547343305033472,1.8874633312225342,-1.4430564641952515,-0.020485814660787582,2.7633731365203857,-0.24724534153938293,-0.9616652131080627,0.1186160072684288,-0.05736587941646576,0.09942162036895752,-0.03237330913543701,0.5866167544891866,0.7272236431514946,0.17451010392687938,0.3107616491568971,1.2930114509724124,-2.0181132844094334,2.7257358118920623
1784547343314953472,1.897383451461792,-1.4635238647460938,-0.1956206113100052,2.2294631004333496,-0.2708238661289215,-0.9568365216255188,0.10544361919164658,-0.05815562605857849,0.1164434552192688,-0.040303826332092285,0.5878623752875689,0.7253353800347907,0.1631269355822771,0.3188981688183739,1.2759145948259667,-1.9420827867486923,2.6456693577745316
1784547343324873472,1.9073033332824707,-1.6076536178588867,0.042030028998851776,2.3067030906677246,-0.2920985817909241,-0.9520485997200012,0.09100396931171417,-0.21633949875831604,0.284385085105896,0.06333862990140915,0.5899659257965638,0.7227458411502677,0.15211979833904557,0.32624856694562393,1.2598634421178976,-1.87281751156982,2.5717300067773987
1784547343334793472,1.9172234535217285,-1.1146007776260376,0.007191087584942579,1.881964087486267,-0.31183457374572754,-0.9469595551490784,0.07763347029685974,-0.32572340965270996,0.32510286569595337,0.15538346767425537,0.5913970178862451,0.7200220336198254,0.14277606691643863,0.333815645221936,1.2436385906395913,-1.8147933197666566,2.511947391517961
1784547343344712448,1.9271423816680908,-0.6735288500785828,-0.17108117043972015,1.6580239534378052,-0.32833775877952576,-0.9419987797737122,0.0695161446928978,-0.37481772899627686,0.37649285793304443,0.3370084762573242,0.5916026460714067,0.7187162634587055,0.13492592368517292,0.33948224676038274,1.2285369828272623,-1.7794366850779686,2.4741848484144815
1784547343354632448,1.9370622634887695,-0.7993597388267517,-0.43385049700737,1.3784817457199097,-0.3421700596809387,-0.937461793422699,0.06391501426696777,-0.33066627383232117,0.3393629789352417,0.3733561038970947,0.5917378888983438,0.7181137258223365,0.12755462864980927,0.34334941950850617,1.2152654114427672,-1.7554613225934073,2.445703771683203
1784547343364552448,1.9469823837280273,-1.3488739728927612,-0.6458067893981934,1.0961776971817017,-0.353159636259079,-0.933874249458313,0.056187283247709274,-0.34007763862609863,0.35846543312072754,0.4342302083969116,0.5938712107511335,0.7168187433781534,0.11943421264374326,0.34528723211364115,1.2050979476635209,-1.7285727861506468,2.410039986813218
1784547343374471424,1.9569013118743896,-1.3061507940292358,-0.32283225655555725,1.1306214332580566,-0.36304619908332825,-0.9306712746620178,0.04526100307703018,-0.44734808802604675,0.5177074074745178,0.476070761680603,0.5968968386274346,0.7141681247515257,0.11222473314905974,0.3479708467162928,1.1962433538345887,-1.694826474230626,2.369973252115416
1784547343384391424,1.9668214321136475,-2.163029670715332,-0.14701275527477264,0.8022775650024414,-0.37198200821876526,-0.9277355074882507,0.030600635334849358,-0.6872221231460571,0.774994969367981,0.5032128095626831,0.6013176140450354,0.7101146464717447,0.10505953811896745,0.35088017344656075,1.1882992055111545,-1.6528752613381903,2.3220622931578174
1784547343394311424,1.9767413139343262,-2.6356029510498047,0.30575552582740784,0.39014410972595215,-0.37791359424591064,-0.9258108735084534,0.0074547226540744305,-0.7622536420822144,1.1157523393630981,0.8111487627029419,0.6087045779028347,0.7027980671649426,0.09900625261402599,0.35461445412013226,1.1831752955271222,-1.5905197664723474,2.2565167276072264
1784547343404230656,1.9866604804992676,-3.2721071243286133,0.4914892911911011,-0.37179139256477356,-0.3775954246520996,-0.9257200360298157,-0.021545574069023132,-0.7546677589416504,1.053100347518921,0.6838228106498718,0.6188878832180181,0.6929478698376732,0.09513391998598662,0.3574221822800287,1.1829349589801128,-1.5137981868770187,2.1781881665885705
1784547343414150400,1.9965803623199463,-3.1157333850860596,0.6407206058502197,-0.32313305139541626,-0.373807817697525,-0.9259844422340393,-0.05310846492648125,-0.6269398927688599,0.8466692566871643,0.47814202308654785,0.6302091747159314,0.6818157796885125,0.09259054704513682,0.35970907480969316,1.1836346744654447,-1.4296665902015846,2.0936182576652413
1784547343424070656,2.006500482559204,-3.189485549926758,0.8661751747131348,-0.787581205368042,-0.36881422996520996,-0.9256547093391418,-0.08449358493089676,-0.5275022983551025,0.5713152885437012,0.23813433945178986,0.641191893785627,0.6704251225634356,0.09101297080458344,0.36210441426737827,1.1827622807606641,-1.345587404083962,2.0108449655865437
1784547343433990400,2.016420364379883,-3.8807733058929443,0.35250014066696167,-1.2434602975845337,-0.3589893877506256,-0.9256573915481567,-0.11952055990695953,-0.7252544164657593,0.5238170623779297,0.14216457307338715,0.6543630072208426,0.6573619904287552,0.09008291656865211,0.3627249943010387,1.1827693735043947,-1.2494032366762144,1.9141883702778104
1784547343443909376,2.026339292526245,-3.251070499420166,0.11562702059745789,-0.7248759865760803,-0.3493829369544983,-0.9242397546768188,-0.1539890319108963,-0.6482214331626892,0.6820216178894043,0.043027088046073914,0.6677314702409471,0.6444269336981338,0.08786017264661967,0.36211781836257134,1.1790396262755798,-1.1556648676254235,1.8163893089573058
1784547343453829632,2.036259412765503,-2.8886656761169434,0.15310701727867126,-0.952648401260376,-0.3433752655982971,-0.9215796589851379,-0.181064635515213,-0.4676751494407654,0.8732550740242004,0.15434646606445312,0.6781006668881987,0.63423113085916,0.08496207902327037,0.36154087777634536,1.1721302661839994,-1.0855414929648621,1.7414421620924116
1784547343463749376,2.0461792945861816,-3.6020638942718506,-0.5397045016288757,-2.1817374229431152,-0.32964417338371277,-0.9201582670211792,-0.2112903743982315,-0.8733129501342773,1.3272627592086792,0.4872760772705078,0.6913167928472372,0.6224202936057848,0.0833533989234929,0.35738823348334703,1.1684844607371168,-1.0007988381688933,1.648173954658179
1784547343473668608,2.056098461151123,-2.2182271480560303,-0.2382519692182541,-1.4191696643829346,-0.3122594654560089,-0.9194802641868591,-0.2388519048690796,-0.7528650760650635,1.3740394115447998,0.4023040235042572,0.7044169659418448,0.6112999766605046,0.08298426897201597,0.3510310348846536,1.1667563922086996,-0.9178178669001502,1.5550782297325945
1784547343483588352,2.0660183429718018,-0.9830233454704285,-0.3266974687576294,-0.7721460461616516,-0.3053397536277771,-0.9188867211341858,-0.2498299479484558,-0.2507057785987854,0.6311212182044983,-0.09846717119216919,0.7099568609293375,0.6069050446480138,0.08216623145238458,0.3476727576960953,1.1652493012077212,-0.8850540066224936,1.5160702797604435
1784547343493508608,2.0759384632110596,-1.5620381832122803,-1.2149174213409424,-1.4223203659057617,-0.29608839750289917,-0.9194521307945251,-0.258727103471756,-0.6550529599189758,0.5240662097930908,0.13581755757331848,0.7164912701741614,0.603486656588431,0.08025148245658835,0.3405935820752709,1.1666848318154621,-0.8526366608200026,1.4699144839476004
1784547343503427584,2.085857391357422,-1.3409552574157715,-0.927809476852417,-0.7877845168113708,-0.29027149081230164,-0.9190302491188049,-0.26669448614120483,-0.39217785000801086,0.19930368661880493,0.029145658016204834,0.7225207317412957,0.600667751517625,0.07649187366101251,0.33363320241031974,1.1656132961304768,-0.8277040212528435,1.4288280454720548
1784547343513347328,2.0957772731781006,-1.8043087720870972,0.049646779894828796,-0.6675832271575928,-0.2847568392753601,-0.9170944094657898,-0.27901867032051086,-0.5395381450653076,0.058894336223602295,0.14397838711738586,0.7281558115280764,0.5957138438762968,0.0749378633338884,0.3306031374321746,1.1607299949673662,-0.7955759490771811,1.3900838914095357
1784547343523267584,2.1056973934173584,-2.580044746398926,0.9800543785095215,-0.903673529624939,-0.27554723620414734,-0.912865936756134,-0.30124640464782715,-0.47181299328804016,0.4116605520248413,0.21849799156188965,0.7359226366974101,0.5861981528190897,0.0758190647722828,0.33021358148320795,1.1502497960856695,-0.7408724405865391,1.3368008463073404
1784547343533187328,2.115617275238037,-2.3598525524139404,1.3843722343444824,-0.6770230531692505,-0.2663346529006958,-0.9072339534759521,-0.3255649209022522,0.2891923189163208,0.48911261558532715,-0.0571712851524353,0.7434473367298023,0.5754839421765667,0.07769025956616692,0.331765881106537,1.1366607090037673,-0.6856620740193385,1.2876860677495068
1784547343543106560,2.1255364418029785,-1.8783499002456665,1.3005715608596802,-1.7480504512786865,-0.250583291053772,-0.9035947322845459,-0.347454309463501,0.572147011756897,0.5755155682563782,-0.27223560214042664,0.7507341761722657,0.5651515580098806,0.0829249965148999,0.33185129380471134,1.1280878837983919,-0.62481146228837,1.235509509413568
1784547343553026560,2.1354563236236572,-1.6123250722885132,1.9337263107299805,-1.154678463935852,-0.23261089622974396,-0.9004469513893127,-0.36754220724105835,0.9412748217582703,0.3588515520095825,-0.06164172291755676,0.757470422192102,0.5551665879935592,0.08954865282332453,0.33167685301663824,1.1207960232234055,-0.5642473218407411,1.1852858740400092
1784547343562946560,2.145376443862915,0.010615724138915539,0.7895063161849976,-0.6949686408042908,-0.22490543127059937,-0.8988685607910156,-0.3761022388935089,1.3155120611190796,0.33517831563949585,-0.3079493045806885,0.7592483838467002,0.5505370996363095,0.0941157641819637,0.3340555223117283,1.11718079295296,-0.5389403438751055,1.1708425878564428
1784547343572865536,2.1552953720092773,0.7954738140106201,-0.4515877068042755,-0.5881404876708984,-0.22069868445396423,-0.9016860127449036,-0.3718259632587433,0.9471238851547241,0.35218650102615356,-0.3485262393951416,0.7587735510414023,0.5521336937720631,0.09610103492449251,0.33192733440193056,1.1236530617312703,-0.5356661201233164,1.166865845340975
1784547343582785536,2.165215492248535,1.5173841714859009,-1.3213499784469604,-0.7478593587875366,-0.21809929609298706,-0.9076583385467529,-0.3585933446884155,0.6592919230461121,0.31996607780456543,-0.18283426761627197,0.7567194984486403,0.5579855573014602,0.09672351417608652,0.32660740932921467,1.1376707136712276,-0.5464328369527673,1.1694595206309293
1784547343592705536,2.175135374069214,1.6604403257369995,-0.6879227757453918,-0.6082959175109863,-0.2159513235092163,-0.9147003293037415,-0.3415970504283905,0.1451963186264038,0.035168349742889404,0.019316166639328003,0.7537572726157089,0.5654828501472349,0.09711136186435511,0.32038824690854983,1.1547657084947298,-0.5637468512034899,1.1767416736472112
1784547343602625536,2.1850554943084717,0.662169873714447,-0.11030080914497375,-0.6246774196624756,-0.2116965651512146,-0.9200580716133118,-0.3296634554862976,-0.2404671311378479,-0.018525421619415283,0.17208591103553772,0.751484952244919,0.5703609686283279,0.0992806247585001,0.31638942306004536,1.1682286278439094,-0.5708437933347117,1.1801862306126043
1784547343612544512,2.194974422454834,0.0982803925871849,0.06562867760658264,-1.0195869207382202,-0.20480959117412567,-0.9228332042694092,-0.32623881101608276,-0.16816098988056183,-0.06199944019317627,0.30927106738090515,0.7516299367094393,0.5713909676139498,0.10194585190244704,0.3133237299801147,1.1753720673620105,-0.5606033714907022,1.168886181045037
1784547343622464512,2.2048943042755127,-0.6574563384056091,1.0484437942504883,-0.6023173928260803,-0.1951366811990738,-0.9238350987434387,-0.3293180465698242,-0.09671817719936371,-0.315865159034729,0.2126493752002716,0.7533646737391442,0.5693078961689867,0.10596934134192453,0.31160976401410156,1.1779810956362537,-0.53492193110996,1.146532547056371
1784547343632384512,2.2148144245147705,-1.071325659751892,0.6735889911651611,-0.3593415319919586,-0.18805749714374542,-0.9218409061431885,-0.3388860821723938,0.27091270685195923,-0.3530004024505615,0.1650426983833313,0.7558207319891442,0.5644029091412754,0.10957331616553063,0.3133338392131313,1.1728038285237388,-0.5066190845609403,1.1266235266386082
1784547343642303488,2.224733352661133,-0.18696904182434082,0.7510166764259338,-0.6705070734024048,-0.18043716251850128,-0.920568585395813,-0.3464043438434601,0.3262959122657776,-0.364953875541687,-0.00911015272140503,0.7581079120649608,0.56039083250737,0.11295991236917263,0.3138066726563678,1.1695337679064033,-0.4802164213849566,1.106284584893571
1784547343652223488,2.2346534729003906,-0.4099366366863251,0.710660457611084,-0.23434782028198242,-0.17453324794769287,-0.920714795589447,-0.3490307927131653,0.35498368740081787,-0.20474296808242798,-0.14739862084388733,0.758751368863305,0.5585172313916136,0.1163748647073743,0.31434341353480394,1.1699081851780049,-0.46368853788974723,1.0957289359182045
1784547343662143488,2.2445733547210693,-0.248240664601326,0.9866182208061218,-0.10953132063150406,-0.17072567343711853,-0.9197102189064026,-0.3535332679748535,0.30875667929649353,-0.21519267559051514,0.0492577850818634,0.7593650961152916,0.5558928908247033,0.11923278053676294,0.3164351447523931,1.1673416893289876,-0.44988447614583327,1.0896176824403216
1784547343672063488,2.254493474960327,-0.9208310842514038,0.6618398427963257,0.0336625874042511,-0.16780328750610352,-0.9182865023612976,-0.35859718918800354,0.3194146156311035,-0.4755581021308899,-0.012694865465164185,0.7598627675133554,0.5530258883165159,0.12191706371994916,0.31922897016402646,1.1637305489133152,-0.4376752994873453,1.0859936628587203
1784547343681982464,2.2644124031066895,-1.7905834913253784,1.001407265663147,-0.10609344393014908,-0.16824406385421753,-0.9123809933662415,-0.37316855788230896,0.51066654920578,-0.45006096363067627,0.07035788893699646,0.762923617825568,0.5465262798658506,0.12134557615322121,0.32331371175533413,1.1490634976547929,-0.4235628471884792,1.078281643300219
1784547343691902464,2.274332284927368,-1.8951489925384521,-0.3095095157623291,0.5517531633377075,-0.1678568720817566,-0.9056304097175598,-0.38943254947662354,0.5354411005973816,-0.4450013041496277,0.043210625648498535,0.7672530104798007,0.5394345466565889,0.11955789076883187,0.3256365115512486,1.1328638974995313,-0.4069664589330252,1.0637063408883396
1784547343701822464,2.284252405166626,-2.7012693881988525,-0.19999949634075165,0.2705504894256592,-0.17504282295703888,-0.8951372504234314,-0.40998709201812744,0.53995680809021,-0.1833692193031311,-0.0020917654037475586,0.7729955209896938,0.5314382145491016,0.11216003685193862,0.3278285423191698,1.1087389692954852,-0.4035187321023266,1.054155648210883
1784547343711741440,2.2941713333129883,-1.8463051319122314,0.08566953986883163,-0.41145122051239014,-0.17365646362304688,-0.8859180808067322,-0.43010762333869934,0.17646408081054688,-0.03818470239639282,0.23316246271133423,0.7792607805966779,0.5226035998432115,0.10877344964994141,0.3283389446351961,1.0884696189985923,-0.38373596404112054,1.0315997062101345
1784547343721661440,2.304091453552246,-1.8629734516143799,0.09558898210525513,-0.37288498878479004,-0.1690085530281067,-0.8792476058006287,-0.4453759491443634,0.0032370686531066895,-0.020502150058746338,-0.03027099370956421,0.7843592581178551,0.515472149448071,0.10770555752989246,0.3278239738004902,1.0742804994575774,-0.3626872224790826,1.0093058425117616
1784547343731581440,2.314011335372925,-1.7600854635238647,0.1963493973016739,0.024341190233826637,-0.1668899804353714,-0.8709420561790466,-0.46217718720436096,0.0557297021150589,0.12545865774154663,0.11172854900360107,0.7893078040632512,0.5076728876665927,0.10573387187456798,0.32875806998240764,1.0571162488124732,-0.3465248224123465,0.9930292495691955
1784547343741501696,2.3239314556121826,-1.5349140167236328,0.45977020263671875,0.14511807262897491,-0.16677333414554596,-0.8633568286895752,-0.476237028837204,0.08204127848148346,-0.07846134901046753,-0.03413897752761841,0.7929904578566302,0.5011159965763541,0.10375090064688516,0.33058242096705887,1.0418848716789573,-0.336843867161234,0.9844656231485439
1784547343751420416,2.333850383758545,-1.206580638885498,0.08710075914859772,-0.053136423230171204,-0.16584013402462006,-0.8572603464126587,-0.4874441921710968,0.22345733642578125,-0.1737302541732788,0.01948767900466919,0.7959196237788748,0.49573065536215394,0.1026110127708798,0.33201534553116263,1.0299249995722142,-0.327939132168018,0.9771155352551358
1784547343761340416,2.3437702655792236,-2.01263427734375,0.21473781764507294,0.4722144603729248,-0.16709673404693604,-0.8492485284805298,-0.5008549690246582,0.09673847258090973,-0.23485791683197021,0.0991520881652832,0.7993132474658697,0.4894665617204638,0.09997506438797296,0.3339549117722984,1.014560425738878,-0.322011248780564,0.9715632546992639
1784547343771260416,2.3536903858184814,-2.5111773014068604,0.5985070466995239,-0.21329227089881897,-0.16690951585769653,-0.8368173837661743,-0.5214190483093262,0.09401826560497284,-0.1369526982307434,0.17420536279678345,0.8046623356324836,0.479499396484969,0.09680296671742787,0.3364935554111729,0.9914438952295302,-0.3097993585517707,0.960639855338155
1784547343781179392,2.3636093139648438,-1.738203525543213,-0.12210968136787415,-0.12495042383670807,-0.1626920849084854,-0.8267298340797424,-0.5385619401931763,0.3044157028198242,0.04282492399215698,0.010165393352508545,0.8412007567465708,0.47826827641824127,0.0444802952767824,0.24831858400138698,0.9732700189749611,-0.29336957567386535,0.7301057921806982
1784547343791099648,2.3735294342041016,-1.7284283638000488,-0.026409786194562912,0.3361641764640808,-0.16516301035881042,-0.816869854927063,-0.5526707172393799,0.3358173370361328,0.2419034242630005,-0.10678362846374512,0.8518488959037968,0.4721121390003799,0.027834490810925844,0.22514202747774112,0.9559634108873302,-0.29039702574341664,0.6679966258048681
1784547343801019392,2.3834493160247803,-1.525874376296997,0.3708559572696686,-0.2870330214500427,-0.16585515439510345,-0.8078561425209045,-0.5655621290206909,0.22632573544979095,0.2744241952896118,0.08048522472381592,0.8584666401944407,0.46565915959740123,0.019506143447555618,0.21404701190542605,0.9405055624502006,-0.2852593079009619,0.634433653659051
1784547343810938624,2.3933684825897217,-1.2132751941680908,0.14483694732189178,-0.09172799438238144,-0.1631450653076172,-0.8007752895355225,-0.576318085193634,0.1805400848388672,0.12528395652770996,0.03084695339202881,0.8616332443948573,0.45984949884541637,0.019477834919486157,0.21388581575274673,0.9285884941854194,-0.27586400802609345,0.6254444016572343
1784547343820858880,2.4032888412475586,-1.0485020875930786,0.022458113729953766,0.017620038241147995,-0.16170017421245575,-0.7948007583618164,-0.5849313139915466,0.17915622889995575,-0.10746663808822632,0.05479532480239868,0.8657929470310117,0.4552957019314523,0.015496937272877806,0.20704616662500555,0.9186792312545194,-0.2697072733921332,0.6034822510084881
1784547343830779136,2.4132089614868164,-1.4862260818481445,0.24394044280052185,0.04696061834692955,-0.16253216564655304,-0.7874359488487244,-0.5945820808410645,0.30781108140945435,-0.22745656967163086,0.10727745294570923,0.869714162474435,0.45009262488405555,0.011206503488474727,0.2022084576348417,0.9066381487223225,-0.26683649919098384,0.5874645007561203
1784547343840698880,2.423128843307495,-1.5879182815551758,0.30255988240242004,-0.3047616481781006,-0.1588643193244934,-0.7790539860725403,-0.60649573802948,0.0737202912569046,-0.06407040357589722,0.18645179271697998,0.8739423530994123,0.4434564875173798,0.009923536192031086,0.198677352772259,0.8931554857018412,-0.2561825566379663,0.5702610028842355
1784547343850617856,2.4330477714538574,-1.7076102495193481,0.36282187700271606,0.06539268791675568,-0.1552104651927948,-0.7694184184074402,-0.6196006536483765,0.2039775401353836,0.042596518993377686,0.20741498470306396,0.8783083452962036,0.4360282204767968,0.008892484927223797,0.195894597816605,0.8779301619929551,-0.2454499563351716,0.5545847723576943
1784547343860538112,2.4429678916931152,-1.5251829624176025,0.20823659002780914,-0.15030577778816223,-0.15369626879692078,-0.7592532634735107,-0.6323858499526978,0.2753851115703583,0.13976174592971802,0.08053648471832275,0.8823386134015004,0.4286668144966233,0.0071995093217322535,0.19409139702598824,0.8621649665807631,-0.23841923443875288,0.5431184081845424
1784547343870457856,2.452887773513794,-1.1735836267471313,0.4010947048664093,-0.27252304553985596,-0.15033239126205444,-0.751503050327301,-0.6423731446266174,0.15341466665267944,0.0237046480178833,-0.020316004753112793,0.885322346420201,0.4227978609159575,0.007442525815288409,0.19336717950779225,0.85033744295498,-0.2298892818813899,0.5345313766356937
1784547343880377088,2.4628069400787354,-1.3943185806274414,0.15550358593463898,0.021420469507575035,-0.14617596566677094,-0.7438843846321106,-0.6521262526512146,0.20554791390895844,-0.1055418848991394,0.0186881422996521,0.8885456125426567,0.4169906062797195,0.007464276871238408,0.19118016104708896,0.8388639832218548,-0.22050797665853603,0.5225025697416441
1784547343890296832,2.472726821899414,-1.4793397188186646,0.5613301992416382,-0.060540441423654556,-0.1445474922657013,-0.7344014644622803,-0.6631444096565247,0.175995871424675,-0.09228920936584473,0.056165099143981934,0.8918034604369337,0.4103468723763663,0.006574927575384577,0.19041765777555925,0.824784426304889,-0.21461593792589614,0.5149039925710323
1784547343900217088,2.482646942138672,-1.3261135816574097,0.19102220237255096,0.1814780831336975,-0.14084623754024506,-0.7258145809173584,-0.6733168363571167,0.04904937744140625,-0.1262514591217041,-0.0231400728225708,0.8948611574753057,0.4040974527405156,0.0068426081546320095,0.18942535792779916,0.8122177914128623,-0.20620929066034052,0.5061333945403198
1784547343910136832,2.4925668239593506,-1.3760223388671875,0.47522279620170593,-0.15432575345039368,-0.13915477693080902,-0.7163868546485901,-0.6836854219436646,0.3002418279647827,0.05655109882354736,0.055298030376434326,0.8978344679776232,0.3976411558651575,0.006228809177241561,0.18903934703019368,0.7986098214141066,-0.20079347912469933,0.5000027351133315
1784547343920056064,2.502485990524292,-0.8819034099578857,0.31800541281700134,-0.11644598841667175,-0.13620224595069885,-0.7092633247375488,-0.6916606426239014,0.13211289048194885,0.1038861870765686,-0.022984743118286133,0.900433580369755,0.3925986571853566,0.005996553723981196,0.18721566999867748,0.7884526490285116,-0.1944328666729456,0.49108930822141383
1784547343929976064,2.5124058723449707,-0.8612777590751648,0.15963762998580933,-0.15709088742733002,-0.13301464915275574,-0.7035849690437317,-0.6980510354042053,0.15118785202503204,0.062181830406188965,0.010261118412017822,0.9025384379429602,0.38850477438611447,0.006206645892102521,0.18560661978977655,0.7804298966382998,-0.18829413707010687,0.4832808645303749
1784547343939896064,2.5223259925842285,-0.9775986671447754,0.2300414741039276,-0.15642397105693817,-0.1295720934867859,-0.6974181532859802,-0.704853892326355,0.1964818835258484,0.025344789028167725,0.06506812572479248,0.9048277433568833,0.3841000267942808,0.006343320880198895,0.18361275208008745,0.7717885590832169,-0.18179862157130552,0.4744425795622938
1784547343949815040,2.532244920730591,-0.781430721282959,0.1454853117465973,0.10281159728765488,-0.1280941367149353,-0.6910833716392517,-0.7113337516784668,0.218868687748909,-0.02640014886856079,0.015471994876861572,0.9068251139593809,0.379866886491626,0.005854123035963486,0.18257904577914186,0.7629868504919144,-0.1781665499126926,0.46899472190081554
1784547343959735040,2.5421648025512695,-0.6032121777534485,0.5626826286315918,-0.2904204726219177,-0.12416300922632217,-0.6868407726287842,-0.7161238789558411,0.11482464522123337,-0.14982914924621582,-0.02084517478942871,0.908315759851729,0.3766813884989267,0.007014637659814676,0.181726554209712,0.7571333623214314,-0.17167534742356672,0.46335106359384454
1784547343969655040,2.5520849227905273,-1.132320523262024,0.10887784510850906,0.04922443628311157,-0.12011922895908356,-0.6807902455329895,-0.7225620746612549,0.14959920942783356,-0.11661875247955322,0.05201464891433716,0.9103169295187385,0.3723664817043517,0.007884150817630125,0.1805659009177823,0.7488409551581277,-0.16473419398153466,0.4564841617676182
1784547343979575040,2.562004804611206,-0.8240451216697693,0.27700039744377136,-0.049169447273015976,-0.11864317953586578,-0.6743283867835999,-0.7288382053375244,0.270346075296402,-0.15588712692260742,0.059374094009399414,0.912181426174982,0.36813574740506777,0.007548717450302483,0.1798450408940817,0.7400548031042874,-0.16136856378225997,0.4520349170451495
1784547343989494016,2.5719239711761475,-1.2805500030517578,0.3680032789707184,-0.049829911440610886,-0.11571750044822693,-0.6669579148292542,-0.7360547184944153,0.15703830122947693,-0.20201486349105835,0.005280852317810059,0.9142411231836853,0.36319251383217643,0.007989358743180209,0.179417106998997,0.7301184803147798,-0.15593682072563117,0.4472694838163446
1784547343999414016,2.581843852996826,-1.2689977884292603,0.30741646885871887,0.19899965822696686,-0.11312969028949738,-0.6575185656547546,-0.744896650314331,0.09774883091449738,-0.15801793336868286,0.060265302658081055,0.9166996294434177,0.3570521317227333,0.00809024663253142,0.17919279984005482,0.7175204959126152,-0.1507212295925513,0.4426944088155785
1784547344009334016,2.591763973236084,-1.5330365896224976,0.3292698562145233,0.048230111598968506,-0.11080002784729004,-0.6471853256225586,-0.754237711429596,0.16103196144104004,-0.2229318618774414,0.020808756351470947,0.9191552417416748,0.35044764547218443,0.008220990081166207,0.1796456060714099,0.703886416794413,-0.1458600438944007,0.4396734447587931
1784547344019252992,2.6016829013824463,-1.5291553735733032,0.2618947923183441,0.10348761081695557,-0.1081731915473938,-0.6354809403419495,-0.7645015120506287,0.1397436261177063,-0.16087526082992554,0.021779954433441162,0.9217912066376096,0.3430416090229092,0.008467572904560334,0.1804210566309441,0.6886312383663183,-0.14056196436004675,0.4370484678145614
1784547344029172992,2.611602783203125,-1.4877352714538574,0.41060546040534973,-0.02327672950923443,-0.1056133434176445,-0.6244675517082214,-0.7738773226737976,0.1753460168838501,-0.1354963779449463,-0.07243615388870239,0.9243363007021208,0.3361392529646289,0.008470894344499212,0.18039138705273342,0.6744496755171331,-0.13563506187031452,0.43309054645821066
1784547344039092992,2.621522903442383,-1.229000210762024,0.11010860651731491,0.25186887383461,-0.10427612066268921,-0.6139733791351318,-0.782408595085144,0.1815924197435379,-0.07108521461486816,-0.03711044788360596,0.9266685087785879,0.32974786808985573,0.007876477988271924,0.1802496658579262,0.6610846996861868,-0.1324949840761955,0.42975134545884836
1784547344049012992,2.6314427852630615,-1.1352401971817017,0.18086639046669006,0.21921876072883606,-0.10472986847162247,-0.6046324968338013,-0.7895892858505249,0.20653651654720306,-0.07297980785369873,-0.0646740198135376,0.9285398152553669,0.3242851524398856,0.006670592499684075,0.18057825283372314,0.6493043692069809,-0.13186868974034235,0.42859482327020504
1784547344058931968,2.641361951828003,-1.0685837268829346,0.4418342709541321,0.18912310898303986,-0.1028544157743454,-0.5957961082458496,-0.7965224385261536,0.0426737517118454,-0.06388711929321289,0.022321999073028564,0.9302718424724766,0.318891546842221,0.006853186747342856,0.18126079343257123,0.6382565016835722,-0.12841871924045603,0.42735639448474294
1784547344068851968,2.6512818336486816,-1.229196310043335,0.24801072478294373,0.04854469746351242,-0.10035999119281769,-0.5868220925331116,-0.8034722805023193,0.146426260471344,-0.10029643774032593,0.004140615463256836,0.9321602121853424,0.31339095801690403,0.007068675762163678,0.18114476780467867,0.6271284874783097,-0.12426425226946743,0.42421210743544263
1784547344078771968,2.6612019538879395,-1.4653619527816772,0.18321388959884644,0.36966243386268616,-0.100257009267807,-0.575779914855957,-0.8114345669746399,0.2815314531326294,-0.14664745330810547,0.04687768220901489,0.9341897277550051,0.30699541129309754,0.006043589250597497,0.18167816856929156,0.6135577068501066,-0.12293222814243193,0.4231448948493414
1784547344088690944,2.6711208820343018,-1.4535928964614868,0.2986598014831543,0.12044808268547058,-0.09922173619270325,-0.563946545124054,-0.8198288083076477,0.19341424107551575,-0.15494078397750854,-0.04700767993927002,0.9362362219040646,0.30009094824692395,0.005568180413874103,0.1826912771928876,0.5991570390994142,-0.12044159440224386,0.4226662804384451
1784547344098610944,2.6810407638549805,-1.500765085220337,0.46670031547546387,0.14108620584011078,-0.09663307666778564,-0.5519288778305054,-0.8282732367515564,0.12788307666778564,-0.11602461338043213,-0.030338764190673828,0.9383854617878292,0.2929688217816722,0.0057130559270404,0.1832194528203655,0.5846755461763964,-0.11614305235353006,0.4206378362792848
1784547344108530944,2.6909608840942383,-1.3497679233551025,0.18679063022136688,0.5731103420257568,-0.09599527716636658,-0.5398022532463074,-0.8363004326820374,0.22767862677574158,-0.03954344987869263,-0.038653790950775146,0.9402092991186567,0.28604715014430865,0.005177767640036919,0.18481507296690944,0.5702021644020495,-0.11428545760114761,0.42171553398722694
1784547344118450944,2.700880765914917,-1.2761749029159546,0.2907586991786957,0.14418147504329681,-0.09575891494750977,-0.5286896228790283,-0.8433964252471924,0.20008325576782227,-0.00483393669128418,-0.06141924858093262,0.9418299519817095,0.2797889515611249,0.00446497555054044,0.18615712017249053,0.5570560271679859,-0.11305547878732028,0.42264002289323266
1784547344128369920,2.7107999324798584,-0.8994147777557373,0.17607392370700836,0.14862683415412903,-0.09396101534366608,-0.5193161368370056,-0.84940105676651,0.15759016573429108,0.08018344640731812,0.024587154388427734,0.9433888791225217,0.2743723745641767,0.00439124089644462,0.1863276287628545,0.5460504968447845,-0.11017238696162827,0.4208771524591287
1784547344138289920,2.720719814300537,-0.7381362915039062,0.2824813425540924,0.3993251323699951,-0.09446785598993301,-0.5121546983718872,-0.853682279586792,0.17790290713310242,0.05877023935317993,-0.07341122627258301,0.9443452863700497,0.2704549667932473,0.0036024431700772824,0.18722480395798413,0.5376915891890923,-0.1102108674940954,0.42183490969799775
1784547344148210176,2.730639934539795,-0.6925395131111145,0.19437889754772186,0.32055413722991943,-0.09418617188930511,-0.5060094594955444,-0.8573700189590454,0.09317909181118011,0.007748961448669434,-0.05429685115814209,0.9450254845638236,0.26702584892086545,0.0034895125908042165,0.1887111787511339,0.5305519431195199,-0.10941600815249754,0.4239465133876244
1784547344158128896,2.7405588626861572,-0.6594433784484863,-0.039508964866399765,0.07631990313529968,-0.09367600083351135,-0.5002909302711487,-0.8607751131057739,0.12353745102882385,0.03155618906021118,-0.039401888847351074,0.9459253106215122,0.26382328025380297,0.00311763778697963,0.18871364486031791,0.5239347316194657,-0.10840089372197756,0.422924513822929
1784547344168049152,2.750478982925415,-0.7971013784408569,0.08781729638576508,0.03922126814723015,-0.09355764091014862,-0.49378642439842224,-0.8645356893539429,0.21254569292068481,0.03271159529685974,-0.04406416416168213,0.947013592053654,0.2602435753835855,0.0023322282742915946,0.18823701550438382,0.5164387007361487,-0.10779771612640587,0.42092017869163867
1784547344177968896,2.7603988647460938,-0.6065052151679993,0.038948673754930496,0.2330830842256546,-0.09383363276720047,-0.4881483316421509,-0.8677018284797668,0.07666748762130737,-0.09388291835784912,-0.13304585218429565,0.9479387900360883,0.2571905420189534,0.0014552659965612386,0.1877841943313318,0.5099668719894175,-0.10772180091166156,0.4192346693758426
1784547344187889152,2.7703189849853516,-1.1591230630874634,0.011825976893305779,0.22835277020931244,-0.09433693438768387,-0.4806409776210785,-0.8718284368515015,0.12253517657518387,-0.1994127631187439,-0.017453789710998535,0.9489825181187016,0.2531513127661533,0.0004484687194892136,0.18800635349527584,0.5013855019902596,-0.10778647897245354,0.4187890901094013
1784547344197808128,2.780237913131714,-0.9166237115859985,0.035139404237270355,0.4522888958454132,-0.09562569856643677,-0.470815509557724,-0.8770338892936707,0.16294747591018677,-0.2389317750930786,-0.08301860094070435,0.950163123068121,0.24795569473633883,-0.0010086589779504211,0.18896302967700404,0.4902149288357954,-0.10860405640989496,0.4198167987272159
1784547344207727872,2.7901577949523926,-1.0137945413589478,0.20986220240592957,0.3260103166103363,-0.09576649963855743,-0.46207132935523987,-0.8816568851470947,0.10569997876882553,-0.22858721017837524,-0.06907248497009277,0.9510396461278491,0.2432468908609184,-0.0015827227427834569,0.19066232591362642,0.48032941826938047,-0.10819686254122805,0.42223068834574656
1784547344217648128,2.8000779151916504,-0.7014638781547546,-0.12535566091537476,0.257754921913147,-0.09600580483675003,-0.45450931787490845,-0.8855530619621277,0.12544000148773193,-0.05769774317741394,-0.056417763233184814,0.9519322246933092,0.23920272608412316,-0.002352814597309042,0.1913154708897297,0.4718212551610579,-0.10799161315103906,0.42265113752437355
1784547344227566848,2.8099968433380127,-0.909071683883667,-0.16694092750549316,0.36353328824043274,-0.09912851452827454,-0.4471358060836792,-0.8889561891555786,0.23957040905952454,0.0523298978805542,-0.03432261943817139,0.952682544664746,0.2355871253778648,-0.004540212865458293,0.1920260885985343,0.4635606390886957,-0.11105234744979174,0.42403331957734663
1784547344237487104,2.8199169635772705,-0.6091194748878479,0.07349390536546707,0.06389948725700378,-0.1005038172006607,-0.43986859917640686,-0.8924206495285034,0.1435183435678482,0.11749616265296936,0.023478388786315918,0.9535764819472846,0.23184860849729377,-0.00599206833329645,0.19209954522839778,0.45545236832863,-0.1121468009270711,0.4235973586112107
1784547344247406848,2.829836845397949,-0.40896904468536377,0.12058045715093613,0.12141711264848709,-0.09955500066280365,-0.4357724189758301,-0.8945340514183044,0.07646846026182175,-0.058307141065597534,-0.06919574737548828,0.954166408146505,0.22955831487483114,-0.005995281237108806,0.1919207442309171,0.45089629758829497,-0.11083646492755675,0.42242709323944255
1784547344257327104,2.839756965637207,-0.8947948813438416,-0.038481250405311584,0.4797531068325043,-0.09988971054553986,-0.4299980103969574,-0.8972868919372559,0.15889546275138855,-0.1440528929233551,0.02951955795288086,0.9547704500426734,0.22652257132379972,-0.006639157964724827,0.19250171956791284,0.4444905794949985,-0.1108676703809063,0.42298543094654034
1784547344267246080,2.8496758937835693,-1.2429147958755493,-0.016445986926555634,0.3894605040550232,-0.10271995514631271,-0.41967320442199707,-0.9018442630767822,0.2049691081047058,-0.22490385174751282,-0.0035665035247802734,0.9556210878144684,0.22136193549711838,-0.008762118574130671,0.19419197756852996,0.4330852504637778,-0.11341113533889684,0.42593584578316984
1784547344277165824,2.859595775604248,-1.0286366939544678,0.04457753151655197,0.2930564284324646,-0.10410916805267334,-0.40902432799339294,-0.9065651893615723,0.11955107748508453,-0.27310457825660706,-0.06671667098999023,0.9566730992540492,0.21589241555134905,-0.01038657975515392,0.19508802078329637,0.4213846145393204,-0.11433827085481979,0.42680899990431687
1784547344287086080,2.869515895843506,-1.17295503616333,-0.08584492653608322,0.13967247307300568,-0.10481119900941849,-0.3991585075855255,-0.9108716249465942,0.1262497901916504,-0.1610373854637146,-0.08078181743621826,0.9576910098823783,0.21077961838634243,-0.011668498505345348,0.1956108614641934,0.41059890106370506,-0.11456308199839438,0.42684321821457166
1784547344297005056,2.879434823989868,-1.1213710308074951,-0.22310447692871094,0.1527920812368393,-0.10673706978559494,-0.38831859827041626,-0.9153228402137756,0.16699403524398804,0.01363903284072876,-0.042868077754974365,0.9588813311039317,0.20529970579904375,-0.013806552441517782,0.19546880855197443,0.39880631629411545,-0.11608709453917411,0.42567637285685567
1784547344306925056,2.889354944229126,-0.9382398128509521,-0.19045624136924744,0.31266480684280396,-0.10969507694244385,-0.3788199722766876,-0.918946385383606,0.16787683963775635,0.0028433799743652344,-0.11053359508514404,0.9597720050401364,0.20065781276538322,-0.016225110529731544,0.19573188212152612,0.3885208924047801,-0.11880830320511954,0.42575525080232896
1784547344316845056,2.8992748260498047,-1.1358014345169067,0.04719926416873932,0.1506149023771286,-0.11080394685268402,-0.3693940341472626,-0.92264324426651,0.09858166426420212,-0.04407337307929993,-0.02642291784286499,0.9606723869219288,0.19587004378675302,-0.017700401114061362,0.19603655345308288,0.3783568496255447,-0.11952162490857934,0.4255070751676384
1784547344326765056,2.9091949462890625,-0.8365854024887085,-0.22164179384708405,0.3712276816368103,-0.11273221671581268,-0.35982057452201843,-0.9261860251426697,0.11212186515331268,-0.08738401532173157,-0.028922557830810547,0.9614780683007643,0.19111505117647898,-0.019545117176104763,0.19660360520991682,0.3680755857601263,-0.12112081486245395,0.4259727554996842
1784547344336684032,2.919113874435425,-0.8917016386985779,-0.034628190100193024,0.2923893332481384,-0.1152355968952179,-0.3515531122684479,-0.9290485382080078,0.1868908703327179,-0.171350359916687,-0.10587882995605469,0.9619139488561897,0.18713507945219612,-0.021358801802736634,0.1981053955273093,0.3592295838055612,-0.12340585449903259,0.428653173351879
1784547344346604032,2.9290339946746826,-0.8733708262443542,-0.09773338586091995,0.24414750933647156,-0.11618977785110474,-0.3432726562023163,-0.9320213794708252,0.09058552980422974,-0.11558964848518372,-0.057266950607299805,0.9626060002615929,0.182968694793141,-0.02262241344499097,0.19849525990332434,0.3503990568546416,-0.12402443272050494,0.42869302846679574
1784547344356524032,2.9389538764953613,-0.9709447026252747,-0.2740289270877838,0.3890732228755951,-0.119395412504673,-0.3343939185142517,-0.9348397850990295,0.2382766306400299,-0.12321716547012329,-0.09370940923690796,0.9631385512582972,0.17876529865916468,-0.024961427550709618,0.19945926226022637,0.34096206154903996,-0.12702980122670812,0.4303097443472582
1784547344366443008,2.9488728046417236,-0.8273606300354004,-0.21965891122817993,0.30495303869247437,-0.12249993532896042,-0.3258620500564575,-0.9374474287033081,0.16700981557369232,-0.13191688060760498,-0.0754615068435669,0.9636662765747157,0.1747371319029209,-0.027262111699697833,0.2001771977506761,0.33192341119877805,-0.12993767158324865,0.43141846469571443
1784547344376363008,2.9587929248809814,-1.1377179622650146,-0.10404424369335175,0.28979045152664185,-0.1245189905166626,-0.31632688641548157,-0.9404426217079163,0.1350628137588501,-0.13959047198295593,-0.08198779821395874,0.9643015029426156,0.1700875399468098,-0.029136209726787324,0.20085776214134807,0.32185502418990813,-0.13163897121579848,0.4321136636442932
1784547344386283008,2.96871280670166,-0.9398027658462524,-0.1873580366373062,0.3659416735172272,-0.12678375840187073,-0.3064112663269043,-0.9434182643890381,0.19038239121437073,-0.15669295191764832,-0.044084787368774414,0.9649316750228172,0.16528464165116247,-0.031174660594955415,0.2015339209215746,0.3114206586659305,-0.13358728577736023,0.43279791642490645
1784547344396203008,2.978632926940918,-1.1115957498550415,-0.1247004047036171,0.3518129885196686,-0.1290358304977417,-0.2969338297843933,-0.9461395740509033,0.171073779463768,-0.2207053005695343,-0.02282404899597168,0.9654333441299832,0.1607285643939395,-0.03311426944082948,0.2025047122668295,0.3014800619276725,-0.13554513986597663,0.4341346145485205
1784547344406121984,2.9885518550872803,-1.0619407892227173,-0.08937384188175201,0.3525528013706207,-0.13122302293777466,-0.2854688763618469,-0.9493619203567505,0.15527088940143585,-0.12525194883346558,0.128790020942688,0.9660128600758092,0.15517836902323598,-0.035195390245849376,0.20371599283054218,0.28949562284195596,-0.13735203468439516,0.43572842928153754
1784547344416041984,2.998471975326538,-1.1000488996505737,0.13873469829559326,0.0945153534412384,-0.13129234313964844,-0.27529168128967285,-0.952353298664093,0.13567161560058594,-0.09229257702827454,0.12776833772659302,0.9667118207164709,0.1500346528032505,-0.03623470896816623,0.20407052212562402,0.27889308501100607,-0.13699741049583825,0.4353444560795532
1784547344425961984,3.008391857147217,-0.9622105956077576,0.08998046815395355,0.15687993168830872,-0.13030219078063965,-0.26537656784057617,-0.9552991986274719,0.10869576036930084,-0.02278563380241394,0.2604140043258667,0.9674700820618494,0.14490712573342154,-0.03677378991845129,0.204086285865379,0.26859447050306423,-0.13556277929674773,0.4341442888427565
1784547344435880960,3.018310785293579,-1.004613995552063,0.24561315774917603,0.33011582493782043,-0.129190132021904,-0.2558218836784363,-0.9580527544021606,0.163125678896904,-0.03144007921218872,0.32887184619903564,0.9680409501475469,0.13998494309233933,-0.03711930476961772,0.20475102985852,0.2586977809946924,-0.13403805133719615,0.43433799461158273
1784547344445800960,3.028230905532837,-1.1991808414459229,0.5028071403503418,0.19960762560367584,-0.12641610205173492,-0.24505148828029633,-0.9612329006195068,0.18211069703102112,-0.051731958985328674,0.4299219250679016,0.9686478108436869,0.13429316455377485,-0.0367271474476054,0.20576162880606902,0.24757279565093795,-0.13076408071879403,0.43491343359897316
1784547344455720960,3.0381507873535156,-1.27837073802948,0.7490114569664001,0.044852424412965775,-0.12077198177576065,-0.2332676500082016,-0.96488356590271,0.14782583713531494,-0.1144343763589859,0.5089510083198547,0.9695375399096976,0.1277641005527697,-0.035136015713008846,0.20600704858267863,0.23543668907463164,-0.12451982877219563,0.43347715146244503
1784547344465640960,3.0480709075927734,-1.713363528251648,0.9017906188964844,0.06396513432264328,-0.11330072581768036,-0.21904964745044708,-0.9691131114959717,0.17953914403915405,-0.1442926526069641,0.5907714366912842,0.9705902867402759,0.11983468064181019,-0.03291046697815696,0.20618225254632483,0.2208403544203549,-0.11638343203128744,0.4315543555641375
1784547344475559936,3.0579898357391357,-1.964927077293396,0.9014860391616821,0.23147836327552795,-0.10465003550052643,-0.20131529867649078,-0.9739201664924622,0.16481545567512512,-0.12700805068016052,0.6579717397689819,0.9717113609697366,0.11006252133586517,-0.03043269161760643,0.20673000826355706,0.20270053130569685,-0.10704166693365705,0.430142408495786
1784547344485480192,3.0679099559783936,-2.1016578674316406,1.2285888195037842,0.20932751893997192,-0.09437593817710876,-0.18167732656002045,-0.978818953037262,0.13409456610679626,-0.14563895761966705,0.649412214756012,0.9727681379702572,0.09921577493094286,-0.027326848162311023,0.20768152250857622,0.1826918959315708,-0.0961210522213455,0.42948668297335135
1784547344495399936,3.0778298377990723,-2.0765929222106934,1.4559143781661987,0.27276262640953064,-0.08153227716684341,-0.16099146008491516,-0.9835823774337769,0.07893828302621841,-0.08247777819633484,0.6607826948165894,0.9737193854682413,0.08761773333622534,-0.023064205262555083,0.2089539889357543,0.1616951300385342,-0.08270410677284265,0.4294802903977491
1784547344505318912,3.0877487659454346,-1.7501264810562134,1.305100917816162,0.21715182065963745,-0.06848521530628204,-0.14177100360393524,-0.98752760887146,0.14857859909534454,0.027803122997283936,0.64566969871521,0.9744675928930965,0.07675146225813703,-0.018585304266443177,0.2101827335131202,0.14225026236011232,-0.0692393220056994,0.42980577268696596
1784547344515238912,3.0976688861846924,-1.2787309885025024,1.3671425580978394,0.06850462406873703,-0.05542498826980591,-0.12717151641845703,-0.9903309941291809,0.2010243535041809,0.16933155059814453,0.5575612187385559,0.9750631243128237,0.0681702252908869,-0.013686618737271465,0.21075443034375382,0.12751681579657165,-0.055907802336081634,0.4293098413422151
1784547344525158912,3.107588768005371,-0.9381170272827148,1.4732586145401,-0.08579786121845245,-0.04118473082780838,-0.11615229398012161,-0.9923771619796753,0.20414859056472778,0.3671441078186035,0.5717533826828003,0.9755985999939724,0.061231269913775754,-0.007883077296022547,0.2107035543040367,0.11641507141049111,-0.041477284440516564,0.42783051680264184
1784547344535078912,3.117508888244629,-0.6049555540084839,1.410030484199524,-0.026263829320669174,-0.0273873470723629,-0.1086159497499466,-0.993706464767456,0.2140633761882782,0.4147835671901703,0.598992109298706,0.9760172847986177,0.05606228438256145,-0.0019481795544570102,0.21034134321812512,0.10883065832132968,-0.027553826333901476,0.4260277989539518
1784547344544997888,3.127427816390991,-0.5136957168579102,1.8275753259658813,-0.029979471117258072,-0.011380334384739399,-0.10340268164873123,-0.9945744872093201,0.16100801527500153,0.30193477869033813,0.5883702635765076,0.9762458628858596,0.05181047839990221,0.00533290139086179,0.21031247927984129,0.10358783963340594,-0.011441916329403109,0.42496711893481676
1784547344554918144,3.137347936630249,-0.5800617933273315,2.014505386352539,-0.10584460943937302,0.007400987669825554,-0.09785956889390945,-0.9951727390289307,0.0746607854962349,0.17372627556324005,0.6554663181304932,0.9764254090017869,0.047112182648784647,0.01393144401431834,0.21019026298451468,0.09801644110995127,0.00743675059990034,0.4236942824913796
1784547344564837888,3.1472678184509277,-0.41593146324157715,2.178818464279175,-0.11767197400331497,0.02803203836083412,-0.09273111075162888,-0.9952965378761292,0.08181598782539368,-0.007671721279621124,0.5807610154151917,0.9765520979627439,0.04243834332230552,0.02346765883941366,0.20974834763056138,0.0928645287057393,0.028157066078686538,0.421832151606418
1784547344574757120,3.157186985015869,-0.14713115990161896,1.9592293500900269,-0.11159370839595795,0.048244550824165344,-0.0900377407670021,-0.9947691559791565,0.19058601558208466,-0.051930032670497894,0.4935789704322815,0.9765035954721688,0.039013234394247504,0.033066455183942585,0.2093452885045834,0.09015983937801658,0.04846026761370293,0.4201853154228287
1784547344584676864,3.167106866836548,-0.007048357278108597,1.9555325508117676,-0.20617453753948212,0.06804060190916061,-0.08931896835565567,-0.9936763048171997,0.2332746982574463,0.06043408066034317,0.4573909044265747,0.9763969645791754,0.03662674617830759,0.042665317272728584,0.20853570865545404,0.08943816298047651,0.06836689400946733,0.41777030241309343
1784547344594597120,3.1770269870758057,0.14950430393218994,2.09297251701355,-0.3081805109977722,0.08846917003393173,-0.08963266015052795,-0.9920378923416138,0.21515022218227386,0.21917977929115295,0.46481621265411377,0.976255046556641,0.03472356679326023,0.05268134216496878,0.20723224970560025,0.0897531150708615,0.08894393002151035,0.41433898044204537
1784547344604516864,3.1869468688964844,0.5043012499809265,1.7141977548599243,-0.11934853345155716,0.10688457638025284,-0.09286198019981384,-0.9899254441261292,0.22531452775001526,0.26099857687950134,0.41765981912612915,0.9759754301000627,0.03448024566772915,0.0620354862035845,0.20599690179303518,0.09299596521215603,0.10755567803998776,0.4110196520104949
1784547344614435840,3.1968657970428467,0.5475872755050659,2.0398335456848145,-0.1828612983226776,0.12549951672554016,-0.09785337746143341,-0.9872561097145081,0.27487584948539734,0.2073657065629959,0.39750391244888306,0.9754959739901122,0.03508602323143812,0.07170024892303241,0.20502596839200307,0.09801021378625463,0.1264413554617718,0.4081122644074974
1784547344624356096,3.2067859172821045,0.4379446804523468,1.7785638570785522,-0.20836079120635986,0.1449752002954483,-0.10241561383008957,-0.9841205477714539,0.2111649364233017,0.15196090936660767,0.40331000089645386,0.9749663561940816,0.035440259162864834,0.08175401390793534,0.20371779543283822,0.10259550487654935,0.1462624908876666,0.40444698389315514
1784547344634275840,3.216705799102783,0.7867273688316345,1.917436957359314,-0.23679153621196747,0.1629187911748886,-0.10812585055828094,-0.9806968569755554,0.2915489673614502,0.011873409152030945,0.3655387759208679,0.9743663122499656,0.036543832138054955,0.09119283738842567,0.20238262584774272,0.10833765270822825,0.16462212323865816,0.40064365264830326
1784547344644195072,3.2266249656677246,0.3592950701713562,2.022768497467041,-0.1938304901123047,0.18201902508735657,-0.11350149661302567,-0.9767223000526428,0.2728149890899658,-0.13723091781139374,0.2924266457557678,0.9736272764099709,0.03739411007944661,0.10119546275631876,0.20102506354225225,0.11374662234395042,0.18424351880305403,0.39669874490485435
1784547344654115072,3.2365448474884033,0.2452884167432785,1.8183937072753906,-0.15746060013771057,0.201369509100914,-0.11596469581127167,-0.9726266264915466,0.2954413890838623,-0.08647366613149643,0.31146329641342163,0.9728109351413065,0.03678442992107669,0.1110567632610297,0.19988024355389525,0.11622619457323959,0.2041524735042914,0.39337422967879604
1784547344664035072,3.246464967727661,0.15349245071411133,1.6350009441375732,-0.17622043192386627,0.2177542895078659,-0.11761966347694397,-0.9688904285430908,0.3013802170753479,-0.11034664511680603,0.17267155647277832,0.9720570771401883,0.036074957220296855,0.11938750546159467,0.1988726971528572,0.11789256706396396,0.221072707495903,0.39050959110466876
1784547344673955072,3.25638484954834,0.09896382689476013,1.6133962869644165,-0.13091588020324707,0.23336443305015564,-0.11846764385700226,-0.9651458263397217,0.21568647027015686,-0.06825415790081024,0.16004633903503418,0.9712929632873173,0.035053276961667,0.12727275967771542,0.19789639289813524,0.11874651477879801,0.23723859327556332,0.38781999268077066
1784547344683873792,3.266303777694702,0.35822656750679016,1.6797337532043457,-0.13558679819107056,0.24946647882461548,-0.11996163427829742,-0.9609243869781494,0.10554453730583191,0.04214181751012802,0.10786652565002441,0.9704239478337717,0.034327024407273844,0.1354970808884433,0.19682381212745517,0.12025124032317286,0.25400358725206384,0.3848430770899759
1784547344693794048,3.27622389793396,0.5644881725311279,1.6127610206604004,-0.16123126447200775,0.2652581036090851,-0.12447844445705414,-0.9561083912849426,0.03840702772140503,0.19787323474884033,-0.011253058910369873,0.9694209169277946,0.03515927236826865,0.14390840912449285,0.19564588627346002,0.12480217012490308,0.27062877204763736,0.381271626918951
1784547344703713792,3.2861437797546387,0.42330947518348694,1.572361946105957,-0.24525079131126404,0.2807120084762573,-0.12840549647808075,-0.9511638879776001,0.007877439260482788,0.36992162466049194,-0.05716735124588013,0.9684498945676256,0.03580401470596984,0.15210560771419346,0.19413059934606905,0.128760995832926,0.2869781062102922,0.37703711331121453
1784547344713633024,3.29606294631958,0.6585350632667542,1.0224589109420776,-0.16770142316818237,0.2942586839199066,-0.1324518918991089,-0.946503221988678,0.023658186197280884,0.4252070188522339,-0.17285102605819702,0.9676501315398869,0.0368035330641722,0.15935462101703055,0.19210616125089142,0.13284226438979282,0.3014177110513258,0.37175805218445807
1784547344723553024,3.305982828140259,0.9262341260910034,0.5862910747528076,-0.05443345010280609,0.30106911063194275,-0.13996316492557526,-0.943274974822998,0.08061423897743225,0.33117103576660156,-0.40038347244262695,0.9670577059878097,0.04007821671146517,0.16357334450697497,0.19088460359050108,0.14042421108144942,0.3089537257415107,0.3678619585482458
1784547344733473024,3.3159029483795166,0.872215211391449,0.44267982244491577,-0.5203260183334351,0.3064408600330353,-0.14758113026618958,-0.9403796195983887,0.02092120051383972,0.2578258812427521,-0.40610170364379883,0.9668686965944019,0.043842908806563566,0.16699698414288747,0.1880287001578384,0.14812216778464643,0.3150179657241489,0.36058132676480237
1784547344743393024,3.3258228302001953,0.7379756569862366,0.19873718917369843,-0.5037987232208252,0.3099016547203064,-0.15330147743225098,-0.9383280873298645,-0.027339398860931396,0.2563135623931885,-0.240642249584198,0.967005032685781,0.046971082833114866,0.16920303450033994,0.1845680146748761,0.1539083890208346,0.3189910550710807,0.35238884972860296
1784547344753312000,3.3357419967651367,0.335576593875885,0.12480179965496063,-0.1907106637954712,0.3116007149219513,-0.15768013894557953,-0.9370389580726624,-0.2075510025024414,0.3575397729873657,-0.26604026556015015,0.9671459527517896,0.04944020216911093,0.17040009870753078,0.18206666010927225,0.15834095798630624,0.3210342471579332,0.3464583745875247
1784547344763232000,3.3456618785858154,-0.36458709836006165,0.593870997428894,-0.3605910539627075,0.31489837169647217,-0.15582308173179626,-0.9362468719482422,-0.31047332286834717,0.5444644689559937,-0.1313495635986328,0.9672472493596487,0.04849650653690817,0.17182740782092565,0.1804335531402555,0.1564606615482408,0.3244551759878353,0.34318908031251927
1784547344773152000,3.3555819988250732,0.0333777591586113,0.8244518637657166,-0.6764258742332458,0.322697252035141,-0.15254323184490204,-0.9341290593147278,-0.2966809868812561,0.5105449557304382,-0.06841915845870972,0.9671652126745705,0.04659449382763683,0.1753979333637761,0.1779213641109147,0.15314110729912436,0.3326178989653912,0.3381002035340145
1784547344783070976,3.3655009269714355,0.10518990457057953,0.4055696725845337,-0.9166485667228699,0.3303375840187073,-0.15048687160015106,-0.9317890405654907,-0.3475189805030823,0.5813950896263123,-0.16830861568450928,0.9674154896259715,0.0457427525950515,0.17892200442397146,0.1732105911566234,0.15106072975638787,0.3406955995671355,0.3283021748811612
1784547344792990976,3.3754208087921143,0.4632165729999542,0.3899350166320801,-0.34878191351890564,0.33391550183296204,-0.15090130269527435,-0.9304457306861877,-0.11701181530952454,0.5337748527526855,-0.15210431814193726,0.9677131439145442,0.04631408071270534,0.18064369312197917,0.16957085376472983,0.15147994980290827,0.3445610161915241,0.3205273302439163
1784547344802910976,3.385340929031372,-0.24545913934707642,0.08107654005289078,-0.6006426811218262,0.3382623791694641,-0.15173202753067017,-0.9287388920783997,-0.03555852174758911,0.21850448846817017,-0.30821484327316284,0.9677043098208213,0.04682479940464192,0.18286056627862424,0.16708606503234005,0.1523203522484723,0.34928361506000366,0.31502732545979256
1784547344812830976,3.395260810852051,-1.4648890495300293,-0.1142333447933197,-0.7717708349227905,0.3402230441570282,-0.14103201031684875,-0.9297086596488953,0.020082712173461914,-0.10243721306324005,-0.32149672508239746,0.9685055252463106,0.04189236023516257,0.18273118684665507,0.1638637620159744,0.14150376062613762,0.3508092665567895,0.31009148342241205
1784547344822749184,3.405179023742676,-1.9859085083007812,0.5217204689979553,-0.626623809337616,0.34387922286987305,-0.1233673095703125,-0.9308746457099915,0.20443010330200195,-0.458587646484375,-0.36363524198532104,0.9692185671828972,0.03317923822771798,0.18292573479859325,0.16140823712457145,0.12368240235049749,0.3538654360767196,0.3078979074246707
1784547344832668928,3.4150989055633545,-4.054497241973877,0.8055083751678467,-0.8366338014602661,0.350228875875473,-0.09396759420633316,-0.9319387674331665,0.19701233506202698,-0.8705404996871948,-0.5338205099105835,0.9697153988801078,0.0181485104328269,0.18357902603534812,0.1600667981885376,0.09410643382218305,0.3594777682490284,0.3100699041440258
1784547344842589184,3.4250190258026123,-6.505653381347656,0.6108299493789673,-0.9840104579925537,0.3575039505958557,-0.04130890592932701,-0.9329975843429565,0.2523593306541443,-0.7602810263633728,0.13989150524139404,0.9699493444373213,-0.008919608423915815,0.18281586380065507,0.16030349622583387,0.04132066504070427,0.36592087888479596,0.31993228633140997
1784547344852508160,3.4349379539489746,-7.095408916473389,0.3542833626270294,-0.8634689450263977,0.3615562915802002,0.02668934129178524,-0.9319682121276855,0.3099982738494873,-0.268449604511261,0.43610334396362305,0.9695451565986828,-0.04355032115563848,0.17921850609900664,0.16114034593482604,-0.02669251132713135,0.37007476831507585,0.3343896017948058
1784547344862427904,3.4448578357696533,-6.426173210144043,0.5218255519866943,-0.7073280811309814,0.3657248020172119,0.09107399731874466,-0.9262563586235046,0.6025521755218506,0.21851158142089844,0.03727930784225464,0.9677148728216578,-0.0767522169331128,0.1760139341363684,0.16326697161716278,-0.09120037379386967,0.3760518241564203,0.3516444882397683
1784547344872348160,3.454777956008911,-6.316824913024902,0.7884828448295593,-0.9325938820838928,0.3713621497154236,0.1524057537317276,-0.9158944487571716,0.42293408513069153,0.6579427719116211,-0.04943758249282837,0.9649421542532773,-0.10851106315548321,0.1740061127982651,0.16381046544910693,-0.15300200809760736,0.3852077704003577,0.36621236252292827
1784547344882267904,3.46469783782959,-5.081384181976318,0.4250130355358124,-1.160799264907837,0.3751552700996399,0.20812705159187317,-0.9032949209213257,0.4998142123222351,0.8021116256713867,0.06999719142913818,0.961829486141411,-0.13728293274773712,0.17177295138853443,0.16288507201700572,-0.2096596819492259,0.39364200384718756,0.37746952506439085
1784547344892187136,3.4746170043945312,-4.141146659851074,0.32169926166534424,-1.1881768703460693,0.37549710273742676,0.2528977692127228,-0.8916527628898621,0.41138339042663574,0.5986189842224121,-0.26607733964920044,0.9592647010917595,-0.16002917248752266,0.16900970086398898,0.16011774074253868,-0.2556742205088797,0.39858374960746606,0.3826955652882488
1784547344902106880,3.48453688621521,-4.2735490798950195,0.4645507037639618,-0.9951779246330261,0.3759259581565857,0.2934940457344055,-0.8789430856704712,0.3741350769996643,0.5430233478546143,0.011129975318908691,0.9563867763859989,-0.18089420897786546,0.1667505322895256,0.15746759599906718,-0.29787980872789444,0.40415727151205055,0.38783284204199026
1784547344912027136,3.4944570064544678,-4.334692001342773,0.4480457603931427,-1.1005759239196777,0.37654057145118713,0.33485880494117737,-0.863763153553009,0.257172167301178,0.5287123918533325,0.09803134202957153,0.9528206090731314,-0.20249963029953852,0.1646582167788055,0.15496594298014452,-0.34145538608755244,0.411092213584781,0.3943141014070426
1784547344921946112,3.50437593460083,-4.494913578033447,0.29145216941833496,-1.2958325147628784,0.3750717341899872,0.3768575191497803,-0.8469354510307312,0.23758390545845032,0.4326212406158447,0.0505487322807312,0.948907333402187,-0.2244463773828414,0.16172849579127868,0.1517979772669841,-0.3864013211803292,0.41689838309213445,0.3999720603742297
1784547344931865856,3.514295816421509,-4.317223072052002,0.42035314440727234,-1.133371114730835,0.3730418086051941,0.41827210783958435,-0.8281837105751038,0.13786819577217102,0.35066404938697815,0.06005626916885376,0.944480211585605,-0.24638793582225302,0.1587486283522666,0.14848929901614571,-0.43154220144602645,0.42321449713166587,0.4059849215022501
1784547344941786112,3.5242159366607666,-4.6119561195373535,0.6725302934646606,-1.2824552059173584,0.37225034832954407,0.4582260251045227,-0.8071298003196716,0.03801271319389343,0.27155601978302,0.0990152359008789,0.9394695422603754,-0.26804081650665273,0.1568094741781043,0.14478184402595462,-0.47599834123777984,0.4321308246597056,0.41221011590276097
1784547344951705856,3.5341358184814453,-5.231354236602783,0.9007675051689148,-1.2866449356079102,0.3720181882381439,0.502349317073822,-0.7805431485176086,-0.021798431873321533,0.3010106682777405,0.33095818758010864,0.9329823414922448,-0.2926360134368566,0.15521788044910773,0.14076719024520934,-0.5263136402299093,0.4447647994080988,0.42118483469109513
