time,seconds_elapsed,rotationRateX,rotationRateY,rotationRateZ,gravityX,gravityY,gravityZ,accelerationX,accelerationY,accelerationZ,quaternionW,quaternionX,quaternionY,quaternionZ,pitch,roll,yaw
1783423487501254656,0.1693553924560547,-0.05042358487844467,-0.01367606595158577,0.08133924007415771,0.15650460124015808,0.5853780508041382,-0.7955117225646973,-0.008280739188194275,0.012415528297424316,0.020136356353759766,0.6563992953973796,-0.15444201024683388,0.2799853625838314,-0.6832978682642084,-0.6253462775881499,0.19425368767762163,-1.5479721010187735
1783423487511173632,0.1792745590209961,-0.061690084636211395,-0.030866505578160286,0.09492189437150955,0.15631452202796936,0.5867604613304138,-0.7945300340652466,-0.004459068179130554,0.02938944101333618,0.018284916877746582,0.6564691172312619,-0.15516450239563861,0.28046205185368744,-0.6828714708562168,-0.6270524190193336,0.19425740014055642,-1.5470573775107614
1783423487521093632,0.1891944408416748,-0.027939314022660255,-0.03699371591210365,0.10887685418128967,0.1561107039451599,0.5885767936706543,-0.7932255864143372,-0.008054673671722412,0.022903919219970703,0.004514038562774658,0.6565178227481653,-0.15608157827045738,0.2811151808040365,-0.6823468386329334,-0.6292972679609878,0.19432150136443715,-1.5459525575743367
1783423487531013632,0.19911456108093262,0.0073164114728569984,-0.05002669245004654,0.11036475747823715,0.15573249757289886,0.5902636051177979,-0.7920456528663635,-0.010026320815086365,0.01769232749938965,0.0017319321632385254,0.6565953159953296,-0.15701591719215707,0.2816437165177973,-0.6818397530543292,-0.6313853532439394,0.1941440511923526,-1.5449252156586892
1783423487540931584,0.20903253555297852,0.023056158795952797,-0.055230431258678436,0.11755393445491791,0.1552032232284546,0.5916454792022705,-0.7911179065704346,-0.008642569184303284,0.008635222911834717,-0.006443679332733154,0.6567213516883429,-0.15788697494810985,0.2819800477095417,-0.6813779631457877,-0.6330983477357132,0.19372188479680602,-1.544011185793229
1783423487550851584,0.21895241737365723,0.007013809867203236,-0.06282230466604233,0.10031582415103912,0.15461337566375732,0.592800498008728,-0.7903684377670288,-0.00707612931728363,0.005801796913146973,0.0036557912826538086,0.6568916921928475,-0.15869556107000587,0.2821905493703574,-0.680938623583985,-0.6345317566363977,0.19318233573326918,-1.5431319787870055
1783423487560771584,0.22887253761291504,-0.01581074483692646,-0.09712069481611252,0.08317029476165771,0.15372812747955322,0.5939083099365234,-0.7897091507911682,0.006000876426696777,-0.014288008213043213,0.007131695747375488,0.657033635376937,-0.1595771067372885,0.28227746108040447,-0.680559554954852,-0.6359080309115732,0.1922597834406662,-1.542518157642185
1783423487570690560,0.23879146575927734,-0.07171129435300827,-0.1000475138425827,0.12251104414463043,0.15308059751987457,0.5949916243553162,-0.7890191674232483,0.007762283086776733,-0.015920639038085938,0.015902161598205566,0.6573004995972372,-0.1604153447918836,0.28241340223620837,-0.6800482091302781,-0.637255233992953,0.19163302397560786,-1.5414257153653759
1783423487580610560,0.24871134757995605,-0.1040574461221695,-0.10160017758607864,0.12450046092271805,0.15282325446605682,0.5961658954620361,-0.7881823182106018,-0.003928005695343018,-0.008427858352661133,0.01608753204345703,0.6576640788131916,-0.16119746086688752,0.28270874169192994,-0.6793888416229168,-0.638717033650396,0.1915168850607176,-1.539786801295527
1783423487590530560,0.25863146781921387,-0.08887050300836563,-0.12097866088151932,0.10027208179235458,0.1524539440870285,0.5973241925239563,-0.7873764038085938,-0.009692743420600891,0.010067164897918701,0.01331329345703125,0.6580198061888852,-0.16201028402469778,0.282956624616615,-0.6787475899786963,-0.6401605441447896,0.1912560833650668,-1.5382360194726106
1783423487600449536,0.26855039596557617,-0.05661270394921303,-0.14144986867904663,0.04536222666501999,0.15162238478660583,0.5983408093452454,-0.7867648601531982,-0.008449181914329529,0.01848047971725464,0.013525724411010742,0.6582764403071681,-0.16288220569180073,0.28299637169465786,-0.67827329583794,-0.6414287185889577,0.19038225724035635,-1.5373052363067916
1783423487610369792,0.278470516204834,-0.021685611456632614,-0.15232035517692566,0.054131217300891876,0.15047959983348846,0.599197506904602,-0.7863321900367737,-0.00027211010456085205,0.034698426723480225,0.015610754489898682,0.6584800500265784,-0.16376965698035395,0.2828664093473145,-0.6779160914796832,-0.6424983420952995,0.18908291365132177,-1.5367921504974067
1783423487620289536,0.2883903980255127,0.039674147963523865,-0.16293464601039886,0.0864446833729744,0.14947041869163513,0.5997605919837952,-0.7860952615737915,0.005101114511489868,0.04368722438812256,0.007073104381561279,0.6588072391505925,-0.16452585985877585,0.2826368737407329,-0.6775105684855449,-0.6432018836284524,0.1878998435749034,-1.5360204366751213
1783423487630209792,0.2983105182647705,0.08903904259204865,-0.1747545599937439,0.09231188893318176,0.14851582050323486,0.5999414920806885,-0.7861382365226746,0.0012949854135513306,0.0466955304145813,0.01209038496017456,0.6592426648803227,-0.16513084360838995,0.28224579929583105,-0.6771028452888226,-0.6434279387218061,0.18671763071417632,-1.535131872099509
1783423487640128512,0.3082294464111328,0.12567108869552612,-0.1872948408126831,0.10706686973571777,0.14757131040096283,0.5998378992080688,-0.7863950729370117,-0.00032398104667663574,0.029724478721618652,0.02511882781982422,0.6597618704418104,-0.16563519121279702,0.28172229633818147,-0.6766918075267921,-0.6432985079226268,0.18549809813615034,-1.5341607441588072
1783423487650048768,0.3181495666503906,0.14206470549106598,-0.19299347698688507,0.09043622761964798,0.14657722413539886,0.5995503664016724,-0.78680020570755,-0.011063918471336365,0.017774462699890137,0.04255276918411255,0.6603118348764745,-0.16608417988459456,0.28109776454683677,-0.6763050234059088,-0.6429391766634728,0.18418397810018686,-1.5332344206369246
1783423487659968512,0.32806944847106934,0.14265885949134827,-0.19435462355613708,0.08373917639255524,0.14543898403644562,0.5992492437362671,-0.7872406840324402,-0.015327319502830505,0.00472414493560791,0.056970298290252686,0.6608222872410421,-0.1665611748297925,0.2804229331935867,-0.6759692658219867,-0.6425629906480181,0.1826854314172308,-1.5325065824039719
1783423487669887488,0.33798837661743164,0.11720623075962067,-0.19145044684410095,0.08283796161413193,0.1442691534757614,0.5990061163902283,-0.7876408696174622,-0.014966174960136414,-0.0028299689292907715,0.06611377000808716,0.661312201094161,-0.16706726579517248,0.27976433876938894,-0.6756380232587433,-0.6422593020011594,0.18115802037521336,-1.5318182525335244
1783423487679807744,0.34790849685668945,0.05384057015180588,-0.17610317468643188,0.08393092453479767,0.14316700398921967,0.5991684794425964,-0.7877184748649597,-0.02883288264274597,-0.00021523237228393555,0.08351010084152222,0.6617424924032671,-0.167712307408488,0.2793087016042094,-0.6752452373699618,-0.6424620905044927,0.17978647720305474,-1.5310256787370382
1783423487689727488,0.35782837867736816,0.04180235043168068,-0.1604163944721222,0.08810493350028992,0.14221316576004028,0.5994383096694946,-0.7876859307289124,-0.03955204784870148,0.011874556541442871,0.08803993463516235,0.6621692383131177,-0.16835290445598594,0.2789522255673165,-0.6748145897632357,-0.6427991589386595,0.1786213010295409,-1.5301000732382157
1783423487699646720,0.36774754524230957,0.07122528553009033,-0.15189965069293976,0.08775915205478668,0.1413334608078003,0.5995098352432251,-0.7877898216247559,-0.04274642467498779,0.0363239049911499,0.08260488510131836,0.662606030028967,-0.16887898988807276,0.2785408154839315,-0.6744242797734624,-0.6428885642472856,0.17751659609252726,-1.5292239919635007
1783423487709566720,0.3776674270629883,0.12497560679912567,-0.14107123017311096,0.080477274954319,0.14047525823116302,0.5992304086685181,-0.7881558537483215,-0.04616069793701172,0.04424792528152466,0.07575350999832153,0.6630567768457313,-0.16923974694070248,0.2779927904589396,-0.6741169235302727,-0.6425394698972213,0.1763807110736311,-1.5285034903146735
1783423487719486720,0.3875875473022461,0.16065023839473724,-0.12811806797981262,0.06818891316652298,0.13961490988731384,0.5986047387123108,-0.7887839078903198,-0.05366215109825134,0.04690307378768921,0.07796847820281982,0.663491437558736,-0.1694332685730798,0.27730921971959765,-0.6739221798096077,-0.6417581390656927,0.1751857657910043,-1.528035956805087
1783423487729405696,0.3975064754486084,0.18183328211307526,-0.10895023494958878,0.06317311525344849,0.1388091742992401,0.5977882146835327,-0.7895449995994568,-0.061843857169151306,0.039876580238342285,0.08161348104476929,0.6638928599848436,-0.16950475458252326,0.2765784500984275,-0.6738092562049268,-0.64073925582712,0.17403058623990858,-1.5277489573934577
1783423487739325440,0.4074263572692871,0.1561722755432129,-0.09693298488855362,0.05040651932358742,0.1380651891231537,0.5969500541687012,-0.7903092503547668,-0.05417238175868988,0.04259157180786133,0.07940226793289185,0.6642512718964951,-0.16952645444870118,0.27587343554659627,-0.6737395892664597,-0.6396940799970071,0.1729523142480651,-1.5275665865861576
1783423487749245696,0.4173464775085449,0.09293285012245178,-0.10886740684509277,0.02557786926627159,0.13715225458145142,0.5965114831924438,-0.7907991409301758,-0.055914461612701416,0.04679906368255615,0.10007953643798828,0.664490862323657,-0.1697449084730013,0.27529455925737206,-0.6736849691411954,-0.6391475706758506,0.17172677022107,-1.5275854446020245
1783423487759164672,0.4272654056549072,0.04718573018908501,-0.12297752499580383,0.01499240379780531,0.1360996663570404,0.5965337753295898,-0.7909641265869141,-0.033545345067977905,0.01151365041732788,0.11681556701660156,0.6646663570411272,-0.17020045323055163,0.27486312005029856,-0.6735730338668406,-0.6391753645302528,0.1703994404969001,-1.5275946618344134
1783423487769084672,0.43718552589416504,0.04342241585254669,-0.15660685300827026,-0.10842113941907883,0.13450820744037628,0.5967875719070435,-0.7910449504852295,-0.03349502384662628,0.022856533527374268,0.12907296419143677,0.6646474094052294,-0.1708754780596089,0.2743703460914295,-0.6736217507689072,-0.6394915684880397,0.16842770114257127,-1.528322629943423
1783423487779004672,0.44710540771484375,0.15522877871990204,-0.18862661719322205,-0.08064800500869751,0.1322198510169983,0.5967320203781128,-0.7914725542068481,-0.0352960079908371,0.07399857044219971,0.14334022998809814,0.6644902024746855,-0.17159902379699005,0.2735278695680689,-0.6739354555157664,-0.6394223347268352,0.16552698058669987,-1.529997496535153
1783423487788923392,0.45702433586120605,0.3171606957912445,-0.2020135372877121,-0.10689239203929901,0.13002145290374756,0.5955297946929932,-0.7927412390708923,-0.07730230689048767,0.12795037031173706,0.17083877325057983,0.6645830591629001,-0.17186178317705295,0.27220014100186357,-0.6743144253552957,-0.6379250178591177,0.16256756621943458,-1.5315408020967753
1783423487798843648,0.46694445610046387,0.6667028069496155,-0.23688259720802307,-0.2609919011592865,0.12695904076099396,0.5925518274307251,-0.7954644560813904,-0.11284466087818146,0.2020801305770874,0.19829654693603516,0.6645552257054874,-0.1715664814208153,0.26987534400404023,-0.6753507476206321,-0.6342230491499188,0.15826878464593575,-1.5348712097468236
1783423487808763392,0.4768643379211426,1.1277213096618652,-0.28093022108078003,-0.3445137143135071,0.12284243106842041,0.5864787697792053,-0.8005950450897217,-0.10514224320650101,0.2603687644004822,0.23243403434753418,0.6645145779750324,-0.17023484493540958,0.2659371504362244,-0.677287294482538,-0.6267045858795953,0.15225147411821802,-1.5404149794141104
1783423487818683648,0.4867844581604004,1.6599253416061401,-0.306414395570755,-0.42537108063697815,0.11798004060983658,0.5766142010688782,-0.808453381061554,-0.10885529220104218,0.2912752032279968,0.2751433849334717,0.664641002295519,-0.167550963767965,0.2601922280234813,-0.680058176560577,-0.6145784807134361,0.14491010829186698,-1.54766731755686
1783423487828602624,0.4967033863067627,2.040229320526123,-0.3153820335865021,-0.6014012098312378,0.11220847070217133,0.5628616213798523,-0.8188992738723755,-0.12436973303556442,0.33368372917175293,0.34619730710983276,0.6647074475016037,-0.16350964677327762,0.25261620350012937,-0.6838228814958593,-0.597843880724524,0.13617549813320143,-1.5571225504986996
1783423487838522624,0.5066235065460205,2.0590739250183105,-0.29146987199783325,-0.6602514386177063,0.10578887164592743,0.5477616786956787,-0.8299192190170288,-0.13609284162521362,0.3466475009918213,0.5068143606185913,0.6643717294993998,-0.1590874838586843,0.2444004348002839,-0.688164147333774,-0.5796865100468946,0.12678515194388795,-1.56811587284024
1783423487848442624,0.5165433883666992,1.9175255298614502,-0.19846642017364502,-0.6651120185852051,0.09984858334064484,0.5327422618865967,-0.8403666019439697,-0.16057857871055603,0.20030522346496582,0.5747110843658447,0.663831569299621,-0.15459376411996567,0.23646876864031027,-0.6924673924214247,-0.561837658029667,0.11826109027769341,-1.5788559939651372
1783423487858361600,0.5264625549316406,1.5284712314605713,-0.04300663620233536,-0.7851030826568604,0.09474791586399078,0.5198328495025635,-0.8489974737167358,-0.19667664170265198,0.08565115928649902,0.6016219854354858,0.662663631498399,-0.15060292309361292,0.22982607522694562,-0.6966891507022048,-0.546655246569362,0.11113988995416554,-1.5896604057719887
1783423487868281600,0.5363824367523193,1.0796253681182861,0.13131190836429596,-0.9458740949630737,0.09044191986322403,0.510370671749115,-0.8551853895187378,-0.20531007647514343,0.05409771203994751,0.5591953992843628,0.6604452252890322,-0.1475172656929732,0.22504660112078956,-0.7010026362792681,-0.5356157683043162,0.10536543989774878,-1.601421434003675
1783423487878201600,0.5463025569915771,0.7227023839950562,0.27850136160850525,-1.04172682762146,0.08693008869886398,0.5043713450431824,-0.8590999245643616,-0.1771095246076584,0.09029418230056763,0.47897303104400635,0.6572871301846812,-0.1453393259489971,0.22209571281348708,-0.7053535486796841,-0.5286537567696544,0.100844155639997,-1.6140001109168867
1783423487888120576,0.5562214851379395,0.6463831067085266,0.38852933049201965,-1.152388095855713,0.08406584709882736,0.5002815127372742,-0.8617722392082214,-0.14333099126815796,0.15903544425964355,0.37278908491134644,0.6534569154281262,-0.14353994606855788,0.2202502645598325,-0.7098451464825011,-0.5239238582567735,0.0972422914699285,-1.6273801614165229
1783423487898040576,0.5661413669586182,0.8438845276832581,0.4298948645591736,-1.2339222431182861,0.08140984922647476,0.49568045139312744,-0.86468106508255,-0.10532037168741226,0.2507031559944153,0.27831631898880005,0.6491931480272546,-0.1413665212396973,0.21834602140387097,-0.7147648222686538,-0.5186181458189815,0.09387342918021069,-1.641951505895348
1783423487907960576,0.576061487197876,1.3682866096496582,0.4600951373577118,-1.2343709468841553,0.07893416285514832,0.4879637658596039,-0.8692874908447266,-0.07315108180046082,0.31498420238494873,0.20508772134780884,0.6500009491280749,-0.13945869533375607,0.21426042369313703,-0.7156412587422394,-0.5097554095182818,0.09055495396148039,-1.6432447268090855
1783423487917879552,0.5859804153442383,1.857439637184143,0.46149957180023193,-1.2541303634643555,0.07676871120929718,0.47534021735191345,-0.8764463663101196,-0.06881885975599289,0.33642736077308655,0.16894209384918213,0.6452437107459168,-0.13389747069644004,0.2093998237588636,-0.7224151707745499,-0.4953506926190108,0.08736790416737569,-1.6614229941289727
1783423487927799808,0.5959005355834961,1.764195442199707,0.4368690550327301,-1.327096700668335,0.07438118755817413,0.46097710728645325,-0.8842893242835999,-0.07085641473531723,0.26505133509635925,0.29111915826797485,0.6402476587159286,-0.12783361145216995,0.20374964966588696,-0.7295392999843424,-0.4790959446701977,0.08391654935182964,-1.6804782758897634
1783423487937719552,0.6058204174041748,1.360679268836975,0.4593639373779297,-1.3910843133926392,0.07186156511306763,0.44868022203445435,-0.8907985091209412,-0.06813842803239822,0.010014235973358154,0.36372941732406616,0.6356440152282261,-0.12287262793749455,0.19875377780851095,-0.735768968034615,-0.4652880242745543,0.08049663737417292,-1.6974728520055782
1783423487947638528,0.6157393455505371,0.6714324355125427,0.5415591597557068,-1.453787922859192,0.06970112025737762,0.44124048948287964,-0.8946779370307922,-0.061720773577690125,-0.21254175901412964,0.40563374757766724,0.6309384098169137,-0.11967144330883445,0.19580548100652384,-0.7411178210398319,-0.4569805294249918,0.07774933765664396,-1.7129678368272816
1783423487957558528,0.6256594657897949,0.23119677603244781,0.682142436504364,-1.469330906867981,0.06846146285533905,0.43907037377357483,-0.8958405256271362,-0.05408768355846405,-0.34164300560951233,0.32114875316619873,0.6251346735600471,-0.11782523750853545,0.19544041867430742,-0.7464092703026315,-0.4545637029501274,0.07627323444065688,-1.7295329735579046
1783423487967478528,0.6355793476104736,0.218632772564888,0.8087347149848938,-1.4716041088104248,0.06846757978200912,0.4386279582977295,-0.8960567712783813,-0.05867142975330353,-0.273268461227417,0.18649256229400635,0.6190780693213118,-0.1160781299060908,0.19620777879931417,-0.7515123144771099,-0.4540713708145,0.07626168080504564,-1.7458237104616985
1783423487977398528,0.6454994678497314,0.5666953325271606,0.8887120485305786,-1.4396100044250488,0.06946834176778793,0.4368218779563904,-0.8968616127967834,-0.05768856406211853,-0.013741463422775269,0.06344187259674072,0.612658585807854,-0.11336288995657545,0.1967690008607553,-0.7570206453708752,-0.4520626199900374,0.07730279378745031,-1.7630327764983926
1783423487987317504,0.6554183959960938,1.4205892086029053,0.9050813913345337,-1.298297643661499,0.07134333997964859,0.42952415347099304,-0.9002327919006348,-0.04111567884683609,0.19263768196105957,-0.10803741216659546,0.6072253064414784,-0.10862839407905082,0.19514985352988481,-0.7624917853405715,-0.4439657666740923,0.07908459221043361,-1.7786873474108262
1783423487997237760,0.6653385162353516,2.6178019046783447,0.8393759727478027,-1.1067947149276733,0.07398264110088348,0.41271623969078064,-0.9078501462936401,-0.003685407340526581,0.23529401421546936,-0.23651325702667236,0.6036846941943937,-0.10081917698161336,0.18950044456096288,-0.7677824758591895,-0.4254341046741354,0.08131244852943459,-1.7913951875580127
1783423488007157504,0.6752583980560303,3.121431589126587,0.6346872448921204,-1.0139830112457275,0.07623656839132309,0.38721179962158203,-0.9188334941864014,0.05984131991863251,0.11475658416748047,-0.17505383491516113,0.6008294479228415,-0.09050991554736394,0.1799755790225693,-0.7735764921507641,-0.3976055562800374,0.08278142546845701,-1.8041752922973253
1783423488017076736,0.6851775646209717,2.7087345123291016,0.42074641585350037,-0.9180023670196533,0.07712428271770477,0.3613129258155823,-0.9292495846748352,0.13988620042800903,-0.25407418608665466,0.06119239330291748,0.5982585821520542,-0.08090458437612957,0.16979294880604623,-0.7789169083560841,-0.3696755521840539,0.08280651479742195,-1.8161764448224997
1783423488026996736,0.6950974464416504,1.9828660488128662,0.34138235449790955,-0.8237826228141785,0.07731810957193375,0.3405511975288391,-0.9370415210723877,0.18894776701927185,-0.7065637707710266,0.1722710132598877,0.5956794365148135,-0.07345726310626817,0.16150317560467134,-0.7833815890061334,-0.3475030676598158,0.08232650111797218,-1.8268930694943657
1783423488036916736,0.7050175666809082,1.1099283695220947,0.45363205671310425,-0.8729123473167419,0.07796568423509598,0.3270604908466339,-0.9417816996574402,0.15981203317642212,-0.900012731552124,0.19039314985275269,0.5922934275392012,-0.06814443483355442,0.1564144620791477,-0.7874511612525112,-0.33319132459362855,0.08259695992710708,-1.8379250285766766
1783423488046835712,0.7149364948272705,0.5970253348350525,0.5518528819084167,-0.9019607901573181,0.0797606110572815,0.32038867473602295,-0.9439223408699036,0.0967683270573616,-0.697921633720398,0.10938864946365356,0.5889989310670674,-0.06463745868996226,0.15446954250255815,-0.7905956194587056,-0.32613976297646907,0.08429886871886673,-1.847119613662967
1783423488056755456,0.7248563766479492,0.6973795890808105,-0.08402848988771439,-0.7025890946388245,0.08025054633617401,0.31524327397346497,-0.9456117153167725,0.11922759562730789,-0.27970555424690247,-0.534109354019165,0.5854607123468297,-0.06212110216536236,0.1527583242615645,-0.7937516241255318,-0.32071297888296507,0.08466340559724087,-1.8568723927820565
1783423488066675712,0.734776496887207,0.19195769727230072,-0.05984831601381302,-0.3593161404132843,0.08063261210918427,0.3104497194290161,-0.9471638202667236,0.31881195306777954,-0.0161687433719635,-1.0551249980926514,0.5833961552623498,-0.06006229334372011,0.15103177641924245,-0.7957580312548279,-0.3156660918249373,0.08492581969635643,-1.862831622066703
1783423488076594688,0.7446954250335693,1.7655771970748901,-0.1432645618915558,-0.806561291217804,0.07783020287752151,0.3028607666492462,-0.9498514533042908,0.15816223621368408,0.18468806147575378,-0.5469899773597717,0.5814239924212894,-0.0584550681593681,0.14716409042833004,-0.7980425593370978,-0.3076929789104374,0.08175669237679496,-1.8696287641358043
1783423488086514688,0.7546155452728271,2.905822992324829,-0.423095703125,-1.0622810125350952,0.07219754159450531,0.28122779726982117,-0.9569213390350342,0.169638991355896,0.35224083065986633,-0.2928955554962158,0.5787602532492592,-0.053577943933339534,0.136633571044361,-0.8021828877072226,-0.28507330022512845,0.07530505605742945,-1.8807844171561456
1783423488096434688,0.7645354270935059,4.349247932434082,-0.5007866621017456,-1.0779114961624146,0.06484092772006989,0.24798904359340668,-0.9665904641151428,0.013635016977787018,0.5841947793960571,0.04033619165420532,0.5759621057161971,-0.04601519428666645,0.12077821598422235,-0.8071945145915775,-0.2506039030192202,0.06698175698039102,-1.893647145529357
1783423488106353408,0.7744543552398682,5.947737216949463,-0.41736900806427,-0.876382052898407,0.058007750660181046,0.1989167481660843,-0.9782981276512146,-0.08025506138801575,0.6117369532585144,-0.1513710618019104,0.5734055303338359,-0.03382785116440367,0.09852214375023259,-0.812622342760091,-0.20025245218442,0.05922520774897666,-1.9066604467079478
1783423488116273664,0.784374475479126,7.034169673919678,-0.3892768621444702,-1.015200138092041,0.052549269050359726,0.13594718277454376,-0.9893214702606201,-0.09202376008033752,0.43564707040786743,-0.07378888130187988,0.570995078484294,-0.017420956399421067,0.07096325184209416,-0.8176952025865114,-0.13636945778144371,0.05306660771212486,-1.9188021584759414
1783423488126193408,0.7942943572998047,7.491556644439697,-0.5209015011787415,-1.418230652809143,0.04667351022362709,0.06500869989395142,-0.9967925548553467,0.03589178994297981,0.2908567786216736,0.09095460176467896,0.5665023278030433,0.0007956555385363756,0.040038425611906535,-0.8230865989530476,-0.06505457821713914,0.04678951784204589,-1.9344557408729088
1783423488136113664,0.8042144775390625,7.644171237945557,-0.5776301026344299,-1.4169622659683228,0.04059698060154915,-0.009119434282183647,-0.9991340041160583,0.24075983464717865,0.1213325709104538,0.15636056661605835,0.5605959497569685,0.01936820389914373,0.007607884524257529,-0.8278279668481269,0.009119560570679926,0.04060982950888526,-1.9512739709451692
1783423488146032640,0.8141334056854248,7.634443759918213,-0.5396366715431213,-1.3571255207061768,0.03555461764335632,-0.08389747887849808,-0.9958398938179016,0.2652266323566437,-0.0008498355746269226,0.2149103283882141,0.5539679102653875,0.03809555378344543,-0.02507557762320783,-0.831287912471891,0.08399621359736753,0.03568798631048758,-1.9674606016977707
1783423488155952640,0.8240535259246826,7.699483394622803,-0.5477792024612427,-1.491101861000061,0.031854137778282166,-0.15852801501750946,-0.9868404865264893,0.22269296646118164,0.0036360621452331543,0.22524386644363403,0.5465073022616233,0.056968679958996286,-0.05774355064486467,-0.8335166209736077,0.15919963917586075,0.03226770954186344,-1.9834727001860686
1783423488165872640,0.8339734077453613,7.741313457489014,-0.5082547068595886,-1.6302193403244019,0.02963765524327755,-0.23277278244495392,-0.9720794558525085,0.1970011442899704,0.14112849533557892,0.27742308378219604,0.5374165285948151,0.07598240997299703,-0.09048177861900822,-0.8349989340541404,0.23492781442643199,0.030479481714995763,-2.0014448855521896
1783423488175791616,0.8438923358917236,7.969777584075928,-0.42000991106033325,-1.70780611038208,0.02980673685669899,-0.3067471385002136,-0.9513242244720459,0.1556028127670288,0.23725861310958862,0.3235776424407959,0.5267551285486529,0.09556919382985399,-0.12330621509331986,-0.8355783496412815,0.31177351469343456,0.031321591401627,-2.0215583629994636
1783423488185711616,0.8538124561309814,8.207008361816406,-0.28447791934013367,-1.6761244535446167,0.032291170209646225,-0.38125401735305786,-0.9239062070846558,0.16865181922912598,0.27815037965774536,0.41014277935028076,0.5150484779277016,0.11607470973468274,-0.15675957832094112,-0.8346724986444591,0.39115239497964543,0.03493648274601951,-2.042766543804703
1783423488195631616,0.8637323379516602,8.661499977111816,-0.3054717481136322,-1.7879794836044312,0.03671369329094887,-0.4565127193927765,-0.8889591097831726,0.18914692103862762,0.244522362947464,0.4618503451347351,0.5019678206831931,0.1374866831373494,-0.19135794962941574,-0.8321706294897473,0.47407169146510114,0.0412761861511814,-2.0660228356155748
1783423488205550592,0.8736515045166016,8.849929809570312,-0.2617652714252472,-1.8784087896347046,0.043303027749061584,-0.5311661958694458,-0.846160352230072,0.2258315086364746,0.2310105562210083,0.546081006526947,0.4875264351544987,0.1596868674820023,-0.2267596089958325,-0.8278878562502107,0.559976387120988,0.051131306677650264,-2.0918925982846917
1783423488215470592,0.8835713863372803,8.841971397399902,-0.30994120240211487,-1.9082077741622925,0.05146070942282677,-0.6023485660552979,-0.7965726852416992,0.24559739232063293,0.16005730628967285,0.6210050582885742,0.4716795191688988,0.18169037872354246,-0.2621111908351803,-0.8220734388503779,0.6464400482460985,0.06451300530317962,-2.121393036901564
1783423488225390592,0.8934915065765381,8.246548652648926,-0.3294627070426941,-1.9063786268234253,0.06103527545928955,-0.6664141416549683,-0.7430793642997742,0.18197619915008545,0.14077937602996826,0.6812201738357544,0.45474156913659114,0.20240593516094252,-0.29579075220526696,-0.8153218851696931,0.7293888974342303,0.08195432625805797,-2.155355709012683
1783423488235309568,0.9034104347229004,7.8280029296875,-0.29451248049736023,-1.8456569910049438,0.07159402221441269,-0.722180962562561,-0.6879890561103821,0.2104494422674179,-0.014818549156188965,0.5647743940353394,0.437935572979389,0.2216173012702923,-0.3269422542939729,-0.8075933364358961,0.8069501922645151,0.10368952398298653,-2.192107824442712
1783423488245229824,0.9133305549621582,6.85917854309082,-0.27629753947257996,-1.992253065109253,0.08398468792438507,-0.769004762172699,-0.6337019205093384,0.12550321221351624,-0.11200714111328125,0.5609022974967957,0.42098837311447257,0.2392785878880936,-0.35481654973989213,-0.7997622626993546,0.8772828180007272,0.13176240653010735,-2.2343999737536793
1783423488255149568,0.9232504367828369,5.988912105560303,-0.20845578610897064,-2.0122506618499756,0.09814286231994629,-0.8058534860610962,-0.5839247703552246,0.08845686167478561,-0.2147763967514038,0.4455885887145996,0.40477175299085144,0.2550430882000069,-0.3781410443843052,-0.7925415564198592,0.9371154322659608,0.1665181566303043,-2.2816378724210984
1783423488265068544,0.9331693649291992,5.344175338745117,-0.12282823026180267,-2.0630264282226562,0.11377572268247604,-0.8351386189460754,-0.5381436944007874,0.04253532737493515,-0.20485466718673706,0.37102943658828735,0.3888103550317262,0.2692502928825092,-0.39803571584924624,-0.7860651368935732,0.9883847241689299,0.2083542830151066,-2.3354572116142256
1783423488274988544,0.943089485168457,5.153154373168945,-0.10223419964313507,-2.1447627544403076,0.13079215586185455,-0.8593350052833557,-0.4944054186344147,0.024038732051849365,-0.11255824565887451,0.21709218621253967,0.37326222262652436,0.2828760103296499,-0.41566627905484527,-0.7796652692881675,1.0339678896318538,0.2586199387202801,-2.3961892668350555
1783423488284908544,0.9530093669891357,5.163188934326172,0.042639899998903275,-2.2849860191345215,0.14973776042461395,-0.8803300261497498,-0.4501083791255951,-0.02525658905506134,0.013035774230957031,0.1613815724849701,0.35680751563474467,0.29644431571538854,-0.4325119379101748,-0.7731380785999524,1.0765574592675498,0.32115383896187966,-2.469655449936867
1783423488294828544,0.9629294872283936,5.588465213775635,0.007871531881392002,-2.172541856765747,0.16958306729793549,-0.8994010090827942,-0.40288883447647095,-0.01505732536315918,0.10069495439529419,-0.011005818843841553,0.3402481887672385,0.3106450974649222,-0.44950550468703343,-0.7652944388357965,1.1183972342317714,0.39840786063350425,-2.556244512632617
1783423488304747520,0.9728484153747559,5.882954120635986,0.0015734224580228329,-2.083897829055786,0.18867096304893494,-0.917155921459198,-0.3510388731956482,-0.0059622228145599365,0.1901203989982605,-0.0026140809059143066,0.3232227257221841,0.3249497770378373,-0.4678548986876396,-0.7556762124836516,1.1608844374319758,0.4931681807671705,-2.6604252625203886
1783423488314667776,0.9827685356140137,5.822171688079834,0.010280475951731205,-2.124370574951172,0.20801986753940582,-0.9318910837173462,-0.2971647381782532,-0.05697309970855713,0.1509615182876587,0.020355045795440674,0.3057414411929173,0.3391269916300942,-0.4862206443807842,-0.7450534514996541,1.199591786284812,0.6107362498529995,-2.7874101651925196
1783423488324587520,0.9926884174346924,5.4690446853637695,-0.013456013053655624,-2.1217386722564697,0.22786839306354523,-0.9424731135368347,-0.24458186328411102,-0.07380041480064392,0.023527860641479492,0.08230467140674591,0.2882581398296062,0.352728600637956,-0.5032808391344489,-0.7343010780458589,1.2299530428504837,0.7500367487104305,-2.935844975393189
1783423488334506496,1.0026073455810547,4.604939937591553,-0.12465231120586395,-2.092053174972534,0.24749140441417694,-0.9485757350921631,-0.19736208021640778,-0.08966980874538422,-0.07620441913604736,0.14827457070350647,0.27139656929871775,0.3647761347284007,-0.5179356445977191,-0.7245859483520064,1.2487058915853881,0.8976120617059808,-3.0928000324266645
1783423488344426752,1.0125274658203125,3.6508891582489014,-0.17485901713371277,-2.0251224040985107,0.2666366994380951,-0.9505990147590637,-0.15895366668701172,-0.19134989380836487,-0.1041189432144165,0.1554136425256729,0.2561078847041478,0.3749905051752246,-0.5290607609841421,-0.7168581065053883,1.2551599964855105,1.0332175139959723,3.046094892850092
1783423488354346496,1.0224473476409912,3.2695767879486084,-0.1627006232738495,-1.9483741521835327,0.28510668873786926,-0.9499742984771729,-0.12752661108970642,-0.26417163014411926,-0.06999945640563965,0.11411416530609131,0.24216880012929187,0.3837462386824562,-0.5375644321713309,-0.7107162434228403,1.2531535379405228,1.1501947168630717,2.9209666101020875
1783423488364265728,1.0323665142059326,3.199270725250244,-0.24633213877677917,-1.8952268362045288,0.3028973937034607,-0.947981059551239,-0.09790367633104324,-0.3167371153831482,0.041303813457489014,0.047900617122650146,0.22866893898455695,0.3918727723740227,-0.5454208409488864,-0.7047427569317438,1.2468323730528228,1.2581716911154797,2.804897194669246
1783423488374185472,1.0422863960266113,3.3385465145111084,-0.2254880666732788,-1.8957240581512451,0.32043561339378357,-0.9448220133781433,-0.06806112080812454,-0.33679309487342834,0.14636015892028809,-0.0011222288012504578,0.2150491481652218,0.3997715460454825,-0.5533101772785551,-0.6984156242790808,1.237050824773278,1.3615048504671308,2.693218574066471
1783423488384105728,1.0522065162658691,3.434492588043213,-0.263166218996048,-1.975038766860962,0.338287353515625,-0.9403138160705566,-0.03703544661402702,-0.330078125,0.18282175064086914,0.035356998443603516,0.20095133014324465,0.4077721987838017,-0.5614304152892098,-0.691473988511859,1.2235512044439512,1.461751356493382,2.584368489717152
1783423488394024704,1.0621254444122314,3.1649856567382812,-0.3288319408893585,-2.090210437774658,0.35713711380958557,-0.9340242743492126,-0.007212125696241856,-0.3257497251033783,0.1895325779914856,0.07134485244750977,0.18636921493865713,0.4156227887385328,-0.5689038887451858,-0.684742822499965,1.205517771241285,1.5506047937943799,2.486341719435585
1783423488403944704,1.0720455646514893,2.647512197494507,-0.3249990940093994,-2.115189790725708,0.37655600905418396,-0.9262082576751709,0.01854573003947735,-0.34196433424949646,0.1201169490814209,0.1450132131576538,0.1722690726212312,0.42308764526469395,-0.574690968714423,-0.6790070401893149,1.184227910604665,1.62000748230512,2.4082870687678857
1783423488413864704,1.081965446472168,1.9892628192901611,-0.42419305443763733,-2.1180291175842285,0.3960022032260895,-0.9174460768699646,0.038407325744628906,-0.356466680765152,-0.0220528244972229,0.1690359115600586,0.1592042402688488,0.42981973894164627,-0.5783240058723975,-0.6748706856022046,1.1616130909099982,1.667481581567419,2.3528626359850735
1783423488423783424,1.0918843746185303,1.2894480228424072,-0.4658867120742798,-2.083853244781494,0.41516363620758057,-0.9082883596420288,0.051493313163518906,-0.3424402177333832,-0.1357637643814087,0.09779870510101318,0.14740864299359704,0.4356001999439914,-0.579654312778781,-0.6726991131616796,1.1391742387762132,1.6941974795261423,2.318783133390727
1783423488433703680,1.101804494857788,0.7294909358024597,-0.5095072388648987,-1.9443938732147217,0.43348637223243713,-0.899277925491333,0.058212488889694214,-0.314422070980072,-0.14906185865402222,-0.0365755595266819,0.13713211201331477,0.44042356857786197,-0.5789070081937242,-0.672375282172207,1.1181158508157876,1.7042868008548122,2.302175055511339
1783423488443623424,1.1117243766784668,0.6531292796134949,-0.5794075131416321,-1.7834500074386597,0.4502753019332886,-0.8907501101493835,0.06177768483757973,-0.3042181432247162,-0.08562928438186646,-0.22115576267242432,0.1279623476596646,0.44440791463422447,-0.577399729867453,-0.6728572169062864,1.0989929422036544,1.707144858215012,2.29309431524553
1783423488453543680,1.1216444969177246,1.0560458898544312,-0.7715592980384827,-1.5822783708572388,0.4653834104537964,-0.8826393485069275,0.06607796996831894,-0.2657831013202667,0.09961920976638794,-0.35010504722595215,0.11867198610753148,0.4474997657999339,-0.5768734206258265,-0.6729621676127158,1.081447960918258,1.711839643436343,2.2804402404090154
1783423488463462656,1.131563425064087,1.8040975332260132,-0.8613216876983643,-1.4311999082565308,0.4789663255214691,-0.8746747374534607,0.07440012693405151,-0.24576625227928162,0.2656049132347107,-0.4180433750152588,0.10822062759502533,0.4498126020309357,-0.5786783956569546,-0.6716310331853921,1.0647643732197878,1.7248995279244481,2.2562655141486894
1783423488473382656,1.1414835453033447,2.557033061981201,-1.0363914966583252,-1.4642664194107056,0.4921167194843292,-0.8660004138946533,0.08868248760700226,-0.28102660179138184,0.3533966541290283,-0.39706265926361084,0.0958316178446551,0.45189146973846006,-0.5832112323451828,-0.668187943370945,1.0471475638988539,1.749088989267348,2.2176412826462495
1783423488483302656,1.1514034271240234,2.9767873287200928,-1.1924368143081665,-1.4800204038619995,0.5057780742645264,-0.8559854626655579,0.10713247209787369,-0.27598077058792114,0.35221660137176514,-0.2950749397277832,0.08140851116766498,0.4537133741942448,-0.589669747985671,-0.6631790070618634,1.0274539482321405,1.7795282820047003,2.1694010870521208
1783423488493221632,1.1613223552703857,3.1231815814971924,-1.2762771844863892,-1.32289719581604,0.5190118551254272,-0.8453476428985596,0.12654581665992737,-0.1944727897644043,0.23832261562347412,-0.22098246216773987,0.06635173546047388,0.45491550377505063,-0.5969294735601804,-0.657513812954589,1.007215532482294,1.8099507637149155,2.1192973413102005
1783423488503141632,1.1712424755096436,3.2393715381622314,-1.3817015886306763,-1.2548344135284424,0.5313414335250854,-0.8344351649284363,0.14626839756965637,-0.1640775203704834,0.0833059549331665,-0.2299780696630478,0.05109600413284511,0.4553242935243769,-0.6048255810011679,-0.6513486813487561,0.9871071283192071,1.8394241038731258,2.0685980683667267
1783423488513061632,1.1811623573303223,2.9029290676116943,-1.4371083974838257,-1.4170042276382446,0.5445117354393005,-0.8225311636924744,0.16416266560554504,-0.2193012237548828,0.11003732681274414,-0.14029790461063385,0.03546393373705893,0.4554099107158997,-0.6121136701436645,-0.6454927978761613,0.9658474700703468,1.8636158729203323,2.0222510383413823
1783423488522980608,1.1910815238952637,2.660388946533203,-1.3508113622665405,-1.264409065246582,0.5575025081634521,-0.8106534481048584,0.17897500097751617,-0.20749640464782715,0.1153714656829834,-0.12239539623260498,0.020882551180745296,0.4554520760919417,-0.6181026656744982,-0.6403721432009631,0.9452672763432547,1.8814332565406593,1.9838335057881855
1783423488532900608,1.2010014057159424,2.662706136703491,-1.2873034477233887,-1.2730178833007812,0.5700106620788574,-0.7986935377120972,0.1928125023841858,-0.21110862493515015,0.10724139213562012,-0.12338504195213318,0.006840555628705249,0.45536473904092345,-0.6237380910265209,-0.6352535256149602,0.9251209320125913,1.8969753952601682,1.948312225166715
1783423488542820352,1.210921287536621,2.5085630416870117,-1.3018051385879517,-1.2908927202224731,0.5825741291046143,-0.7862715721130371,0.20587566494941711,-0.1682368516921997,0.10545480251312256,-0.09199924767017365,-0.007029163232573447,0.4552774754067864,-0.6290153052221691,-0.6300896213972994,0.9047514285521194,1.9104876829212787,1.9151353087613492
1783423488552739328,1.2208402156829834,2.3847687244415283,-1.1605433225631714,-1.24385404586792,0.5949596762657166,-0.7738010883331299,0.2173812985420227,-0.14148378372192383,0.039914488792419434,-0.06105509400367737,-0.020334385784121403,0.45519478978625066,-0.633631088290187,-0.6252165804703032,0.8848202039583201,1.9210989724584724,1.88571258372705
1783423488562659584,1.2307603359222412,2.180079936981201,-1.0524029731750488,-1.1987712383270264,0.606802225112915,-0.7613803148269653,0.22823482751846313,-0.10965561866760254,-0.019091486930847168,-0.05343019962310791,-0.032906489055675156,0.4552661942041742,-0.6378480303242049,-0.620322315538711,0.8654395659329224,1.9305548723584993,1.8587844043547384
1783423488572579328,1.24068021774292,1.9539275169372559,-0.983155369758606,-1.2276407480239868,0.6180691719055176,-0.7493662238121033,0.23757311701774597,-0.030773639678955078,-0.07979637384414673,-0.03127419948577881,-0.04437103005169983,0.455616655156251,-0.6412487984053195,-0.6158285169503268,0.847104432287734,1.9377646385485001,1.836168491516651
1783423488582499584,1.2506003379821777,1.6808241605758667,-1.032373309135437,-1.5145670175552368,0.6307030320167542,-0.7364568114280701,0.24463249742984772,-0.01600271463394165,-0.16562753915786743,-0.08050894737243652,-0.05599592041953163,0.4564054417897384,-0.6434363377426026,-0.6120034320361541,0.827817662543858,1.9408046389244233,1.8182695783924738
1783423488592418560,1.26051926612854,1.3511621952056885,-0.804902970790863,-1.3690454959869385,0.6434069871902466,-0.7236115336418152,0.24982793629169464,0.0663556456565857,-0.2209838628768921,-0.12887153029441833,-0.06677208742698086,0.4577401348377123,-0.6445059664069331,-0.6087919191324287,0.8090205817764431,1.9411665348536504,1.8051963728621754
1783423488602338560,1.2704393863677979,0.9697248339653015,-0.7505736351013184,-1.267768144607544,0.6546458601951599,-0.7123493552207947,0.2529771029949188,0.12954914569854736,-0.2782359719276428,-0.1605393886566162,-0.0758368217138384,0.4591239375878534,-0.64474317434368,-0.6064324399256744,0.7928400378588452,1.9395530390793647,1.7965689413545771
1783423488612258560,1.2803592681884766,0.7440951466560364,-0.8526501059532166,-1.1306442022323608,0.6650659441947937,-0.7023962736129761,0.2536271810531616,0.1499059796333313,-0.3526116609573364,-0.23295152187347412,-0.08389425611551977,0.4602332345411571,-0.6442041296873454,-0.6051017884310522,0.7787585196609165,1.9351280811655491,1.7916498022761433
1783423488622177280,1.2902781963348389,0.6970605254173279,-0.852989912033081,-0.9678102135658264,0.6744009852409363,-0.6936512589454651,0.2530439496040344,0.13935023546218872,-0.3901652693748474,-0.18547797203063965,-0.09130120631979381,0.46078885084232823,-0.6435802998613405,-0.6042699043602195,0.7665457625850473,1.929753617159607,1.7875878098253741
1783423488632097536,1.3001983165740967,0.7718830108642578,-0.8528717756271362,-0.6828102469444275,0.682220995426178,-0.6863000988960266,0.25212451815605164,0.15512031316757202,-0.4150182604789734,-0.09508109092712402,-0.0982310438293334,0.46043416301187584,-0.643476995478313,-0.6035631158566742,0.7563897251517138,1.9247929587018004,1.7821451842962217
1783423488642017280,1.3101181983947754,0.9650636911392212,-0.712184727191925,-0.4136703610420227,0.6877593398094177,-0.680634081363678,0.2524365484714508,0.1372833251953125,-0.44813477993011475,0.034642308950424194,-0.10417922066709712,0.459389331209134,-0.6443444077447662,-0.6024353685439807,0.7486277745421793,1.922571902453469,1.7741177586089074
1783423488651936512,1.3200373649597168,1.0325733423233032,-0.7531912326812744,-0.26892510056495667,0.6920653581619263,-0.6755912899971008,0.25420793890953064,0.15105891227722168,-0.4379187822341919,0.10351905226707458,-0.11000090087967508,0.4577446518586398,-0.6461995105240884,-0.6006627468991783,0.7417664109211259,1.9228149868423567,1.762745063356889
1783423488661856512,1.3299572467803955,0.9130512475967407,-0.6240883469581604,0.05586816743016243,0.6945258975028992,-0.6723859310150146,0.2559911608695984,0.21520328521728516,-0.4244617223739624,0.13899797201156616,-0.11476842637308514,0.4554658257860688,-0.6484955333674834,-0.5990265911260884,0.737427463553185,1.9239301980462875,1.7508595835953775
1783423488671776512,1.3398773670196533,0.7196009755134583,-0.5811349153518677,0.3104649782180786,0.694552481174469,-0.6718349456787109,0.25736045837402344,0.20892035961151123,-0.4006747603416443,0.10358616709709167,-0.11785339188458063,0.4525257619846219,-0.6510765442776038,-0.5978546980079974,0.7366833281984678,1.9256523961008685,1.7395720039882427
1783423488681695488,1.3497962951660156,0.11325456202030182,-0.5854678750038147,0.3440181314945221,0.6936624646186829,-0.6731311678886414,0.25637197494506836,0.1924152970314026,-0.33909106254577637,0.07843631505966187,-0.11960547042511001,0.4494782701873023,-0.652805691898166,-0.5979200892288611,0.7384346918692614,1.9248171824206952,1.7325208047840683
1783423488691615232,1.3597161769866943,-0.4575973451137543,-0.626338541507721,0.43884244561195374,0.6926636695861816,-0.6762306094169617,0.25085702538490295,0.20354604721069336,-0.32384568452835083,0.059750914573669434,-0.11997253072790875,0.4466061621328907,-0.6526648802829722,-0.6001483981792297,0.7426338987440317,1.9182652581349207,1.7334123720609833
1783423488701535488,1.3696362972259521,-0.9534363746643066,-0.585241973400116,0.5724055767059326,0.690467119216919,-0.6817993521690369,0.2416713833808899,0.2725762128829956,-0.3782745599746704,0.03400912880897522,-0.1188036584441895,0.4433112011301813,-0.6513914888288351,-0.6041937410909048,0.7502194818812592,1.907481344220029,1.7399451300648356
1783423488711455232,1.3795561790466309,-1.3748810291290283,-0.4499090909957886,0.33414655923843384,0.6885920763015747,-0.6876621842384338,0.2301342636346817,0.2418278455734253,-0.37715715169906616,0.09649538993835449,-0.11648723425558376,0.4410138425366131,-0.6485167098097616,-0.6093961397043458,0.7582641392287076,1.8933355402670626,1.7532226332395173
1783423488721374464,1.3894753456115723,-1.7029683589935303,-0.45125052332878113,0.6307424902915955,0.6862792372703552,-0.6943631768226624,0.21651947498321533,0.3000488877296448,-0.40549033880233765,0.05159270763397217,-0.11310527476840336,0.43897516952909815,-0.6446398506058837,-0.6155871282644518,0.7675345814256722,1.876409786041103,1.7712586324869353
1783423488731294464,1.399395227432251,-1.9336930513381958,-0.5027687549591064,0.6429231762886047,0.6826497316360474,-0.7026209831237793,0.20078089833259583,0.22685033082962036,-0.4049686789512634,0.08614537119865417,-0.1085173576272301,0.43652901424693136,-0.6401819009479266,-0.6227627872667257,0.7790742358760395,1.8568498657903196,1.7929536983435013
1783423488741214464,1.4093153476715088,-1.671999454498291,-0.33984485268592834,0.7292050719261169,0.6785479187965393,-0.7109098434448242,0.18487821519374847,0.2073621153831482,-0.4111299514770508,-0.00010955333709716797,-0.10380660601122996,0.4338323153810625,-0.6357897684799605,-0.6299088017389994,0.7907910429270634,1.8368010198416789,1.8149248798062103
1783423488751133440,1.419234275817871,-1.374667763710022,-0.35539010167121887,0.9317575097084045,0.673334538936615,-0.7191649079322815,0.17152927815914154,0.25826025009155273,-0.41483771800994873,0.0022530406713485718,-0.09904038322440444,0.4308873343278187,-0.6325351725609922,-0.6359451934860123,0.8025997270225902,1.8202368092140022,1.8331063906233154
1783423488761053440,1.429154396057129,-1.2192741632461548,-0.19294127821922302,1.1057120561599731,0.6661317348480225,-0.7283569574356079,0.16051475703716278,0.3783782720565796,-0.43697208166122437,0.026298657059669495,-0.09379996808406454,0.42728964386992624,-0.6306194873243631,-0.6410493914404864,0.8159209891812136,1.8072540162862585,1.847279804079233
1783423488770973440,1.4390742778778076,-1.185266375541687,-0.2290859967470169,1.2161189317703247,0.6579009890556335,-0.7379636168479919,0.15025337040424347,0.44303590059280396,-0.44874292612075806,-0.0216064453125,-0.08816437735598062,0.42345810897579456,-0.6291342577636494,-0.6458331016318485,0.83004778179134,1.795328367771606,1.8605831917378155
1783423488780892416,1.44899320602417,-1.372063159942627,-0.37398913502693176,1.3400118350982666,0.6487990021705627,-0.7481752634048462,0.13890211284160614,0.48231977224349976,-0.4551481008529663,-0.03263986110687256,-0.08228693811157814,0.41899015338900447,-0.6276131831790783,-0.6509822405439246,0.8453075972727716,1.781703603346484,1.8748742251156165
1783423488790812416,1.4589133262634277,-1.6367653608322144,-0.43372398614883423,1.4202468395233154,0.6388037800788879,-0.7591425180435181,0.12502916157245636,0.4204918146133423,-0.49845629930496216,-0.017897263169288635,-0.07586618189830906,0.41388819774723046,-0.6254687339581385,-0.6570614197173124,0.8619947655484234,1.7640768717976438,1.8929127766984062
1783423488800732416,1.4688332080841064,-1.990275502204895,-0.5245595574378967,1.4586395025253296,0.6281929612159729,-0.7705039381980896,0.10815497487783432,0.3725395202636719,-0.5357704758644104,0.0810539722442627,-0.06877934642771667,0.4084401113042102,-0.6222974883541429,-0.6642228481275918,0.8796313368403097,1.7412932259620697,1.91655008716065
1783423488810651648,1.4787523746490479,-2.406019687652588,-0.5729761123657227,1.5139890909194946,0.6170116662979126,-0.7820465564727783,0.0877489447593689,0.3543475866317749,-0.5487029552459717,0.12091493606567383,-0.06108614415019338,0.4025551059803095,-0.617918974238354,-0.6726024650755076,0.8979429526896162,1.7120650207857917,1.9468673529813019
1783423488820571392,1.4886722564697266,-3.030165672302246,-0.46557432413101196,1.4361158609390259,0.6054742932319641,-0.7933549284934998,0.06315687298774719,0.3356419801712036,-0.543116569519043,0.1474907398223877,-0.05216016949981773,0.39687321060192887,-0.6116126973333763,-0.6824227993909588,0.9163005019393925,1.6747302141423066,1.9875432574484928
1783423488830491648,1.4985923767089844,-3.5314366817474365,-0.5218572616577148,1.5363010168075562,0.5934309363365173,-0.8041809797286987,0.03365486487746239,0.39098984003067017,-0.5632964372634888,0.1589111089706421,-0.04186359953235891,0.39125026265477164,-0.6031174547216799,-0.6938443629403231,0.9342962912010737,1.627447997356971,2.040428319648877
1783423488840411392,1.508512258529663,-3.645707368850708,-0.5725201964378357,1.6780275106430054,0.5792679786682129,-0.815136730670929,0.0009229716961272061,0.4331068992614746,-0.608843982219696,0.14746880531311035,-0.030420961728842764,0.3845935438394806,-0.5937586141603614,-0.706125464894479,0.9529652188892783,1.572389666863076,2.1012186429486577
1783423488850330368,1.5184311866760254,-3.9430136680603027,-0.5226972103118896,1.816292643547058,0.5609771609306335,-0.8270993232727051,-0.034806638956069946,0.44384467601776123,-0.632114052772522,0.25178664922714233,-0.01703907925967578,0.3762140939720381,-0.5840031127260484,-0.7191057502234788,0.9739270551636247,1.508829320692813,2.170666014255208
1783423488860250368,1.5283513069152832,-4.295478820800781,-0.54449063539505,1.8931078910827637,0.544806957244873,-0.8354836106300354,-0.07178132236003876,0.44739580154418945,-0.6597709059715271,0.35516756772994995,-0.0039294782921688925,0.3690442381479183,-0.5726392324539117,-0.7320350147667726,0.9890123098364846,1.439795374674074,2.2475390024441086
1783423488870170368,1.538271188735962,-4.445963382720947,-0.5956183075904846,1.9718985557556152,0.527728796005249,-0.8420752882957458,-0.11140713840723038,0.4991419315338135,-0.6813927292823792,0.33874785900115967,0.009606895001765514,0.36121351644452987,-0.560197487115937,-0.7453933996867295,1.0011194511874806,1.3627443201192213,2.3323227495156185
1783423488880089600,1.5481903553009033,-4.671397686004639,-0.5564533472061157,2.083012819290161,0.509799063205719,-0.8466256260871887,-0.152741938829422,0.4877442717552185,-0.5952078700065613,0.3560652732849121,0.02374564871872813,0.35302709788672965,-0.5468097440195732,-0.7588196156018367,1.0096124049635686,1.2796954881292606,2.423783447980445
1783423488890009344,1.558110237121582,-4.602977752685547,-0.5377155542373657,2.080545425415039,0.4911080598831177,-0.8490628004074097,-0.19469323754310608,0.4757193624973297,-0.46668732166290283,0.2793337106704712,0.03837945057748184,0.3445962630955911,-0.5328290515697746,-0.7719286121825204,1.0142087585059465,1.1933655702701402,2.5192346615514674
1783423488899929600,1.5680303573608398,-4.20126485824585,-0.5433387756347656,2.1126787662506104,0.47208577394485474,-0.849761962890625,-0.2346053272485733,0.45186442136764526,-0.382843017578125,0.2239699363708496,0.05246456824182877,0.3358690916005566,-0.5195086988626866,-0.7839324791548532,1.015533541996228,1.1095877832360266,2.6111173236771124
1783423488909848576,1.5779492855072021,-3.9388785362243652,-0.613011360168457,2.2451021671295166,0.4520614743232727,-0.8495988845825195,-0.27170252799987793,0.4031784236431122,-0.31519603729248047,0.24629664421081543,0.06618150609001837,0.32669519870021413,-0.5073647444870415,-0.7946516969172177,1.015224291165993,1.029619775834103,2.6980865319920952
1783423488919768320,1.5878691673278809,-3.6903207302093506,-0.6839084625244141,2.2924795150756836,0.43085992336273193,-0.8487716317176819,-0.3065067231655121,0.3334680497646332,-0.32124173641204834,0.2727085053920746,0.07973760507954723,0.3170429918122704,-0.4962160615640401,-0.8042979838734624,1.0136578721930818,0.9524710823301313,2.7813709326520866
1783423488929688576,1.5977892875671387,-3.688128709793091,-0.6139152646064758,2.3179988861083984,0.4091847240924835,-0.8466764688491821,-0.3401569724082947,0.2642161250114441,-0.3341401219367981,0.34920546412467957,0.09310061196762567,0.3071315197409305,-0.48537794527093636,-0.8132715972421262,1.0097079122933719,0.8772567865656787,2.8622446421194936
1783423488939608320,1.6077091693878174,-3.8037662506103516,-0.6144587993621826,2.3135344982147217,0.3876480758190155,-0.8424949049949646,-0.3740737736225128,0.20025774836540222,-0.3434181213378906,0.3953445255756378,0.10670019997847889,0.29731560488089015,-0.4738845300705099,-0.8219804633654597,1.001897921855503,0.8032168537777237,2.94282062963198
1783423488949527552,1.6176283359527588,-3.8006935119628906,-0.6784423589706421,2.438753366470337,0.36540597677230835,-0.8367334604263306,-0.4078669846057892,0.14841845631599426,-0.37283068895339966,0.36883506178855896,0.12045718865620453,0.2870958565070799,-0.4622147508584572,-0.8303152868010367,0.9912906823018465,0.7305424895214674,3.0219432756972675
1783423488959447296,1.6275482177734375,-3.789900302886963,-0.5541587471961975,2.449284791946411,0.3422841727733612,-0.8295129537582397,-0.44130465388298035,0.0734873116016388,-0.34655821323394775,0.37903356552124023,0.13454686528697724,0.2764890049790301,-0.4504458930931944,-0.8381822245923208,0.9782350119259848,0.6596965313617255,3.0994358133891513
1783423488969367552,1.6374683380126953,-4.325305461883545,-0.4794255197048187,2.3497977256774902,0.32009387016296387,-0.8192415833473206,-0.47579747438430786,0.025761902332305908,-0.3177061080932617,0.3898599147796631,0.148844821306808,0.26612359755178716,-0.4373551172756658,-0.8460165917492923,0.9600872591515398,0.5922039537717809,-3.10833274014313
1783423488979286528,1.6473872661590576,-5.058729648590088,-0.5447954535484314,2.279465436935425,0.29909852147102356,-0.803100049495697,-0.5153353214263916,0.06422850489616394,-0.352295458316803,0.3304445743560791,0.16358753695108194,0.25544556426140413,-0.42080862821839904,-0.8549309167094252,0.9324798849187532,0.5258800116936676,-3.0327510604403094
1783423488989206528,1.6573073863983154,-5.45784854888916,-0.5841005444526672,2.3829286098480225,0.27768823504447937,-0.7819758057594299,-0.5580350756645203,0.09987527132034302,-0.23010915517807007,0.26834702491760254,0.1789812996606301,0.24387123092704818,-0.401882173631215,-0.8642819617534742,0.8978294125062863,0.4617400827412946,-2.958697618335856
1783423488999126528,1.6672272682189941,-6.15693473815918,-0.5511367321014404,2.1061058044433594,0.2567564845085144,-0.7546799778938293,-0.603766679763794,0.04230049252510071,-0.014561295509338379,0.3557656407356262,0.19442775902161993,0.23143395084072793,-0.3802038788610708,-0.8741173329673269,0.8551662011672899,0.4020889749386126,-2.8890730400468767
1783423489009045248,1.6771461963653564,-6.845743656158447,-0.623315691947937,1.954599142074585,0.23853670060634613,-0.7191685438156128,-0.6526077389717102,0.0035744905471801758,0.008612573146820068,0.4027450680732727,0.20945953651063845,0.21882664557261883,-0.3546985124575778,-0.8845510268051106,0.8026049229874671,0.3504275887330475,-2.8265187573807053
1783423489018965504,1.6870663166046143,-7.537614822387695,-0.46299657225608826,1.8725248575210571,0.22135545313358307,-0.6751958727836609,-0.7036421895027161,-0.11809922754764557,-0.007070362567901611,0.46528464555740356,0.2245369071363634,0.20530508651054807,-0.3256205246175017,-0.895211889544865,0.7412302045207728,0.30478347283795965,-2.769306389791487
1783423489028885248,1.696986198425293,-7.94903564453125,-0.4089287221431732,1.7653342485427856,0.20655639469623566,-0.6230512261390686,-0.7544147372245789,-0.20748719573020935,0.001911759376525879,0.45177197456359863,0.23968492837336486,0.19171818758885142,-0.2933202453311132,-0.9054051714611625,0.6726376275727599,0.26724732486015096,-2.7179327071076855
1783423489038805504,1.7069063186645508,-8.285598754882812,-0.3664558231830597,1.5516880750656128,0.19354116916656494,-0.5637059807777405,-0.8029803037643433,-0.24610769748687744,0.06172233819961548,0.41348445415496826,0.25408879856269007,0.17764488194363326,-0.2587511056809192,-0.9148383143766209,0.5988657821006699,0.23651727475711326,-2.6730917257024
1783423489048724480,1.716825246810913,-8.31955623626709,-0.29125118255615234,1.3419269323349,0.1832716464996338,-0.4983479678630829,-0.8473846912384033,-0.2815840244293213,0.22011920809745789,0.4045441150665283,0.26740507122828044,0.16371579890340326,-0.22249669704264377,-0.9231397751641621,0.5216922255586194,0.2129984669853763,-2.634744032965541
1783423489058644480,1.726745367050171,-7.856872081756592,-0.35997244715690613,1.1547189950942993,0.17466236650943756,-0.43093109130859375,-0.8853199481964111,-0.31630969047546387,0.43177032470703125,0.41980481147766113,0.2791987599506176,0.14996574190661338,-0.1866823333705625,-0.9298967774581378,0.445524343089596,0.1947858201545406,-2.602481787026528
1783423489068564480,1.7366652488708496,-6.878540992736816,-0.4205082058906555,1.03505539894104,0.1666180044412613,-0.366953045129776,-0.9151961207389832,-0.4158703088760376,0.6199895143508911,0.39046162366867065,0.28922455763546645,0.13674574275802742,-0.15395633446508006,-0.9348514293628772,0.37573145187020346,0.180084819117046,-2.575837289766754
1783423489078483456,1.746584177017212,-5.579029083251953,-0.5333543419837952,0.8339287042617798,0.15905465185642242,-0.31127360463142395,-0.9369153380393982,-0.5623902082443237,0.6850070953369141,0.3255109190940857,0.29730211762675485,0.12481426993472906,-0.12634765149425514,-0.9381199283184213,0.31653291117915167,0.1681609469673383,-2.554693268915823
1783423489088403456,1.7565042972564697,-4.065541744232178,-0.5283669829368591,0.5909884572029114,0.151287242770195,-0.2675660252571106,-0.9515884518623352,-0.6707879900932312,0.6042817234992981,0.2064865231513977,0.3032444884732066,0.11445393328427504,-0.10538530903226428,-0.940126154077422,0.2708660594643496,0.15766436646405219,-2.5390791850377425
1783423489098323456,1.7664241790771484,-2.8322675228118896,-0.50693279504776,0.532350480556488,0.14486543834209442,-0.2363087385892868,-0.9608184695243835,-0.6350998282432556,0.4894368052482605,0.14247441291809082,0.3074531824624353,0.10658972248413008,-0.09071594737821904,-0.9412129132347963,0.23856523550849254,0.1496457969270884,-2.528102402742006
1783423489108242432,1.7763433456420898,-1.9892890453338623,-0.5698595643043518,0.32973453402519226,0.13799843192100525,-0.2144068330526352,-0.9669468402862549,-0.5849131345748901,0.4310206174850464,0.14837384223937988,0.3105931721711202,0.0999323152339785,-0.08087104374382849,-0.9418095255212373,0.21608449460047696,0.1417583703975648,-2.5198893716077637
1783423489118162432,1.7862632274627686,-1.3440972566604614,-0.7017493844032288,0.017202463001012802,0.13080091774463654,-0.19891357421875,-0.9712489247322083,-0.6387355327606201,0.442413330078125,0.19376790523529053,0.312014180404793,0.09402227772056632,-0.07439986067003966,-0.9424816343504764,0.2002492154997886,0.13386747370968516,-2.5156618974697094
1783423489128082432,1.7961833477020264,-0.5674512386322021,-0.5794336795806885,-0.06572744250297546,0.12345042824745178,-0.19006340205669403,-0.9739794135093689,-0.7020636796951294,0.4458312392234802,0.1789812445640564,0.3121388008706967,0.08903852791122462,-0.07129120519286124,-0.9431643394845528,0.19122672689801345,0.126076219386381,-2.5144946301383193
1783423489138002432,1.806103229522705,0.1268630474805832,-0.5193823575973511,-0.25317618250846863,0.1167224869132042,-0.1885625123977661,-0.975100040435791,-0.7653125524520874,0.5083409547805786,0.22009515762329102,0.31141563654862314,0.08550066596821736,-0.07169120020156901,-0.9437003142593677,0.18969818722426837,0.11913622484107148,-2.5154552409933872
1783423489147921664,1.8160223960876465,0.750905454158783,-0.5892724394798279,-0.3226712942123413,0.10746446996927261,-0.19336175918579102,-0.9752243757247925,-0.7545287013053894,0.4999260902404785,0.20714277029037476,0.30992045894333986,0.0817109461200449,-0.07557199327913798,-0.9442253039979295,0.19458742679337834,0.10975180694261007,-2.518019160365744
1783423489157841408,1.8259422779083252,1.52518630027771,-0.5417099595069885,-0.4072442352771759,0.10090453177690506,-0.20433150231838226,-0.9736872911453247,-0.786161482334137,0.47294723987579346,0.1752101182937622,0.30754233049778484,0.08013154278079315,-0.0820688728430325,-0.9445957963872192,0.20578075795115178,0.10326274656267466,-2.5227499661334694
1783423489167761664,1.835862398147583,2.243962287902832,-0.6907666325569153,-0.38348573446273804,0.09479011595249176,-0.22247031331062317,-0.970320463180542,-0.7234216928482056,0.46253684163093567,0.1608264446258545,0.3047430018812955,0.0798530764950725,-0.09199595373173981,-0.9446120675135334,0.22434754827829143,0.09738050158294499,-2.5284301368795523
1783423489177680384,1.8457813262939453,2.50138521194458,-0.47021397948265076,-0.5310387015342712,0.08957991749048233,-0.2452702522277832,-0.9653071761131287,-0.7256120443344116,0.4871983528137207,0.19890397787094116,0.3014081831638959,0.08066001484531905,-0.10411710801204273,-0.9443552421739341,0.2477984482309339,0.09253437194960777,-2.535228299701528
1783423489187600384,1.855701208114624,2.5161595344543457,-0.20919698476791382,-0.4061235785484314,0.08718197792768478,-0.26918601989746094,-0.9591341018676758,-0.7083215117454529,0.42284202575683594,0.14133930206298828,0.2981866401939074,0.08296782591162141,-0.11640144685018279,-0.9437434958178547,0.2725477454205876,0.09064744909409952,-2.5419602996589044
1783423489197520384,1.8656213283538818,2.08781361579895,-0.5144663453102112,-0.27269333600997925,0.08414927124977112,-0.29077982902526855,-0.9530823826789856,-0.7028778791427612,0.35326457023620605,0.2321808934211731,0.2954794797397616,0.08462086611020667,-0.12766411132540587,-0.9429915552351155,0.295041771321258,0.08806335527785987,-2.5473824450175973
1783423489207439360,1.8755402565002441,1.693163514137268,-0.519546389579773,-0.2971322536468506,0.07953152060508728,-0.3082056939601898,-0.9479894638061523,-0.7241848707199097,0.2805415093898773,0.23334407806396484,0.2931223763450905,0.08485191724329783,-0.13713288355578623,-0.9423767774346439,0.3133063180937917,0.08369894082028065,-2.5517011336605933
1783423489217359616,1.885460376739502,1.857726812362671,-0.4409692585468292,-0.32162055373191833,0.07575590163469315,-0.32467204332351685,-0.9427879452705383,-0.760463535785675,0.13332682847976685,0.20530015230178833,0.2906248857479556,0.0852910497888655,-0.14605294271759192,-0.9417702259477378,0.3306649514397243,0.08018079717997466,-2.5563329074698933
1783423489227279360,1.8953802585601807,1.4717170000076294,-0.6922680139541626,-0.35515546798706055,0.07104887813329697,-0.340106338262558,-0.9376991987228394,-0.7174264192581177,0.21881422400474548,0.25561606884002686,0.2881090525918819,0.08507943810415232,-0.15463473416451307,-0.9411922317269582,0.3470299696387592,0.07562487343682602,-2.5607471384432774
1783423489237199616,1.9053003787994385,1.3073482513427734,-0.6067385077476501,-0.40251392126083374,0.0657709538936615,-0.3525264263153076,-0.9334877133369446,-0.6614283323287964,0.21626543998718262,0.2716529965400696,0.28547314838927845,0.08405493289787698,-0.1618360656019823,-0.9408767120654821,0.3602694771161933,0.07034098442301658,-2.565239518081831
1783423489247118592,1.9152193069458008,1.0917240381240845,-0.7299589514732361,-0.5605373978614807,0.06011020019650459,-0.3629698157310486,-0.9298600554466248,-0.6633511781692505,0.24593490362167358,0.16728681325912476,0.28200188350025807,0.08234764707597496,-0.1681928917910488,-0.9409596322838467,0.37145311266435765,0.06455452944988109,-2.57137020367671
1783423489257038336,1.9251391887664795,0.8669865131378174,-0.18275468051433563,-0.71383136510849,0.057901520282030106,-0.3714103698730469,-0.9266616106033325,-0.5810643434524536,0.3576011657714844,0.20839989185333252,0.27864553973227824,0.08199857570909339,-0.17304745187083614,-0.9411097735371858,0.3805275892589075,0.062402867661281926,-2.577898236456577
1783423489266958592,1.9350593090057373,1.3836225271224976,-0.4470679759979248,-0.49840247631073,0.056861598044633865,-0.38099992275238037,-0.9228249192237854,-0.5023571848869324,0.38930070400238037,0.0677528977394104,0.27526037290328836,0.0823714538589775,-0.17833252595437307,-0.9410866668295157,0.39087754622846194,0.06153908581504667,-2.5846697070635254
1783423489276877312,1.9449782371520996,1.3131129741668701,-0.5204449892044067,-0.2035682052373886,0.053323742002248764,-0.39436075091362,-0.9174073338508606,-0.12838172912597656,0.5489017963409424,0.2026093602180481,0.27290814241617883,0.08228105633218454,-0.18581219324185783,-0.9403322692283471,0.405372113096247,0.05805906935416236,-2.588597132614342
1783423489286797568,1.9548983573913574,0.09036383032798767,-0.15694797039031982,-0.3267323076725006,0.052038826048374176,-0.40031519532203674,-0.9148987531661987,0.3797849118709564,0.5502327680587769,0.24863898754119873,0.271650059931271,0.08233526218239985,-0.18913364537492697,-0.9400295538405739,0.41186077277267713,0.056818109170983885,-2.590831293510325
1783423489296717312,1.9648182392120361,0.0829320102930069,-0.3805709481239319,-1.4008452892303467,0.050474148243665695,-0.39958029985427856,-0.9153075814247131,0.7220020294189453,0.0072615742683410645,-0.055868566036224365,0.2684776032744444,0.08081052519836215,-0.18925082123945283,-0.9410492186663598,0.4110589693792808,0.05508867360340221,-2.5972541366643696
1783423489306636288,1.9747371673583984,0.02123948559165001,0.6617299914360046,-0.46139073371887207,0.054644253104925156,-0.39864984154701233,-0.9154738187789917,1.198132872581482,0.05584588646888733,-0.0291825532913208,0.26320359925618236,0.0816679073398274,-0.18866222803944213,-0.9425820508619962,0.4100441668815239,0.05961884686186406,-2.6093919122042797
1783423489316556544,1.9846572875976562,0.8026620745658875,0.4041375517845154,-0.3275010883808136,0.0632200539112091,-0.4031982421875,-0.9129263162612915,1.1695680618286133,-0.053497314453125,-0.2267526388168335,0.2618370732224518,0.08633038515743707,-0.18995767137449954,-0.9422868770793189,0.41500907235925577,0.06913952248958856,-2.614082066827914
1783423489326476288,1.994577169418335,0.40466922521591187,-0.35374191403388977,-0.8610026836395264,0.06433754414319992,-0.40815624594688416,-0.9106422066688538,0.876137912273407,-0.08085742592811584,-0.0032219290733337402,0.2586750333371826,0.08699767791383632,-0.19264037137696371,-0.9425542114780213,0.4204335025896959,0.07053354168514914,-2.620956433006953
1783423489336396544,2.0044972896575928,0.7260299324989319,-0.2907530963420868,-0.5617789626121521,0.06523003429174423,-0.413373738527298,-0.9082220196723938,0.6423505544662476,-0.2980062663555145,-0.1861841082572937,0.25491411843676287,0.08745448734034991,-0.19555230506343657,-0.9429368753028586,0.4261560651162517,0.07169857137036499,-2.6290534192683124
1783423489346315264,2.014416217803955,1.031841516494751,-0.5286649465560913,-0.27013641595840454,0.0617949515581131,-0.4205126464366913,-0.9051798582077026,0.3322022557258606,-0.16457036137580872,-0.09300434589385986,0.2522596895229971,0.08626029145959094,-0.19992309216773815,-0.9428441682653712,0.43401026246179547,0.06816238810366515,-2.6337692747257004
1783423489356235520,2.024336338043213,0.7000628113746643,-0.35787642002105713,-0.31279653310775757,0.05803060159087181,-0.42863258719444275,-0.9016132950782776,-0.030030708760023117,-0.002473980188369751,-0.09983623027801514,0.2503587152784969,0.08519093326411735,-0.2047824320121062,-0.9424050593680469,0.4429787331517347,0.06427441176554963,-2.636747572211609
1783423489366155264,2.0342562198638916,0.3393869400024414,-0.39550215005874634,-0.26297691464424133,0.055558305233716965,-0.4325438141822815,-0.8998995423316956,-0.13894757628440857,-0.00028699636459350586,-0.04124730825424194,0.24849140153852264,0.08413288184380754,-0.20729664382738222,-0.9424446668078466,0.4473122933257468,0.06166008002136462,-2.6400229858668545
1783423489376074496,2.044175386428833,0.18177549540996552,0.4199407398700714,-1.2019894123077393,0.05828072503209114,-0.4339089095592499,-0.8990697264671326,-0.03527047857642174,0.13144922256469727,0.059592247009277344,0.24472129706322313,0.08486142273390751,-0.2079991992697467,-0.943210641454019,0.4488268896205041,0.06473279593370651,-2.6486571614793935
1783423489385994496,2.0540952682495117,0.8223000764846802,-0.154206320643425,-0.5939441919326782,0.06364766508340836,-0.43872758746147156,-0.8963632583618164,0.10520608723163605,0.13901445269584656,-0.1091604232788086,0.2396962868394161,0.087130460735524,-0.21030136326980542,-0.9437834832295965,0.4541822367940221,0.07088758028187474,-2.6605492065920138
1783423489395914496,2.0640153884887695,0.4331226944923401,0.21683700382709503,-0.24578168988227844,0.0675133690237999,-0.4444083273410797,-0.8932766318321228,0.2465125024318695,0.1166190505027771,0.11903047561645508,0.2376347524594088,0.08942426080747436,-0.21299055182205043,-0.9434871768006922,0.46051368043397667,0.07543604771025052,-2.66581081379724
1783423489405834496,2.0739352703094482,-0.11583494395017624,0.9362165331840515,-0.5436674952507019,0.07259152829647064,-0.44480836391448975,-0.8926790952682495,0.25083374977111816,-0.08891353011131287,0.2624759078025818,0.2364538606379966,0.09176192518087628,-0.21269743702471633,-0.9436255008695573,0.46096029182910087,0.08114018512595221,-2.6695927432115254
1783423489415753472,2.0838541984558105,-0.6718031167984009,-0.29906973242759705,-0.6142486929893494,0.07873883098363876,-0.44044020771980286,-0.8943224549293518,0.3287776708602905,-0.22639939188957214,0.1615954041481018,0.23368706930312586,0.09360267102713836,-0.2099459892177767,-0.9447495016235469,0.45608893964775093,0.0878165582698017,-2.677013146893359
1783423489425673472,2.0937743186950684,-0.9708058834075928,0.5090439319610596,-0.2034972906112671,0.07931776344776154,-0.4326939582824707,-0.8980448842048645,0.6964390873908997,-0.1287226676940918,0.177936851978302,0.23271174725832897,0.09258239308762689,-0.20592729258506645,-0.9459744954083507,0.4474788082582132,0.08809411967534206,-2.679225831458222
1783423489435593472,2.103694200515747,-0.5345260500907898,-0.11365162581205368,-0.029980629682540894,0.08242205530405045,-0.42572638392448425,-0.9010902643203735,0.39293500781059265,-0.009362727403640747,0.017240166664123535,0.2327014157248469,0.09315855182241897,-0.20193156574509794,-0.946781451506639,0.4397644904893666,0.0912154329384843,-2.679983456982194
1783423489445512448,2.1136133670806885,-0.7589926719665527,0.0771632194519043,-0.676165759563446,0.08480201661586761,-0.4192345440387726,-0.9039087891578674,0.05208458751440048,0.15156486630439758,0.08370304107666016,0.23151693420058725,0.09319593128518734,-0.19839389769636123,-0.9478155925279668,0.4326020160046558,0.09354320979220443,-2.683016958642994
1783423489455432448,2.123533248901367,-0.007485371083021164,-0.017766224220395088,-0.5723482966423035,0.08788251876831055,-0.4142551124095917,-0.9059080481529236,0.38799333572387695,-0.005865126848220825,-0.10986953973770142,0.22801744866435755,0.09332801165953421,-0.19579546392866343,-0.949190262983004,0.4271242521742455,0.09670780061400037,-2.691069350961936
1783423489465352448,2.133453369140625,0.012388600967824459,0.30730143189430237,-0.6854894161224365,0.09171382337808609,-0.41431498527526855,-0.9055007696151733,0.3509283661842346,-0.019736498594284058,-0.058244287967681885,0.2257431300756425,0.094790109912425,-0.19561298795477813,-0.9496265103616804,0.4271900266787534,0.10094096275196066,-2.696732951440753
1783423489475271424,2.1433722972869873,-0.002909660805016756,0.0440482571721077,-0.28364795446395874,0.09585468471050262,-0.4138936400413513,-0.9052645564079285,0.17512616515159607,-0.10328775644302368,-0.10085421800613403,0.22295158334432005,0.0962394531858492,-0.19520676927895822,-0.9502236100845061,0.4267271197334428,0.10549274087087691,-2.7035452659190806
1783423489485191424,2.153292179107666,-0.22017613053321838,0.07955260574817657,0.11345469951629639,0.09621069580316544,-0.41325217485427856,-0.9055198431015015,0.11289574205875397,-0.29504555463790894,-0.055860161781311035,0.22293582855459246,0.09632920556631457,-0.19483525493719972,-0.9502944236727504,0.42602257903834534,0.10585200879071237,-2.703648790149716
1783423489495111424,2.163212299346924,-0.40113741159439087,0.5244024991989136,-0.024560965597629547,0.098991759121418,-0.41013866662979126,-0.9066349267959595,0.0190044566988945,-0.29034656286239624,0.04066812992095947,0.22376100637648316,0.09747760289386813,-0.19282284745694125,-0.9503938553701269,0.422606105583633,0.1087550992273941,-2.7024847977871183
1783423489505031424,2.1731321811676025,-0.5857890248298645,0.25099417567253113,-0.18167631328105927,0.10329782962799072,-0.4054451286792755,-0.90826416015625,0.14461171627044678,-0.10764691233634949,0.03533935546875,0.22354006134486498,0.09896768087195039,-0.1899297586463287,-0.9508743125694341,0.417465738841761,0.11324445279840079,-2.7038118642519664
1783423489514950400,2.183051347732544,-0.3801485598087311,0.6089086532592773,-0.08284268528223038,0.10679394006729126,-0.4009806513786316,-0.9098404049873352,0.19490283727645874,-0.06575518846511841,0.057469189167022705,0.22387948455745782,0.10019406464758537,-0.18719225743904114,-0.9512088133801979,0.41258706352676544,0.11684193479633423,-2.7037587635310456
1783423489524870400,2.1929712295532227,-0.007773458957672119,0.18948706984519958,-0.11355987936258316,0.11110125482082367,-0.398752361536026,-0.9103038311004639,0.04397382587194443,-0.113729327917099,0.005076169967651367,0.2233806017321649,0.10196314474481533,-0.18561141638148795,-0.951447861587979,0.4101559494887731,0.12144789146873883,-2.705677552305555
1783423489534790400,2.2028913497924805,0.18875610828399658,0.05872558057308197,0.10002191364765167,0.11075993627309799,-0.4003823697566986,-0.9096297025680542,0.3938024640083313,-0.2103354036808014,-0.0338822603225708,0.22353515760997783,0.1020397757976874,-0.18647528542674835,-0.9512344434363063,0.41193409859358965,0.12116728510555601,-2.7053237288222767
1783423489544710144,2.21281099319458,-0.3999882936477661,0.1616029590368271,0.05543610081076622,0.11046377569437027,-0.39983054995536804,-0.9099084138870239,0.23328623175621033,-0.12337806820869446,0.08240902423858643,0.22397222764978048,0.10190259436414503,-0.1861764316371604,-0.9512048206194675,0.4113319582102144,0.12080979597600418,-2.7043260668099633
1783423489554630400,2.222731113433838,-0.46126896142959595,0.29710087180137634,0.15170805156230927,0.11179804056882858,-0.39577263593673706,-0.9115180969238281,0.050524964928627014,-0.14803534746170044,-0.044795989990234375,0.22473216647529864,0.10217686006010829,-0.18385004750002376,-0.9514486976827559,0.4069090249922168,0.12204085826670097,-2.7029031195803013
1783423489564550144,2.2326509952545166,-1.0102076530456543,0.3401271402835846,-0.3937215805053711,0.11524561792612076,-0.3884500563144684,-0.9142346382141113,0.09428807348012924,-0.013252824544906616,0.05040407180786133,0.2253142780298208,0.1030385732564377,-0.17962663005589188,-0.9520245681895921,0.3989489576843143,0.12539553256366356,-2.7021896804048433
1783423489574470400,2.2425711154937744,-0.04739317297935486,0.05244394764304161,0.22773799300193787,0.11772479861974716,-0.3840843439102173,-0.9157620072364807,0.36031779646873474,-0.17830884456634521,-0.1640719771385193,0.22496904165010048,0.10363542652666098,-0.17714031056957177,-0.9525071537961001,0.39421590246504784,0.1278526961318451,-2.7032868121396323
1783423489584389120,2.2524900436401367,-0.46143123507499695,-0.14843468368053436,0.28282222151756287,0.11560085415840149,-0.38216909766197205,-0.9168332815170288,0.2284238040447235,-0.059755951166152954,0.04474771022796631,0.22678628331264244,0.10265058263942435,-0.17619940770701564,-0.9523573426241517,0.392142423110912,0.1254252354867696,-2.6989813756245997
1783423489594309376,2.2624101638793945,-1.0387861728668213,0.15628020465373993,-0.37100645899772644,0.115386001765728,-0.37491562962532043,-0.9198501706123352,0.0784006118774414,0.037314921617507935,0.1048019528388977,0.22675770399665546,0.10156826653724751,-0.17250739617472788,-0.9531558076467791,0.38430576122798876,0.12478820037077189,-2.6987802840673965
1783423489604229120,2.2723300457000732,-0.2908130884170532,0.06025373935699463,-0.07276221364736557,0.11750485748052597,-0.36816295981407166,-0.9223061203956604,0.26651307940483093,-0.14610400795936584,-0.12405002117156982,0.2258697465623276,0.10157473991393212,-0.16890677200434917,-0.9540104108852576,0.377032426288438,0.12672062950679686,-2.7008449111942174
1783423489614148096,2.2822489738464355,-0.27828478813171387,0.014493976719677448,0.28241294622421265,0.11699677258729935,-0.366336464881897,-0.9230977296829224,0.20777130126953125,-0.18886983394622803,-0.05149638652801514,0.22685468653247887,0.10125237035667256,-0.16792589364673133,-0.9539842246006199,0.3750687024315094,0.1260714532498855,-2.698625088416384
1783423489624068352,2.2921690940856934,-0.6339935064315796,0.1567533016204834,0.039454106241464615,0.1175202876329422,-0.36207953095436096,-0.9247093796730042,0.1217833086848259,-0.11283501982688904,0.02370840311050415,0.22799618577015782,0.10114923989988757,-0.16557219120747732,-0.954134416458317,0.37049783665406266,0.1264112157196067,-2.6961970120785015
1783423489633988096,2.302088975906372,-0.5283922553062439,-0.04696599766612053,0.09044937789440155,0.11786225438117981,-0.3566574454307556,-0.9267707467079163,0.2197384536266327,-0.055268824100494385,-0.10971301794052124,0.22845825607966047,0.10068056646400965,-0.16272080576061784,-0.9545639348955929,0.3646875804575719,0.12649615337960374,-2.6951200239599866
1783423489643907328,2.3120081424713135,-0.5750737190246582,-0.03222973644733429,0.19067855179309845,0.11656586825847626,-0.3518795967102051,-0.9287589192390442,0.15751248598098755,0.012310504913330078,-0.08663719892501831,0.2295985576222786,0.09959224172931641,-0.16031819930357225,-0.9548109340425628,0.3595783802005531,0.12485429288369249,-2.692344556898368
1783423489653827072,2.321928024291992,-0.6073421835899353,0.07688609510660172,-0.010017274878919125,0.11629921942949295,-0.34642115235328674,-0.9308420419692993,0.08867209404706955,-0.018248647451400757,-0.08342492580413818,0.23031395614420755,0.09885468414551485,-0.15750155345791392,-0.9551840126454897,0.3537533286751624,0.12429571990182765,-2.690630173943338
1783423489663747328,2.33184814453125,-0.4332870841026306,0.012699957005679607,0.18856076896190643,0.11670428514480591,-0.3416122496128082,-0.9325670003890991,0.2200571894645691,-0.10916289687156677,-0.06709730625152588,0.2308689710635135,0.09851084165096348,-0.15495847183469444,-0.9555013905667538,0.34863182848785995,0.12449585316411392,-2.689390407437885
1783423489673667072,2.3417680263519287,-0.6014347672462463,-0.24645517766475677,0.2079845368862152,0.11528486758470535,-0.33777835965156555,-0.9341387748718262,0.14405351877212524,-0.03993770480155945,-0.03567934036254883,0.23196034542685254,0.09747126678724928,-0.15306854105319886,-0.9556484369438032,0.34455552721924354,0.12279210478715342,-2.6867438558786385
1783423489683586304,2.35168719291687,-0.6862096786499023,-0.08437340706586838,0.07496719062328339,0.11377202719449997,-0.33097073435783386,-0.9367573261260986,0.10705316811800003,0.013893097639083862,-0.026560544967651367,0.2327794499260704,0.09594619820762203,-0.14971860416941293,-0.9561340738178975,0.33733209069569303,0.12086109654432889,-2.68457165613869
1783423489693506304,2.361607074737549,-0.4450330138206482,-0.19860276579856873,0.1209447979927063,0.11222569644451141,-0.3264666497707367,-0.9385226964950562,0.1376522183418274,-0.07219970226287842,-0.13717609643936157,0.2334252111392082,0.09468163228510265,-0.1475602434615102,-0.9564381823973785,0.33256299382381793,0.11901187060455032,-2.682834966293708
1783423489703426304,2.3715271949768066,-0.4205825924873352,-0.07836180925369263,0.1635642796754837,0.11023636162281036,-0.3226718008518219,-0.9400696158409119,0.18508224189281464,-0.0326138436794281,-0.060037195682525635,0.23422498884680898,0.0933137055121394,-0.14580038311771684,-0.9566469833928769,0.32855091896715993,0.11673094233057606,-2.680732707466413
1783423489713345280,2.381446123123169,-0.34848496317863464,-0.09317804872989655,0.13229583203792572,0.10893575847148895,-0.3190062940120697,-0.9414711594581604,0.19518716633319855,-0.00283205509185791,-0.07920444011688232,0.23506394036478004,0.09231010907271404,-0.14402517222203542,-0.9568074841963938,0.32468080195663773,0.11519573922642638,-2.6786715335742777
1783423489723265280,2.3913660049438477,-0.37391015887260437,-0.09559912979602814,0.19430887699127197,0.10727256536483765,-0.31623849272727966,-0.9425952434539795,0.18328529596328735,-0.05212393403053284,-0.03415036201477051,0.23586964262216756,0.09123902817934694,-0.14275089264513766,-0.9569028419526667,0.3217618728945829,0.1133180041236287,-2.676651365507238
1783423489733185280,2.4012861251831055,-0.41643020510673523,-0.02501443773508072,0.32591161131858826,0.10580717027187347,-0.3125106692314148,-0.9440031051635742,0.18073761463165283,-0.0842636227607727,-0.05285358428955078,0.23734066569639864,0.09023602835616897,-0.14091094231805526,-0.9569069458802641,0.31783494385754574,0.11161764463728614,-2.6732541031540884
1783423489743105280,2.411206007003784,-0.5607163310050964,-0.14376342296600342,0.2860831022262573,0.10391558706760406,-0.30886730551719666,-0.9454113245010376,0.13546431064605713,-0.09718433022499084,-0.0815662145614624,0.2390125987718699,0.0890586474478933,-0.13915063455270674,-0.9568587887437537,0.31400186383372536,0.10947627862289862,-2.6693803679765673
1783423489753024256,2.4211251735687256,-0.7366849780082703,-0.1236104816198349,0.14397281408309937,0.1015479639172554,-0.3023543357849121,-0.9477710127830505,0.2116386890411377,0.0033431053161621094,-0.003889143466949463,0.24028868125346659,0.08720199230635611,-0.13605259809799158,-0.9571556561789526,0.30716162462052693,0.1067367867739957,-2.6662078643575673
1783423489762944256,2.4310450553894043,-0.3968747556209564,-0.12720970809459686,0.026581449434161186,0.1002141535282135,-0.29729408025741577,-0.9495121836662292,0.166036456823349,-0.03095299005508423,-0.11336928606033325,0.2407595123114443,0.08593464061121715,-0.13363814866973114,-0.9574920038935152,0.30185734133538084,0.10515348623033291,-2.6649171886804908
1783423489772864256,2.440965175628662,-0.17109939455986023,-0.23564456403255463,0.256427139043808,0.09789726883172989,-0.2945169508457184,-0.9506186842918396,0.21348883211612701,0.04495948553085327,-0.13222122192382812,0.24149699840525787,0.08452237231344881,-0.13246367473510565,-0.9575951587166176,0.2989500052962065,0.10262093029218959,-2.662980770251671
1783423489782783232,2.4508841037750244,-0.12978285551071167,-0.3016536831855774,0.2254154533147812,0.09433396905660629,-0.29343661665916443,-0.951312780380249,0.1922565996646881,0.053995728492736816,-0.1338617205619812,0.24257086343163434,0.08276706223241628,-0.13226191574646698,-0.9575049416255146,0.29781974767344416,0.09883876458482109,-2.660199586253473
1783423489792703232,2.460803985595703,-0.17442035675048828,-0.30544254183769226,0.060985494405031204,0.09131282567977905,-0.2918053865432739,-0.9521090388298035,0.15218693017959595,0.0003777742385864258,-0.06707125902175903,0.2430571063090794,0.0811253740126204,-0.1317731510206664,-0.9575896110610539,0.296113844317941,0.09561342140433515,-2.6587191342520193
1783423489802623232,2.470724105834961,0.02877163700759411,-0.41152891516685486,0.22845305502414703,0.08791963756084442,-0.2918810248374939,-0.9524051547050476,0.14181669056415558,-0.0726514458656311,-0.1275661587715149,0.2433418283200932,0.07950103148332098,-0.13220060537345604,-0.9575945897070941,0.2961929097930298,0.09205238508821106,-2.6576344161310397
1783423489812543232,2.4806439876556396,-0.14293354749679565,-0.3063204884529114,0.1778186410665512,0.08403952419757843,-0.29134708642959595,-0.9529188275337219,0.08170144259929657,-0.03372615575790405,-0.061119258403778076,0.24428211015681564,0.0776467611250398,-0.13233132729585606,-0.957489254638842,0.29563470349513005,0.08796411408543245,-2.6551011721752142
1783423489822462208,2.490563154220581,-0.0010853955755010247,-0.3889386057853699,0.28595665097236633,0.08014644682407379,-0.291128933429718,-0.9533207416534424,0.12409242987632751,-0.1248256266117096,-0.13394421339035034,0.24505436334970587,0.07580648467009919,-0.13263858902973436,-0.9573968167380531,0.2954066874622199,0.08387357298665248,-2.6529205603066024
1783423489832382208,2.5004830360412598,-0.2557283341884613,-0.2846316397190094,0.1786501705646515,0.07626841217279434,-0.2897307872772217,-0.9540645480155945,0.12302663922309875,-0.10913395881652832,-0.026053190231323242,0.24613409226185637,0.07385909402382212,-0.13233498013613224,-0.9573141567301247,0.2939455429951149,0.07977087743807948,-2.650091687530862
1783423489842302208,2.5104031562805176,-0.20803698897361755,-0.45621201395988464,0.2218821942806244,0.0722377672791481,-0.2881885766983032,-0.9548450112342834,0.1656009703874588,-0.1274913251399994,-0.08650624752044678,0.24679420773942726,0.07176014004976379,-0.13201501207142108,-0.9573479511444768,0.2923346172535835,0.07551007336399843,-2.6481214433719127
1783423489852221184,2.52032208442688,-0.22009950876235962,-0.3937920331954956,0.3271409869194031,0.06730726361274719,-0.2860797047615051,-0.9558389782905579,0.1566154658794403,-0.06525391340255737,-0.04701441526412964,0.24796754041278365,0.06921429774092827,-0.13149105745905373,-0.957304306298917,0.2901330421875273,0.07030090408622527,-2.6449545601983133
1783423489862141184,2.5302419662475586,-0.16587215662002563,-0.43127113580703735,0.21918298304080963,0.06315499544143677,-0.2847757041454315,-0.9565114974975586,0.12945669889450073,-0.07830718159675598,-0.030472755432128906,0.24893581402601048,0.06713205629209217,-0.13129180937871596,-0.9572286780559575,0.2887724486853176,0.06593068388731142,-2.642335849846528
1783423489872061184,2.5401620864868164,-0.025754721835255623,-0.37905481457710266,0.3060036301612854,0.05812985450029373,-0.283775269985199,-0.9571272134780884,0.21358339488506317,-0.07057958841323853,-0.03155076503753662,0.25001099985228487,0.0646782536294979,-0.1313511151525186,-0.957109201551479,0.28772895188888126,0.06065916912674698,-2.639371631317696
1783423489881980160,2.5500810146331787,-0.2560746669769287,-0.3697509765625,0.23878149688243866,0.05396821349859238,-0.2827477753162384,-0.9576748609542847,0.11793729662895203,-0.0752691924571991,0.018587946891784668,0.2510738695802991,0.06264409536678377,-0.13129468123918223,-0.9569740044791124,0.28665758450968365,0.05629383914623752,-2.6365600030885603
1783423489891900416,2.5600011348724365,-0.3222121298313141,-0.38799095153808594,0.2629166543483734,0.04945915937423706,-0.2800808846950531,-0.9587014317512512,0.17687445878982544,-0.1659334897994995,0.012137770652770996,0.2523381715114881,0.06024554939512217,-0.13045974049013792,-0.9569097103970119,0.28387836913330006,0.05154404283472057,-2.633296513810794
1783423489901820160,2.5699210166931152,-0.28159183263778687,-0.4285956919193268,0.10360858589410782,0.045174967497587204,-0.277537077665329,-0.9596522450447083,0.1392274796962738,-0.14331558346748352,0.000728905200958252,0.25281002813691766,0.057866456758723706,-0.12971262273200498,-0.9570334765785526,0.2812295298245026,0.04703958720201881,-2.631730700833958
1783423489911740416,2.579841136932373,-0.46235549449920654,-0.4694696068763733,0.2876764237880707,0.04053376615047455,-0.2743683457374573,-0.9607700109481812,0.13562895357608795,-0.11062616109848022,0.03181493282318115,0.2536323715542163,0.055276187371880656,-0.12868385947326302,-0.9571079079508463,0.27793277331856875,0.0421638306383319,-2.629401766314509
1783423489921659136,2.5897600650787354,-0.5174232125282288,-0.3786434233188629,0.32127171754837036,0.0360095351934433,-0.26971375942230225,-0.9622670412063599,0.1687786728143692,-0.16053831577301025,0.007188916206359863,0.2548393457654046,0.05259285158731459,-0.126887681289061,-0.9571783797096749,0.27309574854589563,0.037404107303076896,-2.6263243342458678
1783423489931579392,2.599680185317993,-0.5797217488288879,-0.43222329020500183,0.36604875326156616,0.031384579837322235,-0.2649447023868561,-0.9637527465820312,0.18390166759490967,-0.16965612769126892,-0.03369903564453125,0.2563492756632462,0.04988334155365644,-0.125041156263495,-0.9571632286142989,0.2681465834264272,0.03255346826220408,-2.6226227049957096
1783423489941499136,2.609600067138672,-0.7523675560951233,-0.344563364982605,0.4336373805999756,0.026798201724886894,-0.2587684094905853,-0.9655675888061523,0.16419605910778046,-0.12412038445472717,0.0015783309936523438,0.2581826547569677,0.04703947635236583,-0.12248875004423695,-0.9571444088014321,0.26174695469560155,0.027746710948009068,-2.6183011393356406
1783423489951418112,2.619518995285034,-0.7333917617797852,-0.31563878059387207,0.47915637493133545,0.02281620167195797,-0.2518604099750519,-0.9674946069717407,0.16935299336910248,-0.08645746111869812,-0.024204611778259277,0.26032908093288665,0.04442360566759964,-0.1194958308902936,-0.9570664154703893,0.25460215216885657,0.023578399912911403,-2.6134470459929835
1783423489961338368,2.629439115524292,-0.6811919212341309,-0.4294854998588562,0.4844813942909241,0.017925217747688293,-0.24535810947418213,-0.9692667722702026,0.2446175068616867,-0.01961076259613037,-0.025453686714172363,0.262621068219845,0.04143110716060838,-0.11683353477526764,-0.9569031421404158,0.24788908346309924,0.018491477402250947,-2.6081888013769685
1783423489971258112,2.6393589973449707,-0.541771411895752,-0.32142961025238037,0.520350456237793,0.013374698348343372,-0.23961372673511505,-0.9707762002944946,0.2395702451467514,0.05449409782886505,-0.02501237392425537,0.2648528458838919,0.03869425797939867,-0.11451929518827753,-0.9566822673024222,0.24196796767609902,0.013776452999155024,-2.6031058965492346
1783423489981178368,2.6492791175842285,-0.4826728105545044,-0.4703216850757599,0.4408246874809265,0.008841298520565033,-0.234975665807724,-0.9719610214233398,0.19408532977104187,0.05528818070888519,-0.06902402639389038,0.2669705421601022,0.03609981790922819,-0.11276650075209826,-0.9564032535108594,0.23719353958479322,0.009096100272572608,-2.5982541180838807
1783423489991097088,2.659198045730591,-0.5463974475860596,-0.5664895176887512,0.5309505462646484,0.003205163637176156,-0.23032739758491516,-0.9731079339981079,0.16508403420448303,-0.04178258776664734,-0.1313079595565796,0.2690365820998782,0.03295867470888456,-0.11117448490887283,-0.9561241617302169,0.2324141162191853,0.0032937271684938363,-2.5933967927276154
1783423490001017344,2.6691181659698486,-0.6088921427726746,-0.558179497718811,0.5232902765274048,-0.003153604920953512,-0.2248513251543045,-0.9743880033493042,0.06428031623363495,-0.142839714884758,-0.2009354829788208,0.2713265761845835,0.029373095148388866,-0.109285088277885,-0.9558116459336687,0.22679044916033272,-0.0032364867687806635,-2.5880359838409803
1783423490010937088,2.6790380477905273,-0.7096179723739624,-0.5444498062133789,0.5593161582946777,-0.009476668201386929,-0.21877124905586243,-0.9757301807403564,0.025803569704294205,-0.18425914645195007,-0.23018717765808105,0.2735703447870303,0.02570905388750238,-0.1071166083217428,-0.9555230446127672,0.22055503317289568,-0.009712080799840223,-2.5828271333460986
1783423490020856064,2.6889569759368896,-0.9232377409934998,-0.531998872756958,0.540289044380188,-0.015679743140935898,-0.2107187807559967,-0.9774209856987,0.0456785187125206,-0.1468099057674408,-0.21014004945755005,0.2760598269356862,0.02184306019166214,-0.10398268637388822,-0.9552494106419773,0.21231019386807518,-0.016040580082600654,-2.577227905415797
1783423490030776320,2.6988770961761475,-0.8273543119430542,-0.6203668117523193,0.5117487907409668,-0.021966176107525826,-0.20225511491298676,-0.9790865182876587,0.08124656975269318,-0.09449781477451324,-0.2321561574935913,0.27827081659256514,0.01783804537282085,-0.10069041043302011,-0.9550437873152509,0.20366008264973617,-0.022431616037096862,-2.5722596431162703
1783423490040696064,2.708796977996826,-0.6162605285644531,-0.5655960440635681,0.4701814353466034,-0.02856556698679924,-0.19502568244934082,-0.9803820848464966,0.09971729665994644,0.0012695789337158203,-0.22631347179412842,0.2803146757100037,0.01383297863868518,-0.09806944874797324,-0.9547851572485858,0.1962836348216875,-0.029128935979526427,-2.567594338467791
1783423490050616320,2.718717098236084,-0.5528634786605835,-0.5833345651626587,0.4673891067504883,-0.035055987536907196,-0.1895209103822708,-0.9812507033348083,0.1463230848312378,-0.03762142360210419,-0.18890005350112915,0.282376485330318,0.010124231422612498,-0.09629205053464635,-0.9544049538369612,0.19067419042973419,-0.035710635429799964,-2.5628567223091254
1783423490060535296,2.7286360263824463,-0.7087321877479553,-0.530136227607727,0.3269333243370056,-0.04103819653391838,-0.1834423840045929,-0.982173502445221,0.12111631780862808,-0.1312396228313446,-0.09030574560165405,0.2840307200029332,0.006531436833091873,-0.09418384857440773,-0.9541558130744864,0.18448712979621765,-0.04175875196074166,-2.5590797634856086
1783423490070455296,2.738556146621704,-0.9141013026237488,-0.5403518676757812,0.5085167288780212,-0.04693359136581421,-0.17538045346736908,-0.9833813905715942,0.1857427954673767,-0.2609598636627197,-0.09430110454559326,0.28561113600115634,0.002680239713930771,-0.09111600592322519,-0.954000537677229,0.1762921943022579,-0.04769055576146599,-2.555596732104514
1783423490080375296,2.748476028442383,-1.2832696437835693,-0.7462015748023987,0.4589565396308899,-0.05359235778450966,-0.1644614338874817,-0.9849265217781067,0.19835248589515686,-0.3015419840812683,-0.059125542640686035,0.28758084508163134,-0.0019250920537795693,-0.08679298452949606,-0.9538137218923363,0.16521199191785343,-0.05435893820512264,-2.5514146934549595
1783423490090294272,2.758395195007324,-1.465041995048523,-0.6433417797088623,0.4264180660247803,-0.06086990237236023,-0.15070289373397827,-0.9867033362388611,0.17183181643486023,-0.29473167657852173,-0.06561899185180664,0.2893882351154454,-0.007269313449182858,-0.08121259089542643,-0.9537327041818582,0.15127925508176568,-0.061612094215045564,-2.5477262498722197
1783423490100214272,2.768315076828003,-1.7306923866271973,-0.644661009311676,0.32207924127578735,-0.06759459525346756,-0.13511858880519867,-0.9885210990905762,0.15315061807632446,-0.23107708990573883,-0.09726381301879883,0.29090418027270054,-0.01265344705269027,-0.07469503028394214,-0.9537480151645933,0.13553315158300436,-0.06827323838865723,-2.54486070725766
1783423490110134016,2.7782349586486816,-1.8304120302200317,-0.7835240960121155,0.4103723466396332,-0.07485045492649078,-0.11729538440704346,-0.9902722835540771,0.18070067465305328,-0.20608413219451904,-0.13452935218811035,0.2921813556514034,-0.01865176345630134,-0.06720095785619838,-0.9538166175700689,0.11756602691503616,-0.07544228008173676,-2.5426452131329373
1783423490120054272,2.7881550788879395,-2.006399154663086,-0.760414719581604,0.31205853819847107,-0.08298613131046295,-0.09810955077409744,-0.9917095303535461,0.15162017941474915,-0.14210955798625946,-0.12122070789337158,0.29355508088573895,-0.02527941599722599,-0.059213000080157736,-0.9537715623372608,0.09826762682540705,-0.08348537332992574,-2.54032068045415
1783423490129973248,2.7980740070343018,-2.0111236572265625,-0.6871234774589539,0.38874638080596924,-0.09025932848453522,-0.07800458371639252,-0.9928587675094604,0.15471245348453522,-0.06109454482793808,-0.09419262409210205,0.2946149480753612,-0.031664639644350505,-0.0506750911132867,-0.9537460186636392,0.07808390378414362,-0.0906593261425585,-2.538839976313233
1783423490139893248,2.8079941272735596,-1.9617981910705566,-0.6975081562995911,0.3325729966163635,-0.09713423997163773,-0.05796731263399124,-0.9935817718505859,0.14300215244293213,0.04336465150117874,-0.04198646545410156,0.2958514108267446,-0.03785794466124222,-0.042141332946129074,-0.9535527306317952,0.05799982643404113,-0.0974520221675654,-2.5370737038261573
1783423490149813248,2.8179140090942383,-1.817136287689209,-0.6893551349639893,0.2872867286205292,-0.10394007712602615,-0.03896191716194153,-0.9938201308250427,0.14605432748794556,0.10117200016975403,-0.024139463901519775,0.2967742663542196,-0.04389871311819264,-0.034100491107601445,-0.9533284275579571,0.03897178268116192,-0.10420756051616706,-2.5359714844075314
1783423490159732224,2.8278331756591797,-1.6328353881835938,-0.5902152061462402,0.2605246305465698,-0.110259048640728,-0.02184141054749489,-0.9936628937721252,0.1313772052526474,0.08957517147064209,-0.052113473415374756,0.29770645164517145,-0.049443742889610544,-0.026905058531028446,-0.9529964818675496,0.021843146682293015,-0.11051015063419255,-2.534815351131432
1783423490169652224,2.8377530574798584,-1.411856770515442,-0.6164596080780029,0.12834076583385468,-0.11602602899074554,-0.006594147067517042,-0.9932242631912231,0.14288151264190674,0.09187552332878113,-0.09103471040725708,0.29804972111041794,-0.05447516094055341,-0.020501585235856625,-0.9527741341242522,0.006594194980555488,-0.11629048617911202,-2.534850503685752
1783423490179572224,2.847673177719116,-1.302725911140442,-0.6055017709732056,0.17468483746051788,-0.1220422312617302,0.006905301008373499,-0.992500901222229,0.2392907738685608,0.09128500521183014,-0.0853646993637085,0.2984368575554352,-0.059373381168558,-0.014978591462220893,-0.9524630350482267,-0.006905356106032529,-0.12235016537970966,-2.5347308089827254
1783423490189492224,2.857593059539795,-1.1409679651260376,-0.5313490033149719,-0.003137364750728011,-0.12765222787857056,0.01896788738667965,-0.9916375875473022,0.15884120762348175,0.0525805726647377,-0.04438835382461548,0.29836340932359684,-0.06387576116243915,-0.010054242013851388,-0.9522594055870419,-0.01896902426384373,-0.12802463495935043,-2.5355422112518737
1783423490199411200,2.8675119876861572,-1.0930299758911133,-0.5053839683532715,-0.09480976313352585,-0.1326465755701065,0.02975042164325714,-0.990716814994812,0.1608448177576065,0.004719184711575508,-0.02800571918487549,0.297753819710897,-0.06789790624080061,-0.005609748892288066,-0.9522084951827389,-0.029754811134946935,-0.13309794065845063,-2.537445122322888
1783423490209331200,2.877432107925415,-1.0950247049331665,-0.41997030377388,-0.14688041806221008,-0.13711239397525787,0.04041742905974388,-0.9897305965423584,0.16718746721744537,-0.03637385368347168,0.009750127792358398,0.29669629363338135,-0.07164841237320878,-0.0011016754237648692,-0.952279727517407,-0.040428442652153236,-0.13765887586843478,-2.5403159075985786
1783423490219251200,2.8873519897460938,-1.1166235208511353,-0.42360496520996094,-0.05284553021192551,-0.14135317504405975,0.050972480326890945,-0.9886460900306702,0.16022829711437225,-0.09688618034124374,0.037916719913482666,0.2957694503290007,-0.07526947968439944,0.0033853647273579418,-0.9522833977085985,-0.05099457709046376,-0.14201404165611542,-2.542933388708447
1783423490229170432,2.897271156311035,-1.2684791088104248,-0.3036038875579834,-0.17327451705932617,-0.14495058357715607,0.062260355800390244,-0.9874780774116516,0.10031862556934357,-0.07257530093193054,0.12331181764602661,0.2950158024010061,-0.07868828292388935,0.00831317364044972,-0.9522105218670632,-0.06230065084406293,-0.1457478038722639,-2.545255748266856
1783423490239090176,2.907191038131714,-1.582396149635315,-0.08428597450256348,-0.47677868604660034,-0.14697091281414032,0.07625292986631393,-0.986197292804718,0.07748238742351532,0.007472045719623566,0.23493081331253052,0.2927016188663637,-0.08172507304732674,0.014912427336413495,-0.9525883172844485,-0.07632702007726927,-0.1479391123388508,-2.5510258076156127
1783423490249010432,2.9171111583709717,-1.4084815979003906,-0.2051926851272583,-0.19514724612236023,-0.14852291345596313,0.09025921672582626,-0.9847813248634338,0.17577511072158813,-0.06502117961645126,0.18371015787124634,0.2904005822343168,-0.08451405214251939,0.021603765360292085,-0.9529208432947688,-0.09038222083561268,-0.1496900150720597,-2.5567607275096087
1783423490258930176,2.9270310401916504,-1.5287266969680786,-0.05596607178449631,-0.3202844560146332,-0.14995591342449188,0.10440323501825333,-0.98316490650177,0.14014451205730438,0.009412072598934174,0.302226185798645,0.28859541633693175,-0.08725701757941351,0.02835085004335389,-0.9530452263689554,-0.10459383812178087,-0.15135716711948696,-2.56145770559184
1783423490268849152,2.9369499683380127,-1.168643832206726,0.12453499436378479,-0.3001757264137268,-0.1500251591205597,0.11731748282909393,-0.9816970229148865,0.1831672638654709,0.04347962886095047,0.29663848876953125,0.2863291822188874,-0.0891240928151938,0.03476177122138112,-0.9533436631831651,-0.11758828083890752,-0.1516489551177111,-2.566994982233908
1783423490278769152,2.9468700885772705,-0.6109108328819275,0.18886014819145203,-0.08652593195438385,-0.14842428267002106,0.1255018562078476,-0.9809278845787048,0.17471517622470856,0.051164403557777405,0.29083389043807983,0.28508640955866354,-0.0895053084978703,0.03904941575506056,-0.9535144137215598,-0.12583367021981487,-0.15017096369132524,-2.570020703720964
1783423490288689152,2.956789970397949,-0.2720675766468048,0.16288048028945923,-0.17752082645893097,-0.14686982333660126,0.12984299659729004,-0.9805967807769775,0.10841765999794006,0.15224623680114746,0.45700669288635254,0.2841715034811363,-0.08935059911321742,0.04144969636600942,-0.9537007303749954,-0.13021063720685108,-0.14867082357292374,-2.572121966913544
1783423490298608384,2.9667091369628906,0.6015092134475708,0.3434743583202362,-0.06907996535301208,-0.14384685456752777,0.12785278260707855,-0.9813061356544495,0.06007610261440277,0.13444580137729645,0.47375303506851196,0.28361822745328014,-0.0875678130635107,0.04097322907227864,-0.9540512460588452,-0.12820368441800808,-0.14555051955468026,-2.5730370365214426
1783423490308528128,2.9766290187835693,1.5269794464111328,0.671371340751648,-7.000251207500696e-05,-0.1383078247308731,0.11731420457363129,-0.9834166765213013,-0.03481839597225189,0.08405603468418121,0.5194121599197388,0.2839750342675268,-0.08335558209650593,0.0366540272600513,-0.9544980167717605,-0.11758497336356899,-0.1397236825544543,-2.571484029846533
1783423490318448384,2.986549139022827,1.9134252071380615,0.7886255383491516,-0.13470304012298584,-0.13110102713108063,0.09999647736549377,-0.9863129258155823,-0.0009485185146331787,0.07503708451986313,0.581161618232727,0.28412403660679697,-0.07734968134510019,0.0293351983084458,-0.955212066142818,-0.10016388158169783,-0.13214570681597476,-2.5700018658553927
1783423490328368128,2.996469020843506,2.073394536972046,0.966046154499054,-0.01774260587990284,-0.12249613553285599,0.08038175851106644,-0.9892085194587708,0.1443619728088379,0.025117509067058563,0.6030390858650208,0.28432772756472807,-0.07035457606153353,0.02111824874381117,-0.9559089881024659,-0.08046857450501974,-0.12320526500738296,-2.5683414914926193
1783423490338287360,3.0063881874084473,1.9658435583114624,1.1311383247375488,0.03717144578695297,-0.11201758682727814,0.06006971001625061,-0.9918889403343201,0.18709082901477814,-0.09337964653968811,0.6161260008811951,0.28494660808844013,-0.062379556758101314,0.012818574321417536,-0.9564255817175913,-0.0601058954404491,-0.1124571218521615,-2.565866064256823
1783423490348207360,3.016308069229126,1.3681808710098267,1.2870099544525146,0.1533752828836441,-0.09991762042045593,0.04366456717252731,-0.9940371513366699,0.15323182940483093,-0.2193542718887329,0.6792025566101074,0.28586051159999715,-0.05419888748667097,0.006625761710069868,-0.9567143601713496,-0.043678453180724636,-0.10018049496085385,-2.56308269436771
1783423490358127360,3.026228189468384,0.8494582772254944,1.325589895248413,0.20129120349884033,-0.0869339182972908,0.032934967428445816,-0.9956695437431335,0.1185959056019783,-0.392325222492218,0.6496917605400085,0.28688027520227233,-0.04641543226413057,0.003293994494582156,-0.9568356355983686,-0.03294092366216822,-0.08709115680426234,-2.560441326821689
1783423490368046336,3.036147117614746,0.40903639793395996,1.3190007209777832,0.2791796028614044,-0.07372652739286423,0.026934463530778885,-0.9969146847724915,0.16616427898406982,-0.4516628682613373,0.609539806842804,0.28828618277881063,-0.03921140735133617,0.002260936387237376,-0.9567384731531721,-0.02693772128097608,-0.0738203164084376,-2.557249409792569
1783423490377966080,3.046066999435425,0.1364791989326477,1.4605262279510498,0.14202602207660675,-0.05985463783144951,0.024579495191574097,-0.9979044198989868,0.07871450483798981,-0.3919806182384491,0.5810190439224243,0.289149640094335,-0.032219893703942896,0.0031078327411325733,-0.956736486119058,-0.024581970919098292,-0.059908556390077215,-2.555335676838503
1783423490387886336,3.0559871196746826,0.11241672933101654,1.5906610488891602,0.17718453705310822,-0.044540416449308395,0.023496804758906364,-0.9987311959266663,0.055419936776161194,-0.238660991191864,0.536939263343811,0.2898956553935614,-0.024728004232098543,0.004787011456446317,-0.9567266839771693,-0.02349896781510691,-0.04456746810744482,-2.553688390356822
1783423490397806080,3.0659070014953613,0.08821458369493484,1.7043228149414062,0.15697427093982697,-0.02805791236460209,0.022436941042542458,-0.9993544816970825,0.05111394077539444,-0.04296001046895981,0.5016433000564575,0.2907000846155865,-0.016687334579070217,0.006656029125469516,-0.9566455680107939,-0.022438823622041935,-0.028068663449735565,-2.551892678432679
1783423490407725312,3.0758261680603027,0.08640789985656738,1.7328943014144897,0.17788034677505493,-0.01073537953197956,0.021783949807286263,-0.9997050762176514,0.06301198899745941,0.06078135967254639,0.49038195610046387,0.291372546539243,-0.008309217610710674,0.00885583725332469,-0.9565326160150069,-0.021785673402203675,-0.010738134068157035,-2.550342114519038
1783423490417645312,3.0857460498809814,0.04477929696440697,1.7332090139389038,0.13393037021160126,0.006603186018764973,0.021040325984358788,-0.9997568130493164,0.1261940598487854,-0.04266203194856644,0.4790201187133789,0.29207668255015834,8.473285658532165e-05,0.01102642020572943,-0.9563313389844128,-0.021041878133972073,0.00660469594391777,-2.548691063422421
1783423490427565312,3.0956661701202393,-0.05413636565208435,1.6693583726882935,0.03679557144641876,0.023250265046954155,0.021068166941404343,-0.9995076656341553,0.1697886735200882,-0.15102727711200714,0.5015218257904053,0.29237869437657826,0.008037685396135384,0.013474673845221889,-0.9561739323366698,-0.021069726722461542,0.023257523992101035,-2.5478458293537622
1783423490437484288,3.1055850982666016,-0.2760370671749115,1.738335371017456,0.12340756505727768,0.040071774274110794,0.022691087797284126,-0.9989390969276428,0.1521889567375183,-0.13882572948932648,0.5103832483291626,0.29258670775634465,0.01584238586588751,0.0167170048632508,-0.9559616285246878,-0.022693035008983516,0.040092833228947626,-2.547113724263993
1783423490447404032,3.1155049800872803,-0.4027894139289856,1.6177210807800293,0.24803391098976135,0.05668974667787552,0.0262085422873497,-0.9980477690696716,0.15633819997310638,-0.0797668918967247,0.4423990249633789,0.2933517543512468,0.023261898991947336,0.02085642821395531,-0.9554939187829959,-0.026211544209790928,0.05673966506109129,-2.5450871098676964
1783423490457324288,3.125425100326538,-0.22092194855213165,1.7927802801132202,0.07361094653606415,0.07309982180595398,0.029508076608181,-0.9968879818916321,0.18631485104560852,-0.0370459221303463,0.37973105907440186,0.2941248757345358,0.030611538571564893,0.024878358383202265,-0.9549526071053883,-0.02951236036343235,0.07319701609099792,-2.5429529728827704
1783423490467244032,3.135344982147217,0.3474384546279907,1.6591691970825195,0.10314247012138367,0.09057659655809402,0.028384588658809662,-0.9954848885536194,0.20422320067882538,0.03413067013025284,0.23742830753326416,0.29415191606574465,0.03914484344523621,0.026930072065844954,-0.9545769254409934,-0.028388402270484513,0.09073756379375907,-2.5424716096341196
1783423490477163264,3.145264148712158,0.21959978342056274,1.4605690240859985,0.022349752485752106,0.1061132401227951,0.025718223303556442,-0.9940214157104492,0.2274591326713562,0.29668474197387695,0.2957487106323242,0.2942413674512983,0.046981581770701136,0.02796477334741816,-0.9541660173153379,-0.025721059054961755,0.10634870911957205,-2.541977897466875
1783423490487083264,3.155184030532837,0.6571715474128723,1.5980427265167236,0.08541446924209595,0.12083270400762558,0.02182886190712452,-0.9924328327178955,0.21400615572929382,0.24518468976020813,0.1857311725616455,0.2942579077278597,0.05461675445273749,0.028294622283861683,-0.9537445942142431,-0.021830596257342644,0.12115769855255792,-2.541742289960655
1783423490497003264,3.1651041507720947,1.1483112573623657,1.4227029085159302,-0.02934643253684044,0.13604970276355743,0.01223055925220251,-0.9906265139579773,0.12148813903331757,0.11910183727741241,0.1345168948173523,0.2937752130727164,0.06335666036086686,0.025935999215609115,-0.9534198322476738,-0.012230864190246146,0.13648320994164334,-2.5429631559444217
1783423490506923264,3.1750240325927734,0.8886356949806213,1.138265609741211,-0.06065189093351364,0.14879372715950012,0.0022544560488313437,-0.9888656735420227,0.15091940760612488,0.1376533806324005,0.1502426266670227,0.29306485446698993,0.07097815615415652,0.02300563072007357,-0.9531766960269683,-0.0022544580619900238,0.14934869628303968,-2.5448483758986615
1783423490516842240,3.1849429607391357,0.6685371398925781,1.274444580078125,-0.06065495312213898,0.16043858230113983,-0.005210137460380793,-0.9870320558547974,0.06934350728988647,0.054648611694574356,0.09465235471725464,0.29238402831153976,0.07770688038901276,0.021109330513250358,-0.9529047856535147,0.005210160867567233,0.1611371778935986,-2.546583111892437
1783423490526762240,3.1948630809783936,0.6655603051185608,1.2031056880950928,0.005675867199897766,0.1729031354188919,-0.01169878151267767,-0.9848693609237671,-0.012044981122016907,0.04798418655991554,0.03798520565032959,0.2917715123509476,0.08469471374597136,0.01980222158786261,-0.9525251376297768,0.011699048617438592,0.17378845432366744,-2.548133693732157
1783423490536682240,3.2047829627990723,0.48893672227859497,1.019104242324829,-0.13615067303180695,0.183683842420578,-0.017475048080086708,-0.9828300476074219,0.007096797227859497,0.20940008759498596,0.014400482177734375,0.29123540432392814,0.09077158628492958,0.018587727350454452,-0.9521538395520294,0.017475936871049213,0.1847612887141758,-2.549544764913432
1783423490546601728,3.214702606201172,0.6516241431236267,1.0391762256622314,-0.2874799966812134,0.19346512854099274,-0.021717239171266556,-0.9808667898178101,-0.003233805298805237,0.45715731382369995,0.008439421653747559,0.28972400958490624,0.09616500117201572,0.017858102643099144,-0.9520994675395451,0.02171894688380415,0.19473930474570103,-2.55291981849519
1783423490556521984,3.2246227264404297,1.5781000852584839,0.9740325808525085,-0.12887465953826904,0.20382463932037354,-0.03238977864384651,-0.9784714579582214,-0.07919085025787354,0.5158950090408325,-0.15305930376052856,0.28806460733616823,0.10278950624570626,0.014091907292452927,-0.9519739939629602,0.03239544499057196,0.2053722828498146,-2.557255660446423
1783423490566441728,3.2345426082611084,1.8650572299957275,0.5423386693000793,0.05077287182211876,0.21061672270298004,-0.04947788640856743,-0.9763157963752747,-0.07276882231235504,0.5546353459358215,-0.10493725538253784,0.2871886116633931,0.10860998404451865,0.006780281801729203,-0.9516725717799901,0.049498094373811884,0.21247000249865824,-2.5607077712531687
1783423490576361984,3.244462728500366,0.9225099086761475,0.19068624079227448,-0.4695233404636383,0.2140890657901764,-0.06343618035316467,-0.9747521281242371,-0.1393820196390152,0.4931999742984772,0.12228935956954956,0.28549613731123236,0.11235563693876538,0.0003772018615029077,-0.9517710238986181,0.06347880443706602,0.21620151505323187,-2.565638146935556
1783423490586280704,3.2543816566467285,0.5085577368736267,0.4720422923564911,-0.29300716519355774,0.21753059327602386,-0.06830013543367386,-0.9736608862876892,-0.11103950440883636,0.12480343133211136,0.10833495855331421,0.28283026282246054,0.11474484218476663,-0.001781780760028011,-0.9522801823976681,0.0683533508597737,0.21980544927163637,-2.5717278471088485
1783423490596200960,3.2643017768859863,0.4756013751029968,0.7576555013656616,0.12212970852851868,0.22365812957286835,-0.07353236526250839,-0.9718899130821228,-0.08162932097911835,-0.1372067630290985,-0.0770907998085022,0.2823810690042057,0.11850315212687372,-0.003469868815897335,-0.9519484344784779,0.07359879270946292,0.22618902029486318,-2.5732223573906547
1783423490606120704,3.274221658706665,-0.63352370262146,1.4666746854782104,-0.3596110939979553,0.2342706024646759,-0.07336394488811493,-0.9693993330001831,-0.2559228241443634,-0.11248810589313507,-0.0786811113357544,0.28199340228196235,0.12368001226362774,-0.0018972122629990363,-0.9514092007538427,0.07342991595974568,0.2371194020919624,-2.57405015084253
1783423490616039680,3.2841405868530273,-2.263000965118408,0.5094837546348572,-0.36491626501083374,0.24576765298843384,-0.057812564074993134,-0.9676032066345215,-0.07691389322280884,-0.14519035816192627,-0.08595514297485352,0.2805069530240747,0.1270756233940467,0.0070837501053783595,-0.9513766680232948,0.05784481564698635,0.24873634794881477,-2.575387856363784
1783423490625959936,3.294060707092285,-2.457528829574585,0.3390798270702362,0.8769606947898865,0.24857094883918762,-0.035382792353630066,-0.9679672122001648,0.21189352869987488,-0.39546436071395874,-0.2807052731513977,0.2832094454207579,0.12516978009081944,0.018679291635175156,-0.9506713331189829,0.03539018087548228,0.2513654109203187,-2.5669978327126635
1783423490635879680,3.303980588912964,-3.7308924198150635,1.6535366773605347,-0.35741132497787476,0.260366290807724,-0.008115491829812527,-0.9654757976531982,-0.4028986394405365,-0.1063559502363205,-0.25423550605773926,0.2865155975839744,0.12690011948209412,0.03403614254239311,-0.9490240397288822,0.00811558123437283,0.2634104495673287,-2.5562595781881225
1783423490645799936,3.3139007091522217,-4.439016819000244,1.0419648885726929,-0.5857898592948914,0.27258238196372986,0.03362627327442169,-0.9615446329116821,-0.19517457485198975,0.2053416222333908,-0.4014466404914856,0.2863278616465855,0.1268347951501166,0.05604110568230809,-0.9480446935640446,-0.033632614617292216,0.27623633301427347,-2.5503004185985385
1783423490655718912,3.323819637298584,-4.054374694824219,1.4035863876342773,-0.41809728741645813,0.283156156539917,0.07489041239023209,-0.9561454057693481,-0.05755496025085449,0.207504004240036,-0.49929893016815186,0.2866702494441516,0.12603512847814025,0.07773319642885165,-0.9465161867981133,-0.07496059591719707,0.28791490421742144,-2.5425480508928526
1783423490665638912,3.333739757537842,-5.389713287353516,1.7654564380645752,-1.3246732950210571,0.2986706495285034,0.1211388111114502,-0.9466367959976196,-0.11693847179412842,0.3962104320526123,-0.04672563076019287,0.28470085899731423,0.1272117737868725,0.10246347418117825,-0.944597162767952,-0.12143706270954603,0.3056220895098435,-2.5373874440495388
1783423490675558912,3.3436596393585205,-5.918922424316406,1.1232913732528687,-1.2457538843154907,0.30962318181991577,0.17904146015644073,-0.9338510036468506,0.27883201837539673,0.40855926275253296,-0.11700654029846191,0.2812135789063481,0.12482610714127249,0.13226092895817562,-0.9422550142276754,-0.18001207602542038,0.32014942106928296,-2.5323883856513616
1783423490685477888,3.353578805923462,-5.375957012176514,1.1479277610778809,-1.1006875038146973,0.31864482164382935,0.23448514938354492,-0.9184128642082214,0.46934956312179565,0.16114474833011627,-0.34092551469802856,0.27843327765576187,0.12193010066450934,0.16101741921843582,-0.9389789607849788,-0.23668891096793782,0.33395651358792106,-2.5249811276315093
1783423490695397888,3.3634986877441406,-5.367648601531982,0.6973029375076294,-0.9431779980659485,0.3240838348865509,0.286118745803833,-0.9017237424850464,0.689206600189209,0.3146960735321045,-0.2877904176712036,0.27589075644898653,0.11787788908412604,0.18773099018157594,-0.9352786987692103,-0.2901737883995736,0.3450285690781036,-2.516989881219054
1783423490705317888,3.3734188079833984,-5.337098598480225,0.7310981750488281,-0.46134716272354126,0.3282161056995392,0.336220383644104,-0.8827400803565979,0.6892094612121582,0.245231032371521,-0.4604911208152771,0.27521580280366387,0.11304585218194169,0.2141275281863954,-0.9303904268236379,-0.3429007647594895,0.3559755371268646,-2.5041055431490924
1783423490715237888,3.383338689804077,-4.62216854095459,0.3658037483692169,-0.7346017956733704,0.3309188485145569,0.38196220993995667,-0.8629006743431091,0.3978866934776306,-0.012440115213394165,-0.5098105072975159,0.2747474578421233,0.10801298168968379,0.23850128398117929,-0.9251832814333483,-0.391918569700584,0.3661982317472072,-2.4907685456106923
1783423490725156864,3.3932576179504395,-3.952402114868164,0.3979763388633728,-1.2504608631134033,0.3297524154186249,0.4209902882575989,-0.8450033068656921,0.17488625645637512,0.3654171824455261,-0.30921727418899536,0.2718308168836178,0.10261760451022238,0.25878173464958587,-0.921200131610371,-0.4345367862671683,0.37206264820628354,-2.4846656819374866
1783423490735076864,3.4031777381896973,-2.766502857208252,0.22288161516189575,-1.3436802625656128,0.3267994821071625,0.45396268367767334,-0.8289270401000977,0.21952620148658752,0.9626175165176392,-0.28978633880615234,0.26719388621649554,0.09774453326144249,0.2756492276017526,-0.9181889895318339,-0.4712076845726228,0.3755344613149456,-2.484068645698154
1783423490744996864,3.413097620010376,-1.168784260749817,0.15635399520397186,-1.5071024894714355,0.3216140568256378,0.4743794798851013,-0.8194683790206909,0.1669265627861023,1.037369728088379,-0.4292955994606018,0.2614815257054137,0.09396233388813283,0.2853714716910664,-0.9172576278857817,-0.49425902888744644,0.3739953412045724,-2.490790071556565
1783423490754915840,3.4230167865753174,-0.5051384568214417,0.4226527810096741,-1.7782480716705322,0.31634730100631714,0.48578402400016785,-0.8148240447044373,0.048688679933547974,0.8913064002990723,-0.13401317596435547,0.2538532188142167,0.09209238325837954,0.2900120068178692,-0.9181342635190408,-0.5072599168730029,0.3703275358735558,-2.5050647296065907
1783423490764835840,3.432936668395996,-0.04242917522788048,0.5702163577079773,-1.6665817499160767,0.3119463324546814,0.4935435950756073,-0.8118523359298706,0.1212812066078186,0.4669971764087677,-0.050131916999816895,0.24529223828426117,0.09151923451784151,0.29274229975385524,-0.91965100190696,-0.5161594547519002,0.36684698831667883,-2.522424497329424
1783423490774755840,3.442856788635254,-0.3245910704135895,0.621641993522644,-1.6408782005310059,0.30887895822525024,0.4995550513267517,-0.8093445301055908,0.25909894704818726,0.1896386742591858,0.11293339729309082,0.23702824842833864,0.09180705526507978,0.29478671016734387,-0.9211351262407781,-0.5230850746341645,0.3645800701399846,-2.5392727623176
1783423490784675840,3.4527766704559326,-1.2409435510635376,0.5151470303535461,-1.7332630157470703,0.3048132658004761,0.5107993483543396,-0.8038488030433655,0.3692284822463989,0.0672340989112854,0.2635350823402405,0.2288105723128703,0.09095916652272261,0.29966987618259344,-0.9217212524901376,-0.5361143340591392,0.3624410292323464,-2.554374261047058
1783423490794594816,3.462695598602295,-2.305020809173584,0.6306507587432861,-1.542758584022522,0.30088570713996887,0.5300120115280151,-0.7928146123886108,0.44887012243270874,0.10864454507827759,0.3371567130088806,0.2211480520372312,0.08912449447932407,0.30927256316607227,-0.9205980406910774,-0.558614733716845,0.3627238909710249,-2.564992650261284
1783423490804514816,3.4726157188415527,-2.886258602142334,0.7779626846313477,-1.5179747343063354,0.29830580949783325,0.5548753142356873,-0.7766125202178955,0.38626450300216675,0.14263445138931274,0.261124849319458,0.21431516756041152,0.08717144479574447,0.3226373756663386,-0.9178100352249814,-0.588213086879442,0.36673482865099194,-2.570574657413025
1783423490814434816,3.4825356006622314,-3.4785237312316895,0.8837845325469971,-1.4386961460113525,0.2959814965724945,0.5837105512619019,-0.7560932040214539,0.3401116132736206,0.13777071237564087,0.28403210639953613,0.20748602118884546,0.08504705275114402,0.33870400494791325,-0.9137812236179947,-0.6232911081209144,0.3731241338126525,-2.573574117420466
