time,seconds_elapsed,rotationRateX,rotationRateY,rotationRateZ,gravityX,gravityY,gravityZ,accelerationX,accelerationY,accelerationZ,quaternionW,quaternionX,quaternionY,quaternionZ,pitch,roll,yaw
1784547103918441984,0.4894988536834717,0.2981092929840088,1.8373315334320068,0.27671417593955994,0.11771249026060104,0.6798796057701111,-0.7238145470619202,-0.29546213150024414,-0.13605636358261108,0.014540314674377441,0.8690671852616375,-0.3204654146959078,0.1881346154355944,-0.32654186614402514,-0.7475984500191414,0.16121657741858136,-0.6554839598971776
1784547103928362240,0.4994189739227295,0.26373958587646484,2.013446092605591,-0.20803388953208923,0.13162334263324738,0.678037166595459,-0.7231465578079224,-0.3037577271461487,-0.07360601425170898,-0.03553569316864014,0.8676911511255269,-0.31624351682527113,0.1960019384981233,-0.3296746751034794,-0.7450888945541871,0.18004376891162047,-0.6556761264202425
1784547103938281984,0.5093388557434082,0.6622277498245239,2.2503116130828857,-0.11710216104984283,0.14536833763122559,0.6752384305000305,-0.723132848739624,-0.04705597460269928,0.06758993864059448,-0.11831307411193848,0.8658743456682287,-0.31109579510318025,0.2040906157191367,-0.3344071423712667,-0.7412879398848884,0.19838169064867228,-0.6598128639989868
1784547103948200960,0.5192577838897705,0.4443591237068176,0.34385916590690613,0.001774163101799786,0.15522919595241547,0.6705437898635864,-0.7254481315612793,0.7574905157089233,-0.10787594318389893,-0.1690220832824707,0.8653984386155948,-0.30596096576004606,0.20895886899326957,-0.33735702470415574,-0.734941515311255,0.21079812124485905,-0.6620097542045521
1784547103958120960,0.5291779041290283,-0.31892603635787964,-1.528148889541626,0.0870501771569252,0.1503879874944687,0.6704889535903931,-0.7265177965164185,1.3864467144012451,-0.032198548316955566,0.06599533557891846,0.8660896521618497,-0.30704389347417865,0.20607072257363704,-0.33637447243662627,-0.7348676102528663,0.20411559411484909,-0.662103650182523
1784547103968040960,0.539097785949707,-0.03156295418739319,-1.9511041641235352,0.524004340171814,0.13939084112644196,0.6716179251670837,-0.7276672720909119,0.9453412294387817,0.24688488245010376,0.036077916622161865,0.8681187096171791,-0.310690911001298,0.19909175463180737,-0.33196934744534967,-0.7363903414745392,0.1892656968865865,-0.6572841115496829
1784547103977960192,0.5490169525146484,0.40786874294281006,-1.473538875579834,0.32464128732681274,0.12987229228019714,0.6695427298545837,-0.7313314080238342,0.019236594438552856,0.30888134241104126,-0.055549025535583496,0.8708914588002502,-0.31223044242727516,0.19195425989440956,-0.32743502085222725,-0.7335930118586828,0.17575115252319196,-0.6515845355639408
1784547103987879936,0.5589368343353271,0.543029248714447,-0.4958609938621521,-0.1052861139178276,0.12320387363433838,0.6658544540405273,-0.7358387112617493,-0.7475172281265259,0.3330163359642029,-0.028397798538208008,0.8727417914963111,-0.31164257894819736,0.18697475882062586,-0.3259463117377619,-0.7286385121710538,0.16589446404900737,-0.6514772505251483
1784547103997800192,0.568856954574585,0.4193662106990814,0.4670519232749939,-0.23830005526542664,0.12212412804365158,0.6625147461891174,-0.7390263080596924,-0.9151234030723572,0.18747609853744507,0.05347943305969238,0.8731906319290963,-0.30968152815838895,0.1859682699877722,-0.32718672831896545,-0.7241710124811144,0.16377002671633348,-0.6548668097388144
1784547104007719936,0.5787768363952637,0.21869303286075592,0.8921363949775696,-0.28218334913253784,0.12573470175266266,0.6605135202407837,-0.7402112483978271,-0.664080023765564,-0.06357443332672119,0.14058661460876465,0.872584236586706,-0.3073758474950122,0.18818733352168526,-0.32970042543281347,-0.7215025145674627,0.1682572722969757,-0.6589172296934469
1784547104017639168,0.5886960029602051,-0.0019745028112083673,0.7314581274986267,-0.32129260897636414,0.12995311617851257,0.660179853439331,-0.7397801876068115,-0.19732065498828888,-0.19759440422058105,0.14052176475524902,0.8714540083165222,-0.30585828787880825,0.19120829852835472,-0.3323522202717497,-0.7210582047101907,0.1738903444496108,-0.6629988858048322
1784547104027559168,0.5986158847808838,0.04107788950204849,0.3435394763946533,-0.2889743447303772,0.13187666237354279,0.6605159044265747,-0.7391395568847656,0.1932423710823059,-0.1588679552078247,0.06723403930664062,0.8704386344050994,-0.3052214417595883,0.19305466537943108,-0.3345240382600433,-0.7215057059589286,0.17656129570010706,-0.667068324113399
1784547104037479168,0.6085360050201416,0.11758404970169067,0.057988718152046204,-0.07651884108781815,0.1320272982120514,0.6602388620376587,-0.7393602132797241,0.3961862027645111,-0.06769430637359619,-0.003712296485900879,0.8700356873142803,-0.30477017303382004,0.19348137534142326,-0.33573511540622103,-0.7211367190751503,0.17670714888863318,-0.669784739119513
1784547104047399168,0.6184558868408203,0.14975237846374512,-0.12193683534860611,0.20931529998779297,0.13222746551036835,0.6590704917907715,-0.7403661608695984,0.41165679693222046,-0.014386653900146484,-0.05641728639602661,0.8704223677990606,-0.30413698818318985,0.1931776836764628,-0.3354818676026472,-0.7195821800291707,0.17673401778911432,-0.6691266477274099
1784547104057317888,0.6283748149871826,0.02578229457139969,-0.23132355511188507,0.1905568242073059,0.13242362439632416,0.6580997705459595,-0.7411941289901733,0.23694586753845215,-0.04796183109283447,-0.02525484561920166,0.871098132120064,-0.3038113222624237,0.19261778119379822,-0.3343429528504987,-0.7182921587663189,0.17679715270582505,-0.6664342165491872
1784547104067238144,0.6382949352264404,-0.24107177555561066,-0.174115389585495,-0.0008056743536144495,0.13145282864570618,0.6586642861366272,-0.7408653497695923,-0.03776386380195618,-0.08494913578033447,0.07379692792892456,0.8713204908202159,-0.30448420772951895,0.1919809423297496,-0.33351653219024,-0.71904220640034,0.17560389687385858,-0.6649850794065718
1784547104077157888,0.6482148170471191,-0.5324909687042236,0.039470501244068146,-0.13546767830848694,0.13041271269321442,0.6616708040237427,-0.7383659482002258,-0.21918834745883942,0.02209073305130005,0.13506394624710083,0.8706721401847715,-0.30639527106221576,0.19219515406510768,-0.33333612298283116,-0.7230449571281683,0.17482040396202952,-0.6650170687158791
1784547104087078144,0.658134937286377,-0.592388927936554,0.3023705780506134,-0.22136075794696808,0.13061457872390747,0.6661890745162964,-0.7342560887336731,-0.27578669786453247,0.1755162477493286,0.15379643440246582,0.8692956986692796,-0.3087837917012332,0.19371251894770233,-0.3338457873565712,-0.7290870640658522,0.17604546664749737,-0.6660205586718356
1784547104096997120,0.6680538654327393,-0.3050749897956848,0.31508389115333557,-0.2835083603858948,0.1312304139137268,0.6698485016822815,-0.7308088541030884,-0.1970568299293518,0.240475594997406,0.11150044202804565,0.8678678149354532,-0.3104795562390831,0.19544314645435176,-0.3349773280648906,-0.7340046927604955,0.17767516180655005,-0.6682643096964147
1784547104106917120,0.6779739856719971,-0.0703575611114502,0.26703059673309326,-0.3166196942329407,0.13135476410388947,0.6715586185455322,-0.7292152643203735,-0.06728310883045197,0.2166096568107605,-0.00944739580154419,0.8668042084746848,-0.3110682620461667,0.1965423790265178,-0.33653828461225255,-0.7363103364076355,0.17822047510816189,-0.6717729983786868
1784547104116837120,0.6878938674926758,0.1599622666835785,0.16408947110176086,-0.25938406586647034,0.13104216754436493,0.6716530919075012,-0.7291845083236694,0.023651421070098877,0.075844407081604,-0.11192566156387329,0.8661566114108878,-0.3108061380456283,0.19699569072176315,-0.3381787541489242,-0.7364378415821471,0.17781259777010813,-0.6757117857746666
1784547104126757120,0.6978139877319336,0.3526022732257843,0.12221100181341171,-0.32385972142219543,0.1301782876253128,0.6700693368911743,-0.7307945489883423,0.022638455033302307,-0.029535949230194092,-0.07659369707107544,0.8659802143941443,-0.3097017110354895,0.19669155758344084,-0.3398168253315671,-0.7343021550842715,0.17628349558330533,-0.6799406704064971
1784547104136676096,0.7077329158782959,0.17409053444862366,0.2881372272968292,-0.49044448137283325,0.12891364097595215,0.6686630845069885,-0.7323052287101746,-0.09535956382751465,0.09975427389144897,0.14761894941329956,0.8654964320455648,-0.3086161545289048,0.1964776202210955,-0.3421527359505581,-0.7324093341581406,0.1742527605058245,-0.6859690404641349
1784547104146595840,0.7176527976989746,0.29020410776138306,0.4651434123516083,-0.503541886806488,0.12830933928489685,0.6677703261375427,-0.733225405216217,-0.15984924137592316,0.2507935166358948,0.30857330560684204,0.8645988444308518,-0.3075631498748501,0.1969573837134493,-0.3450818295133918,-0.7312093402852138,0.17323891700155708,-0.6930408719896769
1784547104156516096,0.7275729179382324,0.3784249722957611,0.7554894089698792,-0.6265179514884949,0.1291048228740692,0.6659179329872131,-0.7347688674926758,-0.1744387298822403,0.25676578283309937,0.26044946908950806,0.8635859434963936,-0.30554860214411106,0.19813028324709678,-0.348717402726479,-0.7287235461950174,0.1739326168777442,-0.7010791829978483
1784547104166435840,0.7374927997589111,0.1978197693824768,0.8891593217849731,-0.7571137547492981,0.1306147575378418,0.664586067199707,-0.7357072234153748,-0.1843256801366806,0.19286632537841797,0.30621808767318726,0.8619960954500681,-0.303464360594288,0.200139363898725,-0.35329344867330337,-0.7269396752084138,0.1757055614241378,-0.7109657126143262
1784547104176355072,0.7474119663238525,-0.225878044962883,0.871036171913147,-0.7085199952125549,0.13207551836967468,0.6655946969985962,-0.7345336675643921,-0.10589143633842468,0.03865939378738403,0.2332366704940796,0.8598152880581403,-0.3026973116335808,0.20274988386935075,-0.35774909268673355,-0.7282904207163837,0.17790761289040266,-0.7206150784097062
1784547104186275072,0.7573318481445312,-0.16519445180892944,0.9268746972084045,-0.6147170662879944,0.13427157700061798,0.6683511734008789,-0.7316268682479858,0.022558242082595825,-0.2271127700805664,-0.09910738468170166,0.8573497308207341,-0.30286900539033934,0.20605078970962049,-0.36161441388771143,-0.731989974381451,0.18150488498863962,-0.7285558099298967
1784547104196195072,0.7672519683837891,0.2029016762971878,1.0338724851608276,-0.7885992527008057,0.1366877406835556,0.6688201427459717,-0.7307503819465637,0.146942600607872,-0.4577758312225342,-0.3822256326675415,0.855189878434704,-0.3015613445836207,0.2090108998320491,-0.3660951268758743,-0.732620621636128,0.1849143513573216,-0.7378535143873708
1784547104206114048,0.7771708965301514,-0.11823932826519012,0.7207092642784119,-0.43086129426956177,0.13891279697418213,0.6694306135177612,-0.729771077632904,0.25998246669769287,-0.33051764965057373,-0.21351194381713867,0.8531482627094636,-0.30044591404717996,0.21177039954131172,-0.37016695338236455,-0.7334420760993529,0.18810088116715548,-0.7463109905453237
1784547104216034048,0.7870907783508301,-0.06782715022563934,0.438968300819397,-0.2566392421722412,0.14095032215118408,0.6706356406211853,-0.7282724976539612,0.4261120557785034,-0.3021816611289978,-0.008467614650726318,0.8517953816995077,-0.3001688269885717,0.21392153098868016,-0.3722645481298674,-0.7350653667296789,0.19117698104504388,-0.7502406055362042
1784547104225954048,0.7970108985900879,-0.39908790588378906,0.3450378179550171,-0.1995149850845337,0.14216598868370056,0.6726374626159668,-0.7261871099472046,0.31591808795928955,-0.0928645133972168,0.05425107479095459,0.8506251432387493,-0.300696168276779,0.2156113301462113,-0.3735379356161905,-0.7377673150519427,0.19332540020783176,-0.7526272479535704
1784547104235874048,0.8069307804107666,-0.4511566460132599,0.2828764021396637,-0.1749185174703598,0.1431182324886322,0.6759262084960938,-0.7229391932487488,0.1462189108133316,0.10822296142578125,0.073616623878479,0.8493367032166039,-0.30211187150982516,0.21739097045131636,-0.37429517255366207,-0.7422207253929585,0.195440166132906,-0.7539118632835379
1784547104245793024,0.816849946975708,-0.9016057848930359,0.47983258962631226,-0.4197080433368683,0.14405502378940582,0.6812272667884827,-0.7177587747573853,-0.04954206943511963,-0.039228975772857666,-0.10034120082855225,0.8473758957679943,-0.3045799324658905,0.21989018149445358,-0.3752779382905911,-0.7494377416657148,0.1980696718444492,-0.7557017311082823
1784547104255713024,0.8267698287963867,-0.845240592956543,0.5845583081245422,-0.7250638604164124,0.14373499155044556,0.6880955100059509,-0.7112417817115784,-0.11919884383678436,-0.3748173117637634,0.049010276794433594,0.8444207066822855,-0.3078285640519804,0.22275703032716235,-0.3775905432462391,-0.7588611559729135,0.19940455556112385,-0.7612428634309903
1784547104265633024,0.8366899490356445,-1.6998604536056519,0.7578867077827454,-0.7338355183601379,0.14335495233535767,0.6979319453239441,-0.7016697525978088,-0.06303270161151886,-0.2180582880973816,0.25824928283691406,0.8403520340463754,-0.31262688276639483,0.22678087433862285,-0.3803201246587007,-0.7725057199687072,0.201531963318079,-0.7677906920739023
1784547104275553024,0.8466098308563232,-2.3036041259765625,0.9478768706321716,-0.6569400429725647,0.14449843764305115,0.712835431098938,-0.6862841844558716,-0.009107217192649841,-0.08449369668960571,0.2806445360183716,0.8348870476756196,-0.3201738947027198,0.23312354534799531,-0.38223793968518327,-0.793532833618289,0.20752072387785678,-0.7714893114152178
1784547104285472256,0.8565289974212646,-2.9435694217681885,0.9858660697937012,-0.6252822875976562,0.1464463323354721,0.7314690947532654,-0.665962815284729,0.031333789229393005,-0.2727593779563904,0.0965200662612915,0.8282747096698504,-0.3299712825076651,0.24111725662777606,-0.3833308114602472,-0.8204739461567477,0.21645649998412195,-0.7724663719603091
1784547104295392000,0.8664488792419434,-3.249967575073242,1.1591047048568726,-0.76027911901474,0.1483451873064041,0.7528019547462463,-0.6413134932518005,0.007477566599845886,-0.44040876626968384,-0.03683286905288696,0.820481755960132,-0.34161276099371046,0.250287799229173,-0.38401368717717144,-0.8523084760622409,0.22731661525630564,-0.771949530158534
1784547104305312256,0.8763689994812012,-3.0887398719787598,1.4549366235733032,-1.006258249282837,0.14979299902915955,0.7740103006362915,-0.6151992082595825,-0.15888726711273193,-0.5053946375846863,-0.049198925495147705,0.8116289259767023,-0.35315508122965744,0.2601574020624163,-0.3858213512051532,-0.8851505488140831,0.23883943365731677,-0.7738828938397496
1784547104315232000,0.8862888813018799,-2.5867531299591064,1.8729294538497925,-0.945713222026825,0.15192419290542603,0.792745053768158,-0.5903171896934509,-0.20758824050426483,-0.22324126958847046,-0.06884729862213135,0.8024223646639678,-0.3628373171014079,0.27053741823192895,-0.38894339564176433,-0.9152992646494668,0.2518938996206837,-0.7781216087728459
1784547104325150976,0.8962078094482422,-1.878583550453186,2.1583237648010254,-0.9046643376350403,0.15659987926483154,0.806630551815033,-0.5699329376220703,-0.10156142711639404,0.26944971084594727,-0.11717027425765991,0.7939718081052789,-0.36872472716476207,0.2812038607974029,-0.39316050490022947,-0.9384290561137919,0.26815139853504244,-0.7830165901745584
1784547104335070976,0.9061279296875,-1.3284006118774414,2.0527424812316895,-0.8804461359977722,0.16002784669399261,0.8170939683914185,-0.5538488030433655,-0.03113687038421631,0.45909005403518677,-0.019851088523864746,0.7861139727375583,-0.37231963253061034,0.29060917704337674,-0.39868435607946867,-0.9563521300551051,0.28127733011403716,-0.792225063218733
1784547104344990976,0.9160478115081787,-0.5152278542518616,1.9494916200637817,-0.2983861565589905,0.1667785346508026,0.8234273791313171,-0.5423581600189209,0.21530155837535858,0.41155803203582764,-0.05406218767166138,0.7802526199591305,-0.3729837336719008,0.29950636467060054,-0.4029702853562001,-0.9674251187334798,0.2983289721401023,-0.7958899902595455
1784547104354910976,0.9259679317474365,0.5073910355567932,1.5780936479568481,-0.5203481912612915,0.17308920621871948,0.8241487741470337,-0.5392762422561646,0.318350613117218,0.49627047777175903,-0.31037890911102295,0.7768005951328458,-0.3700641393941457,0.30563773183146153,-0.40769951642894475,-0.9686976539304764,0.31057875281386027,-0.8022834989674452
1784547104364829952,0.9358868598937988,1.864372730255127,1.6138519048690796,-0.5688449144363403,0.17671431601047516,0.8194591999053955,-0.5452143549919128,0.16932451725006104,0.664534330368042,-0.33675891160964966,0.7752178576685235,-0.3637337750742611,0.3083675836580682,-0.41429998850553357,-0.9604668179897545,0.31343483870410804,-0.8173719322978048
1784547104374750208,0.9458069801330566,4.164041996002197,1.7599213123321533,-0.39646756649017334,0.18213678896427155,0.803627610206604,-0.5665764808654785,0.10430119931697845,0.7936471700668335,-0.512265682220459,0.77698311243609,-0.3493094437949342,0.30772499519993834,-0.42377535400222777,-0.9333658489838074,0.3110349363297067,-0.8409791730195517
1784547104384669952,0.9557268619537354,4.6438775062561035,1.4757684469223022,0.18444563448429108,0.19050824642181396,0.777779221534729,-0.598970890045166,0.22396622598171234,1.0091623067855835,-0.4553351402282715,0.7819300140610587,-0.3286806999136069,0.30411106282382033,-0.4336714780648019,-0.8911247655903239,0.30794148362773194,-0.8647880880356248
1784547104394590208,0.9656469821929932,5.167905330657959,1.9219337701797485,-0.24168916046619415,0.20110175013542175,0.7479295134544373,-0.6325817108154297,-0.08832405507564545,0.7153730988502502,-0.1288013458251953,0.7872392215926763,-0.30604539474504666,0.30007561187066006,-0.44333428767213096,-0.8449372957542657,0.3078026358749202,-0.8865211722642637
1784547104404509184,0.9755659103393555,5.156534671783447,2.2135560512542725,-0.7149555087089539,0.2106722593307495,0.7154678702354431,-0.6661252975463867,-0.373620867729187,0.24046474695205688,-0.003918647766113281,0.7905785307805376,-0.2818161750516007,0.2958327058102648,-0.45612304738411047,-0.7972935525279652,0.306311417656262,-0.9167410620180617
1784547104414428928,0.9854857921600342,4.449299335479736,2.1726088523864746,-0.5146480798721313,0.22113880515098572,0.6840453743934631,-0.6951112151145935,-0.1507042497396469,-0.026437342166900635,0.2531556487083435,0.7924429830844191,-0.2586499259772082,0.2924800989521818,-0.4686040403086376,-0.7532941497400611,0.3080097400900502,-0.9454110524926119
1784547104424349184,0.995405912399292,3.243593454360962,2.1704964637756348,-0.4729432165622711,0.23335221409797668,0.6581283807754517,-0.7158308029174805,-0.11187699437141418,-0.30790865421295166,0.42209911346435547,0.7929142603519411,-0.2390223026739723,0.291466855631563,-0.47875079200861564,-0.7183301635155345,0.31512520253723936,-0.9672362992559302
1784547104434268928,1.0053257942199707,2.227935552597046,2.3377914428710938,-0.6977827548980713,0.2457539141178131,0.6400517225265503,-0.7279689311981201,-0.18877758085727692,-0.5137090086936951,0.3558529019355774,0.7914341322303907,-0.22382566575924723,0.29311702936440714,-0.48745914700328663,-0.6945655488791196,0.32557525284619576,-0.9853295398568501
1784547104444188160,1.015244960784912,1.507882833480835,2.3393924236297607,-0.9612647294998169,0.25754818320274353,0.6285246014595032,-0.7339112758636475,-0.24116024374961853,-0.5328519940376282,0.19352126121520996,0.7880125268612852,-0.21197601649319886,0.2968341733530655,-0.4959756955606357,-0.679654819947105,0.3374990866486151,-1.003194680797376
1784547104454107904,1.0251648426055908,0.9709376692771912,2.4065239429473877,-1.2086536884307861,0.26818645000457764,0.622710108757019,-0.7350565791130066,-0.14492598176002502,-0.30273330211639404,0.27285265922546387,0.7829741275584882,-0.20303459799779014,0.30207392681260037,-0.5044600268229579,-0.6722015673563104,0.3498437613047018,-1.0213718411727135
1784547104464028160,1.0350849628448486,1.0052241086959839,2.356940746307373,-1.3654356002807617,0.2776966094970703,0.6192138195037842,-0.7344785332679749,-0.021776169538497925,-0.10625916719436646,0.10468733310699463,0.7770585756773893,-0.1952399009651015,0.3076395615467002,-0.5132437585784413,-0.6677411241697843,0.3614740943269948,-1.0408429881036834
1784547104473947904,1.0450048446655273,1.0783607959747314,2.308023691177368,-1.5848991870880127,0.28559610247612,0.615628182888031,-0.734463632106781,0.012148618698120117,-0.03342902660369873,0.04151630401611328,0.7706757249058594,-0.18746310271795089,0.31245121001528076,-0.5227722402426483,-0.6631828427780985,0.3708574156707684,-1.0630749170643539
1784547104483866880,1.0549237728118896,1.0594347715377808,2.190500259399414,-1.6357752084732056,0.29210707545280457,0.6124951839447021,-0.7345224022865295,0.029792338609695435,0.03861260414123535,0.07720422744750977,0.7639192610566996,-0.18005736637996406,0.3167304154826504,-0.5326242562378477,-0.6592133114783277,0.3785073989050015,-1.0868603020243484
1784547104493787136,1.0648438930511475,1.1910289525985718,2.1510393619537354,-1.62067449092865,0.29800304770469666,0.6090898513793945,-0.7349855303764343,0.050736576318740845,0.03663158416748047,-0.0023953914642333984,0.7571468833314763,-0.17263954114188643,0.32047279327871925,-0.5424218020909646,-0.6549124896981504,0.385199495538533,-1.1110037982833143
1784547104503706880,1.0747637748718262,1.15223228931427,2.324058771133423,-1.7039302587509155,0.3043268620967865,0.6055956482887268,-0.7352815866470337,-0.016485095024108887,0.09308898448944092,-0.05761080980300903,0.750022107122846,-0.16487842090523042,0.32430587539892847,-0.5523654264613926,-0.6505141442920048,0.392424227957681,-1.135701700774143
1784547104513627136,1.084683895111084,1.6976395845413208,2.4523112773895264,-1.8207309246063232,0.3111407160758972,0.600814163684845,-0.7363516688346863,-0.09702935814857483,0.17474430799484253,-0.13222438097000122,0.7424296045687814,-0.156010220318106,0.32784902119803544,-0.5630045316025118,-0.64451922466762,0.3997882560570889,-1.1625284759277692
1784547104523545856,1.0946028232574463,3.934448003768921,3.442833185195923,-1.9714975357055664,0.3214927017688751,0.5872805714607239,-0.7427946925163269,-0.00821453332901001,0.17961090803146362,-0.22146916389465332,0.7341850065197145,-0.14105341594869347,0.3297067985771474,-0.576515169033463,-0.6276948227379835,0.40847136953958324,-1.197105889073207
1784547104533466112,1.104522943496704,5.401394367218018,3.446887493133545,-2.4454145431518555,0.33459722995758057,0.5584516525268555,-0.7590628266334534,0.44860586524009705,0.10443586111068726,-0.07324302196502686,0.7252952200747761,-0.11717081246774091,0.3267102518347651,-0.5945402674687336,-0.5925181155745375,0.4151795024401621,-1.2448964387479224
1784547104543385856,1.1144428253173828,4.521841049194336,3.6924197673797607,-2.286006450653076,0.34853431582450867,0.5279956459999084,-0.7744317054748535,0.841773271560669,-0.44134098291397095,0.22668695449829102,0.7149748885553573,-0.09229927188325968,0.3229008882261419,-0.6132103211026134,-0.5562386654039702,0.42289692767190007,-1.2954324219305857
1784547104553306112,1.1243629455566406,2.565319061279297,3.7761220932006836,-1.7166171073913574,0.36744925379753113,0.5077784657478333,-0.7791932225227356,0.8414130210876465,-1.1422083377838135,0.1883729100227356,0.7042142385751669,-0.07139923790788184,0.3245081464770133,-0.6274384187104985,-0.5326041185979739,0.44065141810144925,-1.3335816474990103
1784547104563225088,1.134281873703003,1.1568841934204102,3.355006456375122,-1.5211198329925537,0.3872024714946747,0.49976593255996704,-0.774795651435852,0.5309035778045654,-1.3283333778381348,-0.01579272747039795,0.6939252316273286,-0.05641374836664195,0.33078645375358123,-0.637075794438145,-0.5233285187343792,0.463445888972237,-1.359209392789
1784547104573145088,1.1442019939422607,0.042621858417987823,2.8831980228424072,-1.4770724773406982,0.40352663397789,0.5009741187095642,-0.7656312584877014,0.2799450159072876,-0.9073004722595215,-0.4466032385826111,0.684181211205342,-0.046948381403089816,0.33908735044686306,-0.6439811324636278,-0.5247239498718466,0.48505341778905153,-1.37759720681168
1784547104583065088,1.1541218757629395,-1.0353893041610718,2.473048686981201,-1.5661914348602295,0.41612592339515686,0.5112777948379517,-0.7519536018371582,0.09734758734703064,-0.37648165225982666,-0.8599390983581543,0.674629706690144,-0.04279194151721427,0.34955978663735054,-0.6487307646381297,-0.5366709644095614,0.5054445401286983,-1.389881213747325
1784547104592985088,1.1640419960021973,-1.4535058736801147,2.2963674068450928,-1.918615698814392,0.42465439438819885,0.5280559062957764,-0.7354084849357605,0.016553491353988647,-0.1346537470817566,-1.1344187259674072,0.6645687067756564,-0.0424948699238308,0.36123390145905804,-0.6527271656462081,-0.5563096060467697,0.5236661649847313,-1.4000655761464185
1784547104602904064,1.1739609241485596,-0.8412461280822754,2.089488983154297,-2.039198398590088,0.42974820733070374,0.5453845858573914,-0.7196334004402161,0.052994102239608765,-0.10071295499801636,-1.2304246425628662,0.6537965392884786,-0.04302736448359927,0.3719300423655768,-0.6575461132628542,-0.5768478842316715,0.5383408662961991,-1.413182377897388
1784547104612824064,1.1838808059692383,-0.04086211323738098,2.151280164718628,-2.081789493560791,0.4334287941455841,0.5573067665100098,-0.7082010507583618,0.1782960593700409,0.055699825286865234,-1.1470693349838257,0.6430368827417035,-0.04136946480564992,0.37972102493497506,-0.6637801709510694,-0.5911385830654201,0.5492063662231468,-1.4313979695155186
1784547104622744064,1.193800926208496,0.4046594202518463,2.151322603225708,-2.17985200881958,0.43667054176330566,0.5650126934051514,-0.700056791305542,0.21004271507263184,0.03145337104797363,-1.0784618854522705,0.6318732901301932,-0.037551795727550644,0.3854367321751353,-0.6713899843058453,-0.6004486175020881,0.5577103602809264,-1.454606378030827
1784547104632664064,1.2037208080291748,0.8334603309631348,1.8601055145263672,-2.053076982498169,0.4386705160140991,0.5701465606689453,-0.6946229934692383,0.2823072373867035,-0.07409858703613281,-0.7892179489135742,0.6209949088055436,-0.03304303454973534,0.38935415310152194,-0.6794680726913351,-0.6066842212727351,0.5632763869227254,-1.4800342854553212
1784547104642583040,1.2136399745941162,1.3483563661575317,1.4214335680007935,-1.9927058219909668,0.43849724531173706,0.5715144872665405,-0.6936075091362,0.40964728593826294,0.0030399560928344727,-0.6987722516059875,0.611143235837554,-0.028107264702581694,0.3903924014408297,-0.6879736257773196,-0.6083502675178694,0.5637586244703321,-1.5076236206935223
1784547104652503040,1.223559856414795,2.367820978164673,0.8696047067642212,-1.8929191827774048,0.43548712134361267,0.5675243735313416,-0.6987610459327698,0.5621629953384399,0.25304752588272095,-0.9324949979782104,0.6024123299938456,-0.022451448058377215,0.38744729142644224,-0.6974810666825128,-0.603495961367655,0.5573237180314021,-1.539173904759541
1784547104662423040,1.2334799766540527,3.6491687297821045,0.3823375701904297,-1.5462772846221924,0.4299677908420563,0.5539502501487732,-0.712928295135498,0.6819859147071838,0.41971302032470703,-0.9488758444786072,0.5955131816855811,-0.014767820235927943,0.37857331194560573,-0.7083982789348872,-0.5871015250393721,0.5426965453315912,-1.575711873348683
1784547104672343040,1.2433998584747314,5.298007488250732,-0.6631696224212646,-1.1199054718017578,0.42291635274887085,0.5275365114212036,-0.7367815375328064,0.8689537048339844,0.3793696165084839,-0.8601727485656738,0.5909878579254626,-0.004062257716015821,0.36275711748679557,-0.7205027875959811,-0.5556981370317314,0.5210862687166599,-1.6158734766773863
1784547104682262016,1.2533187866210938,6.65830135345459,-1.6417039632797241,-0.7501855492591858,0.4091120958328247,0.4866494834423065,-0.7718805074691772,1.1424320936203003,0.4860982894897461,-0.902435839176178,0.5897551140661296,0.007398630994151615,0.33764626695561745,-0.7335728204082346,-0.5082503325527756,0.4873741759758095,-1.6583255038857578
1784547104692182016,1.2632389068603516,8.067192077636719,-2.0645384788513184,-0.48340046405792236,0.39140066504478455,0.431191623210907,-0.8129448890686035,1.109728455543518,0.709830105304718,-0.403134822845459,0.5898932742141333,0.021041704305897895,0.30509803900784366,-0.7473275654709185,-0.4458130768246908,0.44870612303907126,-1.7018232990597553
1784547104702102016,1.2731587886810303,8.283185005187988,-2.201709747314453,0.015876999124884605,0.3723415434360504,0.36322662234306335,-0.8540656566619873,0.826877236366272,0.7398006916046143,-0.019438982009887695,0.5908709850788993,0.0369102522062191,0.2675907227404501,-0.7602001273706498,-0.37172870401580854,0.4111201435218242,-1.7417829218905594
1784547104712022016,1.283078908920288,7.69910192489624,-1.9793646335601807,0.9230909943580627,0.35547518730163574,0.29299163818359375,-0.8875771760940552,0.5689785480499268,0.5494460463523865,0.32098788022994995,0.5933901425533484,0.052752818175023815,0.23114615367047905,-0.7692052214491832,-0.29735431094825077,0.38093784144428866,-1.7696955051358259
1784547104721940992,1.2929978370666504,7.416710376739502,-1.7472161054611206,1.9372347593307495,0.3427206873893738,0.22040334343910217,-0.913216769695282,0.4544747471809387,-0.09692922234535217,0.256509006023407,0.5986116273851017,0.06959580126693914,0.19633652802222737,-0.7734807634681574,-0.22222796341670878,0.3590244674685196,-1.783835654736125
1784547104731860992,1.3029179573059082,6.768368721008301,-1.7792311906814575,2.416861057281494,0.3307136595249176,0.14777910709381104,-0.9320889711380005,0.3948112428188324,-0.7494179010391235,0.185217022895813,0.6059370254651858,0.08611751293245903,0.16290887537475796,-0.7738764429530003,-0.14832234149878562,0.3409526818410587,-1.7874494126074882
1784547104741780992,1.312837839126587,5.699841022491455,-1.8167349100112915,2.5486888885498047,0.3166744112968445,0.08134660869836807,-0.945039689540863,0.553000271320343,-1.2732411623001099,-0.04382139444351196,0.6138776543086085,0.09998367517768667,0.13222484230284792,-0.7717993518185318,-0.08143659081926058,0.3233317349453215,-1.7844630424026258
1784547104751700992,1.3227579593658447,3.720376968383789,-2.0236425399780273,2.9603898525238037,0.3004659414291382,0.028054475784301758,-0.9533798694610596,0.8798013925552368,-1.6155636310577393,-0.21352076530456543,0.6228974188594514,0.10907279859629991,0.10683256611067415,-0.7672604453593094,-0.02805815644554728,0.3053051846287535,-1.7734303738370403
1784547104761619968,1.332676887512207,1.2026784420013428,-3.207082509994507,3.494138479232788,0.2761780619621277,-0.004541939124464989,-0.9610957503318787,1.2864744663238525,-1.6542257070541382,-0.17112165689468384,0.6351025029695615,0.10846278494340506,0.08768094172346393,-0.7597319922453956,0.004541954934422696,0.27981819057252477,-1.749664160261167
1784547104771539968,1.3425967693328857,-0.28967657685279846,-4.0488152503967285,3.830850839614868,0.24075934290885925,-0.017333945259451866,-0.9704300165176392,1.5041441917419434,-1.387939453125,-0.18655234575271606,0.6500431730364263,0.09737104262269733,0.07282759687684921,-0.7501058826860902,0.017334813498161013,0.24318541171991587,-1.7156034765785682
1784547104781459968,1.3525168895721436,-0.40630465745925903,-4.444668769836426,4.255672931671143,0.19835469126701355,-0.022362275049090385,-0.9798751473426819,1.3605899810791016,-1.0605082511901855,-0.25408780574798584,0.6665594524466903,0.08153282132015359,0.058436417761521,-0.73867181661671,0.022364139950778253,0.199729588437273,-1.6755814427401834
1784547104791379968,1.3624367713928223,-0.07365214824676514,-4.541093349456787,4.708866119384766,0.15339311957359314,-0.02732488512992859,-0.9877873659133911,1.1452518701553345,-0.843707799911499,-0.3409021496772766,0.6840279950726224,0.06536946500213564,0.04281524374661237,-0.725258087744927,0.027328286050819824,0.1540591037479675,-1.631400962672206
1784547104801299200,1.3723559379577637,0.7894437313079834,-4.384387493133545,5.162425518035889,0.1077648475766182,-0.03742809221148491,-0.993471622467041,0.9983752965927124,-0.874162495136261,-0.378629207611084,0.7023020883204603,0.05154520228916989,0.024643017426938616,-0.7095826635068365,0.03743683464722006,0.10805053448445393,-1.5831342133435324
1784547104811218944,1.3822758197784424,0.7931550741195679,-4.164145469665527,5.501536846160889,0.06312431395053864,-0.05030544847249985,-0.996737003326416,0.9660199880599976,-1.1982907056808472,-0.438901424407959,0.7209639325140786,0.04003404641521685,0.005363412126421386,-0.6917943854529292,0.05032669196616859,0.06324649194344673,-1.531100046510078
1784547104821139200,1.3921959400177002,0.9014261960983276,-4.156601428985596,5.840695381164551,0.019063208252191544,-0.06051557511091232,-0.9979851841926575,1.0287425518035889,-1.6111305952072144,-0.21203672885894775,0.7399173769353259,0.02882204499553627,-0.013292468620930302,-0.671948589804235,0.06055257198614609,0.01909937130996846,-1.4751668787922965
1784547104831058944,1.402115821838379,0.7760925889015198,-4.206617832183838,6.1434712409973145,-0.026396827772259712,-0.06948231905698776,-0.9972338676452637,1.1792746782302856,-1.7924256324768066,-0.16608089208602905,0.7589913393445954,0.017813405962127406,-0.032645698258564414,-0.6500378578839846,0.06953835074953935,-0.02646386766029574,-1.4155326060818478
1784547104840978176,1.4120349884033203,0.007298224605619907,-4.069383144378662,6.436665058135986,-0.07161573320627213,-0.06997881084680557,-0.9949744343757629,1.3036713600158691,-1.5227488279342651,0.05356818437576294,0.7779892759128647,0.004807902982960268,-0.04989648841233335,-0.6262746693266518,0.07003604847335773,-0.07185354223893906,-1.3530359121646336
1784547104850900480,1.42195725440979,-0.4061845541000366,-3.8812222480773926,6.816737651824951,-0.11531317234039307,-0.06182044371962547,-0.9914035797119141,1.310625672340393,-1.350288987159729,0.40241438150405884,0.7970500467346137,-0.01001986845172954,-0.0647904297459228,-0.6003441987626386,0.06185988913162529,-0.1157927373872273,-1.2875152193363018
1784547104860820480,1.4318773746490479,-0.6640520691871643,-3.473262310028076,6.943918704986572,-0.15509876608848572,-0.04704119265079498,-0.9867783188819885,1.2073601484298706,-1.4263474941253662,0.5136491060256958,0.8157497345699377,-0.025390500806505102,-0.07724085883176444,-0.5726618159317763,0.04705855904782527,-0.1559014233145974,-1.2204666492046903
1784547104870740480,1.4417972564697266,-0.6717609763145447,-3.046797275543213,7.084105968475342,-0.18964752554893494,-0.02863636240363121,-0.9814345240592957,1.1122549772262573,-1.6425062417984009,0.6475570201873779,0.8337109619601211,-0.03999262886420209,-0.08765451453826015,-0.5437309701907569,0.028640277577618015,-0.1908823859660727,-1.1530727730138253
1784547104880659456,1.451716423034668,-1.1107447147369385,-2.5922844409942627,7.322847366333008,-0.21824911236763,-0.005671663209795952,-0.9758766293525696,1.1131160259246826,-1.7456711530685425,0.9312294125556946,0.8511033018584001,-0.054263554534428486,-0.09548382995963814,-0.5133824455111469,0.005671693801144837,-0.22002357378884924,-1.084906526774664
1784547104890579456,1.4616363048553467,-1.8329463005065918,-2.2248916625976562,7.514482498168945,-0.2406878024339676,0.025375481694936752,-0.9702708125114441,1.1663165092468262,-1.7367249727249146,1.3114268779754639,0.8678151584521715,-0.07002076742756962,-0.09980822535133861,-0.4816971943711918,-0.02537820657189884,-0.24315429511832065,-1.016553882767568
1784547104900499456,1.4715561866760254,-2.6408603191375732,-2.002145528793335,7.556191921234131,-0.2575429677963257,0.06543948501348495,-0.9640483856201172,1.2224630117416382,-1.7027533054351807,1.6349163055419922,0.8833154454138978,-0.08833348740120187,-0.10086130320352422,-0.44919698256742324,-0.06548627718681553,-0.26105110353112854,-0.9495042955739275
1784547104910419456,1.4814763069152832,-3.529336452484131,-1.7786060571670532,7.412301540374756,-0.268853098154068,0.11457068473100662,-0.9563428163528442,1.2115715742111206,-1.6495743989944458,1.7996655702590942,0.8969402304290116,-0.1097987895124704,-0.09885756436818892,-0.4167370260233821,-0.11482283155334011,-0.2740527935690576,-0.8857417265148371
1784547104920338432,1.4913952350616455,-3.6994340419769287,-1.615518569946289,7.323602199554443,-0.2746035158634186,0.1688375174999237,-0.9466186165809631,1.1975313425064087,-1.670485496520996,1.7397704124450684,0.9085460121934569,-0.13304425722132576,-0.09481516747056301,-0.38451728211127645,-0.16965013559332773,-0.2823393874749812,-0.8248952733432067
1784547104930258432,1.5013153553009033,-3.953533411026001,-1.3085241317749023,7.342637062072754,-0.27402713894844055,0.22431805729866028,-0.9351954460144043,1.2250158786773682,-1.7083115577697754,1.6253046989440918,0.9185361703246837,-0.1563128802406109,-0.08926676116381795,-0.3519787647618187,-0.22624320685149824,-0.2850370995664938,-0.7644726248716956
1784547104940178432,1.511235237121582,-4.394061088562012,-0.9593408107757568,7.4012579917907715,-0.26603880524635315,0.2824421525001526,-0.9216560125350952,1.1940630674362183,-1.6249409914016724,1.8716987371444702,0.9268314687745564,-0.1803984095686826,-0.08141509776112729,-0.3190789337777295,-0.2863389737497028,-0.2810145162837809,-0.7038924143290793
1784547104950098432,1.5211553573608398,-5.063958644866943,-0.5425330400466919,7.533910274505615,-0.24962060153484344,0.3441031575202942,-0.9051423072814941,1.1651480197906494,-1.5694448947906494,2.228872776031494,0.9332370848046566,-0.20599672333456287,-0.07066972283258857,-0.2857263751333861,-0.3512834425875431,-0.26909170671472393,-0.6422466434918865
1784547104960017408,1.5310742855072021,-5.563867568969727,-0.28698861598968506,7.731635093688965,-0.22470586001873016,0.4095519781112671,-0.8841801285743713,1.1634265184402466,-1.621801733970642,2.4926700592041016,0.9374408056942147,-0.23376918521892348,-0.05711313793719307,-0.25158467566681164,-0.4219628972197577,-0.24887166946027153,-0.5779558255224057
1784547104969937664,1.54099440574646,-5.766111850738525,-0.10045970231294632,7.966135501861572,-0.19189593195915222,0.47478654980659485,-0.8589258790016174,1.234666347503662,-1.75437331199646,2.38961124420166,0.9395296725765477,-0.2622837011458857,-0.041765055163476394,-0.21621037994556253,-0.4947215014346822,-0.21980420644924634,-0.50809430884107
1784547104979857408,1.5509142875671387,-6.035398483276367,-0.04046028107404709,8.247845649719238,-0.15164825320243835,0.5381585359573364,-0.8290888071060181,1.3219821453094482,-1.8310203552246094,2.3800530433654785,0.9393529002289353,-0.2912468672775724,-0.025117081911413597,-0.17933351053162105,-0.5682507278981888,-0.18090973677623204,-0.43024611555362374
1784547104989777664,1.5608344078063965,-5.885696887969971,-0.08965229243040085,8.46054458618164,-0.10503426194190979,0.5970882177352905,-0.7952694296836853,1.4198840856552124,-1.8981441259384155,2.2778592109680176,0.936911374685898,-0.3198462791437715,-0.007977995267005024,-0.14082532694677852,-0.6398663383401935,-0.13131380651385613,-0.3419444165275268
1784547104999696384,1.5707533359527588,-5.680410861968994,-0.0937812551856041,8.659929275512695,-0.052816182374954224,0.6484087705612183,-0.7594580054283142,1.5135552883148193,-1.9808521270751953,2.1373114585876465,0.9324868758766799,-0.3466784544729079,0.009222397428034863,-0.10098076473926211,-0.7054924248160817,-0.06943278089865484,-0.24131314801396414
1784547105009616384,1.5806732177734375,-5.293609142303467,-0.04841133952140808,8.900017738342285,0.004999837372452021,0.6909095644950867,-0.7229239344596863,1.5950825214385986,-2.0302956104278564,2.182854413986206,0.9262176463719444,-0.37124869717062503,0.026691443705125287,-0.059857900375201216,-0.7627464588141921,0.006916021531237157,-0.1262994978234073
1784547105019536384,1.5905933380126953,-5.262351989746094,-0.017580989748239517,9.058431625366211,0.06798718124628067,0.7242783308029175,-0.6861477494239807,1.696768045425415,-2.074040412902832,2.190572738647461,0.9180176902090504,-0.3936125282067109,0.044668894081502764,-0.017817638028826157,-0.8099871530161257,0.09876296273926877,0.003554222445586957
1784547105029456384,1.600513219833374,-5.447524547576904,-0.14389261603355408,9.25899887084961,0.13446195423603058,0.7506252527236938,-0.6469016671180725,1.7780288457870483,-2.0699305534362793,2.4014182090759277,0.9070916002570298,-0.4154929850482349,0.0625679752869779,0.025213646146203847,-0.8490078902953075,0.20493722395616487,0.14846536443715863
1784547105039375616,1.6104323863983154,-5.48343563079834,-0.22806182503700256,9.463431358337402,0.20394086837768555,0.7688499093055725,-0.6060345768928528,1.8434224128723145,-2.0998282432556152,2.4315502643585205,0.8934204585955494,-0.4365167136291338,0.08022386888294315,0.06940578751102076,-0.877040602944624,0.3246130021452629,0.3083448011478465
1784547105049295360,1.6203522682189941,-5.714438438415527,-0.1825619637966156,9.5419921875,0.27568280696868896,0.7785422801971436,-0.5638003349304199,1.8262916803359985,-2.104149580001831,2.3739047050476074,0.8768534724890101,-0.45666583527728083,0.09775560410435334,0.11414049130909003,-0.8923397747577132,0.4547866954468308,0.4793593588999768
1784547105059215616,1.630272388458252,-6.802893161773682,0.44192373752593994,9.167177200317383,0.348857045173645,0.7826352715492249,-0.5155392289161682,1.748799204826355,-2.0906341075897217,2.264455795288086,0.8561121224899937,-0.47838267724847877,0.11567373166090653,0.15761197292704715,-0.898888149500704,0.5949055383106738,0.6577374619103499
1784547105069135360,1.6401922702789307,-6.774104595184326,0.6467620134353638,8.263870239257812,0.4195661246776581,0.7841673493385315,-0.4572151005268097,1.585545539855957,-2.127703905105591,2.2468879222869873,0.830637129140684,-0.5035928005464697,0.13336695449891908,0.1965943955652831,-0.901353215795949,0.7424845546664264,0.8371911158584138
1784547105079054336,1.650111198425293,-4.032201290130615,-4.237011909484863,11.812776565551758,0.52891606092453,0.7269065976142883,-0.43801218271255493,4.843780040740967,-0.41574937105178833,0.9349756836891174,0.8083475264442218,-0.5028062284310398,0.16786842234687183,0.2560867219108495,-0.8138066420032962,0.8791356914034192,1.0134990970603348
1784547105088974592,1.6600313186645508,-10.013830184936523,-9.193841934204102,0.3195309042930603,0.5246618986129761,0.7393861413002014,-0.4219456911087036,4.413722991943359,5.607903957366943,4.659204483032227,0.7858850163722326,-0.521384290890736,0.13109374880202151,0.3055449224610671,-0.8321581659476792,0.8934850399082845,1.1588114953199087
1784547105098894336,1.6699512004852295,-5.70827579498291,-3.790005683898926,4.034929275512695,0.5190026760101318,0.7550250291824341,-0.40071627497673035,1.5954077243804932,0.5782727599143982,1.4042563438415527,0.7663886312517975,-0.5376626763037516,0.10276530821324618,0.33616463660450574,-0.8556922463251545,0.9133074729795373,1.2675173698964612
1784547105108814592,1.6798713207244873,-3.5520989894866943,0.6015514135360718,5.934247970581055,0.5539203882217407,0.7449860572814941,-0.3717094361782074,0.015217185020446777,1.1233611106872559,1.8750816583633423,0.7439896397405901,-0.5509663619943647,0.10286567726673845,0.3637775402735437,-0.8405139801328755,0.9797637813692059,1.3774063611286838
1784547105118733312,1.6897902488708496,-4.3993706703186035,5.675427436828613,2.3824126720428467,0.5977587699890137,0.7338941097259521,-0.32262006402015686,-1.6058611869812012,0.5324326753616333,1.973025918006897,0.7230138532220124,-0.5694183161320477,0.12021959103044924,0.37223767527218715,-0.8240372180561244,1.0758828480768676,1.4610401580072387
1784547105128653568,1.6997103691101074,-4.6007609367370605,9.486062049865723,2.34610652923584,0.6356894969940186,0.7311406135559082,-0.24765366315841675,-0.19335246086120605,-0.4628605842590332,1.5148046016693115,0.7022183465206631,-0.5957197753320953,0.1459147580439378,0.3615470401769931,-0.8199923540391381,1.19930245755435,1.5285641309169602
1784547105138573312,1.7096302509307861,-6.972988128662109,9.609614372253418,0.4901305139064789,0.667130708694458,0.7321310639381409,-0.1375531107187271,2.1733386516571045,0.3212594985961914,2.0535383224487305,0.6726711115230325,-0.6329233283470611,0.17501858044151175,0.3410135416926706,-0.8214452788114259,1.3674596900057565,1.6203852588728418
1784547105148493568,1.719550371170044,-6.717486381530762,0.40532806515693665,-1.4143085479736328,0.664691150188446,0.7453870177268982,-0.050834305584430695,3.2511565685272217,1.114857792854309,1.2047802209854126,0.6459373774370875,-0.666229790900751,0.17527325278934966,0.32891057675998187,-0.8411151747450453,1.4944668254136955,1.7275788240519043
1784547105158412544,1.7294692993164062,-5.3502020835876465,-2.2087416648864746,2.3475124835968018,0.6667378544807434,0.7451120018959045,-0.016390766948461533,6.299768924713135,1.3642934560775757,0.24405187368392944,0.6279163170232092,-0.6817280932647681,0.1644731682175518,0.3375151384508034,-0.8407027848218422,1.546217751830132,1.8089537966676388
1784547105168332544,1.739389419555664,-6.838870048522949,-4.110566139221191,3.2569942474365234,0.688359797000885,0.7253328561782837,0.007280715275555849,3.6354928016662598,1.3391811847686768,1.2599464654922485,0.6040495471667361,-0.6927849854515223,0.1539133572049857,0.36260687014963094,-0.8115177587701293,1.581372836256311,1.9004875505628136
1784547105178252544,1.7493093013763428,-2.5453765392303467,-6.527377605438232,2.4796853065490723,0.7058973908424377,0.7082546949386597,0.009168465621769428,1.189091682434082,1.4752475023269653,0.9619313478469849,0.5855787998331429,-0.6968012558798384,0.1380298614361014,0.39052932846356386,-0.7870228411299166,1.5837839798255178,1.9726082811113297
1784547105188172544,1.7592294216156006,1.8650416135787964,-2.1450157165527344,2.828707456588745,0.7255019545555115,0.6875510811805725,-0.030341940000653267,-0.6157149076461792,1.0454659461975098,-0.4496843218803406,0.5840086392333962,-0.6835184933093514,0.13278365776350995,0.41725889797198756,-0.7581111148107584,1.52899868954454,1.9705485596448993
1784547105198091520,1.769148349761963,0.940290629863739,0.8960227370262146,-2.40082049369812,0.7274306416511536,0.684932291507721,-0.041384439915418625,-3.153242349624634,2.616611957550049,0.3325068950653076,0.5883312124994882,-0.6787973941175282,0.13616856647707953,0.41780227422873567,-0.7545107974031042,1.5139663349805867,1.9513787754329588
1784547105208011264,1.7790682315826416,1.7536563873291016,1.9183845520019531,-3.098545789718628,0.7073715329170227,0.7057517170906067,-0.03924737125635147,-2.2591140270233154,2.326871633529663,0.8769549131393433,0.5975639438822358,-0.6802213594506895,0.13294817091705016,0.40316393527162736,-0.7834836221613858,1.5153697614002317,1.932172880397834
1784547105217931520,1.7889883518218994,0.285783052444458,1.0792992115020752,-1.714961051940918,0.6908999085426331,0.7219146490097046,-0.03868727385997772,0.5222043395042419,0.3119598627090454,-0.4179930090904236,0.6055477107951031,-0.6807596445351421,0.13123516952051323,0.39071174751677884,-0.806565238388734,1.5148592583606284,1.9129609400803635
1784547105227851264,1.7989082336425781,-1.7495568990707397,0.45144394040107727,-0.7247846126556396,0.6823752522468567,0.7306038737297058,-0.02412751130759716,1.194089651107788,0.3860037922859192,-0.1165432333946228,0.6042471679576661,-0.686483491073462,0.1291381461656586,0.38333952512269814,-0.8192059761775757,1.5354529216326704,1.9243632549514702
1784547105237770496,1.8088274002075195,-1.2905997037887573,-0.59925377368927,0.4263518452644348,0.6822056174278259,0.7310200929641724,-0.014335636980831623,1.2247005701065063,0.7570018768310547,-0.46053314208984375,0.599299177135056,-0.6906557635910825,0.12580460101744054,0.3847187254027931,-0.8198157090262127,1.5497857580088235,1.9459528897096208
1784547105247690496,1.8187472820281982,-1.508632779121399,-0.9651723504066467,0.09664877504110336,0.6845144033432007,0.7289352416992188,-0.00966566987335682,0.7146554589271545,1.3928146362304688,-0.08518296480178833,0.5941638594500473,-0.6931067364793899,0.12153278153010476,0.38961793868837197,-0.8167653232595438,1.556676788527423,1.967324293772401
1784547105257610496,1.828667402267456,-0.23507019877433777,0.1664671152830124,-0.64906907081604,0.6821095943450928,0.7312300205230713,-0.005421528592705727,-0.015208899974822998,1.7967240810394287,0.09821021556854248,0.5918696557302119,-0.695309063308594,0.11762033037999156,0.390385955220823,-0.8201234169156162,1.5628483157920534,1.9804893132975274
1784547105267530496,1.8385872840881348,-0.022165857255458832,-0.21622274816036224,-1.5627325773239136,0.6742298603057861,0.7385010123252869,-0.005516099743545055,-0.3851063847541809,1.4295439720153809,-0.13854211568832397,0.5936320807312048,-0.6959990723631181,0.11325741254704755,0.38776159656328474,-0.8308444470843498,1.562615175883481,1.9820648519804447
1784547105277450496,1.8485074043273926,0.6064858436584473,-1.5246137380599976,-2.5937438011169434,0.6588833928108215,0.7521588206291199,-0.011394694447517395,-0.2947171926498413,0.9863818287849426,0.006679713726043701,0.598532984692546,-0.6952802314050147,0.1043458311080016,0.3839995365039817,-0.8513319494326754,1.5535041038707835,1.979248341023876
1784547105287369472,1.8584263324737549,2.407755136489868,-0.1803327053785324,-1.6624292135238647,0.6399064064025879,0.7678580284118652,-0.030230192467570305,0.1655135154724121,0.8949074745178223,-0.5333989858627319,0.6092853277096967,-0.6897257563383105,0.09572504696111686,0.3793237063259633,-0.8754907948816956,1.523589838003526,1.9534823211824155
1784547105297289472,1.8683462142944336,2.6458098888397217,-0.5782883167266846,-0.19965974986553192,0.6336004137992859,0.7718321681022644,-0.05315536633133888,0.6093347072601318,0.9093658924102783,-0.3798127770423889,0.62043754781042,-0.6811203183864998,0.0974547540517505,0.3763441246914801,-0.8817177253754515,1.4870981789633377,1.9092615083717146
1784547105307209472,1.8782663345336914,1.8822404146194458,-1.1275913715362549,-0.8886917233467102,0.6289414763450623,0.7736412286758423,-0.07689028978347778,-0.10997474193572998,0.6178994178771973,-0.16277951002120972,0.6295270108535865,-0.6724443872196784,0.09681633102267292,0.3770159343712192,-0.8845678062559431,1.4491465019284258,1.8731036738818794
1784547105317129472,1.8881862163543701,3.001868724822998,-1.2412537336349487,-1.4802417755126953,0.6171498894691467,0.780083417892456,-0.10293643176555634,-0.5027394890785217,0.944983720779419,-0.22526484727859497,0.6405305265555161,-0.6632856976967603,0.09264916118691943,0.3757510993011062,-0.8947991437578713,1.40552449592568,1.8331531401147236
1784547105327048448,1.8981053829193115,3.170593738555908,-1.1810173988342285,-0.9606602191925049,0.6073126792907715,0.7829540967941284,-0.13473758101463318,-0.3155646324157715,0.7552843689918518,-0.3829931616783142,0.653580681885672,-0.6513597520006504,0.09144224534351174,0.37443431149749573,-0.8994004351643643,1.352473849069605,1.7795843755706895
1784547105336968448,1.9080252647399902,2.886118173599243,-1.111311912536621,-1.072736382484436,0.5980274081230164,0.7842955589294434,-0.16505637764930725,-0.47440069913864136,0.8230041861534119,-0.20321452617645264,0.6657406897659268,-0.6397568498167198,0.0904598668019786,0.37325256901248954,-0.901559854886622,1.3014994065923857,1.7281414311342798
1784547105346888448,1.917945384979248,3.562795639038086,-0.7459553480148315,-0.9057695865631104,0.5887181162834167,0.7844192981719971,-0.19518521428108215,-0.470752477645874,0.7689101099967957,-0.5534414649009705,0.6781646093504584,-0.6278650687577629,0.09051433381710226,0.371059713253524,-0.9017592958496329,1.250658156585463,1.6738430670212843
1784547105356808448,1.9278652667999268,3.868091106414795,-1.2268394231796265,-1.4378968477249146,0.5771701335906982,0.7832697033882141,-0.2310045212507248,-0.323569118976593,0.7575932741165161,-0.5640546679496765,0.6923137008685798,-0.6135459085561777,0.08977282655354138,0.3690581328849624,-0.8999079606098493,1.1900861430233314,1.6114794326225246
1784547105366727424,1.937784194946289,4.384438991546631,-1.4350687265396118,-1.3308404684066772,0.5630016326904297,0.7808393836021423,-0.2707746922969818,-0.20199400186538696,0.8305038809776306,-0.3598558008670807,0.7077006338649088,-0.5973626494628221,0.08815057847614303,0.3668066602978028,-0.8960083282951564,1.1225059108671303,1.5432266381315318
1784547105376647424,1.9477043151855469,5.204004764556885,-1.5050885677337646,-1.2520079612731934,0.5487252473831177,0.7736721038818359,-0.3167523145675659,0.047313570976257324,0.5065402388572693,-0.2704364061355591,0.7248362295130826,-0.5778554726160968,0.08778893350191083,0.36467602126274395,-0.8846165983083978,1.047271866905881,1.4661382829126415
1784547105386567424,1.9576241970062256,5.009798049926758,-1.869460940361023,-1.2078243494033813,0.532428503036499,0.7640984654426575,-0.3642438054084778,0.05656075477600098,0.19644230604171753,0.12945681810379028,0.7421498550112501,-0.5571063508447831,0.08666377231994818,0.36240251103225024,-0.8696426471172318,0.970809275610524,1.3890598405106045
1784547105396487424,1.9675443172454834,4.5791449546813965,-1.1505509614944458,-0.7021273970603943,0.5194368362426758,0.7502032518386841,-0.4091217517852783,0.2770719528198242,0.006510615348815918,0.3746216297149658,0.75755168743619,-0.5365681405364957,0.08679716619815696,0.3614919855861175,-0.8483694035465634,0.9036464169094817,1.3219652680136487
1784547105406406400,1.9774632453918457,4.0559492111206055,-0.6626339554786682,-0.7102683186531067,0.5096087455749512,0.736513614654541,-0.44479960203170776,0.31082582473754883,-0.11909723281860352,0.7092344164848328,0.7703562593743708,-0.5193641249977359,0.08866283094164008,0.3590976004505016,-0.8279016019184257,0.853199119922697,1.266579722705166
1784547105416326400,1.9873833656311035,2.4412317276000977,-0.3240409791469574,-0.6897792816162109,0.5028941035270691,0.7246965765953064,-0.4710755944252014,0.42313122749328613,-0.16158628463745117,0.5193086862564087,0.7805342992074086,-0.5060076560604015,0.09175214455047366,0.35539256309528616,-0.8105939915144433,0.818055445405449,1.222302393460532
1784547105426246400,1.9973032474517822,1.8165432214736938,-0.7132624983787537,-0.4992677569389343,0.49525246024131775,0.718574047088623,-0.48823800683021545,0.7602864503860474,-0.019660472869873047,0.7085748910903931,0.7869995603616838,-0.49752858867119637,0.09135811089222814,0.3532006728406066,-0.8017497700234252,0.7925302446328557,1.194706998434093
1784547105436166400,2.00722336769104,0.6317694783210754,-1.0302118062973022,0.24216799437999725,0.48988527059555054,0.7121756076812744,-0.5028104782104492,1.0227794647216797,-0.19061493873596191,0.11989116668701172,0.7908331990615836,-0.49047828266145205,0.08958688219529706,0.3549481401533422,-0.7925925314336207,0.7723785756808116,1.1808072105282426
1784547105446085376,2.0171422958374023,0.8742408752441406,-0.7338274717330933,-1.0160541534423828,0.48278582096099854,0.7102934718132019,-0.5122510194778442,0.968981146812439,-0.1127592921257019,0.37835514545440674,0.7932851296190194,-0.48629279987657337,0.08598722837442092,0.3561239620633743,-0.7899150364466083,0.7557946419546449,1.1719123465008014
1784547105456005632,2.02706241607666,1.4470810890197754,-0.5813502669334412,-0.8297486901283264,0.47142842411994934,0.7097201347351074,-0.5235002040863037,0.46184492111206055,-0.016528666019439697,-0.12235856056213379,0.7984532284079342,-0.48102018841818595,0.08288236924018304,0.3524519751660677,-0.7891008676243574,0.7331086886271816,1.1484105945395655
1784547105465925376,2.036982297897339,2.192869186401367,-0.7090359330177307,-0.11765772849321365,0.46726980805397034,0.7010224461555481,-0.5387266874313354,0.690200924873352,0.26247847080230713,-0.02226269245147705,0.8032572815639626,-0.4729479647213269,0.08340795886749265,0.352336543381081,-0.7768302182194835,0.7144863304407093,1.129859610967968
1784547105475845632,2.0469024181365967,2.245018482208252,-1.2732130289077759,-1.7850793600082397,0.45554202795028687,0.6927666068077087,-0.5590669512748718,0.08219295740127563,0.037930965423583984,-0.20855695009231567,0.8107336717288549,-0.46240638756912406,0.08152831815321143,0.34963457148598276,-0.7653183557501751,0.6837157668982062,1.098823678749834
1784547105485764608,2.056821346282959,2.2453722953796387,-0.7206251621246338,-0.7966108918190002,0.4409694969654083,0.6868785619735718,-0.5777055025100708,0.1525515913963318,-0.03763240575790405,0.003807246685028076,0.8181166740334321,-0.4528150049379505,0.07813977922379083,0.3457422937703111,-0.7571853491118432,0.6519664658018693,1.0670160601130536
1784547105495684352,2.0667412281036377,2.551687240600586,-0.5431944727897644,-0.2984338402748108,0.4339570105075836,0.6750518083572388,-0.5966459512710571,0.4599638879299164,-0.14497673511505127,-0.17596757411956787,0.8246456636752943,-0.4421305832613235,0.07872471055073581,0.34392219648723704,-0.7410348922368221,0.6288321416276477,1.0415680601165835
1784547105505604608,2.0766613483428955,2.5672552585601807,-0.6644826531410217,-0.4315410852432251,0.42820948362350464,0.6611313223838806,-0.6160698533058167,0.28812962770462036,0.01199483871459961,-0.08435434103012085,0.8310654843647431,-0.4307622861438874,0.080055849184582,0.34258589398289707,-0.7223256532483968,0.6074071811793399,1.0176651376635424
1784547105515524352,2.086581230163574,2.8253138065338135,-0.9994784593582153,-0.5630490183830261,0.4186153709888458,0.6471409201622009,-0.6371576189994812,0.17684361338615417,0.3223872780799866,-0.1560094952583313,0.8380316319313494,-0.41845261318896304,0.07948966640942651,0.3410011779921985,-0.7038281796093154,0.5812835078054551,0.9916836802607719
1784547105525443584,2.0965003967285156,3.7001476287841797,-0.9911790490150452,-1.0603225231170654,0.4072798192501068,0.6287816762924194,-0.6623872518539429,0.3563005030155182,0.29519903659820557,-0.16148054599761963,0.8465809871764558,-0.4031105537518712,0.07942458938402042,0.33837009269139146,-0.6799853721438504,0.5512791898383952,0.9599115741530172
1784547105535363328,2.1064202785491943,3.0019443035125732,-0.8411336541175842,-0.5017737746238708,0.39791154861450195,0.609210193157196,-0.6859514713287354,0.27931928634643555,0.11483466625213623,0.04222893714904785,0.8546424523060717,-0.3880047801957501,0.0804769940953414,0.33550285565954296,-0.6550642444978483,0.5256488847369208,0.9304834992034181
1784547105545283584,2.116340398788452,1.9956046342849731,-0.5974927544593811,-0.6397997140884399,0.3894302248954773,0.5945447087287903,-0.7034633755683899,0.3306015133857727,0.002943694591522217,0.29783904552459717,0.860536441635927,-0.37658246525672556,0.08033645132258549,0.3334798505468329,-0.6366992727786347,0.5055951733796841,0.9092693987419883
1784547105555203328,2.126260280609131,1.2842979431152344,-0.32233333587646484,-1.1143006086349487,0.3821447789669037,0.5853920578956604,-0.7150395512580872,0.1865350306034088,-0.1861611008644104,0.21519207954406738,0.8653566289893507,-0.36882641545663797,0.08029513100895554,0.3296631091664443,-0.6253635773013336,0.49081748286742977,0.8895514016151047
1784547105565122304,2.136179208755493,0.6419490575790405,-0.8736249804496765,-0.6050033569335938,0.3726986050605774,0.5833113193511963,-0.7216950058937073,0.2696658968925476,-0.05764603614807129,0.2891083359718323,0.8684199344302749,-0.364929790830335,0.07732231510198329,0.3266410718409504,-0.622799486244537,0.47669809050196893,0.8756176328494455
1784547105575042560,2.146099328994751,0.9346829056739807,-1.0193318128585815,-0.15608170628547668,0.36386722326278687,0.5792376399040222,-0.7294411659240723,0.49247127771377563,-0.04908627271652222,-0.17461156845092773,0.8708198319339215,-0.3602885400641301,0.07397018141731852,0.3261799850672188,-0.6177931340812806,0.4627112688687734,0.866847446808284
1784547105584962304,2.1560192108154297,0.9632436633110046,-0.23823146522045135,-1.0599900484085083,0.3563571572303772,0.5735401511192322,-0.737605094909668,0.3409847617149353,-0.10117381811141968,-0.22368335723876953,0.8736306127201693,-0.3549997072914917,0.07192125288855139,0.32491848931855033,-0.6108209217956174,0.4500585682412809,0.8562175861002409
1784547105594882560,2.1659393310546875,0.8469998836517334,-0.8748084306716919,-1.0107452869415283,0.3461975157260895,0.5716924071311951,-0.7438514828681946,0.25727230310440063,0.21437937021255493,-0.020033955574035645,0.8770102296226073,-0.35115834570846366,0.06900772729776121,0.3205912124577721,-0.6085670782189794,0.43559649527225486,0.8396950458935877
1784547105604802304,2.175859212875366,1.4453191757202148,-0.9519762992858887,-0.02375153638422489,0.33692964911460876,0.5648646354675293,-0.7532638311386108,0.41281092166900635,0.0793461799621582,-0.07126009464263916,0.8802233934169692,-0.3449159264274692,0.06634060982096543,0.3191220244971699,-0.6002692020622721,0.4206005055441769,0.8275473404453401
1784547105614721536,2.1857783794403076,1.6018747091293335,-0.6306089758872986,0.21854685246944427,0.3316316604614258,0.5521422028541565,-0.7649571299552917,0.4777250289916992,-0.350619375705719,0.03699082136154175,0.8829714493953842,-0.3364816538552958,0.0655860975155137,0.3206866791134979,-0.5849314278269738,0.4090731842531645,0.821510738777244
1784547105624641536,2.1956982612609863,1.7449907064437866,-0.7832142114639282,-0.29320695996284485,0.32534313201904297,0.5397087335586548,-0.7764447331428528,0.19472217559814453,-0.48691326379776,0.22953921556472778,0.8859346030515667,-0.3280340183495761,0.06458579057809283,0.3214690150362739,-0.570091065587158,0.3967916414596531,0.8138516886021306
1784547105634561536,2.205618381500244,2.037177562713623,-0.0427585132420063,-0.10853243619203568,0.32003292441368103,0.5253711342811584,-0.7883933782577515,-0.06005367636680603,-0.37540775537490845,-0.012693047523498535,0.8897544474629171,-0.3186819283864485,0.06515465871498173,0.32020898110531115,-0.5531512092265164,0.38560839876743064,0.8016255968608574
1784547105644481536,2.215538263320923,2.8003463745117188,-0.3046928346157074,0.4528897702693939,0.3195691704750061,0.5051677823066711,-0.8016738891601562,0.1338609755039215,-0.04889953136444092,-0.029167115688323975,0.8933958791118826,-0.3073347717507607,0.06861764319838357,0.320438388488306,-0.5295763679939536,0.3793225083630028,0.7927761249404783
1784547105654400256,2.225457191467285,2.650815725326538,-0.5941939353942871,-0.39507535099983215,0.31616872549057007,0.4836121201515198,-0.8161842226982117,0.13756662607192993,0.11227411031723022,0.01563185453414917,0.8974593905669883,-0.2947520141368757,0.07091641489248036,0.3204040978260255,-0.5047768191370348,0.36957490803405746,0.7821504879260336
1784547105664320512,2.235377311706543,2.2564568519592285,-0.05370402708649635,-0.1439117044210434,0.31249892711639404,0.4644474685192108,-0.828633189201355,0.08717450499534607,0.09677079319953918,0.26677405834198,0.9018384078704828,-0.28336589232561893,0.07339732907519857,0.3178115009564825,-0.4830105932401367,0.36063305945142615,0.7673734789815824
1784547105674240256,2.2452971935272217,1.612036108970642,-0.24741944670677185,0.4087786376476288,0.31281358003616333,0.449064701795578,-0.8369519114494324,0.2659827768802643,-0.2305283546447754,0.38010382652282715,0.9040748266350146,-0.2751640614684632,0.07621531143056427,0.31800098811256505,-0.46571829542258797,0.3576772563079751,0.7621423112783008
1784547105684160512,2.2552173137664795,0.97938072681427,-0.19906894862651825,0.5304717421531677,0.31370505690574646,0.4357210695743561,-0.8436446189880371,0.06425514817237854,-0.5640169382095337,0.1799178123474121,0.9053074530427473,-0.2683646540632098,0.07847358200899232,0.31975081108316167,-0.4508392265022785,0.3560018150196535,0.7615017722637389
1784547105694079488,2.265136241912842,-0.49555158615112305,-0.22959597408771515,0.018424412235617638,0.3132080137729645,0.43368375301361084,-0.8448781967163086,0.07206115126609802,-0.4809249937534332,0.2944326400756836,0.9050576312313245,-0.26732367236490023,0.078095902568485,0.3214183032645251,-0.4485769960539944,0.3550076533687189,0.764287951729922
1784547105703999488,2.2750563621520996,-0.21099962294101715,-0.25870469212532043,0.03647005930542946,0.31264567375183105,0.4367560148239136,-0.8435027003288269,0.10646748542785645,-0.2561377286911011,0.1468779444694519,0.9046077836813743,-0.26886013495109473,0.07721961912931433,0.32161468220876077,-0.45198939266609556,0.35495297596548486,0.7656172476930703
1784547105713919488,2.2849762439727783,0.1938418745994568,0.023366406559944153,-0.09637613594532013,0.31079912185668945,0.4364725947380066,-0.8443314433097839,0.13434556126594543,0.06187945604324341,-0.07147055864334106,0.9046723946346261,-0.2683714757420649,0.07623014599750415,0.3220768802151626,-0.4516743596795009,0.35270841886866866,0.7658885229579122
1784547105723839488,2.294896364212036,0.5243694186210632,0.03566553071141243,-0.21187308430671692,0.3103773593902588,0.4343874752521515,-0.8455610275268555,0.1428086757659912,0.3998563289642334,0.03171825408935547,0.9053657251889916,-0.2670927581890554,0.07668731225557085,0.3210817756440688,-0.4493581145427819,0.3517974416341241,0.7628045073133124
1784547105733758464,2.3048152923583984,1.012062907218933,-0.050362829118967056,-0.17892657220363617,0.3085532784461975,0.42789652943611145,-0.849528968334198,0.2409767508506775,0.32652851939201355,-0.0483744740486145,0.906822450087812,-0.2631920519615462,0.07723640220614936,0.3200588012384075,-0.4421642139570091,0.3483900745242254,0.7576560382410734
1784547105743678464,2.3147354125976562,1.3652538061141968,-0.20990268886089325,-0.20989404618740082,0.3065269887447357,0.41864103078842163,-0.8548572659492493,0.16428294777870178,0.22195345163345337,0.07951241731643677,0.9088133052134272,-0.2577648088756098,0.07828588384579628,0.3185704001346241,-0.4319484068937098,0.34428991824105226,0.75055582652598
1784547105753598464,2.324655294418335,1.4838818311691284,-0.4248850345611572,-0.308597207069397,0.3034336566925049,0.40716150403022766,-0.8614798784255981,0.3212153911590576,0.16066384315490723,0.13691627979278564,0.9110279997700119,-0.2510139339453957,0.07907001565930548,0.3174398574445911,-0.4193441273266652,0.33865449153535543,0.7433015437586715
1784547105763518464,2.3345754146575928,1.4577077627182007,-0.3572121858596802,-0.02430024743080139,0.2992948591709137,0.39508429169654846,-0.8685222864151001,0.2912812829017639,0.10035330057144165,0.21096009016036987,0.9132437243025331,-0.24381322174301706,0.07933446124429831,0.3166183115740987,-0.4061596180932653,0.33185818311283033,0.7364000212459965
1784547105773437440,2.344494342803955,1.2987347841262817,-0.2643094062805176,-0.3712499737739563,0.2954346537590027,0.3836481273174286,-0.8749471306800842,0.2858489155769348,0.12158563733100891,0.14531761407852173,0.9152542584640023,-0.2370514255658608,0.07958044869250727,0.3158849922762688,-0.3937434723251507,0.32563949791564034,0.7301731127420725
1784547105783357440,2.354414224624634,0.853493332862854,-0.12309478968381882,-0.1470312923192978,0.29240381717681885,0.3748205602169037,-0.8797781467437744,0.17376744747161865,-0.06834778189659119,0.08413910865783691,0.9171373424128285,-0.23175476606778936,0.08000408945284226,0.3142423696101465,-0.3842032070914145,0.32087506066905164,0.723125762659518
1784547105793277440,2.3643343448638916,0.16443851590156555,0.028643876314163208,-0.2491944134235382,0.2917283773422241,0.37126681208610535,-0.8815075159072876,0.23849928379058838,-0.09398409724235535,0.1312786340713501,0.9178156822762186,-0.22973668163924654,0.08041951798216439,0.3136368952619195,-0.3803729644784431,0.3195973526087053,0.7205966433701216
1784547105803197440,2.3742542266845703,-0.17902112007141113,-0.19905439019203186,-0.1395544707775116,0.2896139323711395,0.37163713574409485,-0.882048487663269,0.13131499290466309,-0.07775291800498962,0.06262105703353882,0.9183269283207711,-0.2294356280392239,0.07959295058140443,0.31256964757053624,-0.38077185152109944,0.31725201103746337,0.71777700498778
1784547105813117440,2.384174346923828,-0.5588582158088684,-0.1501704603433609,-0.1636962890625,0.2879202365875244,0.3756953477859497,-0.8808830976486206,0.18444609642028809,-0.05602371692657471,0.0076225996017456055,0.9179120827407159,-0.23123866770849333,0.07802015225131076,0.3128563153130533,-0.3851469648306908,0.31590794722117016,0.7190695007676912
1784547105823036416,2.3940932750701904,0.09015648812055588,-0.09192552417516708,-0.2898658514022827,0.2852702736854553,0.3781629502773285,-0.8806893229484558,-0.021964609622955322,-0.05110606551170349,-0.1792319416999817,0.9181720603024631,-0.23193890971277414,0.07654855393843121,0.3119372691085334,-0.38781108590006863,0.31325207567627783,0.7170083898420562
1784547105832956672,2.4040133953094482,0.20279355347156525,-0.15475775301456451,-0.4489324688911438,0.2834744155406952,0.37751495838165283,-0.8815467357635498,0.021518230438232422,0.07991299033164978,-0.2601310610771179,0.9189093360931125,-0.23114311103679114,0.07615433713341171,0.3104495803198542,-0.3871112067220852,0.31112176751041204,0.7130725141170479
1784547105842876416,2.413933277130127,0.5504505634307861,-0.1608947366476059,-0.306393563747406,0.280843049287796,0.37570419907569885,-0.8831610679626465,0.09443157911300659,0.25820690393447876,-0.17906421422958374,0.9198627266008863,-0.22959004240356523,0.07555041960177152,0.30892243718716234,-0.3851565315096598,0.30788544107764265,0.7084977566949229
1784547105852796672,2.4238533973693848,0.9237053990364075,-0.17380042374134064,-0.20181840658187866,0.27852556109428406,0.36948448419570923,-0.8865126967430115,0.10147929191589355,0.22473853826522827,-0.2618332505226135,0.9211715665026802,-0.22585057679977258,0.0757309369723631,0.30773267344220134,-0.3784541944303565,0.30441571663895506,0.7035595756204691
1784547105862715392,2.433772325515747,1.063676118850708,0.018447546288371086,-0.06781456619501114,0.2773415148258209,0.3613007366657257,-0.8902491331100464,0.020769447088241577,0.13493037223815918,-0.12076771259307861,0.9224498554523596,-0.22135093008443968,0.07667598086362944,0.30693796001930784,-0.36966247611353864,0.3020031684665562,0.6993187014074828
1784547105872635648,2.443692445755005,0.9341446757316589,0.037577565759420395,-0.024942735210061073,0.27714160084724426,0.351889044046402,-0.8940730690956116,0.07014840841293335,-0.024649053812026978,-0.08497661352157593,0.9238078461318117,-0.2163981723611902,0.07832812621637619,0.3059668432835707,-0.3595884552123574,0.3005841946795151,0.6946964729221327
1784547105882555392,2.4536123275756836,0.7120487093925476,0.06848244369029999,-0.24906066060066223,0.2769545614719391,0.3457832336425781,-0.8965100049972534,0.11467751860618591,0.015361785888671875,0.04026305675506592,0.9246255245967728,-0.2131948574057058,0.07932820991155977,0.3054876111130522,-0.3530733909660233,0.29962483244993354,0.6920413098104515
1784547105892475648,2.4635324478149414,1.0809346437454224,-0.12266300618648529,0.06465199589729309,0.2766697108745575,0.3373590111732483,-0.89980149269104,0.045504361391067505,0.06113952398300171,-0.09514784812927246,0.9258683631076935,-0.20874415911000954,0.08077821524257764,0.3044150354230426,-0.3441100350924964,0.29830369484106556,0.6875227495286595
1784547105902394624,2.4734513759613037,0.9711136817932129,-0.044537581503391266,0.010414223186671734,0.2767002284526825,0.32855650782585144,-0.9030435085296631,0.16458392143249512,0.14840269088745117,0.005399525165557861,0.9266736093968301,-0.2042807089914341,0.08214394314046862,0.3046273378949022,-0.3347748233769136,0.29732574575641124,0.6858087326002082
1784547105912314624,2.4833714962005615,1.3172764778137207,-0.10776501893997192,-0.14200115203857422,0.276278018951416,0.3184005916118622,-0.9068029522895813,0.1017279326915741,0.12001493573188782,-0.0555536150932312,0.9279299044336311,-0.19897747572304395,0.08370484987562764,0.3038875360819361,-0.3240417772214801,0.2957380631857186,0.6816496133600857
1784547105922234624,2.4932913780212402,1.291237473487854,0.08746462315320969,-0.07565238326787949,0.2761267423629761,0.3071592450141907,-0.9107179641723633,0.16389095783233643,0.11804214119911194,-0.12428569793701172,0.9293272002440208,-0.19315916989832088,0.08561865634138795,0.30283637524506163,-0.3122065398217145,0.2943870181820415,0.6766911540063931
1784547105932154624,2.503211498260498,1.706277847290039,-0.16036568582057953,0.035309817641973495,0.2758296728134155,0.293323814868927,-0.9153574109077454,0.24417456984519958,0.1650806963443756,-0.09497278928756714,0.9307042656694159,-0.18608478671064907,0.08771408314404415,0.30243721227683723,-0.2977017269062782,0.29268156913981386,0.672582165616404
1784547105942073600,2.5131304264068604,1.8883435726165771,-0.36707431077957153,-0.057079631835222244,0.2733411192893982,0.27678442001342773,-0.9212355613708496,0.17085745930671692,0.07821127772331238,-0.060987889766693115,0.9325089423727193,-0.1772718137556633,0.08920151256162223,0.3017363409468183,-0.2804461824389463,0.2884370181105367,0.6668761066699628
1784547105951993344,2.523050308227539,1.7609553337097168,-0.30302396416664124,0.07195025682449341,0.2700744867324829,0.25990837812423706,-0.9270962476730347,0.1281646490097046,0.03550177812576294,0.04019439220428467,0.9342185141455923,-0.16822493895621124,0.09028983984440389,0.30130374127161436,-0.26292731261016283,0.2834674461450796,0.6617040003532705
1784547105961913600,2.532970428466797,1.8372684717178345,-0.24811017513275146,0.003428252413868904,0.26853200793266296,0.24375884234905243,-0.9319185614585876,0.07747629284858704,0.03811675310134888,0.09694236516952515,0.9356810704983993,-0.15986483932428375,0.0921084033975421,0.3007660577899428,-0.24623972876194608,0.28054978069790004,0.6569615135773017
1784547105971833344,2.5428903102874756,1.7989912033081055,-0.21793018281459808,0.22112302482128143,0.2666654586791992,0.2259504646062851,-0.9369289875030518,-0.006670951843261719,-0.061109766364097595,0.019479036331176758,0.9371011391549249,-0.1506890148573059,0.09395921640791097,0.3005092419244321,-0.22791862795671072,0.2772844464807756,0.6525774146339327
1784547105981752576,2.552809476852417,1.5602279901504517,-0.12629495561122894,0.011176752857863903,0.26506152749061584,0.20995540916919708,-0.9410957098007202,0.11247143149375916,-0.05362910032272339,0.11696851253509521,0.9381731759387208,-0.14252786442638554,0.09559265838192482,0.3006309990207624,-0.21152934859122546,0.27453998102828847,0.6495372014446587
1784547105991672576,2.5627293586730957,1.3055684566497803,-0.15765661001205444,-0.14685070514678955,0.2637144923210144,0.196840301156044,-0.9443032145500183,0.08516243100166321,-0.0640430748462677,0.1540505290031433,0.939351320580797,-0.13573794584194177,0.09707523585906797,0.29961776887884095,-0.19813412693630053,0.2723306081881469,0.6447574290884884
1784547106001592576,2.5726494789123535,1.239876627922058,-0.5202283263206482,0.4079265296459198,0.2605585753917694,0.18446730077266693,-0.9476714134216309,0.1877599060535431,-0.10165785253047943,0.12862539291381836,0.9402335141250641,-0.1291396325346444,0.09740257494875976,0.2996610872713786,-0.1855298312196856,0.26831612335950206,0.6421748094539971
1784547106011512576,2.5825693607330322,0.619491696357727,0.030886221677064896,0.05760686844587326,0.25848692655563354,0.17445112764835358,-0.9501322507858276,0.07049253582954407,-0.25626879930496216,0.11326402425765991,0.9405177480207358,-0.12400816806713766,0.09775400747448085,0.3008195478522583,-0.17534832640036957,0.2656249269208894,0.6426094172034683
1784547106021432576,2.59248948097229,0.16293002665042877,0.5524172186851501,-0.15709421038627625,0.2616780400276184,0.17127181589603424,-0.9498371481895447,-0.03308612108230591,-0.17871810495853424,0.17136424779891968,0.9406460558178107,-0.12291014007918197,0.09987255692588953,0.30017284962416935,-0.17212041607429515,0.26882893815988196,0.6411296473991066
1784547106031351552,2.6024084091186523,0.6383431553840637,-0.31453731656074524,0.11503583937883377,0.2630241811275482,0.16796870529651642,-0.9500551819801331,0.1106177568435669,-0.015533417463302612,0.008923590183258057,0.9408360893219128,-0.12147075610836035,0.10108055741205813,0.2997581587775373,-0.1687687285357595,0.27008669904476373,0.6398641470203241
1784547106041271552,2.612328290939331,0.7729275226593018,-0.20646356046199799,-0.016420619562268257,0.2603572607040405,0.1605476588010788,-0.9520706534385681,0.2558475732803345,-0.08492511510848999,-0.10160976648330688,0.9413647434736868,-0.1174054152325897,0.10089916302340166,0.29977935029010555,-0.16124549170109836,0.2669378570438004,0.6382920534070778
1784547106051191552,2.622248411178589,0.47482287883758545,-0.4650019109249115,-0.21511268615722656,0.2572556734085083,0.15516223013401031,-0.953805148601532,0.1084975004196167,-0.03568589687347412,0.11048239469528198,0.9420841217462405,-0.11418044325073533,0.10030086321595215,0.2989652139660764,-0.15579166718231624,0.2634462905470296,0.6352665809649056
1784547106061111552,2.6321682929992676,0.34253594279289246,-0.47133028507232666,0.07412033528089523,0.25269997119903564,0.15133395791053772,-0.9556363224983215,0.10209739208221436,-0.01052585244178772,0.11679965257644653,0.9426012448967204,-0.11156015141965943,0.09867206865434447,0.29886631728180163,-0.15191763610478776,0.25851409673688464,0.6338614437096259
1784547106071030528,2.642087459564209,0.23868916928768158,-0.15816491842269897,-0.016745658591389656,0.25076529383659363,0.14822708070278168,-0.9566323757171631,0.10865548253059387,-0.04068315029144287,0.14982390403747559,0.9428546465351658,-0.10973465803758599,0.09819427813327235,0.2989002000809087,-0.14877531304905542,0.25636532015365876,0.633198360337604
1784547106080950528,2.6520073413848877,0.09933607280254364,-0.21487648785114288,-0.03329920396208763,0.24769610166549683,0.14682450890541077,-0.9576477408409119,0.08267194032669067,-0.06157365441322327,0.11209720373153687,0.9430276052583243,-0.10858498395556454,0.0968784170543769,0.2992036936430523,-0.14735722516835323,0.25310362398605646,0.633249098991815
1784547106090870528,2.6619274616241455,0.0411987341940403,0.09881965070962906,-0.16774143278598785,0.24743318557739258,0.14618884027004242,-0.9578129649162292,0.06544828414916992,-0.12729845941066742,0.11725205183029175,0.94336382299537,-0.10813787976360689,0.09695216715791975,0.29828054972140594,-0.1467146127201557,0.25280450457887554,0.6311603742973931
1784547106100790528,2.671847343444824,-0.13171131908893585,-0.22046835720539093,0.14287298917770386,0.24659791588783264,0.1466088742017746,-0.9579641819000244,0.16253599524497986,-0.0713525265455246,0.10441803932189941,0.943408412115129,-0.10820620200542216,0.09648492795649632,0.29826630679787075,-0.14713922796698234,0.2519487155783606,0.6310959338969493
1784547106110709504,2.6817662715911865,-0.014555143192410469,-0.2151486873626709,-0.0658181682229042,0.2439594268798828,0.14707791805267334,-0.9585676193237305,0.1856975555419922,0.0006119012832641602,0.06191539764404297,0.9433184808084165,-0.10808853740591001,0.09504238227565266,0.2990555692706813,-0.14761341441116893,0.24921334035001538,0.6325266008273069
1784547106120629504,2.6916863918304443,0.3823469579219818,0.1496623009443283,0.1481417864561081,0.24461430311203003,0.14557325839996338,-0.958630383014679,0.0037835240364074707,-0.013126954436302185,0.0032166242599487305,0.9434454410884864,-0.10742630102261226,0.09562627122536688,0.2987069134296575,-0.1460923714271731,0.24983915795114603,0.6316321990587951
1784547106130549504,2.701606273651123,0.4556776285171509,-0.11050751060247421,0.2831001579761505,0.24476200342178345,0.14081460237503052,-0.9593033194541931,0.18462032079696655,-0.042166516184806824,0.043425023555755615,0.9432728796531502,-0.10524632607038258,0.09628894932906576,0.29981329112441407,-0.14128416154099305,0.24981567515492475,0.6332603383985559
1784547106140469504,2.711526393890381,0.6688741445541382,0.12227389216423035,0.17636896669864655,0.24508556723594666,0.13494837284088135,-0.9600635170936584,0.05728258192539215,-0.025466591119766235,0.06098520755767822,0.9433665900246384,-0.10248072235978006,0.09729302288464027,0.30015204682667074,-0.13536136499865406,0.24994240734315723,0.6331167090081244
1784547106150388480,2.721445322036743,0.3314386010169983,0.03279194235801697,0.49112293124198914,0.24698014557361603,0.12878428399562836,-0.9604246020317078,0.08048872649669647,-0.12551890313625336,0.06487101316452026,0.9430218286252904,-0.09993705268759726,0.09899638479137818,0.30153301468448607,-0.129142960744879,0.25170346754852463,0.6353173521365392
1784547106160308480,2.731365442276001,0.03544330969452858,-0.045178983360528946,0.38598084449768066,0.24748671054840088,0.12629495561122894,-0.9606247544288635,0.08271346986293793,-0.14001260697841644,0.10765844583511353,0.9424501350736996,-0.0990163822433271,0.09941520103983868,0.30347996105705916,-0.12663313884981264,0.2521477859218221,0.6391247915670352
1784547106170228480,2.7412853240966797,0.05761332809925079,-0.04944030940532684,0.30592915415763855,0.24791476130485535,0.12489207834005356,-0.9606977701187134,0.10471583902835846,-0.18865855038166046,0.007115066051483154,0.9419647791406056,-0.09857134689808361,0.09967343916306849,0.30504313556787976,-0.12521905594580254,0.2525472036021608,0.6422764054245577
1784547106180148480,2.7512054443359375,-0.07747910916805267,-0.19189640879631042,0.4469531774520874,0.24686680734157562,0.12408537417650223,-0.9610720872879028,0.08443200588226318,-0.07672208547592163,-0.05176049470901489,0.9415506326929212,-0.09817489352654259,0.09912433020323119,0.3066244869854066,-0.12440602663141147,0.2514303215540572,0.6453984366295359
1784547106190067456,2.7611243724823,0.20896223187446594,-0.20964397490024567,0.5139477252960205,0.24511350691318512,0.12226150929927826,-0.9617543816566467,0.1978033483028412,0.044501788914203644,-0.07533973455429077,0.9408801894830745,-0.09727480999235504,0.09828743533356914,0.3092275821148348,-0.12256817029640311,0.24954829383014002,0.6504655117978393
1784547106199987712,2.7710444927215576,0.5632985830307007,-0.07830493897199631,0.032855547964572906,0.2441854476928711,0.11768198758363724,-0.9625613689422607,0.035828590393066406,-0.05534982681274414,-0.18433499336242676,0.9407941602679485,-0.09500152209153935,0.09845819012114695,0.3101406264508682,-0.11795532238987834,0.24844198368398027,0.6516241071188056
1784547106209907456,2.7809643745422363,0.4913397431373596,-0.1411062777042389,0.47946101427078247,0.24348865449428558,0.1122017353773117,-0.9633919596672058,0.08034862577915192,-0.0812874287366867,-0.11085730791091919,0.9406892557696469,-0.0923416062573107,0.09887897585930834,0.3111266926897356,-0.11243850228287072,0.2475567713453449,0.6528390463998796
1784547106219827712,2.790884494781494,0.5485278367996216,-0.12450987845659256,0.3840346932411194,0.24281129240989685,0.10610092431306839,-0.9642537236213684,0.12181273102760315,-0.04189193993806839,-0.10999554395675659,0.9402291752574187,-0.08950389402866799,0.09930852746364947,0.313202813073238,-0.10630101006940963,0.24668396092723976,0.6562954904565104
1784547106229747456,2.800804376602173,0.6448239684104919,-0.057479970157146454,0.33785974979400635,0.24213549494743347,0.09967999905347824,-0.9651084542274475,-0.010537609457969666,-0.06949809938669205,-0.10289996862411499,0.9400191331809185,-0.08643584667090008,0.09987303845056097,0.31451282852269263,-0.09984580992537749,0.2458155911621214,0.6580907558371994
1784547106239666432,2.810723304748535,0.6319316029548645,-0.13786467909812927,0.30485013127326965,0.24169762432575226,0.09285799413919449,-0.9658983945846558,0.08462685346603394,-0.09572663903236389,-0.06999027729034424,0.9398289850680388,-0.0832068348131393,0.10063517658862388,0.31570669678570845,-0.0929919586550005,0.2451959726850278,0.6596184979731577
1784547106249586688,2.820643424987793,0.5435993671417236,-0.25603020191192627,0.3382144570350647,0.2399713099002838,0.08615200221538544,-0.9669496417045593,0.11105713248252869,-0.10824673622846603,-0.06297284364700317,0.9397352706285355,-0.07981233299476519,0.10077288145126187,0.31681601975571894,-0.08625893225300095,0.24325890386599464,0.6608832573449009
1784547106259506432,2.8305633068084717,0.5115562677383423,-0.21960964798927307,0.2811378836631775,0.23777958750724792,0.08042944222688675,-0.9679834842681885,0.10233882069587708,-0.10385168343782425,-0.07585501670837402,0.9395265792470183,-0.07684941373852573,0.10051089155713637,0.3182475540667975,-0.08051641116766253,0.24087496449560084,0.6629521347854198
1784547106269426688,2.8404834270477295,0.34072405099868774,-0.3225346803665161,0.42480024695396423,0.23507240414619446,0.075598806142807,-0.969033420085907,0.005772322416305542,-0.0847388282418251,-0.10750466585159302,0.9393093884542637,-0.07423220756926802,0.0998642354844994,0.3197101029140192,-0.07567100494551973,0.23798719807382443,0.6651865755680078
1784547106279345408,2.850402355194092,0.2974739372730255,-0.223651722073555,0.4072847068309784,0.23273329436779022,0.07132590562105179,-0.9699215292930603,0.059136807918548584,-0.04643882066011429,-0.1131778359413147,0.9388500874865724,-0.07200571911966844,0.0992693249758628,0.32174714298224794,-0.07138652392968751,0.23549830829271018,0.6687678685441687
1784547106289265664,2.8603224754333496,0.182374507188797,-0.2168995440006256,0.3684443533420563,0.23099744319915771,0.06822732836008072,-0.9705592393875122,0.06126938760280609,-0.06932596862316132,-0.08072555065155029,0.9384220681786571,-0.07041180169990698,0.09880569589099014,0.32348664824349005,-0.06828037423692178,0.23365729265325083,0.6719314527452415
1784547106299185408,2.8702423572540283,0.11659988015890121,-0.41946926712989807,0.40392187237739563,0.22847920656204224,0.06615877896547318,-0.9712982177734375,0.18007485568523407,-0.05611850321292877,-0.06919854879379272,0.9379425029460484,-0.06919805991357125,0.09778809040541184,0.3254426292945508,-0.06620713447465906,0.2310306201695375,0.675639726192456
1784547106309105664,2.880162477493286,0.18455149233341217,-0.45980578660964966,0.34233254194259644,0.2243095487356186,0.06376553326845169,-0.9724295139312744,0.1389717161655426,-0.07414150983095169,-0.15456938743591309,0.9376144975167843,-0.06752749218734569,0.09604829076907684,0.32725193418320614,-0.0638088249476494,0.22670387637348063,0.6788803154150068
1784547106319024640,2.8900814056396484,0.2837970554828644,-0.448686420917511,0.31999868154525757,0.22010193765163422,0.060733165591955185,-0.9735844135284424,0.11011351644992828,-0.009280528873205185,-0.11097979545593262,0.937354029826035,-0.06552280289766418,0.09441691262038122,0.32887626242244233,-0.06077056201366298,0.22233627228588448,0.6816601134999232
1784547106328944384,2.900001287460327,0.3661782145500183,-0.5878280401229858,0.3710632026195526,0.21523453295230865,0.056946463882923126,-0.9749006032943726,0.07216475903987885,0.009047798812389374,-0.11283743381500244,0.9371039686910293,-0.06305028438525609,0.09259783320569884,0.33058484109122804,-0.05697728711152846,0.21729023690314447,0.6845022219776499
1784547106338864640,2.909921407699585,0.37945660948753357,-0.5168962478637695,0.2557714581489563,0.21056276559829712,0.05242117494344711,-0.9761738181114197,0.03775875270366669,-0.05066642165184021,-0.14759016036987305,0.9369621197730201,-0.060223619411899645,0.09102858000369389,0.33194698889062574,-0.05244521259496932,0.21244715856847673,0.6865585409094873
1784547106348784384,2.9198412895202637,0.37256088852882385,-0.48481976985931396,0.3712533116340637,0.2058234065771103,0.04825787618756294,-0.9773985147476196,0.049318790435791016,-0.05225568264722824,-0.1100648045539856,0.9367889503708678,-0.05756035229688093,0.0893730236750963,0.3333552120805565,-0.048276627829558834,0.20755039937157088,0.6887805012666978
1784547106358703616,2.929760456085205,0.2961633801460266,-0.31231337785720825,0.24692805111408234,0.20215730369091034,0.043935876339673996,-0.978367030620575,0.09294764697551727,-0.0882474035024643,-0.11376547813415527,0.9365328963703713,-0.0550096262252777,0.08826337028633716,0.33479785657818767,-0.043950022425075536,0.2037597374679824,0.691151197470171
1784547106368623616,2.939680337905884,0.26956480741500854,-0.502791166305542,0.34959450364112854,0.19805221259593964,0.04058636724948883,-0.9793508648872375,0.09291763603687286,-0.06873883306980133,-0.05507296323776245,0.9363660200474291,-0.052819679899901245,0.08680242535439955,0.3359971749009714,-0.04059751844741832,0.19953699360677654,0.6931050697751907
1784547106378543616,2.9496004581451416,0.304146945476532,-0.6352174282073975,0.4437845051288605,0.19200652837753296,0.036929115653038025,-0.9806985855102539,0.16829925775527954,-0.12231729924678802,-0.09934896230697632,0.9360098797340285,-0.05021542062011767,0.08443407771316301,0.3379864270265384,-0.03693751403398472,0.1933398499920227,0.6966276574367669
1784547106388463616,2.9595203399658203,0.1629008650779724,-0.5288872122764587,0.24269185960292816,0.18626834452152252,0.0340137705206871,-0.9819099307060242,0.11252924799919128,-0.1268940269947052,-0.06458353996276855,0.935754278705592,-0.0479752950425008,0.08211816314892564,0.3395862922641854,-0.03402033215972095,0.18747241411335144,0.6994415584388456
1784547106398383616,2.969440460205078,0.08446285128593445,-0.642120361328125,0.48883068561553955,0.18088340759277344,0.03226486220955849,-0.98297518491745,0.06284523010253906,-0.06597153842449188,-0.05422574281692505,0.9353794105271864,-0.04636124606874772,0.0797687552436273,0.34139837874374646,-0.03227046330163634,0.18198041165837217,0.7028658331192664
1784547106408302592,2.9793593883514404,0.2053525149822235,-0.5555473566055298,0.3980584442615509,0.1752566397190094,0.03005620464682579,-0.9840638637542725,0.05417449772357941,-0.06263372302055359,-0.08568400144577026,0.9348790504908661,-0.04450965211754173,0.07737536924955879,0.3435594507181961,-0.030060731081454684,0.17624690432321138,0.7069982578173833
1784547106418222336,2.989279270172119,0.08952665328979492,-0.4048566222190857,0.48645931482315063,0.17074501514434814,0.028098177164793015,-0.9849145412445068,0.07768332958221436,-0.07659060508012772,-0.047510385513305664,0.9343166192471464,-0.0429637923072274,0.07547745707916098,0.3457018499792548,-0.028101875870499685,0.17165418061610993,0.7111867202974427
1784547106428142592,2.999199390411377,0.15886923670768738,-0.5178039073944092,0.4806155562400818,0.16647903621196747,0.025808075442910194,-0.9857072234153748,0.10671430826187134,-0.057775240391492844,-0.06452471017837524,0.9336933615652625,-0.041306938507020156,0.07375730171639347,0.3479516709666891,-0.025810941584412345,0.16731405177050715,0.7156024776293616
1784547106438062336,3.0091192722320557,0.3006012737751007,-0.5299116373062134,0.465111643075943,0.16092045605182648,0.02308012545108795,-0.9866974949836731,0.15777461230754852,-0.02314116060733795,-0.044155776500701904,0.9331362493029313,-0.03920240033572784,0.07151525398462559,0.3501507280412792,-0.023082174720053424,0.1616666301392251,0.7198334098740898
1784547106447981568,3.019038438796997,0.2096516638994217,-0.5570335388183594,0.338123619556427,0.15533602237701416,0.01932421699166298,-0.9876726865768433,0.15862882137298584,-0.07944384217262268,-0.04763615131378174,0.9326910715621367,-0.03657854104227572,0.06946709091511419,0.3520281316124413,-0.019325419729240758,0.15599696262333942,0.7233140578479006
1784547106457901568,3.028958320617676,-0.03963692858815193,-0.5967264175415039,0.5735830664634705,0.14930862188339233,0.01822841167449951,-0.9886226058006287,0.12682966887950897,-0.05080592632293701,0.05692094564437866,0.9321182785247226,-0.03513894371983875,0.06673792563663537,0.3542130788575596,-0.018229420851107583,0.14989411882831724,0.7276781688712821
1784547106467821568,3.0388784408569336,-0.025570908561348915,-0.5758794546127319,0.4733259379863739,0.14386439323425293,0.017769277095794678,-0.9894378781318665,0.14440464973449707,-0.05258983373641968,0.031857311725616455,0.9313316208543294,-0.03412360518836884,0.06416110041574921,0.3568478996950493,-0.017770212440834553,0.14438829259652866,0.7330938817492686
1784547106477741568,3.0487983226776123,-0.08997240662574768,-0.5959385633468628,0.37684860825538635,0.1384730339050293,0.017982257530093193,-0.9902029633522034,0.0976109504699707,-0.011344686150550842,0.00823885202407837,0.9307867389631395,-0.033374383675550165,0.06151976854684384,0.3588001907765548,-0.017983227379959426,0.1389420459613181,0.7371059949062616
1784547106487660544,3.0587174892425537,0.10661575198173523,-0.6178843379020691,0.6002202033996582,0.1324360966682434,0.01718948222696781,-0.9910424947738647,0.12038677930831909,0.03111984208226204,-0.034424424171447754,0.9300664110673448,-0.03205818398309709,0.05874548210265736,0.36124477865781707,-0.017190329518852854,0.1328460745051388,0.7420897550604716
1784547106497580544,3.0686373710632324,0.053438689559698105,-0.4388447701931,0.5503199696540833,0.12711234390735626,0.015663184225559235,-0.9917646646499634,0.09883980453014374,-0.021476782858371735,-0.06040513515472412,0.9291703190127897,-0.030539606471214238,0.05643587802862787,0.36403975966148844,-0.015663825353341963,0.12747288753077457,0.7478176589032394
1784547106507500544,3.0785574913024902,0.11461815237998962,-0.33787208795547485,0.3959236741065979,0.12309209257364273,0.01409602165222168,-0.9922951459884644,0.08787592500448227,-0.03464960679411888,-0.054045796394348145,0.928483260768539,-0.029191559778406824,0.05477484681121265,0.3661509763809427,-0.014096488787782075,0.12341739784496393,0.752130239588226
1784547106517420544,3.088477373123169,-0.10915934294462204,-0.6774047017097473,0.5478622317314148,0.1178467646241188,0.013548647053539753,-0.9929393529891968,0.1543547660112381,-0.016600407660007477,-0.05359989404678345,0.9277842307601797,-0.028089048608880257,0.05235766612066984,0.3683558546614591,-0.013549061554529469,0.11813215092963111,0.7566836979255228
1784547106527339520,3.0983963012695312,-0.00891529954969883,-0.6859944462776184,0.5050876140594482,0.1113252118229866,0.013648202642798424,-0.9936903119087219,0.180117666721344,0.014229604974389076,-0.062370479106903076,0.9269046718951421,-0.02706539349782325,0.04921698720844756,0.37106981679231654,-0.013648626258382646,0.1115668866075961,0.7623476232062192
1784547106537259520,3.108316421508789,0.019633321091532707,-0.6358874440193176,0.5305557250976562,0.1047942116856575,0.012991686351597309,-0.9944090843200684,0.04838877171278,0.015115001238882542,-0.09845590591430664,0.9261955037425283,-0.025648909235815004,0.04623419557514562,0.37331807791080207,-0.012992052260901745,0.10499586443905978,0.766976334096706
1784547106547179520,3.1182363033294678,-0.0008173594251275063,-0.44544878602027893,0.46749255061149597,0.09943142533302307,0.012457440607249737,-0.994966447353363,0.07172641158103943,0.07360212504863739,-0.07275205850601196,0.9253560691643857,-0.024506887262289584,0.04377437352050891,0.37576497948467374,-0.012457762822887868,0.09960375218514622,0.7720876942030492
1784547106557099520,3.1281564235687256,0.20994068682193756,-0.5058867335319519,0.39576390385627747,0.09480729699134827,0.01115209236741066,-0.9954331517219543,0.057383857667446136,0.09765833616256714,-0.10248243808746338,0.9247096244903409,-0.02311156253242317,0.041824247072750204,0.3776622258377801,-0.011152323310174092,0.09495582424892925,0.7760034142542848
1784547106567019520,3.1380763053894043,0.2061701864004135,-0.46518272161483765,0.41793233156204224,0.09023996442556381,0.008510954678058624,-0.9958837032318115,0.07173208147287369,0.021625157445669174,-0.15534615516662598,0.924056217963865,-0.021101242587104677,0.04016086852869671,0.3795549711494205,-0.00851105700101416,0.09036617092908923,0.7798610253773854
1784547106576938752,3.1479954719543457,0.11402300745248795,-0.4952390789985657,0.3813087046146393,0.08540575206279755,0.00662925373762846,-0.9963241815567017,0.11977919191122055,0.001900410745292902,-0.10691678524017334,0.9233987945214842,-0.01938495166876047,0.038237726300810695,0.38144041122900535,-0.006629302473233391,0.08551180144268787,0.7837511560648729
1784547106586858496,3.1579153537750244,0.17966167628765106,-0.6582921743392944,0.19129322469234467,0.07948305457830429,0.005043404176831245,-0.9968234300613403,0.1258086860179901,-0.011284248903393745,-0.10312157869338989,0.9229944121243552,-0.017566254144342056,0.03577285709395984,0.3827441669810883,-0.005043425437297858,0.07956799970490785,0.7863892473100558
1784547106596778752,3.1678354740142822,-0.01593605801463127,-0.7801714539527893,0.2726505398750305,0.07283619791269302,0.00394828524440527,-0.9973360896110535,0.12531442940235138,-0.017208173871040344,-0.13027316331863403,0.9226730700039463,-0.015821727161550423,0.0328880271506015,0.3838521183210975,-0.003948295625852123,0.07290132510176472,0.7886270327146526
1784547106606698496,3.177755355834961,-0.03365832939743996,-0.8232536911964417,0.3186207115650177,0.06519428640604019,0.0043013556860387325,-0.9978632926940918,0.1475132405757904,0.02258463017642498,-0.1188511848449707,0.9222291207321088,-0.014557337139805544,0.0292647300739382,0.3852597401626347,-0.004301369116673244,0.0652411598595926,0.7915652934173496
1784547106616617472,3.1876742839813232,0.10948871076107025,-0.7703280448913574,0.16953587532043457,0.057638127356767654,0.003532499074935913,-0.9983313083648682,0.10030560195446014,0.014549165032804012,-0.19585204124450684,0.9218805411584398,-0.012774502725570404,0.025906876804269716,0.3863960910509022,-0.0035325064611291196,0.05767044886330414,0.7938936579133464
1784547106626537472,3.197594404220581,0.10058895498514175,-0.744662880897522,0.3535088896751404,0.05022989958524704,0.002623198088258505,-0.9987342357635498,0.06552327424287796,-0.03213369846343994,-0.1661522388458252,0.9214430459465651,-0.010952513188724176,0.022647824861503817,0.38769807102049136,-0.0026232012120002085,0.05025121700945202,0.796598291881261
1784547106636457472,3.2075142860412598,0.10033828765153885,-0.5993439555168152,0.22671309113502502,0.043741073459386826,0.001294609042815864,-0.9990420341491699,0.037557750940322876,-0.07606267184019089,-0.1439022421836853,0.9209659664607295,-0.009108759132625257,0.019899730778570365,0.38902800873175225,-0.0012946093991324902,0.043755071307967075,0.7993831931640667
1784547106646377472,3.2174344062805176,0.1059836596250534,-0.4559181034564972,0.24173225462436676,0.03831671550869942,0.0002602332679089159,-0.9992656111717224,0.04432488605380058,-0.10543906688690186,-0.11964613199234009,0.9205758144866946,-0.007596122396561339,0.017592424747690145,0.3900934650124749,-0.00026023327165205286,0.038326100308626654,0.8016267736008235
1784547106656296448,3.22735333442688,0.17206959426403046,-0.5527703166007996,0.18070799112319946,0.033271193504333496,-0.0009825144661590457,-0.9994458556175232,0.1617971658706665,-0.05198074132204056,-0.12686634063720703,0.9201532704854751,-0.006057563864366013,0.015503778685940904,0.39120426952706483,0.000982514587619469,0.0332773525311425,0.8039809872996564
1784547106666216704,3.2372734546661377,0.31579241156578064,-0.6769703030586243,0.11116620153188705,0.02717689797282219,-0.0036245707888156176,-0.9996240735054016,0.2279042750597,0.0447317473590374,-0.1468145251274109,0.9199906604592257,-0.0036560011187433544,0.013213604439881572,0.39170025463942537,0.003624578616221863,0.02718042359245861,0.8049882998004375
1784547106676136448,3.2471933364868164,0.3916492760181427,-0.6938301920890808,0.1623033881187439,0.020297765731811523,-0.007135226856917143,-0.9997684955596924,0.24532723426818848,0.09122641384601593,-0.12710827589035034,0.9197256108089473,-0.0007014234447190866,0.010735412623932102,0.3924144036751046,0.007135287419319457,0.020299676047756274,0.8064871257208844
1784547106686056704,3.257113456726074,0.37876811623573303,-0.8200943470001221,-0.05311944708228111,0.012563223950564861,-0.011143896728754044,-0.9998589754104614,0.15314722061157227,0.06995127350091934,-0.06512820720672607,0.9202900983532422,0.002670965807975471,0.00796091515048698,0.3911466253151087,0.011144127629677418,0.012564334983318211,0.803714276242345
1784547106695975424,3.2670323848724365,0.23490428924560547,-0.7252287864685059,-0.11527995765209198,0.0049387929029762745,-0.014228115789592266,-0.9998865723609924,0.11034135520458221,0.04231954738497734,0.004082739353179932,0.9210598026264083,0.005591333440403973,0.005044595120587199,0.3893485003530806,0.01422859613893137,0.004939313054803791,0.7998372166308655
1784547106705895680,3.2769525051116943,-0.06360304355621338,-0.590729296207428,-0.2203935980796814,-0.0013038753531873226,-0.015147244557738304,-0.9998844265937805,0.03218766301870346,-0.05186935514211655,0.05881386995315552,0.9219701686036438,0.0072354934203852925,0.002331470088646832,0.3871862444022977,0.015147823760519584,-0.0013040252814858606,0.7951898145662389
1784547106715815424,3.286872386932373,-0.500706136226654,-0.5889648795127869,-0.026956385001540184,-0.007321618963032961,-0.012361839413642883,-0.999896764755249,-0.029864050447940826,-0.19512717425823212,0.1207311749458313,0.9227818352041505,0.007114355568432444,-0.000996943714576054,0.3852559505718959,0.01236215404614967,-0.007322243656893874,0.7910371602786302
1784547106725735424,3.2967922687530518,-0.6597753763198853,-0.34210237860679626,0.0038587856106460094,-0.012196187861263752,-0.006311485078185797,-0.9999057054519653,0.012104635126888752,-0.24155227839946747,0.14983856678009033,0.9233940171245478,0.005254641816152509,-0.004420002164722657,0.3837921572667099,0.0063115272020831965,-0.012196733065560673,0.7878570210918214
1784547106735654656,3.306711435317993,-0.6993038654327393,-0.2828654944896698,-0.1155414804816246,-0.01555927935987711,0.00020191063231322914,-0.9998789429664612,0.0024367207661271095,-0.13220569491386414,0.12873941659927368,0.9240920474093011,0.0028794112805357254,-0.007228114258391573,0.3820908587757186,-0.00020191063888022547,-0.015559907445273932,0.7841390209416725
1784547106745574400,3.316631317138672,-0.4910891354084015,-0.0768609344959259,-0.22173342108726501,-0.017062664031982422,0.006247249431908131,-0.9998348951339722,0.014453412964940071,0.08124664425849915,0.14596837759017944,0.9249817984947214,0.0003518090709423586,-0.009078750598334137,0.3799026828311497,-0.006247290080909754,-0.01706382558346854,0.7793627577131982
1784547106755494656,3.3265514373779297,-0.21058183908462524,-0.33602771162986755,-0.04259443283081055,-0.01837809383869171,0.009696844033896923,-0.9997841119766235,0.04729349911212921,0.1173478364944458,0.11527788639068604,0.9257997870901431,-0.0010164977171108983,-0.010340413753961839,0.3778715877964713,-0.009696995837686948,-0.018379993436420973,0.774947709278686
1784547106765414400,3.3364713191986084,-0.37154701352119446,-0.2545914351940155,-0.18253210186958313,-0.02155330590903759,0.012500833719968796,-0.999689519405365,0.11817196011543274,0.044017720967531204,0.1416115164756775,0.9265506295394303,-0.001739965774156477,-0.01233695894961987,0.37596383231030245,-0.01250115910720411,-0.021556659521991157,0.7708016659063106
1784547106775334656,3.346391439437866,-0.3567405939102173,-0.15196336805820465,-0.1460246592760086,-0.02384709194302559,0.01587788201868534,-0.9995895028114319,0.1465735286474228,-0.04674641042947769,0.23808437585830688,0.9274609009286473,-0.0029084719970542583,-0.014027852014808882,0.37364571598975604,-0.01587854896739789,-0.02385236058715162,0.7657659542262187
1784547106785253632,3.3563103675842285,-0.6635785102844238,0.019553784281015396,-0.18981261551380157,-0.02435065247118473,0.02075413055717945,-0.9994879961013794,0.16463996469974518,-0.1121237576007843,0.22048109769821167,0.92827795907707,-0.0051104522725629944,-0.015161492232279278,0.3715429362213629,-0.020755621301063273,-0.024358307935895475,0.761190431751193
1784547106795173632,3.3662304878234863,-0.7381933927536011,0.07624837011098862,-0.20952972769737244,-0.024249812588095665,0.027901168912649155,-0.9993165135383606,0.09529473632574081,-0.034248825162649155,0.3113740086555481,0.9286686266373523,-0.008466699331931858,-0.016433623279629012,0.37044943709514255,-0.02790479039848941,-0.024261637281004927,0.7587834478331776
1784547106805093632,3.376150369644165,-0.4943051040172577,-0.06766512244939804,0.11240943521261215,-0.023953815922141075,0.03420613333582878,-0.9991276860237122,0.07955683767795563,0.01991678774356842,0.32162219285964966,0.9293139362252363,-0.011483245463934068,-0.017443811049491782,0.3686996785964228,-0.034212809191608226,-0.02397013694558902,0.7549824685735462
1784547106815013632,3.386070489883423,-0.11404771357774734,0.3172360062599182,0.039593711495399475,-0.022884922102093697,0.037294529378414154,-0.9990422129631042,0.038830358535051346,0.030546043068170547,0.3257787227630615,0.9290560150428885,-0.013105030771434061,-0.01752535116477322,0.36929116272604534,-0.03730318074580095,-0.022902855658430265,0.7562554069352138
1784547106824932608,3.395989418029785,-0.050079647451639175,0.5671355724334717,-0.1278086006641388,-0.018640026450157166,0.03763633966445923,-0.9991176128387451,-0.08972789347171783,-0.0035329461097717285,0.4426906704902649,0.929214504616863,-0.014053761530209307,-0.015610016094190481,0.36894324575433285,-0.037645229067374504,-0.01865432362299197,0.7555675789215248
1784547106834852352,3.405909299850464,-0.4664168059825897,0.8873554468154907,-0.06397175788879395,-0.01130694430321455,0.04038466140627861,-0.9991202354431152,-0.08238202333450317,-0.05214918777346611,0.5477499961853027,0.9294271807485024,-0.016691852919674257,-0.01269911475829121,0.36840907843502163,-0.040395647360558264,-0.011316417743211987,0.7545400885662212
1784547106844772608,3.4158294200897217,-0.5909744501113892,1.0138566493988037,0.08038675040006638,-0.0017532610800117254,0.045431993901729584,-0.9989659190177917,-0.01329190656542778,-0.1324223428964615,0.5481144785881042,0.9300518270219996,-0.020816333606623365,-0.009150547482750751,0.36672417854640993,-0.04544763586228979,-0.001755074254745778,0.7511348838795001
1784547106854690304,3.4257471561431885,-1.2076876163482666,1.1532351970672607,0.09229430556297302,0.008854097686707973,0.05404794588685036,-0.9984990954399109,0.08645229786634445,-0.11752450466156006,0.5453130602836609,0.9304175910731664,-0.0267816576331941,-0.00576193061117384,0.3654759013945127,-0.05407429294353214,0.008867174539614327,0.7488226764901487
1784547106864609536,3.43566632270813,-1.0709668397903442,1.0744460821151733,-0.14477363228797913,0.0202516820281744,0.06614270806312561,-0.9976046085357666,0.13093239068984985,0.038578346371650696,0.5489504933357239,0.9309365186356767,-0.034509785876112684,-0.002599277923679702,0.36353757849531654,-0.06619103293744105,0.020297521199430204,0.7452648457941332
1784547106874529280,3.4455862045288086,-0.5893572568893433,1.0476716756820679,-0.03309846669435501,0.03072221577167511,0.07401503622531891,-0.9967837929725647,0.1660703867673874,0.0021568387746810913,0.3951755166053772,0.9315514370138834,-0.04009024663105894,0.0009369582610989539,0.3613917101863842,-0.07408278147180017,0.03081158909927556,0.7412861334416889
1784547106884449536,3.4555063247680664,-0.6449310183525085,1.0352696180343628,0.058230914175510406,0.04081803187727928,0.07999809086322784,-0.9959589242935181,0.10670393705368042,0.051074907183647156,0.48662054538726807,0.9319723173448808,-0.04471011738250413,0.004641084380228552,0.3597318776226804,-0.08008366531171879,0.040960727923550565,0.7383825144799561
1784547106894369280,3.465426206588745,-0.7103084325790405,1.3646702766418457,0.008449909277260303,0.05261489003896713,0.08672505617141724,-0.9948419332504272,-0.023333270102739334,0.07131022214889526,0.5145105123519897,0.9323025573751311,-0.04997648521376912,0.009021813575811832,0.3580960988445031,-0.08683414032150108,0.052838459414211274,0.735743130234305
1784547106904288512,3.4753453731536865,-0.6424617767333984,1.4094274044036865,0.03528418391942978,0.06669508665800095,0.09332434087991714,-0.9933993816375732,-0.06265150755643845,0.12626489996910095,0.48779940605163574,0.932631577979555,-0.05558136095930845,0.014526561094599438,0.35622755219076857,-0.09346034286678012,0.06703763311399479,0.7328525654495459
1784547106914208512,3.4852652549743652,-0.4560908079147339,1.2458395957946777,0.0350414402782917,0.0797746479511261,0.09907317161560059,-0.9918772578239441,-0.0158860981464386,0.19432282447814941,0.4307658076286316,0.932840132350259,-0.06060025983826364,0.01972244346091189,0.3546096519326873,-0.09923596662758562,0.0802551921054607,0.7305258738824306
1784547106924128512,3.495185375213623,0.005866176448762417,1.3204230070114136,-0.16465356945991516,0.09237667918205261,0.10110252350568771,-0.9905780553817749,0.012542754411697388,0.1866934895515442,0.3579028844833374,0.9327846300358373,-0.06379721296379887,0.02531603527795226,0.35383883879591926,-0.10127556375282148,0.09298639828173064,0.729849515048909
1784547106934048512,3.5051052570343018,0.29786568880081177,1.1549433469772339,-0.10971648246049881,0.10468963533639908,0.09992310404777527,-0.9894723296165466,0.03308197110891342,0.24997618794441223,0.37306302785873413,0.9329137598172095,-0.06541698146311832,0.03137614311049234,0.3527154857660024,-0.10009013520737202,0.10541133142707344,0.7282200838320171
1784547106943968512,3.5150253772735596,0.8405177593231201,0.9334160685539246,-0.09683796763420105,0.11476705968379974,0.09455724060535431,-0.9888819456100464,0.013055816292762756,0.2525039315223694,0.3171290159225464,0.9337041236446935,-0.06459886231744105,0.037229386585162685,0.35019654625030583,-0.09469872021794479,0.11554049559157335,0.7231302981981796
1784547106953887488,3.524944305419922,1.1082502603530884,0.7708524465560913,-0.3711952567100525,0.12288697063922882,0.08486173301935196,-0.9887857437133789,-0.006004646420478821,0.23035433888435364,0.2757272720336914,0.9342305346284686,-0.061411172468107525,0.04284609374746072,0.34872087826660386,-0.0849639170719955,0.12364668585833666,0.7197700576005428
1784547106963807232,3.5348641872406006,1.1844018697738647,0.8393657207489014,-0.39103901386260986,0.13028642535209656,0.07422652095556259,-0.9886940121650696,-0.020468920469284058,0.2146833837032318,0.3708198666572571,0.9350991470413172,-0.05759044653359651,0.04833558538865223,0.3463186961029661,-0.07429485004132895,0.13102137102906508,0.7142607103369814
1784547106973727488,3.5447843074798584,1.7984527349472046,1.1192097663879395,-0.25787779688835144,0.1397658735513687,0.060308996587991714,-0.98834627866745,0.012440547347068787,0.15416854619979858,0.34582918882369995,0.9357606582996447,-0.05258271711874698,0.055334695883406844,0.3442747749545468,-0.060345615056828436,0.14048236207148274,0.7093259420425434
1784547106983647232,3.554704189300537,2.2490622997283936,1.135154128074646,-0.4268715977668762,0.1510145366191864,0.04071814939379692,-0.9876925945281982,-0.0648481547832489,0.13587181270122528,0.19455599784851074,0.936527904257429,-0.045145807465635006,0.06415265930815196,0.3417042027702721,-0.040729410260982424,0.15172129804441686,0.7028036930849061
1784547106993566464,3.5646233558654785,2.5311548709869385,0.9949464201927185,-0.4410025477409363,0.1614181250333786,0.018293043598532677,-0.9867165684700012,0.008381664752960205,0.14178690314292908,0.24916774034500122,0.9373598396241127,-0.03614949869547746,0.07304066013049194,0.3386958197797084,-0.018294064482948035,0.16215483390416485,0.6949507705971174
1784547107003486464,3.5745432376861572,3.005727767944336,0.7363268136978149,-0.4964365065097809,0.16974592208862305,-0.008498786948621273,-0.9854512214660645,0.12751054763793945,0.11686670780181885,0.19986772537231445,0.9382061408212916,-0.02465917615334361,0.08164752451737974,0.33540249981476034,0.008498888977977058,0.17057805918006935,0.6859429491543699
1784547107013406464,3.584463357925415,2.959047555923462,0.5986989736557007,-0.3953201472759247,0.17620667815208435,-0.03680296987295151,-0.9836649298667908,0.16769592463970184,0.1120440661907196,0.21643781661987305,0.938957403843809,-0.012066336515203363,0.08956519552153522,0.33195105995071955,0.03681128424489546,0.17725284170727684,0.6763636121688325
1784547107023326464,3.5943832397460938,2.5018985271453857,0.9852956533432007,-0.5762696862220764,0.18348076939582825,-0.06339992582798004,-0.9809767007827759,0.09992071986198425,0.006850861012935638,0.3131605386734009,0.939442104733277,-0.000363354761668687,0.09752704393841781,0.32853774240999717,0.06344247837079912,0.18490244704396122,0.6669592645373839
1784547107033245440,3.604302167892456,1.3026973009109497,1.0777183771133423,-0.2313736081123352,0.1936621367931366,-0.08039944618940353,-0.9777683615684509,-0.0861181914806366,-0.04820162057876587,0.5541996359825134,0.9396995603432792,0.006342721455763468,0.10524069552315657,0.32534439277035015,0.08048631636871188,0.19553473362645585,0.6587115310011018
1784547107043165440,3.614222288131714,0.7010478973388672,1.4257423877716064,-0.0741371139883995,0.20612800121307373,-0.0899180993437767,-0.9743849039077759,-0.053860560059547424,-0.2411365807056427,0.49690693616867065,0.9391031463657792,0.008894396862630634,0.11282033009230821,0.32446540911636323,0.0900397128790305,0.20847319251047663,0.655904793597086
1784547107053085440,3.6241421699523926,0.33227425813674927,1.6691561937332153,-0.5358673930168152,0.221978560090065,-0.09379719197750092,-0.9705295562744141,-0.18532694876194,-0.3227372169494629,0.37587928771972656,0.9386756385973004,0.008325985380535922,0.121102858776333,0.32272726976782146,0.09393527320092203,0.22485142115123982,0.6516886317481941
1784547107063005440,3.6340622901916504,0.21578732132911682,1.4601424932479858,-0.31981658935546875,0.23772698640823364,-0.09562560170888901,-0.9666134715080261,-0.05808526277542114,-0.3299420177936554,0.21830719709396362,0.9384092713468132,0.006891965977952232,0.1290184385594925,0.32046052007832815,0.09577194185677214,0.2411519695991526,0.6465402655472078
1784547107072924416,3.6439812183380127,-0.2616671919822693,1.9109957218170166,-0.19178195297718048,0.2530577480792999,-0.09522967040538788,-0.9627528786659241,0.13288277387619019,-0.20300336182117462,0.19692951440811157,0.9376711523729173,0.004287276616797149,0.13640083557763044,0.3196078590541087,0.09537419457457148,0.25703396456722793,0.6446711539463722
1784547107082844416,3.6539013385772705,-1.4477033615112305,1.536850094795227,-0.3353806734085083,0.27065509557724,-0.08618283271789551,-0.9588109254837036,0.07300335168838501,-0.005919218063354492,0.2611027956008911,0.9369184449854624,-0.002817950234239624,0.14348033774185065,0.3187308163289869,0.08628987630104752,0.27512356942007216,0.6438657564819866
1784547107092764416,3.663821220397949,-2.3435168266296387,1.2640124559402466,0.05908292531967163,0.2836318016052246,-0.06770326942205429,-0.9565402865409851,0.11952069401741028,0.12239077687263489,0.2945224642753601,0.9360348695576559,-0.013932999092633349,0.1467505977830844,0.31954492174320015,0.06775509985502486,0.28825961514064535,0.648115198767332
1784547107102684416,3.673741340637207,-2.723607301712036,1.5885815620422363,-0.2713722288608551,0.2972888946533203,-0.04343833774328232,-0.9537989497184753,0.03996086120605469,0.04883995279669762,0.18438977003097534,0.9348350006682623,-0.02804547805962588,0.14937864403948678,0.3209097506490403,0.04345200998803621,0.30214610449138524,0.6547347882220439
1784547107112603392,3.6836602687835693,-3.7717535495758057,1.5801491737365723,-0.38348063826560974,0.31288692355155945,-0.01205383986234665,-0.9497138857841492,-0.11433959007263184,-0.13221800327301025,-0.02796250581741333,0.9336191933735157,-0.045784365673387686,0.15181187181102973,0.3212665894079037,0.012054131391453294,0.3182549933723727,0.6608993886162461
1784547107122523392,3.693580150604248,-4.986532211303711,1.4380924701690674,-0.5687756538391113,0.32701608538627625,0.030710525810718536,-0.9445196390151978,-0.006886690855026245,-0.22297127544879913,0.04206913709640503,0.9319168983651951,-0.06889772145154223,0.15163537300672225,0.32216551162320395,-0.03071535612879726,0.33330761464962283,0.6708485367689678
1784547107132443392,3.703500270843506,-5.834144592285156,1.13170325756073,-1.0927003622055054,0.3389001190662384,0.0838303416967392,-0.9370801448822021,-0.028841525316238403,-0.2516160011291504,-0.11438775062561035,0.9300307077428835,-0.09655635252356984,0.14878444093082854,0.3218428088964639,-0.08392883943092597,0.34702032559005663,0.6810327522274829
1784547107142363392,3.7134201526641846,-6.346677303314209,0.8321269154548645,-0.8731520771980286,0.3467731177806854,0.14424432814121246,-0.926791250705719,-0.028001725673675537,0.15481267869472504,-0.0853089690208435,0.9275578487245949,-0.1272085355361218,0.142906870289957,0.32098604828354427,-0.14474927165040802,0.3580386683414925,0.6925497420587855
1784547107152282368,3.723339319229126,-6.199510097503662,0.6525563597679138,-0.6545480489730835,0.3518007695674896,0.2042195349931717,-0.9135264754295349,0.041692882776260376,0.7424662709236145,-0.12098890542984009,0.9238057469409267,-0.1576953967522149,0.13553204357685555,0.3214748882005944,-0.2056663689078436,0.36759759286901006,0.7081289008407929
1784547107162202368,3.7332592010498047,-5.392951488494873,0.8655017018318176,-0.6281676292419434,0.3569173216819763,0.25913581252098083,-0.8974734544754028,-0.1268148124217987,1.1438335180282593,-0.1561153531074524,0.9193934682155913,-0.1860614692349784,0.12901313602791462,0.3216400996140659,-0.26212733428093365,0.3785144708184638,0.7235527095535205
1784547107172122368,3.7431793212890625,-3.927147626876831,0.6687188148498535,-0.8583515286445618,0.3621646761894226,0.3026343882083893,-0.8816173672676086,-0.1852237582206726,1.116387128829956,-0.2936450242996216,0.915415830033576,-0.20895206986534853,0.12462084569955145,0.32065936886411306,-0.3074554399282376,0.3897782801569091,0.7350166682327702
1784547107182042368,3.753099203109741,-2.994417190551758,0.8850809335708618,-0.7504088282585144,0.36668598651885986,0.33583584427833557,-0.8676149249076843,-0.25108540058135986,0.8445383310317993,-0.2826688885688782,0.9124734785738406,-0.2265408168409108,0.12194995702518462,0.3181187788999733,-0.3424924593634481,0.3998672749404512,0.7409745376175394
1784547107191962368,3.763019323348999,-2.608278751373291,0.9038868546485901,-1.083839774131775,0.37121638655662537,0.36198481917381287,-0.855082094669342,-0.059097856283187866,0.5078271627426147,-0.15759795904159546,0.9102060198106245,-0.2405932450311772,0.12072220043387272,0.31474748984749673,-0.37039623124705784,0.4095779635668782,0.743637180413177
1784547107201881344,3.7729382514953613,-2.6718969345092773,1.0649298429489136,-1.3039389848709106,0.37473228573799133,0.38950851559638977,-0.8413434624671936,-0.11511924862861633,0.48770397901535034,-0.005229353904724121,0.9081877650025559,-0.25512501117893205,0.11932936077672261,0.3096233974017628,-0.40009789011653957,0.4190198990943547,0.7433066403703357
1784547107211801600,3.782858371734619,-2.678618907928467,1.1700711250305176,-1.340842604637146,0.3787787854671478,0.4160706102848053,-0.8266872763633728,0.08115160465240479,0.4144499897956848,-0.20036649703979492,0.906112854820815,-0.26938674597122,0.11868927023403741,0.3038142113755312,-0.4291198477515705,0.42964276975998694,0.7420492182787758
1784547107221721344,3.792778253555298,-3.201899290084839,1.094209909439087,-1.2825736999511719,0.38271692395210266,0.4447396695613861,-0.8097742795944214,0.20004674792289734,0.3028799593448639,-0.1687108278274536,0.9033154961811299,-0.28503930224663304,0.11775168046037637,0.29817482500775677,-0.46088357600148194,0.44150609813166897,0.7428566457498169
1784547107231641600,3.8026983737945557,-3.9433951377868652,1.064749836921692,-1.335081934928894,0.38545048236846924,0.4780333340167999,-0.7892478108406067,0.35527217388153076,0.2540986239910126,0.01050025224685669,0.8993324743757647,-0.3033856436757495,0.11546969474621635,0.29295911988432144,-0.49841426489635177,0.4543060500121576,0.7473382335532592
1784547107241560576,3.812617301940918,-5.009510040283203,1.1206378936767578,-1.3684132099151611,0.38773760199546814,0.5177732706069946,-0.7626076936721802,0.41408124566078186,0.40683305263519287,0.06418240070343018,0.8935868508807989,-0.3257963425674533,0.11203973476499267,0.2877612717267943,-0.5442460996156493,0.4703740359522365,0.7566172934875387
