time,seconds_elapsed,rotationRateX,rotationRateY,rotationRateZ,gravityX,gravityY,gravityZ,accelerationX,accelerationY,accelerationZ,quaternionW,quaternionX,quaternionY,quaternionZ,pitch,roll,yaw
1783160459736128000,0.1715691089630127,0.5074722766876221,-0.565854549407959,0.3410215675830841,0.0971820130944252,0.792387843132019,-0.6022267937660217,-0.03782530874013901,-0.02172750234603882,0.13439232110977173,-0.349355415998282,0.12279274924432135,-0.42872899842612583,0.8240534704339071,-0.9147135208114093,0.15999187739389037,-2.2607656355190833
1783160459746048256,0.1814892292022705,0.6788966059684753,-0.5611034035682678,0.2710784673690796,0.09568595886230469,0.7905719876289368,-0.604847252368927,-0.05386161804199219,-0.021117031574249268,0.12207436561584473,-0.3517261712839387,0.12414572195185153,-0.42680700813337047,0.8238400450596401,-0.9117425261632591,0.15689828589304433,-2.2575258640514995
1783160459755968000,0.19140911102294922,0.9298118948936462,-0.5609188079833984,0.1359584778547287,0.09248889237642288,0.7886287569999695,-0.6078738570213318,-0.06274952739477158,-0.03908652067184448,0.137109637260437,-0.3534878798148535,0.12597967119096856,-0.4244905231311065,0.824004457157395,-0.9085756329799095,0.1509933934638524,-2.2572606507938446
1783160459765886976,0.20132803916931152,1.1872069835662842,-0.5288146138191223,-0.07962122559547424,0.08788377791643143,0.7848384976387024,-0.6134370565414429,-0.08884508162736893,-0.05046349763870239,0.17439591884613037,-0.35470711530980414,0.12759652042565156,-0.4207143963237217,0.825167490635168,-0.9024354302073202,0.14229628409601638,-2.2605916730797913
1783160459775807232,0.21124815940856934,1.5453627109527588,-0.5060307383537292,-0.3206593990325928,0.08142632991075516,0.7791232466697693,-0.6215597987174988,-0.11476677656173706,-0.024484634399414062,0.20560532808303833,-0.3551183092031743,0.12907626230432917,-0.4154027050512891,0.8274483616770474,-0.8932660069870276,0.13026141004744105,-2.2683416499188294
1783160459785726976,0.22116804122924805,2.0602505207061768,-0.46192842721939087,-0.5538078546524048,0.07303942739963531,0.7707712650299072,-0.6329113841056824,-0.139857679605484,0.015803992748260498,0.23154431581497192,-0.3547078167594465,0.13025780833031106,-0.4081387035683803,0.8310463496002557,-0.8800508626216709,0.11489404672017456,-2.2806291687538254
1783160459795646208,0.23108720779418945,2.607914447784424,-0.34413254261016846,-0.753444254398346,0.06317239999771118,0.7591313719749451,-0.6478647589683533,-0.18319803476333618,0.060967445373535156,0.28263044357299805,-0.35350275771652406,0.1307996941368291,-0.3986967080418775,0.8360431195292397,-0.8619776672546212,0.09720134397561753,-2.296810163684243
1783160459805565952,0.24100708961486816,3.244314432144165,-0.07902789115905762,-1.0497452020645142,0.052386075258255005,0.7438309788703918,-0.6663116812705994,-0.2213161289691925,0.09663844108581543,0.32927554845809937,-0.35121402210790914,0.13029292017226507,-0.38712776849408087,0.8424990638769738,-0.8387840469302155,0.07845958080909028,-2.316666083425295
1783160459815486208,0.250927209854126,4.226565361022949,0.2234502136707306,-1.465552806854248,0.04048674926161766,0.7230870127677917,-0.6895694732666016,-0.26022857427597046,0.15639907121658325,0.35544776916503906,-0.3471691553975601,0.12818525715676343,-0.3725369845737318,0.8510337180420744,-0.8082609465357086,0.058645755085742664,-2.3418440832759893
1783160459825405952,0.2608470916748047,5.274965763092041,0.4712469279766083,-1.7020316123962402,0.027879610657691956,0.6945209503173828,-0.7189320921897888,-0.28744685649871826,0.2000255584716797,0.4010304808616638,-0.34156735125201243,0.12402901462517031,-0.35376652987612023,0.8618571356294,-0.7677538380228114,0.038759777364448134,-2.371283156605521
1783160459835325184,0.2707662582397461,5.644201755523682,0.5129849910736084,-1.6397498846054077,0.015848280861973763,0.6595316529273987,-0.7515097260475159,-0.3112431764602661,0.15798848867416382,0.49734407663345337,-0.335623686212801,0.11847491647694035,-0.33197716159814566,0.8735626172355963,-0.7201955203412818,0.021085465801913072,-2.400027752841283
1783160459845245184,0.2806861400604248,5.297771453857422,0.5560553669929504,-1.4520926475524902,0.005279859062284231,0.6230709552764893,-0.7821474671363831,-0.21852143108844757,0.015570342540740967,0.6026888489723206,-0.3299473235112641,0.11273533247430288,-0.31018868625537666,0.8844254503425583,-0.672662846209861,0.006750362813395318,-2.4250879213827052
1783160459855165184,0.2906062602996826,4.820443153381348,0.6222056150436401,-1.3710920810699463,-0.00250130333006382,0.587989866733551,-0.8088644742965698,-0.07884331792593002,-0.048362791538238525,0.6169394254684448,-0.32474866327964985,0.10679887536193672,-0.2901064831633143,0.8938515875882517,-0.6285714693227583,-0.0030923541788991735,-2.4456256974285884
1783160459865085184,0.30052614212036133,4.682683944702148,0.7715713977813721,-1.4334700107574463,-0.00816707219928503,0.5536208152770996,-0.8327288031578064,-0.0987054780125618,-0.11357259750366211,0.5164141058921814,-0.3191897753240902,0.10044082180808278,-0.2711959338985142,0.902486696209834,-0.5867059046833449,-0.009807287172383208,-2.464659593410751
1783160459875004160,0.31044507026672363,4.527007579803467,0.7863343954086304,-1.3780597448349,-0.012107674032449722,0.5186472535133362,-0.8549025654792786,-0.10088367015123367,-0.14317423105239868,0.38152921199798584,-0.3135069517163181,0.09360306662780736,-0.2525612216383798,0.9105848656520851,-0.5452680354745378,-0.014161689269191214,-2.4823911673070502
1783160459884924160,0.32036519050598145,4.412522315979004,0.7818067073822021,-1.441772699356079,-0.014957130886614323,0.4832720160484314,-0.8753424882888794,-0.08150894194841385,-0.1319841742515564,0.3430091142654419,-0.27019355355545216,0.07704471547975854,-0.2374718300154486,0.929874589333441,-0.5043883069990739,-0.017085513318844895,-2.5804293589489236
1783160459894844160,0.33028507232666016,4.504505157470703,0.7801427245140076,-1.4748313426971436,-0.016640154644846916,0.4463917911052704,-0.8946828842163086,-0.04589036479592323,-0.17287799715995789,0.3144826889038086,-0.252334082514382,0.06770642906569592,-0.21925873567024212,0.9400367100043379,-0.46272902491756707,-0.018596796322905423,-2.6214779734889966
1783160459904764160,0.34020519256591797,4.6692070960998535,0.8849803805351257,-1.39484703540802,-0.016654400154948235,0.4069701135158539,-0.9132896661758423,-0.004326445981860161,-0.18419179320335388,0.3085228204727173,-0.24134313400539012,0.05958591518907787,-0.19951113967943804,0.9478388219435291,-0.41913459663415514,-0.01823359567693192,-2.6468178777209985
1783160459914683136,0.3501241207122803,4.7909111976623535,0.9468998908996582,-1.1864219903945923,-0.014118175953626633,0.36494868993759155,-0.9309206008911133,0.03293227031826973,-0.14444392919540405,0.3027620315551758,-0.2323771496170637,0.050900300074518956,-0.178742472743342,0.9547046706250768,-0.37357768105075534,-0.015164659461316437,-2.6669399825702826
1783160459924603136,0.3600442409515381,4.494321346282959,0.9382405281066895,-0.9644171595573425,-0.009592005051672459,0.3226170539855957,-0.9464809894561768,0.08382602035999298,-0.0792546272277832,0.31505703926086426,-0.2247661166254599,0.04198721165517471,-0.1581030999915238,0.9605834945230223,-0.32849309131126575,-0.010134041078437529,-2.6835646695349413
1783160459934523136,0.3699641227722168,3.924024820327759,0.7358059287071228,-1.4161063432693481,-0.005574899259954691,0.2839299142360687,-0.9588288068771362,0.12964411079883575,-0.06554612517356873,0.30588996410369873,-0.2177630277056403,0.03431205391937015,-0.13931356714770243,0.9653981613568821,-0.28789023065813474,-0.00581421437933266,-2.698725180698856
1783160459944443136,0.3798842430114746,3.4925787448883057,0.7304962873458862,-2.134676694869995,-0.0037839424330741167,0.24956125020980835,-0.9683516025543213,0.01153541449457407,-0.16011424362659454,0.17100363969802856,-0.20820775786391482,0.0282626718487463,-0.1225781927475935,0.9699614416593176,-0.25222714896319504,-0.003907592232928134,-2.719193916366241
1783160459954362112,0.3898031711578369,3.1614770889282227,0.7241613864898682,-2.197021007537842,-0.002321989741176367,0.2184533178806305,-0.9758446216583252,0.0446040965616703,-0.2478722780942917,-0.08346623182296753,-0.19720538440537194,0.02294827050524269,-0.10747585561663696,0.9741828821864208,-0.22022923028216834,-0.0023794621570523444,-2.742390655687487
1783160459964282112,0.3997230529785156,3.3400840759277344,0.6974436044692993,-1.9188227653503418,6.965931243030354e-05,0.1881149262189865,-0.9821470379829407,0.18396659195423126,-0.2745864987373352,-0.3555604815483093,-0.1860040010571094,0.017618270214432317,-0.09282287692509472,0.9779959458684129,-0.18924245874448192,7.092554169045448e-05,-2.7656973684553887
1783160459974202112,0.40964317321777344,4.322392463684082,0.593305230140686,-1.754273772239685,0.002899716142565012,0.15179169178009033,-0.9884082674980164,0.2934107184410095,-0.21914398670196533,-0.5780895352363586,-0.17566084473662094,0.011978311923681092,-0.07518239686865544,0.9815026840854543,-0.15238071553950194,0.002933714633179275,-2.7871759893687584
1783160459984122112,0.41956305503845215,5.744596481323242,0.4660089313983917,-1.6479626893997192,0.005535806994885206,0.10285989195108414,-0.9946804642677307,0.3559601604938507,-0.014007963240146637,-0.6740664839744568,-0.1646733261178822,0.005758073898354727,-0.0512505598094365,0.984998927899446,-0.10304214332273148,0.005565355099204037,-2.8100070838023314
1783160459994041088,0.42948222160339355,6.35511589050293,0.3066142201423645,-1.549721360206604,0.007776155602186918,0.04262907803058624,-0.9990606904029846,0.387640118598938,0.31047457456588745,-0.5462426543235779,-0.15443215742057798,-0.0005491172399786009,-0.02166439046173328,0.9877656675699205,-0.04264200126359502,0.007783309224784791,-2.8312478423252823
1783160460003961088,0.43940210342407227,5.938708305358887,0.33834829926490784,-1.48646080493927,0.010500002652406693,-0.017380278557538986,-0.9997938275337219,0.4001292586326599,0.5591283440589905,-0.050071895122528076,-0.14534940475710825,-0.0064577465994288185,0.007835123224875453,0.9893283316963686,0.017381153166837686,0.010501781628638938,-2.849936578640177
1783160460013881088,0.4493222236633301,5.628489017486572,0.3427984416484833,-1.2857567071914673,0.014562682248651981,-0.07337027788162231,-0.9971984624862671,0.4260348677635193,0.2584441304206848,0.3839782476425171,-0.13671838781170625,-0.012240497720956348,0.03536876564284789,0.9899027094619773,0.07343626386595471,0.014602557300716192,-2.8676397151186297
1783160460023801088,0.4592421054840088,4.406493663787842,0.24643857777118683,-1.0153839588165283,0.018618885427713394,-0.12199535965919495,-0.99235600233078,0.4832884669303894,-0.30297717452049255,0.5877997875213623,-0.12978419897177865,-0.01719500152071941,0.05938284768658007,0.9896130589138009,0.12230001369241635,0.018760103040523286,-2.8819368929591005
1783160460033720064,0.4691610336303711,2.43934965133667,0.22292526066303253,-1.0479323863983154,0.022479938343167305,-0.15493445098400116,-0.9876689314842224,0.47329336404800415,-0.7497438788414001,0.6882915496826172,-0.12395375070506066,-0.020849210888456617,0.07570225675406964,0.9891764058431723,0.1555611000487527,0.022756670465133258,-2.894045800515156
1783160460043640064,0.4790811538696289,0.6206384897232056,0.3831789195537567,-1.288020133972168,0.027008438482880592,-0.1687442660331726,-0.9852897524833679,0.41494712233543396,-0.9876583218574524,0.3554069995880127,-0.11800662408012176,-0.02348899024905922,0.08248263336404994,0.9893024957240824,0.16955552336261995,0.02740480864438197,-2.9064783238842096
1783160460053560064,0.4890010356903076,-1.6661027669906616,-0.3189102113246918,-0.9455893635749817,0.03184250369668007,-0.16302675008773804,-0.9861076474189758,0.5192133784294128,-1.0782146453857422,-0.3618232011795044,-0.11215414791191879,-0.02508134034216433,0.0794801394636098,0.9901894721142083,0.16375766994837965,0.03227988594105298,-2.918672477242746
1783160460063480064,0.49892115592956543,-0.40863174200057983,0.0976812094449997,-0.6739596128463745,0.03089035488665104,-0.15252964198589325,-0.9878160357475281,0.3486567735671997,-0.9114504456520081,-0.3012922406196594,-0.10788541720761652,-0.023679754152256823,0.07437243179443452,0.9910946855923684,0.1531273644047753,0.03126117754510758,-2.927135229235663
1783160460073399040,0.5088400840759277,-1.2832280397415161,-0.34489089250564575,-1.3579035997390747,0.03167087212204933,-0.14715084433555603,-0.988606870174408,0.22765225172042847,-0.8094989061355591,-0.49656158685684204,-0.10209871565465295,-0.023352260038180975,0.0717720406168449,0.9919069433876889,0.14768713659485133,0.032024906730725756,-2.9388209673885197
1783160460083319296,0.5187602043151855,-1.4698644876480103,-0.33186590671539307,-1.0025962591171265,0.030022695660591125,-0.1335820108652115,-0.9905828833580017,0.11154834926128387,-0.2802363634109497,0.07827514410018921,-0.09624174154140502,-0.021435127089882156,0.06518499954012802,0.9929899343838262,0.13398250539754844,0.03029883451194173,-2.9503868506646214
1783160460093239040,0.5286800861358643,0.16977322101593018,-0.10592863708734512,-0.38405364751815796,0.02922225557267666,-0.12985751032829285,-0.9911019802093506,0.03722977265715599,-0.24723294377326965,-0.20070099830627441,-0.09321788425505688,-0.020659258450348602,0.06342094803944828,0.9934090638761117,0.13022527554060306,0.029476071734364725,-2.956390040104896
1783160460103158272,0.5385992527008057,0.7005202770233154,-0.00900342594832182,-0.546977698802948,0.029664242640137672,-0.13714225590229034,-0.9901070594787598,-0.12504693865776062,0.001430600881576538,-0.27611297369003296,-0.09111823242946256,-0.021085918529882362,0.06709577207920189,0.9933534221578971,0.13757582778018426,0.029951680688585343,-2.9607125114366553
1783160460113078016,0.5485191345214844,1.5566492080688477,-0.011250068433582783,-0.843833327293396,0.030994724482297897,-0.15022164583206177,-0.9881663918495178,-0.1920512467622757,0.23530465364456177,-0.20212596654891968,-0.0875007717385742,-0.02209481475030879,0.07367925281286351,0.9931902107103714,0.15079246499625115,0.03135561671117248,-2.9682137574739795
1783160460122998272,0.5584392547607422,2.613266706466675,-0.12484853714704514,-0.8601070642471313,0.03216572478413582,-0.17299532890319824,-0.984397292137146,-0.02867145836353302,0.16704440116882324,-0.322029709815979,-0.08331722591279332,-0.023352793469586765,0.08518222437441265,0.9926011467546794,0.17387004208513127,0.03266393199240039,-2.9769558071127022
1783160460132918016,0.5683591365814209,3.403175115585327,-0.2710084021091461,-0.8234307765960693,0.03218720853328705,-0.2043689638376236,-0.9783645868301392,0.12157560884952545,0.1538318693637848,-0.29310446977615356,-0.07939493314179204,-0.02433137604215405,0.10112209481329064,0.9914024472328926,0.205819018381613,0.03288712836551364,-2.9851635436387305
1783160460142836992,0.5782780647277832,4.191140651702881,-0.40269410610198975,-0.8801854848861694,0.031388502568006516,-0.2429346740245819,-0.969534695148468,0.12626530230045319,0.2180475890636444,-0.20926779508590698,-0.07563402250478861,-0.025098337070431374,0.12084176086056046,0.9894679280284091,0.24539001027617724,0.03236350718642575,-2.9930024196264085
1783160460152757248,0.588198184967041,4.924014091491699,-0.45611339807510376,-0.9810327291488647,0.03022676333785057,-0.28814634680747986,-0.9571092128753662,0.07879729568958282,0.28636106848716736,-0.08367753028869629,-0.07137520879952634,-0.025746882318320116,0.14416134454584673,0.9866409153789503,0.29229050983556143,0.0315708170684123,-3.0018084511689977
1783160460162676992,0.5981180667877197,5.386202812194824,-0.5031308531761169,-1.145786166191101,0.0296552125364542,-0.3378906846046448,-0.9407180547714233,0.018211614340543747,0.3365784287452698,0.04717862606048584,-0.06646859186027407,-0.026590641281628382,0.17009970540489652,0.9828230063012444,0.3446748754434797,0.031513580991041554,-3.012023593815435
1783160460172597248,0.6080381870269775,5.848995208740234,-0.5168711543083191,-1.2925816774368286,0.029853079468011856,-0.39031052589416504,-0.9201991558074951,-0.008338186889886856,0.32442307472229004,0.17659258842468262,-0.06061783987537646,-0.027525891308900752,0.19784525609972478,0.9779698560036365,0.40096883266059924,0.03243060246657864,-3.0243752796944414
1783160460182516224,0.6179571151733398,6.371824741363525,-0.5851402878761292,-1.2828888893127441,0.03075326979160309,-0.44564738869667053,-0.8946802020072937,0.005928870290517807,0.27073588967323303,0.2438318133354187,-0.05405884836042026,-0.02848900971134567,0.22770215766555688,0.9718116359452634,0.4618972905178187,0.0343599486562234,-3.0385337412587305
1783160460192436224,0.6278772354125977,6.606019020080566,-0.542860209941864,-1.1633992195129395,0.03204406797885895,-0.5024150013923645,-0.8640326261520386,0.039702773094177246,0.203937828540802,0.3016089200973511,-0.047794216364555775,-0.02945777426836893,0.25906740773476744,0.96422618618544,0.5263896057899085,0.0370696506723777,-3.0525281729413196
1783160460202356224,0.6377971172332764,6.7193498611450195,-0.5452559590339661,-1.0464434623718262,0.03360111638903618,-0.5584669709205627,-0.8288459181785583,0.05598321557044983,0.15967857837677002,0.3619422912597656,-0.041990326052735415,-0.03037459164900697,0.2909543433465013,0.9553322275074362,0.5925366060351749,0.04051745626350793,-3.0661114934716562
1783160460212276224,0.6477172374725342,6.632165908813477,-0.498943567276001,-0.996502697467804,0.035531897097826004,-0.6122387647628784,-0.7898741364479065,0.0795346349477768,0.09800231456756592,0.40393364429473877,-0.03637379264602794,-0.031207870728913126,0.32262825383485144,0.9453116034700899,0.658888960488162,0.04495394577656537,-3.0800466363212324
1783160460222195200,0.6576361656188965,6.462399482727051,-0.5467961430549622,-1.007400393486023,0.03807175159454346,-0.662162184715271,-0.7483928203582764,0.10613906383514404,0.1180490255355835,0.44301867485046387,-0.03095845209789005,-0.032073172377970374,0.35323492572211496,0.9344720366755774,0.723700479249661,0.050827535353961534,-3.0946007971065495
1783160460232114944,0.6675560474395752,6.220639705657959,-0.48370397090911865,-1.0322506427764893,0.041568513959646225,-0.7078595161437988,-0.705129086971283,0.10578561574220657,0.18953371047973633,0.4411519765853882,-0.02505542428172715,-0.03290286489170379,0.3825609374649268,0.9230042171005033,0.7864632467536041,0.05888348821736895,-3.1117478838445947
1783160460242035200,0.677476167678833,6.192246913909912,-0.48092955350875854,-1.0324628353118896,0.0460219569504261,-0.749607264995575,-0.6602808833122253,0.0938248410820961,0.29791659116744995,0.4441401958465576,-0.01922653827082486,-0.03393074125808882,0.41074109997792957,0.9109175336884728,0.8474685432682987,0.06958802508878509,-3.130783759025401
1783160460251954944,0.6873960494995117,6.5230584144592285,-0.3211697041988373,-0.9774129390716553,0.05136009678244591,-0.7894154787063599,-0.6117068529129028,0.0871897041797638,0.36168116331100464,0.3783389925956726,-0.013681263945976933,-0.03530447735988635,0.43920400666214604,0.897589120676324,0.909856234425861,0.08376547448023672,3.131082837140542
1783160460261874176,0.6973152160644531,6.747937202453613,-0.17232954502105713,-1.000795841217041,0.05800991877913475,-0.827777087688446,-0.5580501556396484,0.08296604454517365,0.39819639921188354,0.39357566833496094,-0.008090382617833493,-0.037159153802172606,0.46860869594052174,0.8825869227185057,0.975134000191571,0.10357906454659403,3.1049656112896127
1783160460271794176,0.7072350978851318,6.825155735015869,-0.08424308896064758,-1.1084442138671875,0.06637296825647354,-0.8630006313323975,-0.5008239150047302,0.041186243295669556,0.45830702781677246,0.4577636122703552,-0.002333287851224164,-0.039651475052059536,0.4980118492853829,0.8662601059229735,1.041179336173686,0.13175975068781492,3.0713624705044613
1783160460281714176,0.7171552181243896,6.8639044761657715,0.10784196853637695,-1.143707513809204,0.0764874815940857,-0.8944227695465088,-0.4406333267688751,0.040989950299263,0.4434492588043213,0.5045371651649475,0.00332180517540061,-0.04299807004704658,0.5271000831852841,0.8487082909084174,1.1071388077566162,0.17187270774642782,3.027381068825439
1783160460291634176,0.7270750999450684,6.708316326141357,0.2056335061788559,-1.1610037088394165,0.08780188113451004,-0.9212885499000549,-0.3788379430770874,0.09626488387584686,0.4134913682937622,0.5010303258895874,0.008702405841448355,-0.04705525756752754,0.5553078703732355,0.8302669332023185,1.1713810465643035,0.22774531964654246,2.9691933445301744
1783160460301552896,0.7369940280914307,6.253399848937988,0.31042489409446716,-1.2283974885940552,0.09995053708553314,-0.942807137966156,-0.31800079345703125,0.16643738746643066,0.3731660842895508,0.48372653126716614,0.01389643522363079,-0.051612366934202854,0.5816663716539513,0.811669395331739,1.230953678149145,0.30453214620134555,2.8911847698675377
1783160460311473152,0.7469141483306885,5.497454643249512,0.31902024149894714,-1.3338956832885742,0.11319632083177567,-0.9585226774215698,-0.2615742087364197,0.19481763243675232,0.3438680171966553,0.4896320402622223,0.019000449097447577,-0.05680585848585283,0.6049677541065067,0.7939938246219064,1.2817728166843776,0.4084168534136525,2.787210725841706
1783160460321392896,0.7568340301513672,4.48568868637085,0.2675773799419403,-1.5034935474395752,0.1276964247226715,-0.9687262177467346,-0.2127513736486435,0.2344556748867035,0.3234625458717346,0.5025310516357422,0.02455077754415926,-0.06234168023136479,0.624289860922502,0.7783141720384753,1.320044806364655,0.5405771124551872,2.6548893065558383
1783160460331313152,0.766754150390625,3.3382158279418945,0.21735043823719025,-1.6559730768203735,0.1436883807182312,-0.9742037653923035,-0.1740134358406067,0.2106359452009201,0.27561068534851074,0.5334647297859192,0.030508492612130244,-0.06838082782569278,0.6389971401525373,0.7655559873603451,1.3431655043562671,0.6902351742132244,2.505272477836124
1783160460341232128,0.7766730785369873,2.2613770961761475,0.27291157841682434,-1.845664620399475,0.1612301617860794,-0.9760669469833374,-0.14593876898288727,0.1748599112033844,0.2118304967880249,0.5390051603317261,0.036645426934927894,-0.07516219125269832,0.6491388600198928,0.7560598315172132,1.3515743106432614,0.835138820009567,2.3612602978082817
1783160460351152128,0.7865931987762451,1.139108657836914,0.4340362846851349,-2.0226638317108154,0.18070213496685028,-0.97515869140625,-0.12811052799224854,0.10042579472064972,0.168426513671875,0.5359780192375183,0.042605040304922195,-0.08327961399822334,0.6549879707007357,0.7498267020730357,1.3474362675559828,0.9540824276821845,2.2454015008705586
1783160460361072128,0.7965130805969238,0.10532950609922409,0.5753061175346375,-2.1984589099884033,0.20192532241344452,-0.9719585180282593,-0.1205100566148758,0.0886325091123581,0.17862367630004883,0.5568656921386719,0.04835567481039918,-0.09265962388965097,0.6566271133064525,0.7469382204698043,1.3334210750434559,1.0327293530976431,2.171972559177679
1783160460370992128,0.8064332008361816,-0.7153629660606384,0.6659241914749146,-2.38874888420105,0.22500109672546387,-0.9667962193489075,-0.1211588904261589,0.12419626116752625,0.19325196743011475,0.517200767993927,0.053907638760691115,-0.10338193632489626,0.6547768558737913,0.7467753061160054,1.3123812683547678,1.0768396306553418,2.1353226592517234
1783160460380911104,0.816352128982544,-1.5546748638153076,0.7345930933952332,-2.472855806350708,0.249503031373024,-0.9596473574638367,-0.12971101701259613,0.17646127939224243,0.2595742344856262,0.5280874967575073,0.05924348713219469,-0.11514655301114665,0.6495273361176918,0.7492300157598396,1.2857455882015643,1.0913734431722715,2.1301085239937643
1783160460390831360,0.8262722492218018,-1.763213872909546,0.7270379662513733,-2.4504683017730713,0.27412351965904236,-0.9510117769241333,-0.14294378459453583,0.24038758873939514,0.3073197603225708,0.5299524664878845,0.06428365450418552,-0.12716343333735433,0.6421507374043519,0.7532194266529367,1.2564922595351844,1.0901304049494693,2.1415276292101764
1783160460400751104,0.8361921310424805,-1.7962682247161865,0.7902721762657166,-2.46122145652771,0.2986151874065399,-0.941489040851593,-0.15629272162914276,0.2560265362262726,0.3424137234687805,0.500531017780304,0.06917429133528706,-0.13922637417456474,0.6344049633926725,0.7572062665172901,1.2270213823125087,1.0886109414450893,2.1535747377208683
1783160460410670080,0.8461110591888428,-1.8907742500305176,0.9350618124008179,-2.4710028171539307,0.32311293482780457,-0.9310110807418823,-0.16975438594818115,0.24906113743782043,0.4408835172653198,0.5566104650497437,0.0736595313718637,-0.1516397371842217,0.6262014043991289,0.7612171700316497,1.1971733296772706,1.0870580217647623,2.166827524369608
1783160460420590080,0.8560311794281006,-1.7724275588989258,0.9218274354934692,-2.538048505783081,0.34798961877822876,-0.9195835590362549,-0.18239913880825043,0.24966666102409363,0.4835636615753174,0.4677385091781616,0.07810753523222261,-0.164375063599961,0.617884512962083,0.7649175486914479,1.1670192180895058,1.0880150463186669,2.1781885001706014
1783160460430510080,0.8659510612487793,-1.9148560762405396,0.8281238675117493,-2.602911949157715,0.37317150831222534,-0.9071170687675476,-0.19463157653808594,0.2628147602081299,0.5290043950080872,0.3867550194263458,0.08335590573396223,-0.17671908599795538,0.609470735595531,0.7683537524976617,1.1363829479819765,1.0900493573904075,2.1868586781923445
1783160460440430080,0.8758711814880371,-2.285764455795288,0.7581591606140137,-2.5560152530670166,0.3981398642063141,-0.8931607604026794,-0.20916153490543365,0.2731095254421234,0.48392003774642944,0.37894612550735474,0.08858882739097877,-0.18891845970122917,0.5997741663796715,0.7724848136240496,1.1043248193204267,1.0870774438419708,2.200481010766019
1783160460450349056,0.8857901096343994,-2.9049251079559326,0.6407473087310791,-2.5814366340637207,0.4224059581756592,-0.8773083090782166,-0.22782300412654877,0.28897401690483093,0.29016536474227905,0.36976027488708496,0.09350503947103324,-0.20081696658845102,0.5880144959965375,0.777925627525565,1.0702245515749556,1.0761694986280814,2.2222263736269876
1783160460460269312,0.8957102298736572,-3.2483789920806885,0.5189481973648071,-2.582242012023926,0.44645220041275024,-0.8588323593139648,-0.25117161870002747,0.2700851857662201,0.054709553718566895,0.31576207280158997,0.09822385519287652,-0.21262113040856173,0.5737651519486555,0.784817006254266,1.0329859011962759,1.0583349917880018,2.2512677183140264
1783160460470189056,0.9056301116943359,-2.6846303939819336,0.5218973755836487,-2.217864990234375,0.4685038924217224,-0.8401533365249634,-0.2732154130935669,0.28666892647743225,-0.17223691940307617,0.106268972158432,0.10245453533787893,-0.2235570641615223,0.5598343832293253,0.7912716958584867,0.9975658813805218,1.0428469589262037,2.2775325875001458
1783160460480109312,0.9155502319335938,-1.3821731805801392,0.6615538001060486,-1.8160400390625,0.4869159758090973,-0.8251747488975525,-0.28635552525520325,0.3449474275112152,-0.1703391671180725,-0.13318485021591187,0.10571151085911833,-0.23310892441693867,0.549984061657955,0.7949860642631792,0.9705114643329309,1.0391724258803625,2.2912994436164413
1783160460490028032,0.925469160079956,0.2565573751926422,0.8844912648200989,-1.7277905941009521,0.5036360025405884,-0.8151663541793823,-0.28610265254974365,0.30016660690307617,0.11002713441848755,-0.28923001885414124,0.10909239706823257,-0.24195963842319343,0.5462638553990075,0.7944496807960753,0.9530163770424184,1.0541824564462685,2.2849692192007716
1783160460499948032,0.9353890419006348,1.8025846481323242,0.9028743505477905,-1.8610163927078247,0.5207300782203674,-0.8092806935310364,-0.2718544900417328,0.2645939588546753,0.4844973683357239,-0.3325766921043396,0.11413351400160232,-0.25051239847772167,0.5489228512098956,0.7892406087135744,0.9429265600930627,1.0896536584446486,2.25506746513465
1783160460509868032,0.9453091621398926,2.832005500793457,0.668597400188446,-2.0819995403289795,0.5388246178627014,-0.8050994873046875,-0.24795760214328766,0.2943510413169861,0.67437744140625,-0.24603044986724854,0.12194848477995923,-0.2582994704548234,0.556149786737788,0.7804533818259383,0.9358432099797112,1.139507080232565,2.205408680454404
1783160460519788032,0.9552290439605713,3.464062213897705,0.40086308121681213,-2.2559545040130615,0.5575740337371826,-0.8007476925849915,-0.21889306604862213,0.3709995150566101,0.588925302028656,-0.08259007334709167,0.13216574154992533,-0.2651314872609222,0.5659140945081717,0.7694015004377927,0.9285424347292317,1.1967018155848146,2.1433888012489737
1783160460529707264,0.9651482105255127,3.92985200881958,0.26371532678604126,-2.2103347778320312,0.576246976852417,-0.7956127524375916,-0.1869223713874817,0.3532422184944153,0.290211021900177,0.051668450236320496,0.14379972995003393,-0.2710444573315929,0.5771253883560212,0.7568242727240176,0.9200183968573787,1.2571262798060319,2.0746702389797815
1783160460539627008,0.9750680923461914,4.324800491333008,0.13333575427532196,-2.0936901569366455,0.5936816930770874,-0.790138304233551,-0.15239247679710388,0.2937083840370178,0.0948258638381958,0.04303272068500519,0.1560494577175395,-0.2757074987040014,0.5897364983545779,0.7428625483245682,0.9110346102861782,1.3195306549073718,2.0011675098298345
1783160460549547264,0.9849882125854492,4.485142707824707,0.12570473551750183,-2.048755645751953,0.6101976037025452,-0.7836677432060242,-0.1162920892238617,0.21270889043807983,0.044333696365356445,0.015858709812164307,0.16851013744537954,-0.27955941607644874,0.6030758575513238,0.7278395816752598,0.9005485380850321,1.382473658921008,1.9256101256376512
1783160460559467008,0.9949080944061279,4.441298961639404,0.1567528247833252,-2.04644513130188,0.6264122724533081,-0.775377094745636,-0.0799868181347847,0.16884523630142212,0.07635676860809326,0.014892823994159698,0.18091858393052188,-0.2832120087671582,0.6162771696679792,0.7122231549197447,0.8873120416188087,1.4437932358450405,1.851494333836616
1783160460569387008,1.0048279762268066,4.22953462600708,0.028341319411993027,-2.103229284286499,0.642522931098938,-0.764929473400116,-0.04524610936641693,0.2160738706588745,0.07576626539230347,0.026416778564453125,0.19328183052717973,-0.28676575623620526,0.6286034883104556,0.6966097759662443,0.8709317925958413,1.500492932456457,1.7819514672715118
1783160460579306752,1.0147478580474854,3.9631214141845703,-0.12848427891731262,-2.136747360229492,0.6587278842926025,-0.752252459526062,-0.013915243558585644,0.2743470072746277,0.07097810506820679,0.02781599946320057,0.20651856015430464,-0.28947580984401183,0.6397234821988974,0.6814011963345215,0.8514740508283078,1.5496750489667988,1.7173383848365253
1783160460589227008,1.0246679782867432,3.6637990474700928,-0.26404663920402527,-2.2066376209259033,0.675029456615448,-0.7376625537872314,0.013755698688328266,0.3006022572517395,0.07843708992004395,0.0217972993850708,0.22000755192879737,-0.2918822465121948,0.6493709291970002,0.6668724217647958,0.8296017322485121,1.5911714308404952,1.6595247284610504
1783160460599146752,1.0345878601074219,3.215512752532959,-0.29956865310668945,-2.2549192905426025,0.6914617419242859,-0.7214286923408508,0.03769988566637039,0.25200438499450684,0.060006022453308105,0.06885218620300293,0.23326621937113975,-0.29451640038528815,0.6573507687300422,0.6532510558573896,0.8058632649389473,1.6252644104586933,1.609729111413376
1783160460609065984,1.0445070266723633,2.4715325832366943,-0.3826715350151062,-2.2689411640167236,0.7078769207000732,-0.7040879726409912,0.05630679056048393,0.17177700996398926,0.04475569725036621,0.15623295307159424,0.24587839839371786,-0.29767118251182584,0.6629820978362942,0.6413972401762729,0.7811379510300369,1.6501723951675933,1.5707922502698497
1783160460618985984,1.054426908493042,1.727035403251648,-0.4195042550563812,-2.324867010116577,0.7241974472999573,-0.6861705780029297,0.0686144083738327,0.09149158000946045,0.003873884677886963,0.27519655227661133,0.25762333749954286,-0.30155219321631704,0.6658629592514342,0.6319200925281979,0.7562116845415402,1.6652597903184017,1.5440053105590485
1783160460628905984,1.0643470287322998,1.1500918865203857,-0.3057108521461487,-2.274395704269409,0.7402018904685974,-0.6680303812026978,0.0763961598277092,0.012849807739257812,-0.07475215196609497,0.2760666608810425,0.2682076936222682,-0.30641486767023396,0.6665643312005322,0.6243928715452175,0.7315587752252546,1.6736420713875775,1.5271250579847724
1783160460638825984,1.0742669105529785,0.6488690376281738,-0.1823015958070755,-2.2162318229675293,0.7552461624145508,-0.6503891944885254,0.08122308552265167,-0.03423786163330078,-0.14608901739120483,0.22029054164886475,0.2773066832830953,-0.3120782042162076,0.6657467522268362,0.6184573670664294,0.7080967295864671,1.6779297409402403,1.5178024683268494
1783160460648744704,1.0841858386993408,0.3503534495830536,-0.1349489986896515,-2.2509565353393555,0.7697821855545044,-0.6327493786811829,0.08404641598463058,-0.056845664978027344,-0.20582795143127441,0.1749258041381836,0.28541606902005634,-0.3185177550606548,0.6637542062275469,0.6136078184957316,0.6850986048006258,1.6795476290468643,1.5138618674845987
1783160460658664960,1.0941059589385986,-0.0715906023979187,-0.09429176896810532,-2.25303316116333,0.7840068936347961,-0.6149119734764099,0.08495116978883743,-0.007685363292694092,-0.25007832050323486,0.03930116444826126,0.29286012412406387,-0.32560096426011403,0.6606508880700899,0.609719185202187,0.6622743261680349,1.6787303554304616,1.5143965536598123
1783160460668584704,1.1040258407592773,-0.5597485899925232,-0.1923818439245224,-2.200009346008301,0.7977148294448853,-0.5973219275474548,0.08281086385250092,0.049239516258239746,-0.22100692987442017,-0.04792928695678711,0.29950092745178886,-0.33319911170121813,0.6560364208171863,0.6073662982320998,0.640157718000107,1.6742359251246874,1.5206893498552785
1783160460678504960,1.1139459609985352,-0.7830958962440491,-0.33279329538345337,-2.070601224899292,0.8105993270874023,-0.5804690718650818,0.07736027240753174,0.13239389657974243,-0.2015286087989807,-0.12084782123565674,0.30567337909675635,-0.3405686855706993,0.6501485253066438,0.6065342139362196,0.6193046473989278,1.6659440490010875,1.531170173744903
1783160460688423936,1.1238648891448975,-0.6603732109069824,-0.41705358028411865,-1.8948419094085693,0.8223257660865784,-0.564584493637085,0.07088302820920944,0.17709428071975708,-0.23340433835983276,-0.15486741065979004,0.311582877936292,-0.34718601426371987,0.6441299446753863,0.6061967322857839,0.5999297597863126,1.6567820173691397,1.5417451012135994
1783160460698343936,1.1337850093841553,-0.4417499601840973,-0.39569976925849915,-1.7422064542770386,0.8327782154083252,-0.5497400164604187,0.0653160959482193,0.17617857456207275,-0.2767674922943115,-0.1147393062710762,0.31736847891667624,-0.35281389842830235,0.6388899754385529,0.6054908269390907,0.5820529760993574,1.6490676523903236,1.5494782254381811
1783160460708263936,1.143704891204834,-0.30776259303092957,-0.37577345967292786,-1.6144365072250366,0.842212438583374,-0.5357005000114441,0.06085251271724701,0.1757318377494812,-0.26932263374328613,-0.050583366304636,0.32292298121124263,-0.35781365258147074,0.6343466296267519,0.6043959028501432,0.5653371102384136,1.6429241511222168,1.5549858156106855
1783160460718183936,1.1536250114440918,-0.2093125879764557,-0.36823487281799316,-1.581056833267212,0.8509461283683777,-0.5221364498138428,0.05713155120611191,0.18170756101608276,-0.25474947690963745,-0.054842717945575714,0.32842515876566675,-0.36231040448353596,0.6303149577810193,0.6029685271962074,0.5493540823476266,1.6378345772567742,1.5586953001803363
1783160460728102912,1.163543939590454,-0.32758012413978577,-0.2960522770881653,-1.5709842443466187,0.8593612313270569,-0.508533775806427,0.05377466231584549,0.19425815343856812,-0.2575794458389282,-0.060793641954660416,0.33369953143421593,-0.3669064417997578,0.6263122177314383,0.6014626321994461,0.5334810824622888,1.6332900001154413,1.5623823178078844
1783160460738022912,1.1734638214111328,-0.6108508110046387,-0.3255248963832855,-1.4611656665802002,0.8672448992729187,-0.4954020380973816,0.04962940141558647,0.2364233136177063,-0.2896626591682434,-0.11095452308654785,0.3383081007936164,-0.371726404575744,0.6217991488334177,0.6006104521657809,0.5182975825191467,1.6279604933122747,1.5682946316222077
1783160460747942912,1.1833839416503906,-0.9524449110031128,-0.3388526737689972,-1.26251220703125,0.8742153644561768,-0.48357659578323364,0.04360346868634224,0.31072115898132324,-0.33862799406051636,-0.10210561752319336,0.34195678006917213,-0.37650369351929064,0.6164792804716044,0.6010522986493072,0.5047362494550937,1.6206322903006394,1.5776943358530222
1783160460757861888,1.193302869796753,-1.0528700351715088,-0.28192615509033203,-1.0610666275024414,0.8799973130226135,-0.47355517745018005,0.03674585372209549,0.3747175931930542,-0.39033642411231995,-0.06672930717468262,0.3444228781847882,-0.3810941913465297,0.6108519820371385,0.602494796147676,0.49332287265356,1.6125288608650319,1.5894920044334417
1783160460767781888,1.2032229900360107,-0.7438496947288513,-0.23090583086013794,-0.8160343170166016,0.8846188187599182,-0.4652930796146393,0.030850468203425407,0.39742451906204224,-0.36457139253616333,-0.03735077753663063,0.346270040030648,-0.38496341943287243,0.6059937288885412,0.603880576227705,0.48396569562321423,1.6056565054033325,1.5998768279096443
1783160460777701888,1.2131428718566895,-0.2881433367729187,-0.2794531583786011,-0.5659441351890564,0.8880079984664917,-0.45903196930885315,0.02704392373561859,0.379524290561676,-0.23310667276382446,-0.058080315589904785,0.348044595120004,-0.3874589169090776,0.6028246426902041,0.6044360945952911,0.476905295852829,1.6012415110459972,1.6056234053553613
1783160460787621888,1.2230629920959473,0.2701641321182251,-0.47262313961982727,-0.35727831721305847,0.8903581500053406,-0.45461010932922363,0.024332528933882713,0.3307111859321594,-0.07354232668876648,-0.17496728897094727,0.350561722810835,-0.3879384874158813,0.601390051549907,0.6041028471690632,0.4719344327190323,1.5981184477690933,1.6054651847812014
1783160460797540864,1.2329819202423096,0.5816326141357422,-0.604084312915802,-0.17343707382678986,0.8918523788452148,-0.4517826437950134,0.022172553464770317,0.2563256621360779,-0.050017863512039185,-0.27716219425201416,0.3538337020399883,-0.3865812564116171,0.6013661191605952,0.6030881858176091,0.4687625294969577,1.5956524445438518,1.600304061954193
1783160460807461120,1.2429020404815674,0.584408700466156,-0.7325578331947327,0.0051411972381174564,0.8925346732139587,-0.4505470097064972,0.019732560962438583,0.17353588342666626,-0.22775191068649292,-0.33670341968536377,0.35724901186883984,-0.3840019819304959,0.6020039523304919,0.6020854811928339,0.4673779800622946,1.5929011795349135,1.5931211559330989
1783160460817380864,1.252821922302246,-0.16336385905742645,-0.7770674228668213,0.0909266397356987,0.8925886154174805,-0.45063039660453796,0.014771581627428532,0.10220831632614136,-0.5061568021774292,-0.29614365100860596,0.35987685153680166,-0.38131739802399006,0.6016500917519516,0.6025803094549023,0.46747136336584133,1.5873439655411665,1.5898540152669538
1783160460827301120,1.262742042541504,-1.6561304330825806,-0.7727429866790771,0.015328553505241871,0.8925798535346985,-0.4508674144744873,0.004453445319086313,0.014219462871551514,-0.7141106128692627,-0.16547942161560059,0.36038662519932657,-0.3805966819483116,0.5978067315983101,0.6065432846084705,0.46773688924230816,1.5757856938335,1.5993655724110902
1783160460837219840,1.2726609706878662,-2.9204022884368896,-0.7264725565910339,-0.00013612257316708565,0.892746090888977,-0.4503992795944214,-0.012045337818562984,-0.0021514892578125,-0.8231908082962036,-0.05933523178100586,0.3582085088365488,-0.3827176161825659,0.5894951716081256,0.6145806920188,0.46721250596323033,1.5573046888710138,1.6249927915345033
1783160460847139840,1.282580852508545,-3.263118028640747,-0.6666417121887207,0.10913977026939392,0.8925603628158569,-0.4498121440410614,-0.03170078620314598,0.08905273675918579,-0.8490922451019287,-0.10808497667312622,0.3540461053738874,-0.3862631225064298,0.5787490019940496,0.6249013391026926,0.4665549922559205,1.5352945632244779,1.659817354025038
1783160460857059840,1.2925009727478027,-2.7945351600646973,-0.7990391254425049,0.35384491086006165,0.8913856744766235,-0.4503411054611206,-0.05122828856110573,0.1880972981452942,-0.7004615068435669,-0.19822239875793457,0.34950714847949876,-0.38887521218424176,0.5684733277939554,0.6351841041046112,0.46714734546242326,1.5133890762438105,1.69359421741252
1783160460866979840,1.3024208545684814,-2.113967180252075,-0.9804398417472839,0.5095226168632507,0.889086127281189,-0.45242056250572205,-0.06958167999982834,0.25654375553131104,-0.45295965671539307,-0.29838401079177856,0.34588435988898614,-0.3892879859748594,0.5600571619215917,0.6443251468757556,0.46947771910158276,1.4926935008285938,1.7209442367229228
1783160460876899072,1.3123400211334229,-0.9632401466369629,-0.9723000526428223,0.6178244948387146,0.885935366153717,-0.4559834599494934,-0.08483993262052536,0.2556663155555725,-0.278544157743454,-0.33929336071014404,0.3437948858491578,-0.3874005537947046,0.5545275862733586,0.651325693705815,0.47347694021807274,1.4753243416695099,1.7385604088693063
1783160460886818816,1.3222599029541016,-0.20800629258155823,-1.048882246017456,0.7528419494628906,0.8820960521697998,-0.46124884486198425,-0.09568747133016586,0.2390587329864502,-0.32978203892707825,-0.4233097434043884,0.3433535091948813,-0.38334420753928544,0.5524522461102512,0.6557073556123961,0.47940219721107113,1.4627414663874951,1.745028120665222
1783160460896739072,1.3321800231933594,-0.25749337673187256,-0.9411015510559082,0.7728533744812012,0.8777426481246948,-0.4674895107746124,-0.1049831211566925,0.20495998859405518,-0.4423920810222626,-0.3760501742362976,0.34335865346465616,-0.37840021022190273,0.5516536218856867,0.6592392941757839,0.486448719187468,1.4517560104709823,1.7476978239234637
1783160460906658816,1.342099905014038,-0.5350610613822937,-0.9500598907470703,0.9638758301734924,0.8728711605072021,-0.47429031133651733,-0.11464995890855789,0.17928332090377808,-0.5986161828041077,-0.2299697995185852,0.34243852326823715,-0.37376933137435936,0.5504284755486977,0.6633707841252638,0.49415772032957533,1.4401958618457988,1.7530096047692991
1783160460916577792,1.3520188331604004,-1.2164660692214966,-1.064989686012268,1.2047687768936157,0.8667307496070862,-0.4823232591152191,-0.12705248594284058,0.24609285593032837,-0.7527384161949158,-0.15404494106769562,0.34002338288566647,-0.36916464369360297,0.5478970898464369,0.6692611618712666,0.5033049298935348,1.4252447755349749,1.764223184533049
1783160460926498048,1.3619389533996582,-1.61432945728302,-1.1525170803070068,1.3951568603515625,0.8591586351394653,-0.49130013585090637,-0.143076092004776,0.3173246383666992,-0.797518253326416,-0.07015027105808258,0.3360779634776944,-0.3645431866157858,0.5436636977222818,0.6771925501908495,0.5135818497167617,1.4057801610709832,1.7824358400025742
1783160460936417792,1.371858835220337,-1.9347854852676392,-1.1814993619918823,1.5768613815307617,0.8504095673561096,-0.500749945640564,-0.16141065955162048,0.29789072275161743,-0.7799813151359558,-0.03968490660190582,0.3311126225150596,-0.3597951375986436,0.5383698798236306,0.6863453689822969,0.5244649304739776,1.3832240990979017,1.8051999358100719
1783160460946338048,1.3817789554595947,-1.924763798713684,-1.1914812326431274,1.754159688949585,0.8404057621955872,-0.5109249949455261,-0.1807592362165451,0.30874890089035034,-0.6674044728279114,0.0331609845161438,0.32523773200608475,-0.35473906444078496,0.5327105950291626,0.6961322260025496,0.5362604585918506,1.3589382832235306,1.8306600585282766
1783160460956256768,1.391697883605957,-1.7901979684829712,-1.2721575498580933,2.047417402267456,0.829114556312561,-0.5222809910774231,-0.19947804510593414,0.3594229221343994,-0.6085630655288696,0.026428133249282837,0.3188841194231404,-0.3489703030209186,0.5277127141652319,0.7057279130925291,0.5495235794120945,1.3346920010338803,1.8556750295358984
1783160460966177024,1.4016180038452148,-1.6434236764907837,-1.2481554746627808,2.2535006999969482,0.8167781233787537,-0.5345879197120667,-0.21700070798397064,0.4219762086868286,-0.5700721144676208,0.11585021018981934,0.3120827735393701,-0.34272119472871004,0.5234900498142033,0.7149158758999334,0.5640200837328575,1.3111163574871727,1.879946660108598
1783160460976096768,1.4115378856658936,-1.4349455833435059,-1.1929751634597778,2.3617537021636963,0.8019605875015259,-0.549464762210846,-0.23440910875797272,0.4289201498031616,-0.5602611899375916,0.1915014386177063,0.3043920835562594,-0.33503791059148497,0.5201394481131058,0.7242582006016393,0.5817234768264242,1.2864231958931505,1.9044134155226866
1783160460986017024,1.4214580059051514,-1.2327024936676025,-1.1974657773971558,2.4913535118103027,0.7856820821762085,-0.5653867721557617,-0.2510802745819092,0.49466758966445923,-0.5011414885520935,0.20875242352485657,0.2965618000202116,-0.32643372997746467,0.5175914176537115,0.7332060507755611,0.6009020886083701,1.2614836348846115,1.9278642578352088
1783160460995936000,1.4313769340515137,-1.2050328254699707,-1.1667547225952148,2.599454402923584,0.7683505415916443,-0.5816196799278259,-0.2671253979206085,0.5225735306739807,-0.4107204079627991,0.2826436161994934,0.28839789518120346,-0.31748063015648587,0.5154060090968156,0.7418822736070846,0.6207183654421633,1.2362069056495757,1.9516400399752243
1783160461005856000,1.4412970542907715,-1.160658359527588,-0.7735520601272583,2.491215944290161,0.7505592703819275,-0.597930908203125,-0.28131720423698425,0.5051780343055725,-0.364654541015625,0.44206851720809937,0.27959962622978574,-0.3088458621071976,0.5137661241447378,0.7499884174664706,0.6409172465143848,1.2121921420255353,1.9756768693701097
1783160461015776000,1.4512169361114502,-1.8201665878295898,-0.8414140343666077,2.1394312381744385,0.7348083257675171,-0.6107130646705627,-0.29510363936424255,0.45954275131225586,-0.356648325920105,0.48744067549705505,0.27076949104805287,-0.3022639240433971,0.5109644805298124,0.757783378671011,0.6569608043446692,1.188905997888288,2.00232281853861
1783160461025696000,1.461137056350708,-2.8340468406677246,-1.6235629320144653,2.3104946613311768,0.7172660827636719,-0.6198791265487671,-0.31824401021003723,0.6208534240722656,-0.3214966058731079,0.3758764863014221,0.2619911045437512,-0.2949112865773831,0.5038901912530842,0.7684287192913627,0.6685886487364231,1.153201916745264,2.040127574636776
1783160461035614976,1.4710559844970703,-3.7037816047668457,-1.4501665830612183,2.2122600078582764,0.6982022523880005,-0.6249262094497681,-0.3492579162120819,0.5346011519432068,-0.2979559302330017,0.2739100158214569,0.2523608829966841,-0.28758605674464566,0.4926107038718144,0.7816285071090083,0.6750369913077727,1.106969099573025,2.089898057043499
1783160461045534976,1.480975866317749,-4.475840091705322,-1.4335016012191772,1.965438961982727,0.680232584476471,-0.6244613528251648,-0.38383811712265015,0.39989131689071655,-0.3074234127998352,0.20064109563827515,0.24175828767039892,-0.2821391328769038,0.47799419297984286,0.7959095550492424,0.6744416909526629,1.0570596505512224,2.1479088554585584
1783160461055454976,1.4908959865570068,-5.157686233520508,-1.8572334051132202,1.9428929090499878,0.6619559526443481,-0.6179670691490173,-0.42418262362480164,0.4896553158760071,-0.3443894386291504,0.2572820484638214,0.2310886699405636,-0.2769561544250662,0.4595693316928613,0.8115967382993236,0.6661543293164238,1.0009144553313678,2.212812736912237
1783160461065374976,1.5008158683776855,-5.782395362854004,-2.0998146533966064,1.9966256618499756,0.64126056432724,-0.6064020991325378,-0.4701716899871826,0.56052166223526,-0.42315417528152466,0.3252894878387451,0.22006464833911704,-0.270670144152272,0.4377805654516009,0.8286479522623976,0.6515279537308462,0.9381347638932133,2.2833338905329317
1783160461075293952,1.510735034942627,-5.600396156311035,-1.8139331340789795,1.8652458190917969,0.620168149471283,-0.5904979109764099,-0.5164337158203125,0.49910980463027954,-0.4108906388282776,0.439239501953125,0.20861174954875783,-0.2645049127785304,0.4145121007581198,0.8453981924150915,0.6316756434207483,0.8764131514284146,2.353847165009495
1783160461085213952,1.5206549167633057,-5.468738079071045,-1.630395531654358,1.8791674375534058,0.6004695892333984,-0.5724491477012634,-0.5583353638648987,0.4813023805618286,-0.3599391579627991,0.4980936646461487,0.1970184064109684,-0.2591759426694368,0.3919950734972372,0.8604368732484071,0.6094897599822466,0.8217421792735687,2.4190283369052294
1783160461095133952,1.5305750370025635,-5.070003986358643,-1.763857126235962,2.010193109512329,0.5803025364875793,-0.553661048412323,-0.5972506999969482,0.5646712183952332,-0.2938578724861145,0.6621158123016357,0.18483175816997313,-0.25358884659777275,0.37022608799628903,0.8743354491354244,0.5867542137128299,0.7710064590200263,2.48096592271672
1783160461105053952,1.5404949188232422,-4.4744086265563965,-1.6396523714065552,2.169313669204712,0.5587981939315796,-0.5366185903549194,-0.6322855353355408,0.5614868402481079,-0.45154058933258057,0.7713236808776855,0.1728363617157586,-0.2467397400768382,0.3506803736577173,0.886718823940329,0.5664247254656835,0.7237783695824463,2.5371219538395904
1783160461114972928,1.5504138469696045,-4.425082206726074,-1.3592185974121094,2.067513942718506,0.5377185940742493,-0.5201407074928284,-0.6635603904724121,0.49163931608200073,-0.5168008208274841,0.8084425926208496,0.16054847805190792,-0.2399935905434188,0.33260019083551845,0.89777746346036,0.5470156809178464,0.681022342764226,2.5895306789113115
1783160461124892928,1.5603339672088623,-4.7082085609436035,-1.4249552488327026,2.0200114250183105,0.5181884765625,-0.5002449154853821,-0.693711519241333,0.4603881239891052,-0.45509254932403564,0.8162091374397278,0.14829842614028768,-0.2340679376038537,0.3136183192957554,0.9082198251567798,0.5238816272604562,0.6415653871109038,2.64019147477983
1783160461134812928,1.570253849029541,-5.076860427856445,-1.3337212800979614,2.11407470703125,0.49880513548851013,-0.47650447487831116,-0.7239730358123779,0.516438364982605,-0.42178043723106384,0.8331038951873779,0.1354088398772375,-0.22832837686717392,0.29305229559925644,0.9185047235396968,0.49667447958795663,0.60329370350591,2.6913878677719465
1783160461144732928,1.5801739692687988,-5.246786117553711,-1.349841594696045,2.1030447483062744,0.479544073343277,-0.4491467773914337,-0.75385981798172,0.5189300179481506,-0.4001116156578064,0.8201745748519897,0.12175343172847738,-0.2226916318929099,0.2710692091617067,0.9284966491981317,0.4658101279131121,0.5665546140299674,2.742933747810108
1783160461154651904,1.5900928974151611,-5.181521415710449,-1.1122243404388428,1.9033589363098145,0.46159055829048157,-0.41894420981407166,-0.7819333672523499,0.5154448747634888,-0.41780200600624084,0.7880064249038696,0.10823702546165724,-0.21744970382473575,0.24849331980237122,0.9376839984737558,0.4322822490229134,0.5332711167958831,2.7919459326800706
1783160461164571904,1.600013017654419,-4.47784948348999,-1.1745816469192505,2.1030452251434326,0.44466298818588257,-0.3897213041782379,-0.8064689636230469,0.5212031006813049,-0.3340030610561371,0.7743492126464844,0.09517984844864187,-0.2122280815052983,0.22743081107708246,0.9456084244408183,0.40032895472054,0.5038946226766119,2.8366037216269837
1783160461174491904,1.6099328994750977,-3.1107876300811768,-1.140596628189087,2.474287986755371,0.4269518554210663,-0.3691885471343994,-0.8254767656326294,0.5670971870422363,-0.2564370334148407,0.6555702090263367,0.08161112118166079,-0.20612565481945416,0.21159824847005443,0.9518813136966724,0.37813573176749204,0.4773273234027906,2.8774919752238968
1783160461184411904,1.6198530197143555,-1.3865747451782227,-1.0944744348526,2.7135446071624756,0.40853777527809143,-0.3617684841156006,-0.8379859328269958,0.48782452940940857,-0.19034028053283691,0.6484565138816833,0.06814088171347596,-0.19913063888693708,0.20335689424872166,0.956216319259535,0.37016416993324636,0.45361662409643305,2.9129497517474237
1783160461194330880,1.6297719478607178,0.2349570095539093,-1.0008387565612793,2.947706937789917,0.38992175459861755,-0.3687928020954132,-0.8437730073928833,0.39651623368263245,-0.1828734576702118,0.6047288179397583,0.055192344677706916,-0.1916773339156324,0.2034042847108585,0.9585615166689065,0.37770993507708644,0.43288452050532655,2.9425573494578514
1783160461204250880,1.6396918296813965,1.2821567058563232,-0.8272855281829834,3.055356025695801,0.37133803963661194,-0.3875787556171417,-0.8437361717224121,0.36456283926963806,-0.18026182055473328,0.5648818016052246,0.042556601319824174,-0.1842410778395873,0.21020733995763427,0.9591960468352014,0.39800358859554696,0.4146003281834893,2.968136204109853
1783160461214170880,1.6496119499206543,1.1897107362747192,-0.9384075403213501,3.2625205516815186,0.3514823019504547,-0.4104211926460266,-0.8414360284805298,0.3574868142604828,-0.10369318723678589,0.6205040216445923,0.029630071786138856,-0.17646003882836556,0.21941702897881493,0.9590829029715253,0.42291590345456453,0.39568590347156934,2.993810379063249
1783160461224090880,1.659531831741333,0.5826428532600403,-0.5505410432815552,3.181530475616455,0.33214038610458374,-0.4294063448905945,-0.839817225933075,0.30294567346572876,-0.07665139436721802,0.6516916155815125,0.01576693743295549,-0.1694454012635068,0.2266707692412742,0.9589891173670086,0.4438353153272029,0.376613522322468,3.022770558047719
1783160461234009856,1.6694509983062744,0.17079560458660126,-0.45136791467666626,3.0819497108459473,0.31477469205856323,-0.44304290413856506,-0.839422345161438,0.21781808137893677,-0.18845734000205994,0.5688077211380005,0.0017391309524591983,-0.16369425589568198,0.23128558088934625,0.9590141451659523,0.4589900536933434,0.3587615916972583,3.0532951285588257
1783160461243929856,1.6793708801269531,-0.1585061252117157,-0.5000805854797363,3.1022415161132812,0.2975093126296997,-0.4533233046531677,-0.840229868888855,0.2234104871749878,-0.19573980569839478,0.40239417552948,-0.012415777212938347,-0.15812328091360087,0.23426928880297,0.9591458839829375,0.4704902194435265,0.34030570106451763,3.0851651322486404
1783160461253849856,1.689291000366211,-0.4425675868988037,-0.46475720405578613,3.17675518989563,0.2792428433895111,-0.46036314964294434,-0.8426678776741028,0.1769338846206665,-0.053308695554733276,0.25419747829437256,-0.02716147637563653,-0.15218763129241608,0.23559494995276567,0.9594770018143963,0.4784042363671892,0.31999106137078465,3.11952600109844
1783160461263769856,1.6992108821868896,-0.35914966464042664,-0.5485372543334961,3.06137752532959,0.2610343098640442,-0.4660532474517822,-0.8453729748725891,0.006604820489883423,0.08823040127754211,0.06397038698196411,-0.041741377970013524,-0.14628884008395865,0.23645949808953448,0.9596583519080956,0.484824690082176,0.29949231459707093,-3.1292362274517673
1783160461273689088,1.709130048751831,-0.16574746370315552,-0.7866488099098206,3.0646255016326904,0.24150070548057556,-0.47224462032318115,-0.847739577293396,-0.22413621842861176,0.30200231075286865,-0.016380906105041504,-0.05571096394208593,-0.13965440989337327,0.2379639832477865,0.9595655210621542,0.49183551622944216,0.2775245206747156,-3.095685777027346
1783160461283608832,1.7190499305725098,0.20303483307361603,-0.714072048664093,3.0508804321289062,0.22069841623306274,-0.48019060492515564,-0.8489459156990051,-0.45524126291275024,0.4950984716415405,-0.1452556848526001,-0.06941199304132599,-0.13249591546468942,0.24077349089620523,0.9589863576496755,0.5008719874633832,0.2543376904998212,-3.062474399317687
1783160461293529088,1.7289700508117676,0.3948836326599121,-0.5906184315681458,2.6321306228637695,0.20166265964508057,-0.48977720737457275,-0.8482042551040649,-0.6415125131607056,0.5072637796401978,-0.23922860622406006,-0.0820509945895809,-0.12625121149396717,0.24486425295100084,0.9577942418452527,0.5118342059485237,0.23341877467021918,-3.032011346163682
1783160461303448064,1.7388889789581299,0.18610617518424988,-0.7602983117103577,2.436473846435547,0.18414250016212463,-0.4981040060520172,-0.8473393321037292,-0.6240991353988647,0.3920554220676422,-0.26519423723220825,-0.09289250074386632,-0.12039840547031531,0.24866555777233576,0.9565775656757953,0.521410850200756,0.21399114588135543,-3.0052723870404163
1783160461313367808,1.7488088607788086,-0.6026433110237122,-0.8988838195800781,2.3303112983703613,0.1651163250207901,-0.5016035437583923,-0.8491940498352051,-0.4774637222290039,0.34408706426620483,-0.24298429489135742,-0.10339687342214848,-0.11340770798109624,0.2500833276272915,0.9559843866377309,0.5254513504922029,0.19204264363109005,-2.9779114046650323
1783160461323288064,1.7587289810180664,-1.3947392702102661,-0.9758403897285461,1.9919486045837402,0.14673814177513123,-0.49709588289260864,-0.8551980257034302,-0.5862064957618713,0.48534661531448364,-0.09769809246063232,-0.11299892976825299,-0.10593023703706866,0.2473454721975,0.9564676335393719,0.5202486246790639,0.16992908480478708,-2.9517278063426935
1783160461333207808,1.7686488628387451,-1.598087191581726,-0.8617669343948364,1.548283576965332,0.13025914132595062,-0.4873723089694977,-0.8634238839149475,-0.7640329599380493,0.5875614881515503,-0.09179157018661499,-0.12110481254286369,-0.09861552462920326,0.24199799614346612,0.9576250447843961,0.5090779358358897,0.14973433636684216,-2.9290270807149708
1783160461343128064,1.778568983078003,-1.285463571548462,-0.7310299873352051,1.0408719778060913,0.11749107390642166,-0.47724980115890503,-0.8708779811859131,-0.9376204609870911,0.7222296595573425,-0.11290192604064941,-0.12705061956863561,-0.09262244908204274,0.23660533799544878,0.9587998607435365,0.49752244384464245,0.13410137880977252,-2.912220210960066
1783160461353046784,1.7884879112243652,-0.972270667552948,-0.6069250106811523,0.5369426608085632,0.10811134427785873,-0.46954110264778137,-0.8762665390968323,-0.9715604782104492,0.7877326011657715,-0.09819024801254272,-0.1304085432586693,-0.08793656215320951,0.23266690205266344,0.9597535094494907,0.48877095872751347,0.12275687846371418,-2.9021405018840505
1783160461362967040,1.798408031463623,-0.9113311767578125,-0.5401211977005005,0.309589147567749,0.10093246400356293,-0.46312910318374634,-0.8805249333381653,-0.8977159261703491,0.6893559098243713,0.07992678880691528,-0.13219541519246822,-0.0841153759850895,0.22948235025756378,0.9606180210767121,0.48152250775305494,0.11412947851633139,-2.8961308096931213
1783160461372886784,1.8083279132843018,-1.3273091316223145,-0.25661712884902954,-0.19025953114032745,0.09752358496189117,-0.4551628530025482,-0.8850513696670532,-0.91923987865448,0.5231102705001831,0.23141062259674072,-0.13239953816706873,-0.08172633593258895,0.2253777456195484,0.9617671143687023,0.4725551175985392,0.10974700223599133,-2.8944361337111384
1783160461382805760,1.818246841430664,-1.4456366300582886,-0.2603705823421478,0.47829243540763855,0.09390176832675934,-0.4443025588989258,-0.8909420371055603,-0.9091178178787231,0.4183320999145508,0.3341488242149353,-0.13307883853847283,-0.07910014783551983,0.2197092567951227,0.9632034694539942,0.4603955976015545,0.10500837126877367,-2.891635835848608
1783160461392726016,1.8281669616699219,-1.5610841512680054,0.15716351568698883,0.3480117619037628,0.09060533344745636,-0.4384026825428009,-0.8942000865936279,-0.8780809044837952,0.2027764618396759,0.21037745475769043,-0.13643140992139707,-0.07766728443084629,0.2164896112629133,0.9635800838137424,0.4538206783486783,0.10098092290080471,-2.8836203754017347
1783160461402645760,1.8380868434906006,-2.4317739009857178,0.3444194495677948,-0.33218914270401,0.09074987471103668,-0.427913099527359,-0.8992523550987244,-1.0865689516067505,0.3691820502281189,0.29451608657836914,-0.13735571573118774,-0.07704508649717157,0.21080292377575813,0.9647587863370377,0.442182546725546,0.1005765176070152,-2.881371527975997
1783160461412566016,1.8480069637298584,-2.769606113433838,0.131076380610466,-0.26776719093322754,0.09344176203012466,-0.4050721824169159,-0.9094972014427185,-0.937786877155304,0.4987611770629883,0.383572518825531,-0.13722848150541678,-0.07645238576353013,0.19851053174954258,0.9674280354719383,0.41705779491885986,0.1023808057629286,-2.881457621221198
1783160461422485760,1.857926845550537,-2.755756139755249,0.5050914883613586,-0.33278241753578186,0.09695930033922195,-0.380494087934494,-0.9196864366531372,-0.7299243807792664,0.4817666709423065,0.2991572618484497,-0.1373880631027474,-0.0762256023412133,0.18532792686729915,0.9700348835703915,0.3903305074106897,0.10503846105843925,-2.880982579896715
1783160461432404992,1.8678460121154785,-2.4992921352386475,0.7623870968818665,0.1087685227394104,0.1017472967505455,-0.3560786545276642,-0.9289001226425171,-0.8178880214691162,0.6569972634315491,0.27017825841903687,-0.13831185905533264,-0.07681907419611576,0.1721881505624636,0.9722756009036936,0.3640681250021235,0.10910029647826122,-2.879078777271651
1783160461442324992,1.8777658939361572,-1.4960814714431763,0.31039515137672424,-0.859835684299469,0.10939425230026245,-0.33826252818107605,-0.9346717596054077,-0.80804842710495,0.7342891693115234,-0.2594810128211975,-0.13732953746142296,-0.07907917060809619,0.1625133563532388,0.973897569154171,0.3450699846544652,0.11651021600463626,-2.881745648740421
1783160461452244992,1.887686014175415,-1.643639087677002,-0.48726218938827515,-0.2611294090747833,0.10969065129756927,-0.32342398166656494,-0.9398749470710754,-0.38355541229248047,0.9116503000259399,-0.27690666913986206,-0.1351451947125816,-0.07769394420880417,0.15500382845194252,0.9755374011588314,0.329345728344022,0.11618212003734292,-2.8856048065285624
1783160461462164992,1.8976058959960938,-1.5406572818756104,0.3300749957561493,-0.38186994194984436,0.1074616014957428,-0.3082660138607025,-0.9452111124992371,0.0304931178689003,0.7748950719833374,0.18749016523361206,-0.1341011075570958,-0.07522778801573957,0.1474286862313815,0.9770478702538147,0.3133697529031111,0.11320450531044099,-2.8866971716069427
1783160461472083712,1.907524824142456,-1.3461498022079468,0.5788382291793823,-1.0514990091323853,0.11477570235729218,-0.29437151551246643,-0.9487739205360413,-0.18119722604751587,0.7690266370773315,0.43818432092666626,-0.13166353763036673,-0.07750614197314096,0.14002085828485383,0.9782901258101314,0.298797825071115,0.12038766742654504,-2.8921718659937317
1783160461482003968,1.9174449443817139,-1.7556729316711426,0.5164374709129333,-0.6391106247901917,0.12263485789299011,-0.2787483334541321,-0.9525020122528076,0.023925818502902985,0.7170265316963196,0.4601924419403076,-0.12849843031265878,-0.0798767501053891,0.13179037227195017,0.9796628375697354,0.2824905380519599,0.1280458116369215,-2.898981337969981
1783160461491923712,1.9273648262023926,-1.2285759449005127,0.34510329365730286,-0.8366216421127319,0.12852981686592102,-0.2624528706073761,-0.9563464522361755,0.7648264765739441,0.719987690448761,0.4253559112548828,-0.12622937451525507,-0.08138079811506545,0.12330420939780086,0.980938053939326,0.2655633142307946,0.13359618582082933,-2.903504908643519
1783160461501843968,1.9372849464416504,0.1657387912273407,0.2586762607097626,-1.1914657354354858,0.13328364491462708,-0.2570686340332031,-0.9571578502655029,0.9292011260986328,0.7482490539550781,-0.01542210578918457,-0.1219179005296682,-0.08286733316591033,0.12064023964372554,0.9816899260422677,0.2599876722217854,0.13835967727766535,-2.912590581312487
1783160461511762944,1.9472038745880127,-0.26551148295402527,-0.1363734006881714,-0.6609192490577698,0.13575266301631927,-0.2560032308101654,-0.9570963978767395,0.804448127746582,0.6733464002609253,-0.08065378665924072,-0.11753879337342531,-0.08350517405330246,0.12032735842666989,0.9822081499611015,0.2588853636502114,0.14089817003770463,-2.921760259350851
1783160461521682944,1.9571239948272705,-0.09751607477664948,-0.21450655162334442,-0.5418580770492554,0.13880471885204315,-0.25296372175216675,-0.9574667811393738,0.9051863551139832,0.30687302350997925,0.10129612684249878,-0.11475669030707009,-0.08450878263184053,0.11884814548047308,0.9826313538588225,0.2557423920432037,0.14396781879595177,-2.9276175967959968
1783160461531602944,1.9670438766479492,-1.208548665046692,-0.4797341525554657,-0.956908106803894,0.13739290833473206,-0.24590376019477844,-0.9595074653625488,0.6206942796707153,-0.22219011187553406,-0.031215190887451172,-0.11062659487903598,-0.08285061274821817,0.11568082344744568,0.9836237040533209,0.24845197466335064,0.14222429210841125,-2.9353860668994627
1783160461541521920,1.9769630432128906,-2.524110794067383,-0.7354071736335754,-0.6988347768783569,0.13407807052135468,-0.2265024334192276,-0.964738130569458,0.37732023000717163,-0.3560628592967987,0.2520306706428528,-0.10662303818304965,-0.07953734812729854,0.10632371085772445,0.985393615399018,0.22848528872471777,0.1380941552860924,-2.941894460152387
1783160461551441920,1.9868829250335693,-3.156980037689209,-0.717064380645752,-0.9228734374046326,0.1290847808122635,-0.1975821554660797,-0.9717501997947693,0.10377959907054901,-0.3428383767604828,0.1460666060447693,-0.10340273712168697,-0.07501127714690672,0.09218578273028391,0.9875135384030519,0.198890841596912,0.13206424168065084,-2.946128287591677
1783160461561361920,1.9968030452728271,-3.075371026992798,-0.09548129141330719,-0.9663213491439819,0.12554556131362915,-0.16595883667469025,-0.9781083464622498,-0.02355581521987915,-0.16624024510383606,0.13429737091064453,-0.09987139891459838,-0.07117908151302346,0.07667694245674972,0.9894846860013776,0.1667302448457395,0.12765746176020948,-2.951089832727823
1783160461571281408,2.0067224502563477,-2.686880111694336,-0.14575229585170746,-1.0334511995315552,0.12709015607833862,-0.13683147728443146,-0.9824078679084778,-0.06190462410449982,0.28658124804496765,-0.03372061252593994,-0.09555148013257483,-0.07012701136432661,0.06227570641350467,0.9909963712569871,0.1372620949236841,0.12865146837120542,-2.95820324757299
1783160461581201408,2.0166423320770264,-1.714127779006958,-0.024531330913305283,-0.5968298316001892,0.1267571598291397,-0.11371517181396484,-0.9853940606117249,0.2378210723400116,0.26268672943115234,-0.12135636806488037,-0.09279463294287847,-0.06864968488003695,0.050893846565617955,0.9920111773039099,0.1139616889243573,0.12793344508827237,-2.96235921775611
1783160461591120384,2.0265614986419678,-1.0919541120529175,-0.003608926199376583,-0.9445276856422424,0.12725821137428284,-0.09921219944953918,-0.9868952631950378,0.2620392441749573,0.16363480687141418,-0.3683903217315674,-0.08927565833830173,-0.06803982953056045,0.043851380847306415,0.9927121531904619,0.09937568233284268,0.12824038599272966,-2.968599031310397
1783160461601040384,2.0364813804626465,-0.25751566886901855,-0.16632859408855438,-0.5544984340667725,0.12858062982559204,-0.09128199517726898,-0.9874890446662903,0.15373748540878296,-0.014293566346168518,-0.5086199641227722,-0.08526862745105396,-0.06817222762366407,0.04010017298433511,0.9932138383855227,0.0914092421122585,0.1294811873466631,-2.9762404572182684
1783160461610960384,2.0464015007019043,1.0882765054702759,-0.5233206748962402,0.2892518937587738,0.12504005432128906,-0.09525249898433685,-0.9875686764717102,0.7868251800537109,0.03479718416929245,-0.635111927986145,-0.08493208026769188,-0.0665575090181913,0.0422580835926514,0.9932627652082541,0.09539712686337898,0.1259438797386786,-2.977011147843313
1783160461620879360,2.0563204288482666,1.8825198411941528,-0.34872063994407654,-0.4934822916984558,0.12047907710075378,-0.11035984754562378,-0.9865624904632568,0.7463574409484863,-0.05483180284500122,-0.39777588844299316,-0.08425485678561961,-0.064907173786579,0.05005821937916144,0.9930672350541078,0.11058509854978288,0.1215183748019432,-2.9790461564391375
1783160461630799616,2.0662405490875244,1.07878839969635,0.03201492130756378,-0.7616790533065796,0.11979380249977112,-0.12466840445995331,-0.984940230846405,-0.010510355234146118,-0.444377601146698,-0.07888728380203247,-0.08006036085706411,-0.06495758764302208,0.05753609248648759,0.9930057902203868,0.12499361861329332,0.12103099557843136,-2.988275300209493
1783160461640719360,2.076160430908203,0.707400918006897,0.30457720160484314,-0.24742154777050018,0.12215955555438995,-0.13151291012763977,-0.983758807182312,0.14352646470069885,-0.35238903760910034,0.1314639449119568,-0.0775308014589295,-0.06628307169649421,0.0610503811078028,0.9929090536370261,0.1318949930187629,0.12354390964634702,-2.9939094987505603
1783160461650639616,2.086080551147461,1.6335238218307495,0.21440227329730988,-0.6837657690048218,0.12526632845401764,-0.14247475564479828,-0.9818397760391235,0.38965678215026855,0.22214089334011078,0.062146782875061035,-0.0748792105761384,-0.06812428891990625,0.06662737561775063,0.992629338726053,0.14296123575539862,0.1268977074757798,-3.0001057792790635
1783160461660559360,2.0960004329681396,2.491304636001587,0.2544567286968231,-0.5014604330062866,0.12901714444160461,-0.162445530295372,-0.9782463908195496,0.1526753455400467,0.0908665657043457,0.022084951400756836,-0.07134296982767314,-0.07055357675573999,0.07680488584255549,0.9919846241436768,0.16316860512218292,0.1311293558691852,-3.0087382174443023
1783160461670478336,2.105919361114502,2.372767925262451,0.18394209444522858,-0.18492543697357178,0.13125944137573242,-0.18560673296451569,-0.9738178253173828,0.09568452835083008,-0.025407060980796814,0.1322193145751953,-0.06903814533832557,-0.07239580674416743,0.08859993394049342,0.9910311290385554,0.18668928484476882,0.1339810135015495,-3.015052991246242
1783160461680398592,2.1158394813537598,2.163015127182007,0.36348867416381836,-0.15435847640037537,0.1343299150466919,-0.2075764238834381,-0.9689517617225647,0.1231926679611206,-0.10498461127281189,0.2767978310585022,-0.06757558464693848,-0.07465940877419121,0.09975015352995681,0.9899038341560954,0.20909676713640168,0.13775621511520164,-3.0197521080104126
1783160461690318336,2.1257593631744385,1.5265337228775024,-0.02785632386803627,-0.055176638066768646,0.13599218428134918,-0.22528010606765747,-0.964756429195404,0.2706392705440521,-0.26232975721359253,0.23405885696411133,-0.06661110369426335,-0.0760857940531722,0.10877834109937734,0.9889091161260021,0.22723052067327335,0.14003747556492077,-3.023084548471735
1783160461700237568,2.13567852973938,1.0346633195877075,-0.26537755131721497,-0.07610135525465012,0.13442198932170868,-0.2375541627407074,-0.962028443813324,0.4059985280036926,-0.2798713743686676,0.18086999654769897,-0.06560393675357941,-0.07565228565048158,0.11516294745467516,0.9882865620144875,0.2398471579346438,0.13882883119443143,-3.0257798137847143
1783160461710157312,2.1455984115600586,0.6018999814987183,-0.07657098025083542,-0.23806336522102356,0.13379107415676117,-0.24469538033008575,-0.9603250026702881,0.25700175762176514,-0.25028449296951294,0.16096282005310059,-0.06428673638842054,-0.07545101200714782,0.11893124623149784,0.9879421579500006,0.24720551210605035,0.13842750868635492,-3.0288579412098047
1783160461720077568,2.1555185317993164,0.2926132380962372,0.08568716794252396,-0.14882908761501312,0.1353413462638855,-0.24868567287921906,-0.9590819478034973,0.089832603931427,-0.21232812106609344,0.16510611772537231,-0.06301447959944713,-0.07623403935540365,0.12102644737255983,0.9877096101502345,0.25132305517801967,0.14018985227897893,-3.0319065645652645
1783160461729997312,2.165438413619995,-0.017475971952080727,-0.18067988753318787,0.05546169355511665,0.13535165786743164,-0.24978353083133698,-0.9587951302528381,0.19649648666381836,-0.20598123967647552,0.20568233728408813,-0.06278109177935007,-0.0762519711187074,0.12160619485456191,0.9876518343688028,0.25245668906603513,0.1402417816457415,-3.032457310381559
1783160461739917568,2.175358533859253,-0.29143401980400085,0.06566677987575531,-0.14907360076904297,0.13530349731445312,-0.2480582594871521,-0.95924973487854,0.14973069727420807,-0.1866341233253479,0.19479966163635254,-0.06257091852138702,-0.07613697031495854,0.12074058742030856,0.987780251065888,0.2506753479924838,0.1401269533371035,-3.0327559710063543
1783160461749836544,2.1852774620056152,-0.41046392917633057,-0.00635700486600399,0.1370479315519333,0.1362764835357666,-0.2449323683977127,-0.959915041923523,0.1139066219329834,-0.1760423630475998,0.14230334758758545,-0.06258213080098642,-0.07651477157316716,0.11911329215185884,0.9879478826875272,0.24744993147598482,0.1410248402379872,-3.0326370933522124
1783160461759756288,2.195197343826294,-0.3898015320301056,0.0640186220407486,-0.00040473579429090023,0.13693538308143616,-0.24082107841968536,-0.9608610272407532,0.18996891379356384,-0.10091474652290344,0.07075482606887817,-0.06315317932799339,-0.07676293070503697,0.11694844976699918,0.9881509306168103,0.2432117452461168,0.14155998513533727,-3.0312737472536044
1783160461769676544,2.2051174640655518,-0.14594998955726624,0.04753856360912323,-0.019554995000362396,0.1377377063035965,-0.23824791610240936,-0.9613876938819885,0.1913638561964035,-0.003909066319465637,-0.09683984518051147,-0.06328795699212672,-0.07708879812943276,0.11560052053448926,0.988275511030721,0.24056141443079407,0.14230131439276142,-3.0309175289618766
1783160461779596288,2.2150373458862305,0.38668569922447205,0.04767598584294319,0.06850216537714005,0.13784335553646088,-0.23925726115703583,-0.9611218571662903,0.25148463249206543,0.05412238836288452,-0.22248715162277222,-0.06337661838856516,-0.07719075683048496,0.11610629792550521,0.9882025892772556,0.24160082856024917,0.14244786656695538,-3.030822453253547
1783160461789515520,2.224956512451172,0.3397321105003357,-0.01264925580471754,0.418087899684906,0.13721732795238495,-0.24353022873401642,-0.9601377248764038,0.18260689079761505,-0.01864628493785858,-0.2956911325454712,-0.06461543863111288,-0.0771829194693783,0.11821141917366228,0.9878733431117258,0.2460040163419346,0.14195298913691878,-3.0285396548773353
1783160461799435264,2.2348763942718506,0.275642067193985,-0.036352187395095825,0.08412296324968338,0.13639897108078003,-0.2465635985136032,-0.9594799280166626,0.17051632702350616,-0.04304821789264679,-0.2007373571395874,-0.06570912786533421,-0.07701728480522584,0.11970119718691477,0.9876347216111949,0.2491327678795851,0.1412130738889872,-3.026435781073106
1783160461809355520,2.2447965145111084,0.09389322996139526,0.022894738242030144,0.14241619408130646,0.13612206280231476,-0.24910026788711548,-0.9588638544082642,0.18977515399456024,-0.09355109930038452,-0.21763455867767334,-0.06606237700027975,-0.07701943645111128,0.1209797138665787,0.9874551776044187,0.2517511228856116,0.14101954188752833,-3.025862878501546
1783160461819275264,2.254716396331787,0.08635514974594116,-0.008707663044333458,0.33982834219932556,0.13546770811080933,-0.2498430609703064,-0.9587632417678833,0.22164899110794067,-0.0987134575843811,-0.1525496244430542,-0.06747019222628382,-0.07688979379091733,0.1212697089831808,0.9873344784466708,0.25251817993760617,0.14036506063788864,-3.0229793796565794
1783160461829194240,2.2646353244781494,0.008524737320840359,0.0960053950548172,0.20051835477352142,0.13560672104358673,-0.25088372826576233,-0.9584717750549316,0.10330013930797577,-0.13667425513267517,-0.19394826889038086,-0.06881172999093779,-0.07716750175869706,0.12169339953593708,0.9871680856021205,0.2535930846502317,0.14054937888872682,-3.0203517794147086
1783160461839114496,2.2745554447174072,-0.2945816218852997,0.03781479224562645,0.2646177113056183,0.13574251532554626,-0.24990321695804596,-0.9587087035179138,0.13423123955726624,-0.15772007405757904,-0.09777933359146118,-0.07009756429380067,-0.07735409749633568,0.12108672993706379,0.9871376899766178,0.2525802997913242,0.1406539678011996,-3.0176960828698487
1783160461849034240,2.284475326538086,-0.4906007647514343,-0.16453424096107483,0.4276631474494934,0.13412261009216309,-0.24657319486141205,-0.959798276424408,0.23011992871761322,-0.13363003730773926,-0.040720462799072266,-0.07192265025291629,-0.07661557434653693,0.1192933393534721,0.9872822895136287,0.2491426720322913,0.13884133693707573,-3.0135645473958723
1783160461858954496,2.2943954467773438,-0.34223422408103943,0.09355802834033966,0.24291647970676422,0.1332544982433319,-0.24288511276245117,-0.9608590006828308,0.2326512485742569,-0.06448791921138763,-0.012193918228149414,-0.07375405728859956,-0.07623768391117328,0.11729579719063041,0.9874157364005335,0.24533891911261807,0.13780370271239453,-3.009497630955947
1783160461868873472,2.304314374923706,-0.24050532281398773,-0.07085485011339188,0.24091143906116486,0.13298608362674713,-0.24069561064243317,-0.96144700050354,0.20504187047481537,0.039264336228370667,-0.04990553855895996,-0.07498997761679355,-0.0761528269405318,0.11609155897646901,0.9874715156097302,0.24308247039741163,0.1374465717669025,-3.0068150619702734
1783160461878793472,2.314234495162964,-0.17368102073669434,-0.13248518109321594,0.30532774329185486,0.131135955452919,-0.23900362849235535,-0.9621229767799377,0.2638072967529297,0.08049532771110535,-0.055516183376312256,-0.0765084282176556,-0.07531942346335267,0.11517592788336711,0.9875261907383527,0.24133961540098134,0.13546379601151703,-3.003402886663469
1783160461888713472,2.3241543769836426,0.04145266115665436,-0.14736145734786987,0.11138251423835754,0.12961842119693756,-0.2389332801103592,-0.962346076965332,0.16460153460502625,0.028972342610359192,-0.12726879119873047,-0.07752899335046627,-0.07466718489843814,0.11511637671806403,0.9875030249942945,0.24126716818387245,0.1338843019649486,-3.0011474859257263
1783160461898632448,2.334073543548584,-0.11297792196273804,-0.08102530241012573,0.20425119996070862,0.1279717981815338,-0.2388923466205597,-0.9625765681266785,0.1254766881465912,0.03253248333930969,-0.09145480394363403,-0.07838044823388382,-0.07393133366660395,0.11509071063487772,0.9874941640507482,0.24122501598474352,0.13217206118920988,-2.999220989726043
1783160461908552448,2.3439934253692627,-0.015934066846966743,-0.2263178527355194,0.2267037183046341,0.1258334517478943,-0.23880450427532196,-0.9628802537918091,0.12309843301773071,-0.01475079357624054,-0.08715331554412842,-0.0792806205535112,-0.0729504566440527,0.11505699618365905,0.9874992265244921,0.24113454970727966,0.1299480044860023,-2.9971335443719127
1783160461918472448,2.3539135456085205,-0.1012396439909935,-0.3380071222782135,0.3090191185474396,0.12250863760709763,-0.2386378049850464,-0.963350236415863,0.18422353267669678,-0.07926380634307861,-0.11390501260757446,-0.08045768654613886,-0.07139853671422697,0.11500930146815769,0.9875230739075623,0.24096288206044497,0.12649041601105854,-2.9943373945274407
1783160461928392448,2.363833427429199,-0.17703533172607422,-0.3187054693698883,-0.001091232057660818,0.11928249895572662,-0.2375747412443161,-0.9640175700187683,0.18682405352592468,-0.0665634274482727,-0.10344147682189941,-0.08107972047566117,-0.06979102045028009,0.11454438292134755,0.987641048340582,0.23986834381939726,0.12310904098446644,-2.9926260508550775
1783160461938312448,2.373753547668457,-0.1670021414756775,-0.3794841468334198,0.15703661739826202,0.11614964157342911,-0.23594509065151215,-0.9648000597953796,0.12071254104375839,-0.014054909348487854,-0.10024815797805786,-0.0811817024050229,-0.06814465115418535,0.11382561993146882,0.9878307151793863,0.2381909965175001,0.11981067822536885,-2.9919512801833146
1783160461948231424,2.3836724758148193,-0.02569708228111267,-0.31846779584884644,0.05440777912735939,0.11278840899467468,-0.2353372722864151,-0.965347170829773,0.15062406659126282,-0.0158071368932724,-0.11436474323272705,-0.08167452175036322,-0.0664757665977515,0.11361070751281133,0.9879285143777802,0.23756556771591608,0.11630981702169373,-2.990519191937067
1783160461958151424,2.393592357635498,0.01215868629515171,-0.4654700458049774,0.0948747768998146,0.10944611579179764,-0.2354942262172699,-0.9656935334205627,0.08246367424726486,-0.030008703470230103,-0.09111493825912476,-0.08168262800458627,-0.06479659837963307,0.11381841149834762,0.9880155186017762,0.23772706538468993,0.11285267101342476,-2.9901126840762164
1783160461968071424,2.403512477874756,0.04153228923678398,-0.43773823976516724,0.24655792117118835,0.10480637848377228,-0.23611925542354584,-0.9660555720329285,0.18314222991466522,-0.017497077584266663,-0.07866793870925903,-0.082335174510725,-0.06255935654930879,0.1142740230285662,0.9880529918619159,0.23837022775521266,0.1080663217015406,-2.988269028531297
1783160461977991424,2.4134323596954346,0.060213297605514526,-0.43740853667259216,0.23488181829452515,0.10038894414901733,-0.23698708415031433,-0.9663121700286865,0.11773544549942017,-0.03585532307624817,-0.05762887001037598,-0.08321532954530902,-0.06047344349191581,0.11483415744409255,0.9880442143164062,0.23926341064488174,0.10351738401773027,-2.9859990557716376
1783160461987910400,2.423351526260376,0.16176536679267883,-0.4937790036201477,0.26399022340774536,0.09585081040859222,-0.23843899369239807,-0.9664157629013062,0.13577760756015778,-0.041864946484565735,-0.10377460718154907,-0.08407895257017466,-0.05835389995177565,0.11570189149239007,0.987997351419966,0.24075816682803797,0.09885843880844648,-2.9837689136748287
1783160461997830400,2.4332714080810547,0.15684597194194794,-0.49650025367736816,0.2279169112443924,0.09124209731817245,-0.24040807783603668,-0.9663740396499634,0.16670772433280945,-0.049295276403427124,-0.12444621324539185,-0.08487605134881462,-0.05621750860501465,0.1168441633240896,0.987918580193224,0.24278623915274755,0.09413788774474845,-2.9816780537070056
1783160462007750400,2.4431915283203125,0.21374639868736267,-0.4336114227771759,0.21807260811328888,0.08736386895179749,-0.24265341460704803,-0.9661712646484375,0.15869936347007751,-0.053077176213264465,-0.0861968994140625,-0.08560796479890208,-0.054456829267506744,0.11810516906710669,0.9878040717157207,0.24510007538109277,0.0901775198508185,-2.979809143235316
1783160462017670400,2.453111410140991,0.2879279553890228,-0.4697691798210144,0.37542280554771423,0.08393555879592896,-0.24572493135929108,-0.965698778629303,0.13641659915447235,-0.08325454592704773,-0.09329169988632202,-0.08663982713911582,-0.05300093487803554,0.11975611151844555,0.9875944598936743,0.2482674795683918,0.08669903479248606,-2.9774089782453674
1783160462027589376,2.4630303382873535,0.2124004364013672,-0.5002080798149109,0.3072054088115692,0.0802023634314537,-0.24893328547477722,-0.9651941657066345,0.1801125705242157,-0.10655072331428528,-0.04898124933242798,-0.08783894310171449,-0.05142225166018084,0.12148523554036766,0.9873608337661594,0.2515787072529298,0.08290407952377657,-2.974622822066399
1783160462037509376,2.4729504585266113,0.1470499336719513,-0.5067837238311768,0.3779682517051697,0.0757347047328949,-0.25142109394073486,-0.9649102091789246,0.1751350462436676,-0.14260661602020264,-0.01008063554763794,-0.08913171359911508,-0.049454094128454744,0.12287878672515279,0.9871730427948489,0.2541482477873817,0.07832827880016678,-2.971513717479158
1783160462047429376,2.48287034034729,0.021031340584158897,-0.440368115901947,0.3091776669025421,0.07152806967496872,-0.25302425026893616,-0.964812159538269,0.15958155691623688,-0.15021976828575134,0.009184718132019043,-0.09046535197551371,-0.04758218003037218,0.12381382425270859,0.9870269791933479,0.25580494979105695,0.07400140382645647,-2.968315820936036
1783160462057349376,2.492790460586548,-0.021158456802368164,-0.4831259548664093,0.2535508871078491,0.06789083033800125,-0.25356024503707886,-0.964934229850769,0.12089091539382935,-0.14605218172073364,0.04484450817108154,-0.09142544300382649,-0.04589874744130061,0.12420224135810325,0.9869693923381102,0.2563590188995688,0.07024223292523843,-2.965911773512226
1783160462067268352,2.50270938873291,-0.10005313903093338,-0.5234746932983398,0.3925623297691345,0.0634494498372078,-0.253506064414978,-0.9652506709098816,0.1536831259727478,-0.10469400882720947,0.04748028516769409,-0.0926499078310753,-0.04381518124179806,0.12431773259653187,0.986935352872037,0.2563030167103486,0.06563921883573652,-2.962849673397282
1783160462077188608,2.512629508972168,-0.2236616313457489,-0.49250245094299316,0.2586168050765991,0.0588739849627018,-0.2526450455188751,-0.965766191482544,0.1239415630698204,-0.10354086756706238,0.046332597732543945,-0.09379514795048165,-0.04161380789712996,0.12403708149991263,0.9869577190106695,0.25541302536823407,0.06088556236882819,-2.9599129512672215
1783160462087108352,2.5225493907928467,-0.3317931592464447,-0.3886324167251587,0.26840338110923767,0.05497625097632408,-0.25061389803886414,-0.9665248394012451,0.14177057147026062,-0.12066292762756348,0.10917931795120239,-0.09483080136061987,-0.03967927505604949,0.12313866905831755,0.9870509165507169,0.2533143477379711,0.056819105864461185,-2.9572680286366437
1783160462097028608,2.5324695110321045,-0.5624830722808838,-0.4268234968185425,0.31829291582107544,0.05110164359211922,-0.246720552444458,-0.9677383899688721,0.1397552788257599,-0.133467435836792,0.15003514289855957,-0.09600886913555705,-0.03767634006627902,0.12129015259264177,0.9872443195580706,0.24929473105177158,0.05275622795518569,-2.9543153275237377
1783160462106947328,2.542388439178467,-0.5345101356506348,-0.4208030700683594,0.3218507468700409,0.046942878514528275,-0.24172377586364746,-0.9692089557647705,0.12336046993732452,-0.08905625343322754,0.11023068428039551,-0.09734853173722592,-0.035489819570477636,0.11889490858693576,0.9874855398814719,0.24414190916489895,0.04839639800671099,-2.95100164449564
1783160462116867328,2.5523083209991455,-0.4766814410686493,-0.3861132860183716,0.27930381894111633,0.04329077899456024,-0.23729123175144196,-0.9704734683036804,0.13146813213825226,-0.023588284850120544,0.00706404447555542,-0.09868069414256733,-0.03358239403516813,0.11677106784042438,0.9876734512387123,0.23957649132775996,0.044578341187916266,-2.9477956009359576
1783160462126787328,2.5622284412384033,-0.37200504541397095,-0.45904088020324707,0.39038214087486267,0.039051998406648636,-0.23386386036872864,-0.9714847803115845,0.12366773188114166,-0.026206940412521362,-0.07102620601654053,-0.10004660984056775,-0.03143444891462512,0.11519329628939178,0.9877920024944433,0.23604985260771422,0.04017662882337982,-2.944479547133222
1783160462136707328,2.572148323059082,-0.4281258285045624,-0.3245387375354767,0.41011324524879456,0.03466033563017845,-0.23028527200222015,-0.9725056886672974,0.16359710693359375,-0.07313574850559235,-0.07269084453582764,-0.1018224645744738,-0.029246091547478908,0.11354211642523757,0.9878689291250955,0.23237082795301578,0.03562515821197583,-2.9403306491324663
1783160462146626560,2.5820674896240234,-0.31310948729515076,-0.37662941217422485,0.3504198491573334,0.03161817789077759,-0.2270781248807907,-0.9733631610870361,0.1501445174217224,-0.03979809582233429,-0.06084704399108887,-0.10338545939044119,-0.027725723352046767,0.1120254886646877,0.987923596722403,0.22907637178264403,0.03247201792476375,-2.936789184629321
1783160462156546304,2.591987371444702,-0.2409396767616272,-0.4578403830528259,0.35672008991241455,0.027426237240433693,-0.2248474806547165,-0.9740079045295715,0.16024160385131836,0.03424994647502899,-0.09259670972824097,-0.10497192699192667,-0.025682564949995133,0.11106957133400579,0.9879194510116327,0.2267865017364061,0.028150687065480545,-2.93308199879831
1783160462166466560,2.60190749168396,-0.17898815870285034,-0.34230056405067444,0.3286409080028534,0.023079613223671913,-0.22304384410381317,-0.9745351672172546,0.13486410677433014,0.05762331187725067,-0.07583409547805786,-0.10641180296975006,-0.023567482195489188,0.11034942314983068,0.9878988275886256,0.22493586992453357,0.023678263741782758,-2.929663967663525
1783160462176386304,2.6118273735046387,-0.2280941903591156,-0.34334108233451843,0.43606483936309814,0.01920023374259472,-0.22130124270915985,-0.9750164747238159,0.11056050658226013,-0.02967531979084015,-0.08070862293243408,-0.10809141454316415,-0.021715003530031005,0.1096367853409165,0.9878382963983839,0.2231485942781953,0.019689669997166676,-2.925821603699416
1783160462186305536,2.62174654006958,-0.24703679978847504,-0.40957748889923096,0.2907955050468445,0.015364937484264374,-0.2191808670759201,-0.9755632281303406,0.16679447889328003,-0.059292033314704895,-0.08954602479934692,-0.10961027643940885,-0.019843507966011507,0.10874101566856338,0.9878092794248899,0.220974850601663,0.015748509092071494,-2.922317988935931
1783160462196225280,2.631666421890259,-0.320432186126709,-0.4823180139064789,0.3602595329284668,0.010572927072644234,-0.21645650267601013,-0.976235032081604,0.16714619100093842,-0.07690897583961487,-0.106650710105896,-0.11093612543090033,-0.017435737756656803,0.10760339194079897,0.9878312788876552,0.21818345148227666,0.01082988626259718,-2.9191105556780887
1783160462206145536,2.6415865421295166,-0.23999126255512238,-0.5049755573272705,0.3372747600078583,0.005273014772683382,-0.21382048726081848,-0.9768587350845337,0.1347263753414154,-0.05076691508293152,-0.1485837697982788,-0.11253547561623069,-0.014806884856263703,0.10654289194819214,0.9878082163912709,0.2154842333161562,0.00539787749348171,-2.915305772432531
1783160462216065280,2.6515064239501953,-0.2240237444639206,-0.5920361280441284,0.2213825136423111,-0.00035138431121595204,-0.21148768067359924,-0.9773805737495422,0.13201947510242462,-0.002730444073677063,-0.178808331489563,-0.11347051670112673,-0.01196052259361411,0.10567234724713691,0.9878333986154064,0.21309682009396028,-0.0003595163488710362,-2.9128205857180482
1783160462225984256,2.6614253520965576,-0.07096709311008453,-0.5716139078140259,0.18136505782604218,-0.00631000055000186,-0.21018894016742706,-0.9776404500007629,0.17751361429691315,-0.008698374032974243,-0.21973198652267456,-0.11422251001313263,-0.008988090875803054,0.10535181071175115,0.9878124304043225,0.21176821395494677,-0.006454226903682334,-2.910665646222425
1783160462235904512,2.6713454723358154,-0.15363694727420807,-0.6784841418266296,0.24646763503551483,-0.012758936733007431,-0.20930594205856323,-0.9777669906616211,0.15304824709892273,-0.024946987628936768,-0.2103586196899414,-0.1148705219553303,-0.0057844006215072895,0.1052761119769998,0.9877693435119923,0.21086513066707482,-0.013048316253384885,-2.9086661562116762
1783160462245824256,2.681265354156494,-0.13443627953529358,-0.6627560257911682,0.2551124095916748,-0.019728805869817734,-0.20767231285572052,-0.9779995083808899,0.18614116311073303,-0.02389506995677948,-0.1720554232597351,-0.11589577210085134,-0.0023164995936169963,0.10485653858476851,0.9877084214872135,0.20919479547414147,-0.020169879049057735,-2.9058672711873834
1783160462255744512,2.691185474395752,-0.186613991856575,-0.5752685070037842,0.13072869181632996,-0.02594604156911373,-0.20616745948791504,-0.9781726598739624,0.12430419772863388,-0.05390332639217377,-0.17227894067764282,-0.11651444869532959,0.0008112961385229207,0.10446532645484978,0.9876794894613548,0.2076566544056156,-0.026518792829631207,-2.903978832867826
1783160462265663488,2.7011044025421143,-0.36193782091140747,-0.683814525604248,0.2382945865392685,-0.032664135098457336,-0.20338010787963867,-0.9785548448562622,0.16497309505939484,-0.07576417922973633,-0.1333683729171753,-0.11710188372860743,0.004268970095911982,0.10346183707107018,0.9877067697501348,0.20480894826618895,-0.033367582627248496,-2.9021463831172625
1783160462275583488,2.711024522781372,-0.47443294525146484,-0.6775510311126709,0.1905507743358612,-0.03981573507189751,-0.1993834376335144,-0.9791123270988464,0.1988886147737503,-0.0917084813117981,-0.14472800493240356,-0.11792061312456739,0.007991760300759387,0.10188212221384232,0.987750482995841,0.20072869163346305,-0.04064274162079899,-2.899858017863591
1783160462285503488,2.720944404602051,-0.5819523930549622,-0.7331429719924927,0.15926505625247955,-0.04679020121693611,-0.19421128928661346,-0.9798431992530823,0.1729803830385208,-0.03911083936691284,-0.11862176656723022,-0.11823225755455241,0.011749371484322537,0.09970137647195394,0.9878981267449574,0.1954533741335815,-0.04771649783452452,-2.8986855634358055
1783160462295423488,2.7308645248413086,-0.385493665933609,-0.7713580131530762,0.18211445212364197,-0.05464526265859604,-0.18919287621974945,-0.9804182648658752,0.19070787727832794,0.01177893579006195,-0.14293378591537476,-0.11881465334820654,0.015910376299965254,0.09766132161191202,0.9879737859054101,0.1903401162143256,-0.05567907378754141,-2.8969039526976323
1783160462305342464,2.740783452987671,-0.2561984658241272,-0.7526647448539734,0.161110520362854,-0.062494661659002304,-0.18624214828014374,-0.9805142879486084,0.1120857298374176,0.023476645350456238,-0.1921236515045166,-0.1191729039212131,0.01996799139257281,0.09666504686149843,0.9879550045602505,0.1873359775607924,-0.06365051837212778,-2.8955194949137666
1783160462315262208,2.7507033348083496,-0.14779183268547058,-0.7302537560462952,0.19281944632530212,-0.06996601819992065,-0.18418683111667633,-0.9803978800773621,0.11404865980148315,0.01522625982761383,-0.16890937089920044,-0.11974456881174292,0.023763406690170383,0.09610603073037689,0.9878563476605587,0.18524447079530518,-0.07124413582974562,-2.893716022215063
1783160462325182464,2.7606234550476074,-0.1640423685312271,-0.72861647605896,0.1668131798505783,-0.07722616195678711,-0.18261614441871643,-0.9801466464996338,0.1344008445739746,-0.02664288878440857,-0.1639268398284912,-0.12022122851962427,0.027434653933303924,0.09578106460910843,0.9877348944137435,0.1836466857737016,-0.07862798069824134,-2.892112090497074
1783160462335102208,2.770543336868286,-0.11740829795598984,-0.6575188636779785,0.16887792944908142,-0.08433002978563309,-0.18101119995117188,-0.9798588752746582,0.148615300655365,-0.06834793090820312,-0.1172327995300293,-0.12075980206812677,0.031025014643137252,0.0954359266378439,0.9875963323058076,0.18201453156729483,-0.08585189514828712,-2.890408131194245
1783160462345021440,2.7804625034332275,-0.1929328888654709,-0.6887897253036499,0.15942716598510742,-0.09130193293094635,-0.17939667403697968,-0.979530930519104,0.14824773371219635,-0.08601470291614532,-0.1071542501449585,-0.12125926677459312,0.03455504322006951,0.0950815321755809,0.9874520890012315,0.18037314441826988,-0.092941314924008,-2.888804971280689
1783160462354941440,2.7903823852539062,-0.23898905515670776,-0.7123309969902039,0.1749882847070694,-0.09831157326698303,-0.1771388053894043,-0.9792633056640625,0.13110271096229553,-0.07600449025630951,-0.059432923793792725,-0.12159360962613391,0.03815981180036311,0.09440424290314085,0.9873432790346125,0.17807852289830214,-0.10005813922290958,-2.8875819103265083
1783160462364861440,2.800302505493164,-0.33619192242622375,-0.6903939247131348,0.22573821246623993,-0.10585343092679977,-0.17413222789764404,-0.9790163636207581,0.14352738857269287,-0.04318344593048096,-0.04095739126205444,-0.1223028458889154,0.042041545009563544,0.09340413050054734,0.9871931457586377,0.17502446982840233,-0.1077038302876228,-2.885611251331963
1783160462374781440,2.8102223873138428,-0.3075445592403412,-0.644282341003418,-0.045931376516819,-0.11181697994470596,-0.17097467184066772,-0.9789099097251892,0.10763607919216156,0.011993363499641418,-0.027803897857666016,-0.12220002111159758,0.04522199610088984,0.09219552070591126,0.9871788233642411,0.17181882407548224,-0.11373308161923582,-2.8854660983156264
1783160462384700416,2.820141553878784,-0.1466360092163086,-0.6775525212287903,0.3043172061443329,-0.11862224340438843,-0.16866928339004517,-0.9785087704658508,0.17338603734970093,0.005079805850982666,-0.04950636625289917,-0.1225784439172359,0.048727879546702324,0.09149427834947792,0.9870303732404545,0.1694794582166963,-0.12063889867681162,-2.884219820147289
1783160462394620416,2.830061435699463,-0.18730993568897247,-0.5845690369606018,0.21561451256275177,-0.12513871490955353,-0.16671602427959442,-0.9780317544937134,0.17422625422477722,-0.05578763782978058,-0.06080186367034912,-0.12355490255120827,0.0520147209029339,0.09098682126193659,0.986787805114321,0.16749813665027108,-0.127258104725893,-2.8817736902154745
1783160462404540416,2.8399815559387207,-0.23110942542552948,-0.6139201521873474,0.05276484414935112,-0.13076406717300415,-0.16457878053188324,-0.977657675743103,0.15758904814720154,-0.043535828590393066,-0.0464664101600647,-0.12371297692597445,0.054944223810385405,0.09028997862291974,0.9866732317271807,0.16533095595302785,-0.13296326597226102,-2.881093942251795
1783160462414460416,2.8499014377593994,-0.20614680647850037,-0.6800956726074219,0.13977138698101044,-0.13731242716312408,-0.16214872896671295,-0.9771658182144165,0.20637370645999908,-0.037695616483688354,-0.06873255968093872,-0.1238698123902172,0.05835491365414163,0.08950856346605374,0.9865287891778952,0.16286780715766683,-0.13960699117515457,-2.8803650641501455
1783160462424379392,2.8598203659057617,-0.16196304559707642,-0.5873636603355408,0.007116696797311306,-0.1432977020740509,-0.1604146659374237,-0.976592481136322,0.1468377560377121,-0.0141306072473526,-0.0981602668762207,-0.12392687914251582,0.06145210624718187,0.08903588772946022,0.9863764547429493,0.16111075026942287,-0.14569266856937543,-2.8798429128414282
1783160462434299392,2.8697404861450195,-0.10773708671331406,-0.6607574820518494,0.08294594287872314,-0.149305060505867,-0.1589466780424118,-0.9759323596954346,0.0966622531414032,0.012813255190849304,-0.09189295768737793,-0.12384739130126754,0.06455806287719923,0.08869092818079234,0.9862190777459471,0.15962367338541514,-0.15181003528983994,-2.8795793533569873
1783160462444219392,2.8796603679656982,0.050152674317359924,-0.5096956491470337,-0.1253328174352646,-0.1550595611333847,-0.15867497026920319,-0.9750788807868958,0.1134335845708847,-0.00039790570735931396,-0.08095139265060425,-0.12361715301515903,0.06748018022916125,0.08892128895749356,0.9860315299429027,0.15934847912311312,-0.15770210247665362,-2.879539859235512
1783160462454139392,2.889580488204956,0.0367300771176815,-0.5950518250465393,0.007513641379773617,-0.1605662852525711,-0.15932592749595642,-0.9740809798240662,0.029432252049446106,0.015191406011581421,-0.025278151035308838,-0.1229462542023374,0.07026446105644872,0.08956798649539115,0.9858624849439704,0.16000782422187537,-0.16336963939263596,-2.880327923714222
1783160462464058368,2.8994994163513184,0.07426299899816513,-0.5565468668937683,-0.23983772099018097,-0.16517409682273865,-0.15992066264152527,-0.9732126593589783,0.06844863295555115,0.05866333842277527,0.01848548650741577,-0.12195441817192096,0.072632757052654,0.09010075780753299,0.9857654543978326,0.16061027563920505,-0.16811845052756869,-2.8818510355589506
1783160462473978624,2.909419536590576,0.18190638720989227,-0.4295308291912079,-0.10235710442066193,-0.16998906433582306,-0.16162854433059692,-0.9721007943153381,0.11327214539051056,0.02208690345287323,0.052926599979400635,-0.12117184688660745,0.07502302522204728,0.09122034551418443,0.9855800007235137,0.16234066795995872,-0.17311732773188487,-2.882813093546524
1783160462483898368,2.919339418411255,0.013068023137748241,-0.4098266661167145,-0.1368553191423416,-0.17380119860172272,-0.16269700229167938,-0.9712480902671814,0.08142448961734772,0.0014268606901168823,0.1457018256187439,-0.12024599798404495,0.07696313149008226,0.09193823064490719,0.9854769884787762,0.16342346476147407,-0.17707206868026035,-2.884217997263146
1783160462493818624,2.9292595386505127,-0.1076514720916748,-0.15810547769069672,-0.1540156602859497,-0.17643235623836517,-0.16252008080482483,-0.9708032011985779,0.11432908475399017,-0.01985296607017517,0.21822446584701538,-0.1193474552096938,0.07838075172754175,0.09195031021621149,0.9854733970459524,0.16324415669768372,-0.1797764122637963,-2.8858072020682513
1783160462503737344,2.939178466796875,-0.09751967340707779,-0.0707915797829628,-0.20651651918888092,-0.1768854707479477,-0.1618138700723648,-0.970838725566864,0.08902536332607269,-0.002279147505760193,0.2922956347465515,-0.11845472444945566,0.07873244716900178,0.09155242320197807,0.9855901050898184,0.1625284648216776,-0.18022174174492053,-2.8876494141712867
1783160462513657344,2.9490983486175537,-0.13391628861427307,0.1333754062652588,-0.3342164158821106,-0.17638427019119263,-0.16110503673553467,-0.9710477590560913,0.06661254167556763,0.06093108654022217,0.3567289113998413,-0.11718806088567302,0.0786379056647643,0.09106151599427419,0.9857944861180646,0.16181021006918883,-0.17968416207857396,-2.8903414184958485
1783160462523577344,2.9590184688568115,0.15135373175144196,0.27817443013191223,-0.3814114034175873,-0.17352807521820068,-0.16180367767810822,-0.9714460968971252,0.07697047293186188,0.11317393183708191,0.4312087297439575,-0.1154138340656551,0.07732521840634772,0.09109198399187922,0.9861047548186623,0.1625181418748289,-0.17676428072850847,-2.8941397413472307
1783160462533497344,2.9689383506774902,0.3511054515838623,0.34367355704307556,-0.2530105710029602,-0.1700884997844696,-0.165131077170372,-0.9714945554733276,0.048964232206344604,0.07319687306880951,0.36869609355926514,-0.11413002215186152,0.07552959588375908,0.09245547448718243,0.9862664383670645,0.16589090847039234,-0.1733225284703217,-2.8967336348254165
1783160462543416576,2.9788575172424316,0.5615721940994263,0.33074426651000977,-0.31769269704818726,-0.16627900302410126,-0.16989177465438843,-0.9713331460952759,0.03328339755535126,0.15278665721416473,0.3909498453140259,-0.11298239971969151,0.07346083831781441,0.09453533649058957,0.9863577989821672,0.17071984075588514,-0.16954298140432494,-2.89895469691975
1783160462553336320,2.9887773990631104,0.522442102432251,0.4776966869831085,-0.3576292097568512,-0.16145023703575134,-0.17602506279945374,-0.9710556268692017,0.06852421164512634,0.10989347100257874,0.37413179874420166,-0.11176789489693952,0.07081723824269114,0.0972476851119497,0.9864257803506368,0.17694699097693425,-0.1647555118636494,-2.901295633196479
1783160462563256576,2.998697519302368,0.18352843821048737,0.5581901669502258,-0.33816659450531006,-0.15563641488552094,-0.18002595007419586,-0.9712713360786438,0.09627972543239594,0.030337229371070862,0.4368475079536438,-0.11038031755161838,0.06781677787368802,0.09881916380683402,0.9866366547471528,0.1810128255433464,-0.15888916597406763,-2.904318474500166
1783160462573175040,3.0086159706115723,-0.18148627877235413,0.5249922871589661,-0.40983787178993225,-0.14926865696907043,-0.18064448237419128,-0.9721555709838867,0.13744309544563293,-0.10019353032112122,0.4475889205932617,-0.10880604071904343,0.06474045154214665,0.098645278486822,0.9870354948808631,0.18164166999846842,-0.152354144770093,-2.9081070968895393
1783160462583094016,3.0185351371765137,-0.3504599928855896,0.57672119140625,-0.381634384393692,-0.14219163358211517,-0.178719162940979,-0.973571240901947,0.13007615506649017,-0.157981276512146,0.4421839118003845,-0.10699672819151143,0.0614646703647218,0.09714146916806382,0.9875916488022204,0.17968450844918224,-0.1450262019094304,-2.912664970103164
1783160462593014016,3.0284550189971924,-0.5333458781242371,0.7244542241096497,-0.3416347801685333,-0.1351384073495865,-0.17507103085517883,-0.975237250328064,0.1563176065683365,-0.029595106840133667,0.46093976497650146,-0.10540008266532551,0.05826603063418537,0.0947967852663194,0.9881849797204616,0.17597791166755236,-0.1376929357907268,-2.916909689902076
1783160462602934016,3.03837513923645,-0.4557812213897705,0.9586458802223206,-0.46212249994277954,-0.12593455612659454,-0.1706773042678833,-0.9772459864616394,0.07854077219963074,0.1019059419631958,0.5281951427459717,-0.1036787714331674,0.05403369899556261,0.09196389340880809,0.988875015691156,0.1715170122836078,-0.1281604673882656,-2.9216327744246486
1783160462612854016,3.048295021057129,-0.06496712565422058,0.9900246262550354,-0.4625968039035797,-0.11550042778253555,-0.16872063279151917,-0.9788733124732971,0.05445002764463425,0.11650507152080536,0.4695807695388794,-0.1017879903414404,0.049074353178994175,0.09030526322079756,0.9894826885303885,0.16953154631603345,-0.11745017799720514,-2.926582952258799
1783160462622772992,3.058213949203491,0.07342363893985748,0.9831627607345581,-0.41063475608825684,-0.10518012195825577,-0.16937804222106934,-0.9799225330352783,0.06799446791410446,0.12712647020816803,0.4119294285774231,-0.09999027259487145,0.044034496821391086,0.08999823804083013,0.9899309992652089,0.17019856538612999,-0.10692576771310537,-2.9311309284122475
1783160462632692992,3.068134069442749,0.08085865527391434,1.0502451658248901,-0.33019930124282837,-0.09461560100317001,-0.17069536447525024,-0.9807705879211426,0.04215588420629501,0.09884172677993774,0.3970150947570801,-0.09865766795358773,0.038800759993204266,0.09005108092980112,0.9902788093510952,0.17153535282011254,-0.09617306157299935,-2.934720544262089
1783160462642612992,3.0780539512634277,-0.017174500972032547,1.2052642107009888,-0.5570769309997559,-0.08291494101285934,-0.1713474839925766,-0.9817154407501221,0.048582665622234344,0.0433109849691391,0.38199925422668457,-0.09717543835959333,0.033047157215693526,0.0897227881810243,0.9906637281255964,0.17219721411039493,-0.08425927387150448,-2.938758908403301
1783160462652532992,3.0879740715026855,-0.11533541977405548,0.9598567485809326,-0.5900332927703857,-0.07156368345022202,-0.1710590273141861,-0.9826583862304688,0.07257076352834702,-0.016257867217063904,0.37177276611328125,-0.09458348054578558,0.02761502545770686,0.08892823669997285,0.991152438500904,0.17190443866459634,-0.0726982746431478,-2.9450465322098145
1783160462662451968,3.097892999649048,-0.023577207699418068,1.1225906610488892,-0.5702387690544128,-0.060218628495931625,-0.1706508994102478,-0.9834896922111511,0.15978223085403442,-0.0603366494178772,0.3685910105705261,-0.09222867767103635,0.022169471354785114,0.0881116609309251,0.9915839373086729,0.1714902144014006,-0.06115319950617285,-2.950845280449723
1783160462672372224,3.1078131198883057,-0.07316846400499344,1.1309658288955688,-0.39068660140037537,-0.048428893089294434,-0.17057426273822784,-0.9841539859771729,0.06748712062835693,-0.047000810503959656,0.34154534339904785,-0.0903164672866148,0.01644644513784165,0.08747869821203938,0.9919273483499413,0.1714124374288576,-0.04916899068029988,-2.9557651162229077
1783160462682291968,3.1177330017089844,0.1626303493976593,1.049129843711853,-0.3208138346672058,-0.03696945309638977,-0.17079319059848785,-0.9846131205558777,0.05910995230078697,0.047654762864112854,0.2970520853996277,-0.08904081616100457,0.010819230694306828,0.08704250248247183,0.9921583787515221,0.17163463129934314,-0.0375295570707407,-2.9593540960797187
1783160462692212224,3.127653121948242,0.573562741279602,1.1012306213378906,-0.23301421105861664,-0.0263525303453207,-0.17452727258205414,-0.9842996597290039,0.07354796677827835,0.06995879113674164,0.2127542495727539,-0.08806698664941605,0.0054306326458009565,0.08843466202067746,0.9921663225642275,0.1754256472001809,-0.026766479800629572,-2.962178097094841
1783160462702130944,3.1375720500946045,0.7699095010757446,1.2699466943740845,-0.22923018038272858,-0.014313462190330029,-0.1813208907842636,-0.9833198189735413,0.009400131180882454,0.08700631558895111,0.19851452112197876,-0.08748995390217064,-0.0008396147680416578,0.09132024616427119,0.9919704481227085,0.1823294362003663,-0.014555235386049475,-2.9643209862336475
1783160462712051200,3.1474921703338623,1.0259844064712524,1.132958173751831,-0.359526664018631,-0.001833051210269332,-0.18996602296829224,-0.9817889332771301,-0.056074049323797226,0.18604452908039093,0.2162402868270874,-0.0865379857562123,-0.007377928657492856,0.0951372098873264,0.9916681571169281,0.19112754166018014,-0.001867049999767207,-2.96732458447216
1783160462721970944,3.157412052154541,1.5016206502914429,0.9932184219360352,-0.410953551530838,0.009054274298250675,-0.20226162672042847,-0.9792896509170532,0.0877780020236969,0.24429960548877716,0.1963459849357605,-0.08502090780877557,-0.0132223109477515,0.10089764980416027,0.9911691721914964,0.20366672908490394,0.009245493672934592,-2.9713995519874543
1783160462731891200,3.167332172393799,1.8056471347808838,0.983736515045166,-0.17208531498908997,0.01893962360918522,-0.21856406331062317,-0.9756388068199158,0.14435994625091553,0.22420981526374817,0.24138587713241577,-0.08409415939010051,-0.01879715005747093,0.10875326357866621,0.9903270441640782,0.22034270704711462,0.019410098466363004,-2.9743152187542807
1783160462741810176,3.177251100540161,1.7691644430160522,1.0310138463974,-0.3597424626350403,0.02966170758008957,-0.23617692291736603,-0.9712572693824768,0.10484451800584793,0.15057511627674103,0.2818804383277893,-0.08310632650713083,-0.024843148001096136,0.11727827164517057,0.9893037632601677,0.2384295708970346,0.03053000702550566,-2.9776337132088333
1783160462751729920,3.18717098236084,0.8800273537635803,0.9355836510658264,-0.34664982557296753,0.03973124548792839,-0.24938470125198364,-0.9675891399383545,0.1779506355524063,0.03158074617385864,0.429335355758667,-0.08191045105907638,-0.030342010221425363,0.12363174004425713,0.9884761489377684,0.2520448364383116,0.04103904802312544,-2.9814397705870515
1783160462761650176,3.1970911026000977,0.1986885517835617,0.9992246031761169,-0.48091092705726624,0.049753591418266296,-0.25404977798461914,-0.9659106135368347,0.1713462620973587,-0.19512319564819336,0.4973284602165222,-0.08035891711326071,-0.03539358198599309,0.12566619873221666,0.988179011285625,0.2568651229551387,0.051464035757947835,-2.9859570314778185
1783160462771569920,3.2070109844207764,-0.21573126316070557,1.059617280960083,-0.4883643388748169,0.06196099519729614,-0.25338509678840637,-0.9653791189193726,0.16067999601364136,-0.31285330653190613,0.40222299098968506,-0.07816630123861935,-0.04123239570400044,0.12494131365355961,0.9882204900919388,0.25617795806658145,0.0640951544014772,-2.9919831434890964
1783160462781489152,3.2169301509857178,-0.6675482392311096,1.0522925853729248,-0.267732709646225,0.07267109304666519,-0.2492370754480362,-0.9657120704650879,0.1870945394039154,-0.1962280124425888,0.3801255226135254,-0.0772005003309438,-0.046328209454834075,0.12246494948598993,0.9883805504816842,0.2518923847649358,0.07510974062563106,-2.9952075592444065
1783160462791408896,3.2268500328063965,-0.8393269181251526,1.2896713018417358,-0.5794360041618347,0.08517400920391083,-0.2411738634109497,-0.9667370915412903,0.02429255098104477,0.08574783802032471,0.3781445622444153,-0.07606205253748989,-0.05214631963261284,0.11795009864490362,0.9887281064902067,0.2435752414224715,0.0878777158925179,-2.9987992079574814
1783160462801329152,3.2367701530456543,-0.46476319432258606,1.2736049890518188,-0.6466578245162964,0.09915228933095932,-0.23418456315994263,-0.9671227335929871,-0.12402411550283432,0.3158038258552551,0.23149651288986206,-0.07363329779987438,-0.05861674055372898,0.11402939885217303,0.9890093359771258,0.23637972715618408,0.10216600278717691,-3.005105662778484
1783160462811248896,3.246690034866333,0.32119420170783997,1.4725333452224731,-0.3403460681438446,0.11352411657571793,-0.2326459288597107,-0.9659131169319153,-0.12895074486732483,0.5545606017112732,0.10820132493972778,-0.07232439608336548,-0.06565836644332461,0.11283803141636913,0.9888001497725862,0.23479737820320976,0.11699364146575447,-3.009379401196224
1783160462821167872,3.2566089630126953,0.913250744342804,1.3902952671051025,-0.6136050224304199,0.12883691489696503,-0.23811845481395721,-0.9626529216766357,-0.23126916587352753,0.6255086064338684,-0.028207063674926758,-0.07054288632349368,-0.07342198122814517,0.11525080469840764,0.9881043875317145,0.2404281145271845,0.13304466908175241,-3.015144962205383
1783160462831088128,3.266529083251953,2.418018102645874,1.1471116542816162,-0.2865980863571167,0.14160382747650146,-0.2523832619190216,-0.9572100639343262,-0.12541425228118896,0.5330076217651367,-0.10100221633911133,-0.06827435831802037,-0.08020503972861527,0.12231979430079279,0.9868858704924077,0.2551424488482807,0.1468687181608153,-3.0223214439575177
1783160462841007872,3.276448965072632,2.957430124282837,0.8704132437705994,-0.06323955953121185,0.15137845277786255,-0.2794360816478729,-0.9481561183929443,0.01562899351119995,0.11964604258537292,-0.20839905738830566,-0.06703830489868369,-0.08612832451621552,0.13602884872927287,0.9846745686403687,0.28320675286954705,0.1583194604601783,-3.0282550020788785
1783160462850928128,3.2863690853118896,1.6370831727981567,0.7774502635002136,0.15730293095111847,0.15958769619464874,-0.3014552891254425,-0.940030038356781,-0.04113370180130005,-0.0885898768901825,0.1320924162864685,-0.06648391002830578,-0.09116367014509238,0.14722146120613486,0.9826469741313898,0.30621857000246455,0.1681653581735061,-3.0324932526431203
1783160462860847104,3.296288013458252,-0.37162086367607117,1.7639950513839722,-0.22365590929985046,0.17098619043827057,-0.30729737877845764,-0.9361261129379272,-0.09089280664920807,-0.37370237708091736,0.39916932582855225,-0.06737230197868341,-0.09738110823725059,0.14984617102068493,0.9815926097906519,0.312351671992356,0.18066143398850829,-3.0330584889828587
1783160462870767104,3.3062081336975098,-2.408313035964966,1.6798332929611206,-0.7880471348762512,0.1904536485671997,-0.2927311062812805,-0.9370356798171997,-0.3338710069656372,-0.4780055582523346,0.379006564617157,-0.0662731040202022,-0.1065579008917745,0.14187165065315993,0.9818990395142502,0.29708183279005135,0.2005197726259771,-3.036912509981861
1783160462880687104,3.3161280155181885,-2.584984540939331,1.3383877277374268,-0.3689518868923187,0.2047775238752365,-0.26755714416503906,-0.9415302872657776,-0.10869292914867401,-0.34811973571777344,0.06443989276885986,-0.06611229504927243,-0.11279561234834401,0.12849899645843593,0.9830535647633116,0.27085685095202533,0.2141590836386231,-3.0365827367967775
1783160462890607104,3.3260481357574463,-3.0703752040863037,1.3803402185440063,-0.8763114809989929,0.21979831159114838,-0.24087728559970856,-0.945339560508728,-0.03467869758605957,0.07934774458408356,-0.22468912601470947,-0.06551357344021633,-0.11929839017437212,0.11444705099372988,0.9840618510381968,0.24326964587832972,0.2284483839287518,-3.0366849245672536
1783160462900526080,3.3359670639038086,-3.6687724590301514,1.8737598657608032,-1.1827993392944336,0.23767438530921936,-0.2058669477701187,-0.9492785334587097,-0.032077446579933167,0.691691517829895,-0.12768679857254028,-0.06330736807956606,-0.12681162314629302,0.09633043903374494,0.9852063595637165,0.2073495437436141,0.24533035707325448,-3.0389066395616045
1783160462910445824,3.3458869457244873,-3.369978904724121,1.1102957725524902,-0.8720553517341614,0.2543798089027405,-0.16974550485610962,-0.9520910382270813,0.27525272965431213,0.6600714325904846,-0.2840996980667114,-0.06080043662761843,-0.1337841243259615,0.07782209087763856,0.9860775492627942,0.17057141531694345,0.2610817003767931,-3.040878219356573
1783160462920366080,3.355807065963745,-3.3598814010620117,0.6962290406227112,0.055026132613420486,0.2627233862876892,-0.13738523423671722,-0.9550401568412781,0.6073480248451233,0.12185178697109222,-0.4957960247993469,-0.061644724662370635,-0.13693698044813113,0.061058829063703156,0.9867725578030896,0.1378211356432929,0.2684512443875525,-3.0354527057577947
1783160462930285824,3.365726947784424,-4.671268463134766,0.7408652305603027,-0.0961785614490509,0.26932692527770996,-0.10018342733383179,-0.9578237533569336,0.60762619972229,-0.3587246537208557,-0.4111337661743164,-0.06459976437332028,-0.13912142426266386,0.04163372932497682,0.9872885491645762,0.10035177785793552,0.27410843027488624,-3.0247677438839706
1783160462940205056,3.3756461143493652,-6.605911731719971,0.5166223645210266,-0.8589190244674683,0.2756767272949219,-0.045188456773757935,-0.9601876735687256,0.5174903869628906,-0.40631911158561707,-0.13180756568908691,-0.06640530631855605,-0.1404483977018562,0.013432019836199644,0.9877672331147197,0.045203849141012525,0.27958692133387997,-3.0137010378938673
1783160462950125056,3.385565996170044,-7.980082035064697,0.8693183660507202,-1.338544249534607,0.28235119581222534,0.027762342244386673,-0.9589093327522278,0.28162887692451477,0.01694590412080288,-0.05978268384933472,-0.06598522211365605,-0.1413960029622081,-0.023505702436764638,0.9874717858037291,-0.027765910131668986,0.2863576325304752,-3.004143122473275
1783160462960045056,3.3954861164093018,-7.49818229675293,0.41041138768196106,-1.1760854721069336,0.28849655389785767,0.10617449879646301,-0.9515759348869324,0.16368240118026733,0.3684501349925995,-0.17116576433181763,-0.06524727536243963,-0.14215828023322302,-0.06326981617129034,0.9856625754806131,-0.10637500242172228,0.2943695256568363,-2.993607411227671
1783160462969965056,3.4054059982299805,-6.167568683624268,0.41029927134513855,-1.2884268760681152,0.28960391879081726,0.1736433357000351,-0.9412637948989868,-0.02172064781188965,0.4623124599456787,-0.6020405888557434,-0.06389114701205213,-0.14095188662534297,-0.0974713232107173,0.9831327043705659,-0.1745280085937619,0.29848368786990953,-2.985493271943929
1783160462979884032,3.415325164794922,-6.084171772003174,0.2222437560558319,-1.6877329349517822,0.29069313406944275,0.23402422666549683,-0.9277554154396057,-0.09509071707725525,0.7610777020454407,-0.4281405210494995,-0.06076464372788802,-0.14038452774473775,-0.12811893719683476,0.979890523826047,-0.23621480977245435,0.3036403814793743,-2.9814226705250615
1783160462989804032,3.4252450466156006,-5.879136562347412,-0.1566055417060852,-1.7895519733428955,0.2856668531894684,0.29409608244895935,-0.9120866060256958,0.2759786546230316,0.8733385801315308,-0.3459700345993042,-0.05627289252933549,-0.1371826967217172,-0.1585484511603661,0.9761540617614528,-0.2985096516926349,0.30352379385710726,-2.980437666235035
1783160462999724032,3.4351651668548584,-5.392049312591553,-0.01569199189543724,-1.30056893825531,0.27992188930511475,0.3489142060279846,-0.8943727612495422,0.42126524448394775,0.6466912627220154,-0.36273783445358276,-0.05264649572055041,-0.13390278789149465,-0.18677170283482925,0.9718100078331701,-0.3564122344921748,0.3033232313615756,-2.978308655598862
1783160463009644032,3.445085048675537,-4.882302284240723,0.47930312156677246,-1.0359293222427368,0.2772541344165802,0.3970237970352173,-0.8749299049377441,0.2664012312889099,0.3088630735874176,-0.31205129623413086,-0.050370289585222654,-0.13231610701969929,-0.21219686074708163,0.966916717547814,-0.4082718191445812,0.30687680994628336,-2.9734884238256525
1783160463019563008,3.4550039768218994,-4.703282833099365,0.7737670540809631,-1.3070636987686157,0.27795156836509705,0.4414435029029846,-0.8531532883644104,0.07702890038490295,0.09194272756576538,-0.2546042799949646,-0.047204954097591394,-0.13295865459717177,-0.23610452552382394,0.9614303598586099,-0.45720677654261316,0.31494919392204634,-2.9696164519358996
1783160463029483008,3.4649240970611572,-4.2894415855407715,0.9016762971878052,-1.5110636949539185,0.27861666679382324,0.48292165994644165,-0.8301562666893005,0.04390835762023926,0.11952584981918335,-0.22845274209976196,-0.0423287225041504,-0.13431715866530997,-0.2586131499689963,0.9556602439409713,-0.5039881693975329,0.32380672424995693,-2.969009032009981
1783160463039403008,3.474843978881836,-3.921035051345825,1.0039759874343872,-1.6191128492355347,0.2782496511936188,0.5206109881401062,-0.8071811199188232,0.16423997282981873,0.4258001446723938,-0.18572354316711426,-0.03637270101283812,-0.1357733899752876,-0.27924010954811446,0.9498776854007759,-0.5475664333809496,0.33196131107792204,-2.9710232783350237
1783160463049323008,3.4847640991210938,-3.47002911567688,0.8571116924285889,-1.598479151725769,0.2773994505405426,0.5541996955871582,-0.7848007678985596,0.3271995484828949,0.7109370231628418,-0.12695765495300293,-0.030031447362810874,-0.1374242499758377,-0.297849255505063,0.9441920018319776,-0.5874011680400012,0.339758147041978,-2.9743350221165197
1783160463059241984,3.494683027267456,-2.63079833984375,0.7493446469306946,-1.575790286064148,0.2747238576412201,0.5822737216949463,-0.7651693820953369,0.4704848527908325,0.8328263759613037,-0.17805266380310059,-0.023538589040028063,-0.1384031943416523,-0.31346430802889025,0.939164914507263,-0.621522637378543,0.34470251487744974,-2.979776359941641
