time,seconds_elapsed,rotationRateX,rotationRateY,rotationRateZ,gravityX,gravityY,gravityZ,accelerationX,accelerationY,accelerationZ,quaternionW,quaternionX,quaternionY,quaternionZ,pitch,roll,yaw
1782985420137642240,0.20714211463928223,0.005056754685938358,0.07654929906129837,0.037080615758895874,0.09192867577075958,0.689993679523468,-0.7179540395736694,0.00472046434879303,-0.11446267366409302,0.010297179222106934,-0.4313832176867394,0.12936487492328255,-0.3525446398887683,0.8202960983004327,-0.7614802896413201,0.12734962694307883,-2.122276057642246
1782985420147561984,0.21706199645996094,0.20309527218341827,0.0732075646519661,-0.004524353425949812,0.0932571217417717,0.6870601773262024,-0.7205910682678223,-0.026667773723602295,-0.05093652009963989,-0.008992671966552734,-0.43179816628261003,0.1279317863037641,-0.35119500135451065,0.8208811970623832,-0.7574352631439374,0.12870217779026788,-2.1218299678894774
1782985420157482240,0.22698211669921875,0.5407310724258423,0.05178753659129143,-0.08699845522642136,0.09374896436929703,0.6823321580886841,-0.7250062227249146,-0.03471273183822632,0.004633784294128418,-0.0018461942672729492,-0.4320992686446954,0.12624145036171355,-0.3486545247336802,0.8220666101542046,-0.7509480938412909,0.128594256439762,-2.1229706399066277
1782985420167401984,0.23690199851989746,0.9434199333190918,0.021432293578982353,-0.23011885583400726,0.09292998164892197,0.6752510666847229,-0.7317103147506714,-0.04356781393289566,0.0494040846824646,0.024434924125671387,-0.43210805919743167,0.12426905320133953,-0.3445316175275667,0.8240981586318141,-0.7413050316231214,0.1263274622716528,-2.1265847560333113
1782985420177321216,0.24682116508483887,1.4143421649932861,0.008315007202327251,-0.3777729272842407,0.0906638354063034,0.6655755043029785,-0.740803062915802,-0.061336442828178406,0.09017699956893921,0.05894893407821655,-0.4316983733629589,0.1219798724616927,-0.33870247173427576,0.8270658638994387,-0.7282646991658599,0.12178026456138061,-2.1330019510828957
1782985420187240960,0.2567410469055176,2.059211015701294,0.05273813009262085,-0.5644101500511169,0.08707292377948761,0.6526210904121399,-0.7526646256446838,-0.0882478579878807,0.10989111661911011,0.09356129169464111,-0.4307389710452852,0.1190983058128253,-0.33088256238303776,0.8311415774813556,-0.7110386252839165,0.11517422852276853,-2.142506921075604
1782985420197161216,0.2666611671447754,2.9267189502716064,0.10266372561454773,-0.7172593474388123,0.08234678208827972,0.6346551775932312,-0.7683956027030945,-0.11155210435390472,0.1584051251411438,0.13012045621871948,-0.42917857748751825,0.1150669926003453,-0.3202526775089181,0.8366621456660641,-0.6875622154225808,0.1067597086175799,-2.1554095207397115
1782985420207080960,0.2765810489654541,3.6302006244659424,0.047478772699832916,-1.0107378959655762,0.07603633403778076,0.6110013127326965,-0.7879694700241089,-0.10714899748563766,0.24841946363449097,0.1775110960006714,-0.427026645950972,0.11005269648327994,-0.30643707069539705,0.8435834041092944,-0.6573248617290638,0.09619869883517573,-2.171564007299495
1782985420217001216,0.2865011692047119,3.9483535289764404,0.05001500993967056,-1.3991272449493408,0.06695739924907684,0.5844003558158875,-0.8086983561515808,-0.17086976766586304,0.29429227113723755,0.3417641520500183,-0.4232814474693055,0.10523946949696891,-0.29081864068033486,0.8515762718788564,-0.6241408740126531,0.0826080866638965,-2.1923489480430165
1782985420226920960,0.2964210510253906,4.0774970054626465,0.06869255751371384,-1.4675747156143188,0.05693358555436134,0.5562678575515747,-0.8290504813194275,-0.18234556913375854,0.274679958820343,0.519953191280365,-0.41849630960773804,0.10051129566991522,-0.2745400760975569,0.8598756577554001,-0.5898878984182858,0.06856559429494076,-2.2148622648523775
1782985420236840192,0.30634021759033203,3.783506155014038,0.11265069246292114,-1.9187449216842651,0.04681967571377754,0.5275195837020874,-0.8482517600059509,-0.17743490636348724,0.2413097620010376,0.6333469748497009,-0.4127663496162122,0.09581706379294554,-0.2582502955374324,0.8681876755061458,-0.5556781828328954,0.055139546054366696,-2.2382567896058108
1782985420246760192,0.31626009941101074,3.9388246536254883,0.5033835768699646,-1.7763044834136963,0.03819749504327774,0.49982333183288574,-0.8652846813201904,-0.27962204813957214,0.12041592597961426,0.7690627574920654,-0.39647752071773856,0.08820754870068774,-0.2440841771097688,0.8805951821393295,-0.5233947765434632,0.04411578217639177,-2.283671008401491
1782985420256680192,0.32618021965026855,4.76672887802124,0.37558940052986145,-1.4491684436798096,0.03360428661108017,0.4649636745452881,-0.8846917748451233,-0.009235996752977371,0.13904023170471191,0.5469079613685608,-0.39058342621882475,0.08051339918257333,-0.2262116548380129,0.8887015153925537,-0.4835935859792183,0.037965923033140864,-2.3040541809341963
1782985420266600192,0.33610010147094727,5.503692626953125,0.12975671887397766,-1.6535636186599731,0.028061268851161003,0.4224618077278137,-0.9059461951255798,0.030028952285647392,0.5060965418815613,0.5729842185974121,-0.38520638972433435,0.07217641231109523,-0.2044931636073019,0.8969888737604506,-0.4361597005628595,0.030964641406768263,-2.323472887707509
1782985420276520192,0.3460202217102051,6.410800933837891,0.03456472232937813,-1.8326687812805176,0.021067224442958832,0.37149423360824585,-0.9281961917877197,-0.05242403596639633,0.6243401169776917,0.5198862552642822,-0.37909738320818637,0.06314235595280115,-0.17864751989181984,0.9057500999161845,-0.3806179014650483,0.02269305498764428,-2.3444394082052846
1782985420286440192,0.3559401035308838,6.868063926696777,-0.07580067217350006,-1.9030358791351318,0.013774890452623367,0.3130910396575928,-0.9496232271194458,-0.07770921289920807,0.5324442386627197,0.5139237642288208,-0.3723990621081229,0.05334314716313987,-0.14947542995598442,0.9144017084410605,-0.31844598256968865,0.014504620252645845,-2.3657651427153037
1782985420296359168,0.3658590316772461,6.997252941131592,-0.21016696095466614,-2.026916742324829,0.006115186959505081,0.25095510482788086,-0.9679794311523438,-0.04211067408323288,0.35747385025024414,0.5799026489257812,-0.3650803088325286,0.043688713008851236,-0.11875010650313567,0.922337359252703,-0.2536668008514694,0.006317391962103516,-2.3869902962283374
1782985420306279168,0.3757791519165039,7.0312089920043945,-0.26976504921913147,-2.1867527961730957,-0.0015883427113294601,0.18670013546943665,-0.9824156761169434,-0.01794290356338024,0.18620941042900085,0.5595946311950684,-0.35676970828987603,0.03434460667082052,-0.08725031410384476,0.9294746263460624,-0.18780214414358268,-0.00161677115012271,-2.4087481294490853
1782985420316199168,0.3856990337371826,6.893099784851074,-0.24560563266277313,-2.2961442470550537,-0.008299059234559536,0.12150376290082932,-0.9925562739372253,-0.002580455504357815,0.1304340958595276,0.5250269770622253,-0.3474383513546311,0.025083674502729247,-0.0556117925994587,0.9357161469632752,-0.12180473275308434,-0.00836110380264362,-2.431043645330974
1782985420326119168,0.39561915397644043,6.787735462188721,-0.18543392419815063,-2.3485586643218994,-0.013178595341742039,0.05691516026854515,-0.9982920289039612,-0.005513422191143036,0.21401989459991455,0.5428476929664612,-0.3373166177393151,0.01581283523745376,-0.02457511234516061,0.9409376267807876,-0.056945932735222776,-0.013200376067598439,-2.4535325263433165
1782985420336039168,0.40553903579711914,7.057638645172119,-0.134614035487175,-2.303568124771118,-0.015956483781337738,-0.009157836437225342,-0.9998307228088379,-0.009846126660704613,0.31332653760910034,0.48727279901504517,-0.3267847314830645,0.006044060446169752,0.0069350789665604375,0.9450541154027687,0.009157964506014428,-0.015957830651818695,-2.4756914388946365
1782985420345959168,0.41545915603637695,7.233273506164551,-0.18843519687652588,-2.1906521320343018,-0.017178747802972794,-0.07793399691581726,-0.9968104958534241,0.034054968506097794,0.38494083285331726,0.3743739724159241,-0.3162683469265304,-0.004189452524623929,0.03971392640514385,0.9478288805790596,0.07801310305462884,-0.01723200852044952,-2.496801156006142
1782985420355879168,0.42537903785705566,7.150594234466553,-0.4349585175514221,-2.0754358768463135,-0.01836434006690979,-0.14685626327991486,-0.9889873266220093,0.1416858732700348,0.34770771861076355,0.30035823583602905,-0.3058586958667932,-0.013819185986571742,0.07290646158764062,0.9491807520277636,0.14738931516058437,-0.018566698018235347,-2.51676487612403
1782985420365798144,0.43529820442199707,6.813601970672607,-0.6691310405731201,-1.904751181602478,-0.020860716700553894,-0.21323995292186737,-0.9767771363258362,0.3051472008228302,0.11323384940624237,0.19023233652114868,-0.29569729705701203,-0.021880973328972087,0.10551142554567028,0.9491846979677417,0.21488999069728495,-0.02135343399952679,-2.5352917322280524
1782985420375718144,0.4452180862426758,6.182735443115234,-0.7624559998512268,-1.8929649591445923,-0.023669641464948654,-0.27423882484436035,-0.9613702893257141,0.39274922013282776,-0.19832587242126465,0.12477666139602661,-0.2856556602013163,-0.028497570253422352,0.13602481250630233,0.9482014209620887,0.27779809285663104,-0.02461576108431181,-2.5529255100362467
1782985420385638144,0.4551382064819336,5.370486736297607,-0.7712228298187256,-1.9668418169021606,-0.025490524247288704,-0.3274451494216919,-0.9445262551307678,0.34511637687683105,-0.3810509145259857,0.0733410120010376,-0.2751741898558557,-0.03392524266114326,0.1630519463537264,0.9468591170372013,0.33359838344168563,-0.02698107881661028,-2.571395136749424
1782985420395558144,0.4650580883026123,4.64776086807251,-0.7892661094665527,-1.927717685699463,-0.026249166578054428,-0.37267768383026123,-0.9275895357131958,0.22134804725646973,-0.30047905445098877,0.0129166841506958,-0.26452086894193655,-0.03826772730136983,0.18638888345149957,0.9454223978286898,0.3818929022242505,-0.028290705769151603,-2.590493539377859
1782985420405478144,0.4749782085418701,4.363834857940674,-0.723040759563446,-1.8386855125427246,-0.026018137112259865,-0.4124162793159485,-0.9106239080429077,0.08949469029903412,-0.08187693357467651,-0.057164788246154785,-0.2369914118869715,-0.03824292818663872,0.20790752429417758,0.9482335975784021,0.42510483754493317,-0.028563999704786035,-2.64560341658365
1782985420415398144,0.48489809036254883,4.5348429679870605,-0.6562985181808472,-1.725685477256775,-0.0247057918459177,-0.45098087191581726,-0.8921915888786316,0.033235445618629456,0.01772281527519226,-0.10768634080886841,-0.22706511771859664,-0.041769185190674935,0.22838461831092474,0.9457997337868381,0.4678640095072633,-0.027684053581983472,-2.663758957884986
1782985420425317120,0.49481701850891113,4.862616539001465,-0.6489647030830383,-1.666123867034912,-0.022717967629432678,-0.49104949831962585,-0.8708354234695435,0.09777596592903137,-0.018670350313186646,-0.08927810192108154,-0.21744933150739412,-0.045631360784680754,0.250000138379048,0.9424084305933357,0.5132940921628422,-0.026081640312088976,-2.6812094693105166
1782985420435237120,0.504737138748169,5.074419975280762,-0.6622708439826965,-1.6785989999771118,-0.020025061443448067,-0.5324142575263977,-0.8462470173835754,0.1935327649116516,-0.06701195240020752,-0.06403124332427979,-0.20770973274380145,-0.04972393154668527,0.27277098664649563,0.9380726124879575,0.5614501348896098,-0.023658959329413014,-2.698958434138543
1782985420445157120,0.5146570205688477,4.827422142028809,-0.6693325042724609,-1.6521250009536743,-0.01655365712940693,-0.5727739930152893,-0.8195461630821228,0.2514932155609131,-0.05059331655502319,-0.0374179482460022,-0.19782425059019842,-0.05378412916695056,0.29552358827469977,0.9330801536078379,0.609885980325113,-0.02019582064734409,-2.717398588317894
1782985420455077120,0.5245771408081055,4.176727294921875,-0.6405012607574463,-1.5833284854888916,-0.012454885989427567,-0.607827365398407,-0.7939715385437012,0.26572027802467346,-0.03307229280471802,0.12754392623901367,-0.1784696732838847,-0.05401096341166597,0.3163811708671821,0.9301260001321665,0.653321612135166,-0.015685529722411294,-2.7571327331607702
1782985420464997120,0.5344970226287842,3.2435526847839355,-0.6816367506980896,-1.4949339628219604,-0.0081138601526618,-0.6361005902290344,-0.7715635299682617,0.2610130310058594,-0.19327563047409058,0.24914836883544922,-0.16290346866395986,-0.05424688184591556,0.33357983666197083,0.9269543398532988,0.689434012901669,-0.010515738974510988,-2.789888722300049
1782985420474917120,0.544417142868042,2.1000969409942627,-0.6481503248214722,-1.3930562734603882,-0.003793715965002775,-0.6552193760871887,-0.7554291486740112,0.27216529846191406,-0.3516470789909363,0.36344611644744873,-0.14943770812788415,-0.05377931590044993,0.3455332208432223,0.9248692326390275,0.7144730178907501,-0.005021892556838624,-2.8193330110252286
1782985420484836096,0.5543360710144043,1.0713733434677124,-0.6420844793319702,-1.2415660619735718,0.0005498462705872953,-0.6667134165763855,-0.7453139424324036,0.257140576839447,-0.5414469242095947,0.32908469438552856,-0.13834216109473263,-0.053138040528814545,0.35287303520016233,0.9238605887712625,0.729790414822799,0.0007377376513726284,-2.844596203658616
1782985420494756096,0.5642561912536621,1.8883826732635498,0.02024596929550171,-2.3069913387298584,0.01152771059423685,-0.673062801361084,-0.7394955158233643,0.10240967571735382,-0.6197991371154785,0.06618618965148926,-0.12718139254943267,-0.055332935919479784,0.35663778039138877,0.9238899724454513,0.73834223440624,0.015587351457076482,-2.8740260510443347
1782985420504676096,0.5741760730743408,3.429476022720337,-1.0265710353851318,-1.2049777507781982,0.018457787111401558,-0.6935590505599976,-0.7201632857322693,0.1614890992641449,-0.8676134347915649,0.06267732381820679,-0.11352595111385914,-0.0556494138137872,0.3698939110494855,0.9204311103697606,0.7664177357629146,0.025624393786977142,-2.9064829278298006
1782985420514596096,0.5840961933135986,3.378596782684326,-0.5059465765953064,-0.8269953727722168,0.019554495811462402,-0.7168609499931335,-0.6969419121742249,0.4039074182510376,-0.5122497081756592,0.5312314629554749,-0.10481180818671895,-0.05482252535278421,0.385387527200206,0.915142298188033,0.7992895730524363,0.028050211902365518,-2.925373504128781
1782985420524516096,0.5940160751342773,3.5311167240142822,-0.40956705808639526,-0.8193981647491455,0.022861192002892494,-0.7401749491691589,-0.6720256209373474,-0.08829087764024734,-0.11114341020584106,0.3734263777732849,-0.09818195737890197,-0.05589256824414387,0.4010775668887541,0.9090506651789095,0.8333304902119394,0.03400522025302759,-2.9414680304966185
1782985420534436352,0.6039361953735352,3.5847175121307373,-0.2873663604259491,-0.7196916341781616,0.02641603909432888,-0.7632235884666443,-0.6455942392349243,0.04594113677740097,-0.19429588317871094,0.3217875361442566,-0.09156184591125555,-0.056952848644629975,0.41708421733097284,0.9024486330358614,0.868287543550683,0.04089458884975096,-2.9583286589685134
1782985420544356096,0.6138560771942139,3.5224149227142334,-0.24535340070724487,-0.9068724513053894,0.031221698969602585,-0.785317599773407,-0.6183052659034729,0.15945211052894592,-0.19541049003601074,0.2658578157424927,-0.08578700719665529,-0.058905371275432675,0.4328712561981961,0.8954290258451567,0.9032089776392725,0.05045275388568466,-2.9750400637825103
1782985420554275072,0.6237750053405762,3.642241954803467,-0.2251509428024292,-1.0868996381759644,0.03757014125585556,-0.8065719604492188,-0.5899409055709839,0.18476569652557373,-0.06484222412109375,0.2415827512741089,-0.07892855534098711,-0.06102616400959773,0.4486706597381182,0.8881108311079295,0.9383298819088509,0.0635986973930771,-2.9965608550768867
1782985420564195072,0.633695125579834,3.818664073944092,-0.18289482593536377,-1.2845903635025024,0.045995209366083145,-0.8275595307350159,-0.5594905018806458,0.16036465764045715,0.08113008737564087,0.22987020015716553,-0.07120710506015612,-0.06374587432516092,0.46496365422570396,0.8801560975291783,0.9747463283876892,0.0820246408010235,-3.023630789159715
1782985420574115072,0.6436150074005127,4.10023832321167,-0.15849414467811584,-1.5531160831451416,0.05684987083077431,-0.8482796549797058,-0.5264880657196045,0.0820203572511673,0.15699553489685059,0.25443917512893677,-0.06268518695502423,-0.0672869918515881,0.4819008620336013,0.8713865728173859,1.0127281297791888,0.1075626638979911,-3.057659040466294
1782985420584035072,0.6535351276397705,4.433630466461182,-0.05174638703465462,-1.7592284679412842,0.07056550681591034,-0.8689422607421875,-0.4898567795753479,0.011801399290561676,0.16616833209991455,0.24789822101593018,-0.052619945513308786,-0.07149342554267167,0.4999602998709436,0.8614867312154758,1.0530611309731035,0.14306913613930605,-3.102838728189486
1782985420593955072,0.6634550094604492,4.605851650238037,0.017329692840576172,-1.851789116859436,0.0863833799958229,-0.8888385891914368,-0.45000430941581726,-0.028079546988010406,0.17016488313674927,0.2814556956291199,-0.042734462573161436,-0.07685787527767893,0.5187395366979652,0.8503975229816817,1.09480430443166,0.1896541603336653,3.1261936174456655
1782985420603875072,0.673375129699707,4.587287902832031,0.12652967870235443,-1.9186091423034668,0.10361847281455994,-0.9068678617477417,-0.40847763419151306,-0.07358916103839874,0.1509016752243042,0.3336179852485657,-0.03279206720791888,-0.0828037100689402,0.5374985853367971,0.8385485031610564,1.1357911910285148,0.24842968043729513,3.060780864512007
1782985420613794048,0.6832940578460693,4.435855865478516,0.21901214122772217,-1.886904001235962,0.12177281826734543,-0.9222553968429565,-0.36690083146095276,-0.06520852446556091,0.1342611312866211,0.32751789689064026,-0.02287949329725113,-0.08905771791876019,0.5555342543419081,0.826393866211571,1.173874670243553,0.3204561545035555,2.9827849301333664
1782985420623713280,0.6932132244110107,4.143376350402832,0.28411391377449036,-1.8454129695892334,0.13987258076667786,-0.9347890019416809,-0.32650482654571533,-0.027003273367881775,0.13597601652145386,0.33309659361839294,-0.013658951309464868,-0.09548767274628613,0.5723894525810732,0.814288675059808,1.207664632489386,0.40474153907218186,2.8939492848159447
1782985420633633280,0.7031333446502686,3.782048463821411,0.38414669036865234,-1.8294991254806519,0.1582956612110138,-0.9443044066429138,-0.28849896788597107,-0.0461282879114151,0.16821187734603882,0.29531967639923096,-0.005201762328614174,-0.10241810771234239,0.5875891769897331,0.8026346976938793,1.235474433731521,0.5018346310984788,2.7942737265814444
1782985420643553280,0.7130532264709473,3.1190779209136963,0.32002681493759155,-1.846359133720398,0.1764916330575943,-0.9507454037666321,-0.2548210322856903,-0.006951257586479187,0.18318259716033936,0.24478080868721008,0.0030901819322977915,-0.10906627908348737,0.6005780799448078,0.7920864126154763,1.2556318369489508,0.605749075988172,2.6877424222337485
1782985420653473280,0.7229733467102051,2.512171506881714,0.29453566670417786,-1.8588440418243408,0.1948971450328827,-0.9541202783584595,-0.22730983793735504,-0.029842793941497803,0.20878946781158447,0.23524439334869385,0.011113098908735594,-0.1157460496012085,0.6106946313986364,0.7832825371289515,1.266707868459046,0.7087787558179491,2.582654835683544
1782985420663393280,0.7328932285308838,2.152440309524536,0.2897483706474304,-1.9126737117767334,0.21347199380397797,-0.9553983807563782,-0.2040674090385437,-0.06524814665317535,0.22595202922821045,0.1134149581193924,0.01946619755255115,-0.12207339187177761,0.6189219506787474,0.7756640434163367,1.2710058825905204,0.8079181780166143,2.480560275320418
1782985420673312256,0.7428121566772461,2.1161649227142334,0.30181488394737244,-1.6704522371292114,0.23106881976127625,-0.9555569291114807,-0.18307940661907196,-0.17555737495422363,0.323034405708313,0.07400961220264435,0.026858626073396927,-0.12843215547379322,0.6260714619604829,0.7686470186670541,1.271543078432999,0.9007586511459317,2.3862314335340655
1782985420683232256,0.7527322769165039,2.760530471801758,0.2137337476015091,-1.586641550064087,0.24703609943389893,-0.9558441638946533,-0.15916991233825684,-0.18366636335849762,0.3434326648712158,0.003041982650756836,0.03411998639504347,-0.1339470556726216,0.6344077781010908,0.760539799696645,1.2725191001978413,0.9984255533999172,2.286050157651627
1782985420693152256,0.7626521587371826,3.743574380874634,0.08563095331192017,-1.4391034841537476,0.2617327570915222,-0.956684410572052,-0.12747962772846222,-0.21914544701576233,0.319233238697052,-0.08490747213363647,0.04168284616546162,-0.13865915187077216,0.645781560364193,0.7496682181408187,1.2753916459815868,1.117553953538806,2.1628053944135046
1782985420703072256,0.7725722789764404,4.578602313995361,-0.056626323610544205,-1.3801581859588623,0.2750907242298126,-0.95744788646698,-0.08728501945734024,-0.23460915684700012,0.3109177350997925,-0.10680681467056274,0.04968450046743595,-0.1423719363829266,0.6603693837015483,0.7356452853463525,1.2780255566267396,1.2635487015169362,2.010638145669681
1782985420712992256,0.7824921607971191,5.014766216278076,-0.1477019041776657,-1.3912732601165771,0.2882528007030487,-0.9566586017608643,-0.041410259902477264,-0.2870778441429138,0.2755519151687622,-0.06376856565475464,0.0582294281364787,-0.1455900002960924,0.6768296848563079,0.7192458131510682,1.275302976099632,1.4281130341720856,1.8384688066027144
1782985420722912256,0.792412281036377,5.0357489585876465,-0.2414771318435669,-1.3946304321289062,0.3014763593673706,-0.9534534215927124,0.006222888827323914,-0.2874687612056732,0.1727222204208374,0.006243586540222168,0.067316540963213,-0.14827994136286604,0.6936313886495965,0.7016816322669,1.2644885629469553,1.5914347782449718,1.6660789027051905
1782985420732831232,0.8023312091827393,4.69898796081543,-0.33528435230255127,-1.389519214630127,0.31467604637145996,-0.9477751851081848,0.051973458379507065,-0.24888014793395996,0.040579140186309814,0.04977214336395264,0.07651438007364927,-0.15061774750382315,0.7094371176129028,0.6842213611987232,1.2461864166866654,1.7344835397884726,1.5133530361128769
1782985420742751232,0.8122513294219971,4.050907611846924,-0.4446859359741211,-1.4571694135665894,0.3283497393131256,-0.9400604367256165,0.09204884618520737,-0.20878180861473083,-0.04712224006652832,0.1020735576748848,0.08585734288409547,-0.15278345614871874,0.7229672449420317,0.6682845128896816,1.2228075692345244,1.8441182526151056,1.393610759349248
1782985420752671232,0.8221712112426758,3.375230550765991,-0.46749016642570496,-1.4344522953033447,0.3423156440258026,-0.9311803579330444,0.12539313733577728,-0.20150747895240784,-0.09021258354187012,0.08206535875797272,0.09487723741594332,-0.15513238304493535,0.7339145131147503,0.6544477473535697,1.1976372814249048,1.9219253874249311,1.3064137417723825
1782985420762591488,0.8320913314819336,2.6361796855926514,-0.47264739871025085,-1.4750940799713135,0.35634174942970276,-0.9219433069229126,0.15179407596588135,-0.21925672888755798,-0.05817461013793945,0.049667730927467346,0.1034685528764815,-0.15765187179179446,0.7423226534526401,0.642959836074883,1.1730680857223934,1.9734958299467817,1.2462846833384467
1782985420772511232,0.8420112133026123,2.1470181941986084,-0.44518232345581055,-1.4228098392486572,0.37042948603630066,-0.9128044843673706,0.1719597578048706,-0.26216837763786316,0.040215373039245605,0.027899861335754395,0.1116640336695104,-0.16038664336658856,0.7485025065092042,0.6336807923583376,1.1500992636644358,2.0054102099239155,1.2066545658831287
1782985420782431488,0.8519313335418701,1.9949522018432617,-0.4638444185256958,-1.260103464126587,0.3832102119922638,-0.9040742516517639,0.18920785188674927,-0.2686472535133362,0.07707846164703369,-0.021910563111305237,0.11902493995733046,-0.16290751794875435,0.7537009132832355,0.6254830847470897,1.1292085572511608,2.0294268583274113,1.1757796956753008
1782985420792350208,0.8618502616882324,1.9032459259033203,-0.5988238453865051,-1.2817821502685547,0.395533949136734,-0.8952906131744385,0.20495757460594177,-0.2834581434726715,0.009624719619750977,0.01405179500579834,0.1263049336912494,-0.16508112312675438,0.7584372180723161,0.6177121443304384,1.1090831918722308,2.04888152860313,1.1490509237299158
1782985420802270208,0.8717701435089111,1.6485204696655273,-0.7074557542800903,-1.2659968137741089,0.4082484841346741,-0.8863341808319092,0.21850696206092834,-0.2909388244152069,-0.09338700771331787,0.006865411996841431,0.1339775919281263,-0.16700804580039152,0.7624708487147698,0.610570782119512,1.0893674096076262,2.062229380307421,1.127467425083666
1782985420812190208,0.881690263748169,1.4026598930358887,-0.7782653570175171,-1.1835036277770996,0.4206141531467438,-0.8778350353240967,0.22910621762275696,-0.2814539074897766,-0.13902604579925537,-0.011790603399276733,0.14155506446074773,-0.16862940796049636,0.7655829367805093,0.6044908323755527,1.0713232071903178,2.0695571094450855,1.111553280418253
1782985420822110208,0.8916101455688477,1.163771390914917,-0.831485390663147,-1.1736185550689697,0.4325437545776367,-0.8698687553405762,0.23713816702365875,-0.25876131653785706,-0.04071485996246338,-0.10743841528892517,0.14888484587716563,-0.17008404596218812,0.7678805243244875,0.599386635769641,1.0549362331598249,2.072287954848647,1.1003122345271257
1782985420832030208,0.9015302658081055,0.909436821937561,-0.8261017799377441,-1.2962322235107422,0.44520828127861023,-0.8619303703308105,0.24262242019176483,-0.28509780764579773,0.15477705001831055,-0.18250274658203125,0.1562996045795415,-0.17199765615129062,0.7692385974202736,0.5951967996656901,1.0390646785838418,2.069764800295154,1.094837199551907
1782985420841950208,0.9114501476287842,0.9464560747146606,-0.9117719531059265,-1.341330885887146,0.4583838880062103,-0.8537906408309937,0.24683138728141785,-0.2661231458187103,0.35098302364349365,-0.22330236434936523,0.16392744821443764,-0.17408091631931702,0.7701373453243721,0.5913645906838294,1.0232234406810576,2.0647534296367835,1.0917539904048401
1782985420851870208,0.921370267868042,1.0607110261917114,-0.9485230445861816,-1.4932788610458374,0.4725952744483948,-0.8447145223617554,0.2512190043926239,-0.22270211577415466,0.42698997259140015,-0.3006880581378937,0.17231126460351057,-0.17616907941815746,0.7710862226980281,0.5871109684660556,1.0060315592672926,2.059382352517427,1.0878909694694225
1782985420861789184,0.9312891960144043,1.2247161865234375,-0.9319629669189453,-1.497538685798645,0.4874528646469116,-0.8346409797668457,0.25644469261169434,-0.2267717719078064,0.44247496128082275,-0.2697046101093292,0.18110478336570715,-0.17839523695173887,0.7722677589661713,0.582218705560834,0.9874806924414922,2.0550984403899237,1.0824931013481902
1782985420871709440,0.9412093162536621,1.1689635515213013,-0.9398823976516724,-1.580203652381897,0.5025068521499634,-0.8238446712493896,0.262234628200531,-0.18835890293121338,0.34090399742126465,-0.23684394359588623,0.1899826249818066,-0.18077488816934972,0.7735875885909664,0.576878975884623,0.9681608640096789,2.051772981627563,1.0761837165008898
1782985420881629184,0.9511291980743408,0.7879117727279663,-0.9421841502189636,-1.6229201555252075,0.5180277824401855,-0.8131208419799805,0.2654843330383301,-0.11060285568237305,0.22045421600341797,-0.10734224319458008,0.19875357953479925,-0.18373960634232445,0.7739392247588226,0.5724988478665025,0.9494935722924951,2.044386336276124,1.07490572745866
1782985420891549440,0.9610493183135986,0.6631520390510559,-0.9290223717689514,-1.5938760042190552,0.5332940816879272,-0.8028904795646667,0.2663908004760742,-0.023620128631591797,0.0933569073677063,-0.0782042145729065,0.20712152517522614,-0.18704237616715308,0.7734407188096782,0.5691266907992697,0.9321283247391996,2.034059476754825,1.0776235764704472
1782985420901469184,0.9709692001342773,0.6837409138679504,-0.9532230496406555,-1.5446703433990479,0.5481355786323547,-0.7927021384239197,0.2667783796787262,0.045019328594207764,0.04706615209579468,-0.09639883041381836,0.21539454118975335,-0.1901651772640399,0.772804239120756,0.5658763066986306,0.9152288801219766,2.0237486067926898,1.080155595867877
1782985420911389440,0.9808893203735352,0.8049836158752441,-0.9951096773147583,-1.579556941986084,0.5629744529724121,-0.7821157574653625,0.2671230733394623,0.09014749526977539,0.08332425355911255,-0.06286895275115967,0.22400221782933624,-0.19294511439715134,0.7722264731941588,0.5623713022440441,0.8980539573604566,2.013824591437537,1.081234994561323
1782985420921308160,0.9908082485198975,1.1729062795639038,-0.8725649118423462,-1.4421412944793701,0.5771958827972412,-0.7708091735839844,0.2696254849433899,0.07565128803253174,0.10337454080581665,-0.09001436829566956,0.2324561390179845,-0.19549697660693205,0.7723947658996168,0.5578093972114825,0.8801103326912266,2.007803834277299,1.0782337369515225
1782985420931228160,1.0007281303405762,1.4051586389541626,-0.8198221325874329,-1.447853684425354,0.5902015566825867,-0.7589349150657654,0.2751002013683319,0.0772484540939331,0.11417478322982788,-0.0915369987487793,0.2405307244923483,-0.1975248844828151,0.7736498082925396,0.5519012011804912,0.861675887340827,2.006968182049078,1.0697599272097154
1782985420941148160,1.010648250579834,1.2558379173278809,-0.9341665506362915,-1.4568977355957031,0.603447675704956,-0.7466018795967102,0.2800652086734772,0.08908766508102417,0.16664588451385498,0.022486060857772827,0.24886879923073954,-0.19950409756195564,0.7747455796169775,0.5459228271874036,0.842939495380902,2.0053207381802127,1.061549582498226
1782985420951068160,1.0205681324005127,0.9880250096321106,-0.8597224354743958,-1.4135403633117676,0.6166173815727234,-0.7346441149711609,0.282986044883728,0.12071782350540161,0.1534063220024109,0.09244132041931152,0.25717794794390836,-0.20149743811574905,0.7751721082930686,0.540709266417178,0.8251419392936524,2.0010539943649315,1.0559607095132015
1782985420960988160,1.0304882526397705,0.7254195213317871,-0.641985297203064,-1.205275058746338,0.6280499696731567,-0.7242757678031921,0.2845665216445923,0.09329408407211304,0.08816730976104736,0.1962379515171051,0.26404399896855735,-0.20379934153390789,0.7750800489098892,0.5366540808667134,0.8099834400919531,1.9962213483261468,1.0535810575983175
1782985420970908160,1.0404081344604492,0.5230430364608765,-0.6308185458183289,-1.0804405212402344,0.6379901170730591,-0.7152249813079834,0.2853454351425171,0.17544066905975342,0.03607147932052612,0.2289825975894928,0.2698964458987209,-0.20604068872441506,0.7747386377844953,0.533369729181856,0.7969459557728017,1.9913666849268863,1.0526729319814394
1782985420980827392,1.0503273010253906,0.5161771774291992,-0.5942240953445435,-0.9330344796180725,0.6468645334243774,-0.7073162198066711,0.28507980704307556,0.2849745750427246,0.002222776412963867,0.259048730134964,0.27547835600205056,-0.20757231447934146,0.7742439121023175,0.5306335261349333,0.7856943623404816,1.9858980551662346,1.0517084813531954
1782985420990747136,1.0602471828460693,0.4528368413448334,-0.42390063405036926,-0.6896162033081055,0.6540098786354065,-0.7004774808883667,0.2856612801551819,0.29844367504119873,-0.0753403902053833,0.1771988868713379,0.27977936907872775,-0.20915216700172284,0.7740064635717743,0.5281030975124091,0.7760663484808714,1.9826059114146033,1.0506117718847738
1782985421000667392,1.0701673030853271,0.17217405140399933,-0.40944337844848633,-0.5506649613380432,0.6592466235160828,-0.6956615447998047,0.28539273142814636,0.35390645265579224,-0.03233528137207031,0.13138580322265625,0.28295823874470943,-0.21028718335785013,0.7736120902054727,0.5265342377494079,0.7693403569074122,1.9793454846912817,1.0505744119508549
1782985421010587136,1.0800871849060059,-0.3411695063114166,-0.4071454703807831,-0.5637195110321045,0.6642385125160217,-0.6921408772468567,0.2823624610900879,0.31867170333862305,-0.016752004623413086,0.0453353226184845,0.2856629598775332,-0.21182131016430186,0.7722130256885105,0.5265126715424844,0.7644510362357301,1.9727448530210152,1.0552564525852866
1782985421020507392,1.0900073051452637,-0.9130987524986267,-0.4277450144290924,-0.42071443796157837,0.6689327955245972,-0.6903938055038452,0.27547264099121094,0.29899317026138306,-0.06401592493057251,-0.034536391496658325,0.28772103590324444,-0.21392771882726283,0.7693966777718558,0.5286589217823248,0.7620332964055093,1.9614413457724431,1.0665752344985133
1782985421030427136,1.0999271869659424,-1.1053242683410645,-0.502739667892456,-0.34886935353279114,0.6728115081787109,-0.6905175447463989,0.2655375003814697,0.3623751997947693,-0.1250188946723938,-0.10817363858222961,0.2892061232603086,-0.21592961525134127,0.7655998676001038,0.5325326599254523,0.7622043109124019,1.9466981669480408,1.0821188289513601
1782985421040346112,1.1098461151123047,-1.1691392660140991,-0.5263877511024475,-0.29136529564857483,0.6764503717422485,-0.691146969795227,0.25442299246788025,0.35170215368270874,-0.16561883687973022,-0.14463600516319275,0.29064303430925376,-0.21774128294728556,0.76144614239884,0.5369499436743665,0.7630748574287005,1.9305439860424476,1.0988716387326785
1782985421050266368,1.1197662353515625,-0.9574474692344666,-0.5558709502220154,-0.2350730001926422,0.6795584559440613,-0.6920236945152283,0.24352282285690308,0.32678914070129395,-0.14676713943481445,-0.10105147957801819,0.2919985891950747,-0.21911569493830052,0.7574626855819399,0.5412719746496297,0.7642886935856561,1.91489442114435,1.1145788907669532
1782985421060186112,1.1296861171722412,-0.5950109362602234,-0.42069604992866516,-0.1723126769065857,0.6820986866950989,-0.6924479007720947,0.2350694090127945,0.2643735408782959,-0.14396268129348755,-0.05176553130149841,0.2932601918860991,-0.22005267977363413,0.7543948032045766,0.5444849699255201,0.7648764705012263,1.9026762239193833,1.1263118045525506
1782985421070106368,1.139606237411499,-0.3632669448852539,-0.3084367513656616,-0.155216246843338,0.6840864419937134,-0.6923331022262573,0.22956646978855133,0.22719895839691162,-0.14722073078155518,0.022478222846984863,0.29438316103661943,-0.22062269988800529,0.7524020602402969,0.5464022045488128,0.7647173515060913,1.8945684888442533,1.1335640632840447
1782985421080026112,1.1495261192321777,-0.1710418462753296,-0.22830039262771606,-0.12661176919937134,0.6856642365455627,-0.69191575050354,0.22609065473079681,0.22952735424041748,-0.2604462504386902,0.1273028552532196,0.2952314425568643,-0.22114853864806264,0.7510916413853961,0.5475335739066122,0.7641392016336856,1.8893090529770589,1.1383126412905957
1782985421089946368,1.1594462394714355,-0.0894702821969986,-0.09858834743499756,-0.12476767599582672,0.6869111657142639,-0.6912427544593811,0.22435781359672546,0.2802518606185913,-0.4665635824203491,0.08486150205135345,0.29583602383204277,-0.2216635945467024,0.7503626840447821,0.5479982773683701,0.7632074375023441,1.886491301691247,1.140969847445591
1782985421099866112,1.1693661212921143,-0.16876377165317535,-0.14278776943683624,0.01732635125517845,0.6875530481338501,-0.6910344958305359,0.2230292111635208,0.3501513600349426,-0.6615502834320068,-0.009070530533790588,0.29607668367432,-0.22202367855761337,0.7498133723298446,0.5484742047059845,0.7629192958118369,1.8844683564327394,1.143169707257231
1782985421109785344,1.1792852878570557,-0.5571818947792053,-0.23813213407993317,0.21210604906082153,0.6873179078102112,-0.6923960447311401,0.21950261294841766,0.423231840133667,-0.7625752091407776,-0.11111955344676971,0.295998001761987,-0.22185931714298046,0.7486853477007299,0.5501215335397096,0.7648046095739138,1.8799196225692136,1.1476320410599048
1782985421119705088,1.1892051696777344,-0.8605369925498962,-0.4454198181629181,0.4772173762321472,0.6856458187103271,-0.6962793469429016,0.21233180165290833,0.4836809039115906,-0.7551060914993286,-0.12712670862674713,0.2954013064886519,-0.22084568968203602,0.746587624875092,0.5536895791828235,0.7702007778438048,1.8711113555041423,1.1559301814658638
1782985421129625344,1.1991252899169922,-1.2192214727401733,-0.5885578393936157,0.7198849320411682,0.6825296878814697,-0.7024697065353394,0.20171643793582916,0.456523597240448,-0.7175437211990356,-0.10563182830810547,0.29434510810665165,-0.2189433299201491,0.7435872748398927,0.5590194555659391,0.7788616718966898,1.8581585305811275,1.1677926030997634
1782985421139545088,1.209045171737671,-1.4651851654052734,-0.628218412399292,0.8621904253959656,0.6781837940216064,-0.7103729844093323,0.18824729323387146,0.43056559562683105,-0.6812896132469177,0.022171378135681152,0.2928273786639466,-0.2164440462456765,0.7397807928907034,0.565798984410999,0.7900279679204307,1.8415555032469053,1.183159817067541
1782985421149465344,1.2189652919769287,-1.6736055612564087,-0.6033423542976379,0.9508282542228699,0.6728383898735046,-0.7192685008049011,0.17303526401519775,0.4047067165374756,-0.6966249942779541,0.18261657655239105,0.29070165804010606,-0.21382154320005073,0.7353896788111285,0.5735632967574362,0.8027488246692347,1.822513735718509,1.2017454466647097
1782985421159385088,1.2288851737976074,-2.1129965782165527,-0.4944680631160736,1.023721694946289,0.6666420698165894,-0.728891134262085,0.1559036374092102,0.37905794382095337,-0.7242186069488525,0.2923537492752075,0.2877771768615981,-0.211490710290151,0.7302215387788936,0.5824366048140966,0.8167008556358301,1.800531547865746,1.2249594303040072
1782985421169304320,1.2388043403625488,-2.636620044708252,-0.3934217691421509,1.0613281726837158,0.6596904993057251,-0.7391681671142578,0.1357891857624054,0.40334343910217285,-0.7120646834373474,0.32481253147125244,0.2837009671067339,-0.20999176181256635,0.7237389414890133,0.5929748074638871,0.8318344983097343,1.7737987220155071,1.2559511910425933
1782985421179224320,1.2487242221832275,-3.110891819000244,-0.49478328227996826,1.0963952541351318,0.6522905230522156,-0.7496863007545471,0.11174795776605606,0.4741132855415344,-0.6867761015892029,0.2767256498336792,0.2789333435550469,-0.20904365962278773,0.7156638355198751,0.6052456145841923,0.8475879397337731,1.7404654642373452,1.295405340723591
1782985421189144320,1.2586443424224854,-3.4026589393615723,-0.5545764565467834,1.1098783016204834,0.6446123719215393,-0.7598681449890137,0.08411532640457153,0.5183362364768982,-0.6266674995422363,0.2052370309829712,0.27389552424515357,-0.2082870583159893,0.706168652664641,0.6188082258046022,0.8631102782712111,1.7005529481407784,1.3420872823955325
1782985421199064320,1.268564224243164,-3.593057870864868,-0.6048228740692139,1.2049659490585327,0.6362269520759583,-0.7695978283882141,0.054171331226825714,0.5088841319084167,-0.5302068591117859,0.12963604927062988,0.2685446940345541,-0.20734734308624791,0.6957677381771844,0.6330861667681958,0.8782110317978138,1.6557361313000858,1.3938161339808142
1782985421208984320,1.2784843444824219,-3.644073247909546,-0.7256321907043457,1.192562222480774,0.6272150278091431,-0.778522253036499,0.022452576085925102,0.4734013080596924,-0.4578057527542114,0.10321879386901855,0.2630481186753369,-0.20611727186879936,0.6846473241953224,0.647749388973603,0.8923078265169423,1.606578301734479,1.449609593948128
1782985421218904320,1.2884042263031006,-3.3953115940093994,-0.7613627314567566,1.3371013402938843,0.6176236271858215,-0.7864277362823486,-0.008518701419234276,0.43755215406417847,-0.46801257133483887,0.11592531204223633,0.2576728961001342,-0.20430800579237632,0.6737943959451874,0.6617129798354389,0.9050041591238345,1.5570044946179682,1.504713748004624
1782985421228823296,1.298323154449463,-3.2274537086486816,-0.7420272827148438,1.476320505142212,0.6064057350158691,-0.7942514419555664,-0.037906743586063385,0.44931942224502563,-0.5312644243240356,0.1835213303565979,0.251794973006393,-0.20165865362154703,0.663611644842156,0.674946496948973,0.9177745681505748,1.5083670289430127,1.5583500551901992
1782985421238743296,1.3082432746887207,-3.2561166286468506,-0.7261210083961487,1.540159821510315,0.5940526127815247,-0.8015817999839783,-0.06758640706539154,0.45495855808258057,-0.5795673727989197,0.31992101669311523,0.24565334003467923,-0.1984304940845645,0.6533239130017678,0.6880752571754846,0.9299362237465363,1.4575116864953894,1.6137014206909777
1782985421248663296,1.3181631565093994,-3.4824376106262207,-0.7430796027183533,1.5783940553665161,0.5811147093772888,-0.8078455328941345,-0.09844575077295303,0.46960562467575073,-0.60374516248703,0.4567984342575073,0.2391581302504244,-0.19520095286579017,0.6423968503718428,0.7014459463922694,0.9404875295569526,1.4029811438306485,1.6732152204719501
1782985421258583296,1.3280832767486572,-3.860520362854004,-0.8276469111442566,1.626587152481079,0.5673224925994873,-0.8128519654273987,-0.13197319209575653,0.4836418628692627,-0.6002797484397888,0.5247649550437927,0.23221708315523865,-0.19188557628089598,0.630232758778256,0.7155849710017526,0.9490318431345679,1.3422366006673272,1.7394380223853132
1782985421268503296,1.338003158569336,-4.424985408782959,-0.912956714630127,1.697619080543518,0.5526504516601562,-0.8158736228942871,-0.1700812578201294,0.4437331557273865,-0.5439285635948181,0.5446997880935669,0.22476041481127573,-0.18859608401106662,0.6159471485694017,0.7311110326235525,0.9542384805956675,1.2722395939608588,1.815672025091144
1782985421278423296,1.3479232788085938,-4.688779354095459,-0.9418144822120667,1.7891186475753784,0.5368597507476807,-0.8166202902793884,-0.21192657947540283,0.35602349042892456,-0.5021815299987793,0.5181246995925903,0.2166508934230067,-0.18522400088564475,0.5997739417700397,0.747680184782349,0.9555309256250608,1.194822071486906,1.9001326461510595
1782985421288343296,1.3578431606292725,-4.766458511352539,-0.8677049875259399,1.836859107017517,0.5200440287590027,-0.8152894973754883,-0.25467079877853394,0.27724289894104004,-0.47619909048080444,0.48188939690589905,0.20790906532430034,-0.1816796650738529,0.5828010869576207,0.7642703424908233,0.9532289278956882,1.1154145082574696,1.9872400390339962
1782985421298262272,1.3677623271942139,-4.64141321182251,-0.8070117831230164,1.8658255338668823,0.5029671788215637,-0.8117303252220154,-0.2968463897705078,0.21373802423477173,-0.37609004974365234,0.5469989776611328,0.1988355443407991,-0.17817897914389325,0.5655343070923647,0.7803124564800898,0.9471087227175633,1.037621012683734,2.073277010487288
1782985421308182272,1.3776822090148926,-4.034712314605713,-0.593113362789154,1.9866774082183838,0.48537933826446533,-0.8076621294021606,-0.3347966969013214,0.26150786876678467,-0.32553184032440186,0.5451238751411438,0.18921180193818365,-0.17450355748986499,0.5496818681262038,0.7947309357734392,0.9401763649024504,0.966973936168413,2.1527390816650813
1782985421318102272,1.3876023292541504,-3.3971779346466064,-0.5303823351860046,2.1035237312316895,0.4671561121940613,-0.8044806718826294,-0.3668462038040161,0.3105385899543762,-0.2848747968673706,0.5643101930618286,0.17923390007035314,-0.17033302622573657,0.5362495295623632,0.8070306239026614,0.9348006419123285,0.9050985211041569,2.223242190896674
1782985421328022272,1.397522211074829,-2.6851887702941895,-0.4819082021713257,2.330256938934326,0.44764775037765503,-0.8031289577484131,-0.3931863307952881,0.30744868516921997,-0.22758698463439941,0.5837228298187256,0.16889479874867164,-0.16526318666481352,0.5254473499177535,0.8173541481808672,0.9325284276808168,0.8500785338259041,2.2861053650123817
1782985421337942272,1.407442331314087,-2.2004358768463135,-0.45380091667175293,2.4522829055786133,0.4268059730529785,-0.8039916157722473,-0.41404613852500916,0.21581795811653137,-0.21892708539962769,0.49511611461639404,0.15804563252616033,-0.15941105142068904,0.5172669058890138,0.8258599576985455,0.9339777200583762,0.8005718787057955,2.3430540333687975
1782985421347862272,1.4173622131347656,-2.113596200942993,-0.3953927457332611,2.555828809738159,0.4049786925315857,-0.8055727481842041,-0.4324865937232971,0.08881092071533203,-0.20521515607833862,0.4577856957912445,0.14715454593892827,-0.15286262018673286,0.5102839696301492,0.8334198701564741,0.9366414896685595,0.752563379890571,2.3975249099036016
1782985421357781248,1.427281141281128,-2.334878921508789,-0.43414175510406494,2.6181633472442627,0.38261678814888,-0.8061228394508362,-0.45140933990478516,-0.014971524477005005,-0.21676534414291382,0.38787174224853516,0.13583600721124522,-0.14625364302579058,0.5028968097510493,0.8409835060052513,0.937570490053037,0.7031019701218315,2.453994204222903
1782985421367701248,1.4372012615203857,-2.7704782485961914,-0.4140319526195526,2.6981899738311768,0.35961300134658813,-0.8045191764831543,-0.4726811647415161,-0.03774407505989075,-0.2417759895324707,0.3728886842727661,0.12386133304311076,-0.13968028813831987,0.49411419939572965,0.8491166117272788,0.9348654561578837,0.6503735663115805,2.5147717409204406
1782985421377621248,1.4471211433410645,-3.718867778778076,-0.3905218243598938,2.531709671020508,0.3368806838989258,-0.798332929611206,-0.4991752803325653,-0.03449726104736328,-0.26943135261535645,0.3910362720489502,0.11153527890761018,-0.1335363191768511,0.48226591064714525,0.8585729610562937,0.9245218764492262,0.5936634447502319,2.580743102659815
1782985421387541248,1.4570412635803223,-4.96196174621582,-0.4472839832305908,2.434720039367676,0.3154386878013611,-0.7842416763305664,-0.5342878103256226,-0.033990293741226196,-0.2784718871116638,0.31407296657562256,0.0990661396139025,-0.12827955509983954,0.4651886060389323,0.8702470513656785,0.9014730223417987,0.5333240426671543,2.652012952567067
1782985421397461248,1.466961145401001,-5.831326961517334,-0.757727861404419,2.585486888885498,0.2930617928504944,-0.762147068977356,-0.5772751569747925,-0.023179590702056885,-0.19743239879608154,0.18593299388885498,0.08615459498995026,-0.12259382357464718,0.4430949843330189,0.88386365558144,0.8666230913532607,0.4697599417621859,2.7267403184382095
1782985421407381248,1.4768812656402588,-5.875503063201904,-0.8069095611572266,2.6523208618164062,0.2687905430793762,-0.7344805598258972,-0.62312912940979,-0.08595976233482361,0.07057070732116699,0.15602713823318481,0.07267449863601708,-0.11581197542609549,0.41835751933435655,0.8979326267347061,0.8249009653603607,0.40724196728009115,2.7998712745651306
1782985421417300224,1.486800193786621,-5.041410446166992,-0.8696565628051758,2.486931800842285,0.2450028508901596,-0.7063145041465759,-0.6641486287117004,-0.2401505708694458,0.3544773459434509,0.12031012773513794,0.05976091414582888,-0.10864224225962103,0.3951234640945503,0.9102213302266876,0.7842783223177436,0.35340994152316735,2.863041793618057
1782985421427220224,1.496720314025879,-3.8920912742614746,-0.883423924446106,2.3012986183166504,0.22273306548595428,-0.681907594203949,-0.6967008709907532,-0.3602605164051056,0.5501174330711365,0.10214215517044067,0.048211281440462044,-0.10136937782076956,0.37599710118907237,0.9197968193522532,0.7503674598938479,0.309427925445622,2.914165957096548
1782985421437140224,1.5066401958465576,-2.5801005363464355,-0.8504369258880615,1.992163896560669,0.20238299667835236,-0.6641476154327393,-0.7196868062019348,-0.46420854330062866,0.6209042072296143,0.03139340877532959,0.038365608967787165,-0.0942171866865994,0.3623254283655336,0.926483401601098,0.7263530483290865,0.27413020567613533,2.954079882320033
1782985421447060224,1.5165603160858154,-1.5537387132644653,-0.8578882813453674,1.6355700492858887,0.18468737602233887,-0.6533934473991394,-0.7341440916061401,-0.49177050590515137,0.5651823878288269,-0.03148090839385986,0.030530061274775328,-0.08761336984517415,0.35390937920882204,0.9306663639876913,0.7120584344339858,0.2464541649095911,2.9839549732551927
1782985421456980224,1.5264801979064941,-1.0601698160171509,-0.8635414242744446,1.4323022365570068,0.16850808262825012,-0.6471835970878601,-0.7434772253036499,-0.4470725655555725,0.4195682406425476,-0.1374431848526001,0.02459417941693355,-0.08107895305283958,0.34883748897287137,0.9333453826353676,0.7038841455237681,0.22288305564179814,3.006759808773002
1782985421466900224,1.536400318145752,-1.0871024131774902,-0.8335926532745361,1.4183564186096191,0.15303409099578857,-0.6422528028488159,-0.7510605454444885,-0.3585547208786011,0.2785443067550659,-0.18231958150863647,0.018785346166975858,-0.07486882766090287,0.3447671554601736,0.9355091638327567,0.6974337514561516,0.20100575326105521,3.0281424581623093
1782985421476820224,1.5463201999664307,-1.3564447164535522,-1.0118449926376343,1.0452288389205933,0.13831384479999542,-0.635296106338501,-0.7597816586494446,-0.36936241388320923,0.263195276260376,-0.17324751615524292,0.014244798814445393,-0.06857510458287622,0.3397155244435505,0.9379167571062526,0.688391861037641,0.18007227427159414,3.046517572643551
1782985421486739200,1.556239128112793,-1.3619470596313477,-0.8516498804092407,0.7471839785575867,0.1256571114063263,-0.6262422204017639,-0.7694355249404907,-0.4861307442188263,0.3727937340736389,-0.15301930904388428,0.011096648827948722,-0.0628646577520737,0.3336619288551932,0.9405289264172473,0.6767238604603198,0.161881729582713,3.0609225607482653
1782985421496659200,1.5661592483520508,0.028830526396632195,-0.9454626441001892,0.45437556505203247,0.11531856656074524,-0.6219617128372192,-0.7745097279548645,-0.47112298011779785,0.41743290424346924,-0.139751136302948,0.009458423609961384,-0.057894946920343394,0.33074658676185237,0.941894654740436,0.6712454226267249,0.14780648219059797,3.069869167786571
1782985421506579200,1.5760791301727295,0.6683163642883301,-0.9105710387229919,-0.02443421073257923,0.1058708131313324,-0.6257269978523254,-0.7728241086006165,-0.4253593385219574,0.6713660359382629,-0.43951719999313354,0.010270065940126206,-0.0525966492867446,0.33289869143477613,0.9414385768658172,0.676063183956321,0.13614467161998303,3.0718527432775162
1782985421516499200,1.5859992504119873,0.8132844567298889,-0.7992697954177856,0.09382505714893341,0.09989656507968903,-0.6319314241409302,-0.7685592770576477,-0.44472992420196533,0.9653664827346802,-0.24314415454864502,0.01140361717227338,-0.04903746324865002,0.33662394046780464,0.9402923715410038,0.6840427868439937,0.12925434927353954,3.0712661717677863
1782985421526419200,1.595919132232666,1.1480070352554321,-1.3658183813095093,-0.1698332577943802,0.09182117879390717,-0.6388174891471863,-0.7638592720031738,-0.36625051498413086,0.8283164501190186,-0.1254839301109314,0.01360681586789244,-0.04395416648758858,0.3407908251487311,0.939012452636636,0.6929602938360292,0.1196329073713369,3.0693758563582114
1782985421536339200,1.6058392524719238,1.5971959829330444,-0.9386443495750427,-0.1628246158361435,0.0837026834487915,-0.649985134601593,-0.7553232312202454,-0.5180593729019165,0.5913150906562805,-0.16954249143600464,0.016845886767563083,-0.03842792525026385,0.3476516435102677,0.936684522081407,0.7075648590753718,0.11036672466620435,3.06483086140744
1782985421546259200,1.6157591342926025,1.2941726446151733,-0.678730845451355,-0.4194742739200592,0.0791158527135849,-0.6607287526130676,-0.7464437484741211,-0.6416158676147461,0.5222399830818176,-0.044175148010253906,0.019596166819365702,-0.034909144820883344,0.354343735830447,0.9342579844913498,0.7217892152084606,0.10559613292559551,3.059762245552146
1782985421556178432,1.625678300857544,0.33585411310195923,-0.7536104321479797,-0.36354923248291016,0.07609555870294571,-0.6671198010444641,-0.7410537600517273,-0.5749359130859375,0.4047144055366516,0.0007277727127075195,0.023001153736662696,-0.0319534076022903,0.3584021620198371,0.9327367144750268,0.7303357364793603,0.10232696447900087,3.0531326777578878
1782985421566098176,1.6355981826782227,-1.020798683166504,-0.8957099318504333,-0.46450600028038025,0.0720597356557846,-0.6640174984931946,-0.7442366480827332,-0.5126267671585083,0.34167563915252686,0.20106953382492065,0.026219394657418713,-0.028584400474960435,0.3564612415822665,0.9335045854304294,0.7261790178565077,0.09652280812103715,3.048736602138026
1782985421576018432,1.6455183029174805,-1.8313276767730713,-0.7893480658531189,-0.7027177810668945,0.06848767399787903,-0.6528367400169373,-0.7543962001800537,-0.7627626061439514,0.22765058279037476,0.1861894130706787,0.02997591514718482,-0.025389095418307816,0.3495100794849005,0.9361087135654956,0.7113232983511654,0.09053657170528173,3.043920524543608
1782985421585938176,1.6554381847381592,-2.379681348800659,-0.5534741878509521,-0.7301400899887085,0.06469300389289856,-0.6366783380508423,-0.7684110403060913,-0.8715472221374512,0.11488878726959229,0.09678018093109131,0.03358630256654338,-0.022285410624355635,0.3395553602074176,0.9397220344810416,0.6901830378076423,0.08399254491499909,3.0399329563342725
1782985421595858432,1.665358304977417,-2.756913423538208,-0.40238532423973083,-0.510576605796814,0.06122645363211632,-0.6159694194793701,-0.7853871583938599,-0.8644185662269592,0.05414080619812012,0.18435871601104736,0.03648476440702312,-0.019789331050822673,0.32697827457871226,0.944119957275463,0.6636159515312298,0.07779968494214907,3.037525184028518
1782985421605778176,1.6752781867980957,-2.0607621669769287,-0.14916053414344788,-0.09216982126235962,0.05844750255346298,-0.5963884592056274,-0.8005651831626892,-0.6891542673110962,-0.019028961658477783,0.2796149253845215,0.0373558939305957,-0.018402695401632026,0.3152439342311805,0.9480965716578241,0.6389943205592592,0.07287849733423549,3.0387115070511994
1782985421615697152,1.685197114944458,-0.46609804034233093,-0.098262719810009,-0.3191012144088745,0.05717432126402855,-0.5859964489936829,-0.8082940578460693,-0.6059414148330688,0.19834691286087036,0.08276915550231934,0.03835535897788531,-0.017610406470252454,0.30910006592442074,0.9500925933185708,0.6261092325996174,0.0706169396171199,3.0380290961500016
1782985421625617920,1.6951179504394531,1.0244168043136597,-0.5582883358001709,-0.6246157884597778,0.05628032609820366,-0.588401198387146,-0.8066080808639526,-0.42560404539108276,0.520316481590271,-0.27714741230010986,0.04046735451377494,-0.01640121660844168,0.3105269201041058,0.9495612406054126,0.6290801284782124,0.06966116678089405,3.0337386111674762
1782985421635537920,1.7050378322601318,1.2402766942977905,0.03223380818963051,-1.0264931917190552,0.05879746377468109,-0.59725421667099,-0.7998939156532288,-0.2417198121547699,0.3876747488975525,-0.10490649938583374,0.045026564224191,-0.01601392041201686,0.31590599338497455,0.9475862099089883,0.6400732861723661,0.0733746134132925,3.0223015916406664
1782985421645457920,1.7149579524993896,1.0620145797729492,0.13985297083854675,-0.6408340930938721,0.06403826922178268,-0.6054902672767639,-0.7932721376419067,0.1867704540491104,0.09577041864395142,0.10284245014190674,0.04906441703050805,-0.017202582587246225,0.3210420673881866,0.9456367176914554,0.650381747108312,0.0805520606889266,3.0107435357212835
1782985421655377920,1.7248778343200684,0.5487711429595947,-0.006738319993019104,-0.46281349658966064,0.06609989702701569,-0.6108698844909668,-0.7889668941497803,0.741349458694458,-0.1358189582824707,0.21509909629821777,0.050702785227300255,-0.0175814786376095,0.32435695704165607,0.9444112647626315,0.6571588174284965,0.0835851129587552,3.0058092060934274
1782985421665297920,1.7347979545593262,0.5317443013191223,0.025414176285266876,-0.13419246673583984,0.06726792454719543,-0.6152201294898987,-0.7854802012443542,0.7712482810020447,-0.15844619274139404,0.09357047080993652,0.052497005346256245,-0.01745337269399773,0.32704017436242205,0.9433896526642096,0.6626651672673247,0.0854307871138251,3.0010076629265865
1782985421675217920,1.7447178363800049,1.1270118951797485,-0.29995885491371155,-0.1956033557653427,0.0668773427605629,-0.6208901405334473,-0.7810395359992981,0.9199390411376953,0.007151186466217041,0.010516524314880371,0.05281657443295087,-0.016966587771846876,0.3304426729990523,0.9421942722686631,0.6698777414989541,0.08541771633015294,2.9998501011782466
1782985421685136896,1.7546367645263672,1.9458253383636475,-0.5672447085380554,-0.7526823282241821,0.0657726377248764,-0.6321932673454285,-0.7720140218734741,0.6493762731552124,0.13109463453292847,-0.15245497226715088,0.05643573667168858,-0.014740721354781645,0.3373065353392778,0.9395861401335872,0.6843806893125086,0.0849909373270576,2.991317940804213
1782985421695056896,1.764556884765625,2.478381633758545,-0.7994020581245422,-0.1860329955816269,0.06415167450904846,-0.6491127610206604,-0.7579823136329651,0.5656243562698364,0.1502876877784729,-0.11759752035140991,0.05982752202252227,-0.0120522863118258,0.3476543980193687,0.935634451365339,0.7064174797054872,0.08443356795091732,2.982735961271201
1782985421704976896,1.7744767665863037,2.017843008041382,-0.38863182067871094,-0.3256189227104187,0.060092054307460785,-0.6658862829208374,-0.7436291575431824,0.4174622595310211,0.1342548131942749,0.10393500328063965,0.06187207960447071,-0.00847970851988045,0.3579294636969567,0.9316578886907072,0.7286811773866343,0.08063395515137056,2.9782006006909914
1782985421714896896,1.7843968868255615,-0.07595107704401016,-1.2917622327804565,0.1150122657418251,0.05499781668186188,-0.6741939783096313,-0.7365037798881531,0.12687170505523682,0.12950098514556885,0.4872666597366333,0.06430017618325422,-0.004476830893094266,0.36294362163323324,0.929579231391014,0.7398728144458623,0.07453584301818182,2.9745545467130934
1782985421724816896,1.7943167686462402,-1.5922662019729614,-0.46684831380844116,-0.5753952860832214,0.049817390739917755,-0.6664690971374512,-0.7438663840293884,0.12724559009075165,0.17538022994995117,0.7465366721153259,0.06650730894789042,-0.0011898612041347637,0.35786227098294643,0.931402102377384,0.7294625895016168,0.06687103435507859,2.9734830090561455
1782985421734736896,1.804236888885498,-1.7639634609222412,-0.09492509067058563,-1.1123934984207153,0.053367599844932556,-0.6538694500923157,-0.7547228932380676,0.0006637722253799438,-0.24220293760299683,0.5333026051521301,0.07064779623206019,-0.0020808468740974016,0.35019170413692907,0.93400767827762,0.7126874397950529,0.07059401189197423,2.964314427316228
1782985421744655872,1.8141558170318604,-2.9587557315826416,-0.4134396016597748,-0.8492008447647095,0.058013055473566055,-0.63499915599823,-0.7703314423561096,0.20008936524391174,-0.29694664478302,0.3059455156326294,0.07595922919663183,-0.003484285382311441,0.33885414123336804,0.9377611487505961,0.6880074459035755,0.0751673208805745,2.9530047537322455
1782985421754575872,1.8240759372711182,-3.5560190677642822,0.1157161071896553,-0.39131125807762146,0.059743769466876984,-0.6093268394470215,-0.7906652092933655,0.3922520875930786,-0.18290948867797852,0.23794609308242798,0.07864580473938725,-0.0046988995408183045,0.3234892823121987,0.9429461621680306,0.6552113709900895,0.07541808193884632,2.949527434582159
1782985421764495872,1.8339958190917969,-3.7395753860473633,-0.6012206077575684,-0.5693365335464478,0.06099352613091469,-0.5802133083343506,-0.8121775388717651,0.1464192122220993,-0.055406808853149414,0.18339335918426514,0.08097605987618114,-0.005995602821107175,0.3063907307051544,0.9484364676295295,0.6189905365780636,0.07495805266553338,2.947269334190548
1782985421774415872,1.8439159393310547,-3.238320827484131,-0.30068129301071167,-0.4672900438308716,0.0605618841946125,-0.5510085225105286,-0.8322991728782654,0.268997460603714,0.08689719438552856,0.10019773244857788,0.08415732633586272,-0.006206047214102633,0.28950284950576705,0.9534501381065624,0.5835722590144738,0.07263654687012462,2.9436910067630055
1782985421784335872,1.8538358211517334,-2.948496103286743,-0.016375236213207245,-0.3868822157382965,0.061739154160022736,-0.5248785614967346,-0.848935067653656,0.42156773805618286,0.1207038164138794,-0.07142925262451172,0.08588180628030917,-0.007597306229130776,0.27472667181808264,0.9576491308103527,0.5525724528335745,0.07259760285548571,2.942119052248353
1782985421794255872,1.8637559413909912,-1.8405588865280151,-0.6876766085624695,-0.3229903280735016,0.059431083500385284,-0.5034031271934509,-0.862005352973938,0.4230060577392578,0.3228000998497009,-0.10143458843231201,0.08812606936267345,-0.006842909762354788,0.26258426367666077,0.9608519689018199,0.5275328565718693,0.06883621381348856,2.9400746196151792
1782985421804175872,1.87367582321167,-0.7594461441040039,-0.5655483603477478,-0.6544085741043091,0.05720723792910576,-0.4929584562778473,-0.8681700825691223,0.30837810039520264,0.3582843840122223,-0.2838684916496277,0.09087014811251264,-0.005486417710509639,0.2566804619640536,0.9621993774738398,0.515486810442517,0.06579892187068213,2.935920256545544
1782985421814094848,1.8835947513580322,-0.45589348673820496,-0.5579578280448914,-0.4199015498161316,0.05392531305551529,-0.48684024810791016,-0.8718248605728149,0.1933586299419403,0.44213199615478516,-0.26039254665374756,0.09469554852770218,-0.0031074509789823647,0.25313612739943214,0.96277992913598,0.5084687007630374,0.06177467510675563,2.9294532074911452
1782985421824014848,1.89351487159729,-0.09732501208782196,-0.3543435335159302,-0.3010091483592987,0.05182315781712532,-0.4848894476890564,-0.8730387091636658,0.2854418456554413,0.0817522406578064,-0.36600548028945923,0.09681391620715746,-0.0015780055106082384,0.25194871753343406,0.9628843997157873,0.5062367401904067,0.05928994734701408,2.9258342337091223
1782985421833934848,1.9034347534179688,-0.3910740911960602,-0.497147798538208,-0.49644017219543457,0.05035627260804176,-0.48263511061668396,-0.874372661113739,0.17365799844264984,-0.11492958664894104,-0.217058002948761,0.09868235499534965,-0.0004628686891397137,0.2506261144932942,0.9630410401209655,0.5036609608172645,0.05752777088773217,2.9225611012142503
1782985421843854848,1.9133548736572266,-0.6700466275215149,-0.43679454922676086,-0.28886622190475464,0.04773010313510895,-0.47702309489250183,-0.8775937557220459,0.09016357362270355,-0.14802268147468567,-0.0794680118560791,0.1015720384695535,0.0013105032979136813,0.24738917143296796,0.9635766792843,0.49726446910107014,0.05433393864653283,2.917747628597984
1782985421853774848,1.9232747554779053,-0.30431073904037476,-0.2804451584815979,0.01070396788418293,0.045753367245197296,-0.4728643000125885,-0.8799465894699097,0.1283646672964096,-0.1157892644405365,-0.16645538806915283,0.10231932304019875,0.002272392909790574,0.24499296754203345,0.9641078596784827,0.4925386579545199,0.051948836418567804,2.9170659649826995
1782985421863694848,1.933194875717163,0.1601620465517044,-0.15541993081569672,-0.29913634061813354,0.04433515667915344,-0.4721820056438446,-0.8803854584693909,0.20217058062553406,-0.1640942394733429,-0.27931302785873413,0.10319673946472091,0.0031817233259927623,0.24453454616724607,0.9641282036817044,0.49176445616562225,0.05031629654494674,2.9157020777812295
1782985421873613824,1.9431138038635254,0.5344429612159729,-0.38533782958984375,-0.023931140080094337,0.04252147302031517,-0.4754970669746399,-0.8786890506744385,0.39024829864501953,-0.2373325228691101,-0.291034460067749,0.10427005235915458,0.004581691502646888,0.2462406896555244,0.9635726473423716,0.49552895978849193,0.04835422495830842,2.9137736521505633
1782985421883534080,1.9530339241027832,0.908599853515625,-0.428976446390152,-0.21750058233737946,0.03952028229832649,-0.4818534255027771,-0.8753601908683777,0.3986510932445526,-0.0904579758644104,-0.22249442338943481,0.10521582742397857,0.006748654982715948,0.24954833372082372,0.9626056715158291,0.502768645878473,0.04511681542280336,2.9122621390019185
1782985421893453824,1.962953805923462,1.1395646333694458,-0.2015899121761322,-0.16842330992221832,0.03824462369084358,-0.4906969368457794,-0.8704906105995178,0.14541016519069672,0.03871634602546692,-0.05263561010360718,0.10658362642661666,0.008307941816790133,0.2543337956257564,0.9611895221888234,0.5128894304961213,0.04390632671693051,2.909205816701903
1782985421903374080,1.9728739261627197,1.6372286081314087,-0.0982557162642479,-0.1015077605843544,0.03751180320978165,-0.5030755400657654,-0.863427996635437,0.29888346791267395,0.14736264944076538,-0.01830112934112549,0.10707188793973876,0.00959538418761091,0.2611396964006491,0.9592964440755147,0.5271537776885021,0.04341790112227054,2.9075645132618004
1782985421913293824,1.9827938079833984,1.521483302116394,-0.17409589886665344,-0.10876727104187012,0.03684702515602112,-0.5167669057846069,-0.8553328514099121,0.22113332152366638,0.049527525901794434,0.08291769027709961,0.10792977401239463,0.011053908596907532,0.26872175094346923,0.957088124742413,0.5430701807667737,0.0430525466501436,2.9050156604967245
1782985421923214080,1.9927139282226562,0.6908521056175232,-0.16712307929992676,0.06954052299261093,0.03564077988266945,-0.5265776515007019,-0.8493796586990356,0.24203866720199585,-0.2285950779914856,0.14543068408966064,0.10811510836199907,0.012369467645442004,0.27414809701258175,0.9555108890464861,0.5545698143503054,0.041936353516907235,2.9043156583824485
1782985421933133824,2.002633810043335,-0.2629774212837219,-0.18748587369918823,0.10248781740665436,0.03347054868936539,-0.528104305267334,-0.8485196232795715,0.19007070362567902,-0.312075138092041,0.25507479906082153,0.10788030952086892,0.013522838338752162,0.27487692711453093,0.9553123001720143,0.5563666391650125,0.039425375894145874,2.9054311550182845
1782985421943053056,2.0125529766082764,-0.9689937233924866,-0.16023942828178406,0.10862822830677032,0.0314437560737133,-0.5228917002677917,-0.8518189787864685,0.2055557668209076,-0.29195815324783325,0.206448495388031,0.10766594697195427,0.014165057576259436,0.27182689106267494,0.9561995205710815,0.5502398295869125,0.036896907708745895,2.9069253275052493
1782985421952972800,2.022472858428955,-1.010697603225708,-0.2729843258857727,0.09301465004682541,0.029346102848649025,-0.5140917897224426,-0.8572330474853516,0.17300069332122803,-0.18495911359786987,0.17978858947753906,0.10769613522933609,0.014679665273392647,0.2667733057710158,0.9576105869501996,0.5399484432256355,0.034220154488249395,2.9081364142930366
1782985421962892800,2.032392740249634,-0.6242350935935974,-0.2975562512874603,-0.03470392897725105,0.02698543481528759,-0.5071905255317688,-0.8614113926887512,0.14945195615291595,-0.0520593523979187,0.02620631456375122,0.10788315846507124,0.01549733867385671,0.26278154751322835,0.9586798428801049,0.5319217997515102,0.03131675801207315,2.908937724031028
1782985421972812800,2.0423128604888916,-0.32296445965766907,-0.07399295270442963,-0.10905059427022934,0.026118244975805283,-0.5034215450286865,-0.8636461496353149,0.03691582754254341,0.06051993370056152,0.02853262424468994,0.10838598859659088,0.015835123254086887,0.2606265249598291,0.9592057559022099,0.527554152547884,0.030232621478472978,2.9083905956722633
1782985421982732800,2.0522327423095703,-0.17202049493789673,-0.2612961530685425,-0.03786376863718033,0.025147516280412674,-0.5015011429786682,-0.8647914528846741,0.18791095912456512,0.07939726114273071,0.05207782983779907,0.1088571679359123,0.01633651167887264,0.2594945141560633,0.9594508413786232,0.5253330264916586,0.029071092134670802,2.907826213449338
1782985421992652800,2.062152862548828,0.011334957554936409,-0.23603153228759766,0.07541538029909134,0.023414913564920425,-0.5006623268127441,-0.8653259873390198,0.20894594490528107,-0.005639553070068359,0.07505804300308228,0.10941486053437277,0.01732279358729881,0.25891491946595263,0.9595267291435071,0.5243637185644274,0.027052464880805777,2.90725329259949
1782985422002572800,2.072072744369507,0.11365427076816559,-0.17423376441001892,0.018935533240437508,0.021408040076494217,-0.501436710357666,-0.8649294376373291,0.2210083305835724,-0.024228572845458984,0.0356447696685791,0.10939682524554704,0.018400787460833866,0.2592232604660388,0.9594253141166844,0.5252585202200829,0.024746147132896912,2.9078736751809884
1782985422012492032,2.0819919109344482,0.11401672661304474,-0.15294551849365234,-0.08989161252975464,0.020832769572734833,-0.5027327537536621,-0.8641908764839172,0.15517736971378326,-0.02931070327758789,0.06775832176208496,0.10991384793681984,0.018922438255836664,0.25989712588167296,0.9591738563309765,0.526757148699384,0.02410200948567862,2.906904395779055
1782985422022411776,2.091911792755127,-0.039541471749544144,-0.10930460691452026,0.028117148205637932,0.020402342081069946,-0.5033831596374512,-0.8638224005699158,0.21040208637714386,-0.11507081985473633,0.10687965154647827,0.11022835906599279,0.019272440678284083,0.26022562810813876,0.9590416139661729,0.5275097281833571,0.023614287428675957,2.906347781498993
1782985422032332032,2.1018319129943848,-0.17055541276931763,-0.1484280377626419,0.08460225909948349,0.019242821261286736,-0.5023960471153259,-0.8644235134124756,0.198698490858078,-0.15489155054092407,0.11388945579528809,0.11008609654542406,0.019764185525047093,0.25961052634470544,0.9592147738168589,0.5263676879875983,0.022257196550488932,2.9070617312223677
1782985422042251776,2.1117517948150635,-0.0867510586977005,-0.14028222858905792,0.17818307876586914,0.01776498556137085,-0.5014018416404724,-0.8650321364402771,0.20234304666519165,-0.11877638101577759,0.0949973464012146,0.10969073280556901,0.020350900176486622,0.25897833529744496,0.9594185198636862,0.5252182302101026,0.020533906544300404,2.908400280756914
1782985422052172032,2.1216719150543213,-0.04729366675019264,-0.1352834701538086,0.1378535032272339,0.01601199246942997,-0.500736653804779,-0.8654515743255615,0.20365352928638458,-0.06174808740615845,0.05308890342712402,0.10925369787006778,0.0210901107707473,0.2585138769440978,0.9595777520657293,0.5244496237181364,0.018499204231785284,2.909891600673513
1782985422062091776,2.131591796875,0.11431094259023666,-0.14106786251068115,0.10622525960206985,0.013998989015817642,-0.5018507838249207,-0.8648409247398376,0.17577455937862396,-0.08355265855789185,-0.022381365299224854,0.10876884938128545,0.022068410127930503,0.2590222606428281,0.959473690619463,0.5257372169575503,0.016185365565161775,2.9114748904048926
1782985422072012032,2.141511917114258,0.366324245929718,-0.16142719984054565,0.18045289814472198,0.012248898856341839,-0.5038049817085266,-0.8637305498123169,0.2092629373073578,-0.07833302021026611,0.00565260648727417,0.10837124096023996,0.022990698468674645,0.2600118051882632,0.9592293374616313,0.5279979708028755,0.014180438142693635,2.912758744750529
1782985422081930752,2.15143084526062,0.27153438329696655,-0.2041456252336502,0.13023899495601654,0.01036776416003704,-0.5066869854927063,-0.862067699432373,0.2049337476491928,-0.13457882404327393,-0.05631297826766968,0.10764829551483572,0.02395325524575191,0.26151936597922554,0.9588772658840593,0.5313376279487555,0.012026043961553214,2.914726633858214
1782985422091851008,2.161350965499878,0.291116327047348,0.040333621203899384,0.17479953169822693,0.009085857309401035,-0.5092103481292725,-0.8605941534042358,0.15618208050727844,-0.12267136573791504,0.02818143367767334,0.10705195375668962,0.024617203647652314,0.2628629429866169,0.9585598432957966,0.5342670427054896,0.010557264550396215,2.9162651267662705
1782985422101770752,2.1712708473205566,0.2339199036359787,-0.10833814740180969,0.23150596022605896,0.007938134483993053,-0.5119175314903259,-0.8589979410171509,0.22376658022403717,-0.11735492944717407,0.04349195957183838,0.10614405915163456,0.025137374418147573,0.26432772381963626,0.958244473975264,0.537415498065698,0.00924089405015175,2.9184089032596723
1782985422111691008,2.1811909675598145,-0.07909314334392548,0.03136070817708969,0.301927387714386,0.006000434048473835,-0.5126693844795227,-0.8585651516914368,0.18027888238430023,-0.2024032473564148,0.08878976106643677,0.10477338380659183,0.02580699784459802,0.26467227559539036,0.9582824422341244,0.5382909357802275,0.006988795371155333,2.921860919636147
1782985422121610752,2.191110849380493,-0.3644378185272217,-0.1072365865111351,0.2047387808561325,0.005036116577684879,-0.5109197497367859,-0.8596136569976807,0.183913454413414,-0.2294366955757141,0.09346985816955566,0.10382554853854618,0.02592937075143973,0.2636680584733421,0.9586589196584804,0.5362543714529293,0.005858514359860854,2.924218192689409
1782985422131531008,2.201030969619751,-0.482916921377182,-0.08124397695064545,0.3294833302497864,0.0028718721587210894,-0.507632315158844,-0.8615690469741821,0.28149092197418213,-0.184628427028656,0.008511185646057129,0.10274474013492343,0.026537614753952703,0.26174650980071046,0.9592851981847367,0.5324344545845338,0.0033332924433892865,2.927286192527248
1782985422141449984,2.2109498977661133,-0.554544985294342,0.01532798632979393,0.32546675205230713,0.0014206976629793644,-0.5031082630157471,-0.8642222285270691,0.12862995266914368,-0.15701746940612793,-0.013982117176055908,0.10133595150960002,0.026616411764600927,0.25919193057846823,0.960126117505832,0.5271916455880985,0.0016439016803472244,2.930838795999236
1782985422151369728,2.220869779586792,-0.6615824699401855,-0.0831165611743927,0.33160829544067383,-0.0003589963889680803,-0.49849992990493774,-0.8668897151947021,0.08542675524950027,-0.10602277517318726,-0.07410454750061035,0.09988502126958544,0.026856249458534057,0.25658117365771926,0.9609723883954842,0.5218674975311989,-0.00041412001987164667,2.93456386036368
1782985422161289984,2.23078989982605,-0.5828664302825928,-0.007931377738714218,0.2756267488002777,-0.0018104430055245757,-0.4931703507900238,-0.8699308633804321,0.17829358577728271,0.0037446916103363037,-0.05113542079925537,0.09853488788627814,0.02691862015185188,0.2535940794871341,0.9619024144197467,0.5157303789819331,-0.002081131407657705,2.937978630202787
1782985422171209728,2.2407097816467285,-0.34669461846351624,-0.05416145920753479,0.2679730951786041,-0.0028086889069527388,-0.48951566219329834,-0.8719899654388428,0.16424667835235596,-0.00879061222076416,-0.08604836463928223,0.09758534315041614,0.026962223778503495,0.25155127911740066,0.9625341937678958,0.5115342166734507,-0.003220999327724802,2.940357860416874
1782985422181129984,2.2506299018859863,-0.35576069355010986,0.02153676562011242,0.2777128517627716,-0.0037164785899221897,-0.486942857503891,-0.8734259605407715,0.11882879585027695,0.0004163384437561035,-0.057787418365478516,0.09634001391566291,0.026951244724691376,0.25012127810928925,0.9630325769879152,0.5085861672562243,-0.0042550327819432555,2.9432857768779357
1782985422191049728,2.260549783706665,-0.5988585352897644,0.020229952409863472,0.26134106516838074,-0.0046224878169596195,-0.48331958055496216,-0.8754317760467529,0.13622955977916718,-0.07478588819503784,0.01979517936706543,0.09516693042415289,0.026900785298588716,0.24811378456757485,0.9636696839654176,0.5044426595242752,-0.005280188649214807,2.946082331869524
1782985422200969984,2.270469903945923,-0.6109713912010193,-0.03446711599826813,0.288551390171051,-0.005185537040233612,-0.478586345911026,-0.8780251741409302,0.2298406958580017,-0.173940509557724,0.013263821601867676,0.09413481043292152,0.026651821014587587,0.24551392304688632,0.964443485506063,0.49904398278473083,-0.005905840608190013,2.948503421477442
1782985422210888960,2.280388832092285,-0.9291866421699524,0.035231005400419235,0.32577064633369446,-0.006207825616002083,-0.47227826714515686,-0.8814276456832886,0.23463189601898193,-0.21722060441970825,0.047473788261413574,0.09287035245192689,0.026497951324303663,0.24204139053369153,0.9654475476778185,0.49187369302981154,-0.007042805082231589,2.9515624903247115
1782985422220808960,2.290308952331543,-1.0392205715179443,0.061041947454214096,0.27642822265625,-0.006058519706130028,-0.4642261564731598,-0.8856959939002991,0.12355118989944458,-0.1854167878627777,0.10130268335342407,0.091752704902264,0.025693711574473744,0.2376801319557405,0.966658895388116,0.4827607260775316,-0.006840298874616592,2.9540089263840503
1782985422230728960,2.3002288341522217,-1.0520524978637695,0.12372609227895737,0.12323600798845291,-0.005236517637968063,-0.45560336112976074,-0.8901674747467041,0.13811007142066956,-0.10964322090148926,0.0761568546295166,0.09075751770541914,0.024557556748213135,0.23305187743696384,0.9679085303749178,0.4730498968848583,-0.005882552608799694,2.956024063293169
1782985422240648960,2.3101489543914795,-1.0584899187088013,0.05930997431278229,0.2306656539440155,-0.003946601878851652,-0.4470241665840149,-0.8945131897926331,0.14054328203201294,0.004412472248077393,0.06667810678482056,0.09014788062184577,0.02328982595690084,0.22847537269822235,0.9690871707386998,0.4634358270348238,-0.004411982225202369,2.9571205640859324
1782985422250568960,2.320068836212158,-0.7496730089187622,0.08910808712244034,0.386562317609787,-0.0039140935987234116,-0.4395250678062439,-0.8982217907905579,0.15743277966976166,0.043345868587493896,0.01679784059524536,0.08867481152654413,0.022532755905159175,0.22445794227988836,0.970179268265195,0.45506985433564395,-0.004357575135412281,2.960307280157854
1782985422260488960,2.329988956451416,-0.7576463222503662,0.18905594944953918,0.3275688588619232,-0.0038732525426894426,-0.43304023146629333,-0.9013662934303284,0.09672298282384872,0.004466623067855835,-0.04145902395248413,0.08675451376182038,0.021736871144778153,0.22100762866147436,0.9711625706568335,0.4478629223631395,-0.00429706421242557,2.964383123473238
1782985422270408960,2.3399088382720947,-0.7760279774665833,0.01796303130686283,0.27709102630615234,-0.003414577106013894,-0.42660483717918396,-0.9044316411018372,0.1610836386680603,0.02087363600730896,-0.039065003395080566,0.08550007657234376,0.020895436886965164,0.21759491748551713,0.9720625037007301,0.44073555398777314,-0.0037753664397772585,2.9669751360402556
1782985422280327680,2.349827766418457,-0.7298040390014648,-0.020722920075058937,0.3872292935848236,-0.004510929808020592,-0.4203356206417084,-0.9073575139045715,0.29390910267829895,-0.02331364154815674,-0.08641690015792847,0.08396420744372891,0.020804727275960708,0.21421582690210356,0.972948440629203,0.433815164892233,-0.004971461165326291,2.9705173454603684
1782985422290247936,2.359747886657715,-0.7598375678062439,-0.07403913885354996,0.34184104204177856,-0.005329629871994257,-0.4140527546405792,-0.9102372527122498,0.18501712381839752,-0.023187845945358276,-0.10816478729248047,0.08233106847199528,0.02056265441278362,0.21085193459696577,0.9738275863822886,0.4269019133864155,-0.005855142750388663,2.9741753380423934
1782985422300167680,2.3696677684783936,-0.7132936120033264,-0.1398695558309555,0.4717289209365845,-0.007302727550268173,-0.4079523980617523,-0.9129739999771118,0.17856737971305847,-0.04842272400856018,-0.14279687404632568,0.08077000030862737,0.020945392876976218,0.20754346144359498,0.9746605992114886,0.4202102136025793,-0.00799866335787375,2.977936507969754
1782985422310087936,2.3795878887176514,-0.6369934678077698,-0.08292290568351746,0.28025054931640625,-0.008442037738859653,-0.40239182114601135,-0.915428638458252,0.17122279107570648,-0.03436049818992615,-0.15026044845581055,0.07919198466951002,0.02093564669949031,0.20456635523724723,0.9754193413149501,0.4141280371620694,-0.009221689922640733,2.981510003094289
1782985422320007680,2.38950777053833,-0.4887523055076599,-0.2350894957780838,0.40563899278640747,-0.010666582733392715,-0.39738333225250244,-0.9175906777381897,0.1595008224248886,-0.01971566677093506,-0.17422139644622803,0.07786326925547107,0.021565085113045144,0.2018405152115381,0.9760802568970532,0.40866360850717176,-0.011624030590993538,2.984795824957592
1782985422329927936,2.399427890777588,-0.3564038574695587,-0.12071605026721954,0.34001418948173523,-0.01348968967795372,-0.39387691020965576,-0.9190642237663269,0.18553254008293152,-0.05055058002471924,-0.2250550389289856,0.07625324635769859,0.0225152500562915,0.1999023609438099,0.9765847092437927,0.4048456583497759,-0.014676581942456158,2.9887579651356204
1782985422339847680,2.4093477725982666,-0.3915732800960541,-0.27212947607040405,0.2735896408557892,-0.01598638854920864,-0.3905699551105499,-0.9204344153404236,0.1377210170030594,-0.03290721774101257,-0.18125009536743164,0.07501968260798775,0.023390345900538765,0.19807996479255777,0.977030879527148,0.4012506442384537,-0.01736656129214616,2.991858507514655
1782985422349766912,2.419266939163208,-0.42701008915901184,-0.3560350239276886,0.3369486331939697,-0.020106615498661995,-0.38709747791290283,-0.9218195676803589,0.20350199937820435,-0.06236541271209717,-0.1917973756790161,0.07388563153280613,0.025108801702110824,0.1961116449735921,0.9774715928762512,0.39748157124519384,-0.021808419854350513,2.995094927027125
1782985422359686912,2.4291868209838867,-0.35876673460006714,-0.27272939682006836,0.30541619658470154,-0.023579126223921776,-0.3833990693092346,-0.923281729221344,0.13158082962036133,-0.07477658987045288,-0.122555673122406,0.07268624557403423,0.026479064999618017,0.19405665836456573,0.9779353411778172,0.39347379200829824,-0.025532837661383843,2.998302368693271
1782985422369606912,2.4391069412231445,-0.5327103137969971,-0.2939092516899109,0.3610089123249054,-0.026800677180290222,-0.3794209957122803,-0.9248359203338623,0.14494949579238892,-0.09515786170959473,-0.1168205738067627,0.07145653652231158,0.027708599317998656,0.1918704767056779,0.9784232641477687,0.3891704188892548,-0.02897073775430607,3.0014967704604554
1782985422379526912,2.4490268230438232,-0.5152530074119568,-0.2962018549442291,0.4021081328392029,-0.030930250883102417,-0.37445616722106934,-0.9267286062240601,0.19128486514091492,-0.06307435035705566,-0.09512197971343994,0.07003924283411089,0.029328275974460822,0.18914427578237636,0.9790090500378459,0.38381021033829393,-0.0333633543367214,3.0052370375643793
1782985422389446912,2.458946943283081,-0.368753582239151,-0.34313422441482544,0.36858105659484863,-0.03506063297390938,-0.37053382396698,-0.9281570315361023,0.18693137168884277,-0.09511864185333252,-0.1385543942451477,0.06841491585978052,0.030957812813035498,0.18698423060602556,0.979488653612661,0.37958368136209314,-0.03775651022338457,3.009378019729025
1782985422399366912,2.4688668251037598,-0.5904839038848877,-0.37711775302886963,0.4496014714241028,-0.039485134184360504,-0.365922212600708,-0.9298074245452881,0.1969253271818161,-0.06140017509460449,-0.09713959693908691,0.06692171254203019,0.032741132173223164,0.18445677439214864,0.9800128805086243,0.37462355142587345,-0.04244042909899887,3.0132762734492498
1782985422409286912,2.4787869453430176,-0.7076813578605652,-0.35265102982521057,0.3238443434238434,-0.0442744717001915,-0.3599027097225189,-0.9319387078285217,0.2253962904214859,-0.09496179223060608,-0.06020301580429077,0.06526664433406026,0.03463267303614801,0.18119385753459832,0.9806678943645495,0.3681636181640673,-0.0474722269690485,3.0175225673997845
1782985422419205888,2.48870587348938,-1.12177574634552,-0.30478766560554504,0.3576677739620209,-0.04850175231695175,-0.35114532709121704,-0.935063898563385,0.15122392773628235,-0.13310760259628296,-0.015131354331970215,0.0641863273260657,0.036249408121398985,0.17650500819333168,0.9815356091671986,0.3587940517206347,-0.05182354294291161,3.0203911093335827
1782985422429125888,2.4986257553100586,-1.1191222667694092,-0.4390221834182739,0.3780103325843811,-0.052835892885923386,-0.3404635787010193,-0.9387720227241516,0.19594807922840118,-0.10075956583023071,0.007741749286651611,0.0630301218545712,0.03784539933994185,0.1708265561297877,0.9825544375965122,0.3474098905404677,-0.05622260622199038,3.023337816489302
1782985422439045888,2.5085458755493164,-1.1160584688186646,-0.4464845657348633,0.32198914885520935,-0.058083426207304,-0.3297918438911438,-0.9422651529312134,0.1860436350107193,-0.0641595721244812,-0.05466783046722412,0.061811465198685564,0.03990759767960668,0.16515083315560916,0.9835202029610326,0.3360830877329388,-0.061564438706215655,3.0265104870019597
1782985422448965888,2.518465757369995,-1.0037702322006226,-0.36100003123283386,0.2884328067302704,-0.06247713789343834,-0.3198282718658447,-0.9454134106636047,0.07645419239997864,-0.014842748641967773,-0.08832377195358276,0.0608398906701796,0.04161562746310141,0.15987946285356905,0.9843806473529256,0.32554824090361434,-0.0659885160882981,3.028980125899704
1782985422458885888,2.528385877609253,-0.9186133742332458,-0.43344682455062866,0.325612872838974,-0.06714562326669693,-0.31083473563194275,-0.9480892419815063,0.13931968808174133,-0.04524436593055725,-0.15812718868255615,0.05985728865415793,0.0435053148920268,0.1551214413130581,0.985120132269016,0.31607114064968056,-0.07070399718451327,3.0314913338708482
1782985422468805888,2.5383057594299316,-0.8643176555633545,-0.5200033187866211,0.3539992570877075,-0.07253944128751755,-0.30241549015045166,-0.9504119753837585,0.19650183618068695,-0.01923978328704834,-0.19363099336624146,0.05884361090197785,0.04578646386205552,0.15065729599408553,0.9857703886392022,0.3072257811425048,-0.0761765199914657,3.0341482842078595
1782985422478725888,2.5482258796691895,-0.8869290947914124,-0.499034583568573,0.3124316334724426,-0.07840342074632645,-0.29409512877464294,-0.9525549411773682,0.15822215378284454,-0.027788996696472168,-0.19809502363204956,0.05776576682084405,0.048307989633686495,0.14624929593537728,0.9863774820887361,0.29850863243724673,-0.08212343328412348,3.0369550782878743
1782985422488645888,2.558145761489868,-0.870354413986206,-0.5416544675827026,0.2516289949417114,-0.08395517617464066,-0.28578394651412964,-0.9546093940734863,0.14306771755218506,-0.05343419313430786,-0.16886472702026367,0.05705632350228547,0.050733636034416975,0.14184994964156117,0.9869394032343655,0.2898244059728511,-0.08772144965020633,3.0389081501823716
1782985422498564864,2.5680649280548096,-0.8515335321426392,-0.5757449269294739,0.2753254175186157,-0.09010831266641617,-0.2773732841014862,-0.9565273523330688,0.20474760234355927,-0.0869455635547638,-0.14158666133880615,0.05632342004387652,0.0534628858943847,0.13739739744431062,0.9874672247153375,0.2810590286372618,-0.09392640251184957,3.0409361956571477
1782985422508484864,2.5779848098754883,-0.7711076736450195,-0.6212196946144104,0.16248460114002228,-0.09612631797790527,-0.2695217728614807,-0.9581845998764038,0.14251303672790527,-0.0758608877658844,-0.15646988153457642,0.05589653076598467,0.056189572901641206,0.1332307236588376,0.987910937771752,0.2728964027958235,-0.0999867517479956,3.0422916652669314
1782985422518404864,2.587904930114746,-0.519207239151001,-0.6835835576057434,0.23974241316318512,-0.10268021374940872,-0.2631451487541199,-0.9592764973640442,0.15292739868164062,-0.002907097339630127,-0.1872994303703308,0.055573685161649,0.05925304011137623,0.12981074728410122,0.9882053224843438,0.2662808195834999,-0.10663321915950044,3.0435320132462684
1782985422528324864,2.597824811935425,-0.44769707322120667,-0.6263101696968079,0.2367018759250641,-0.1094934269785881,-0.2586057782173157,-0.959757387638092,0.1742364764213562,-0.011688411235809326,-0.19295257329940796,0.05509775302487256,0.062490812253520454,0.127342863962577,0.9883536186476726,0.2615785930991659,-0.11359337014798546,3.0451718270374775
1782985422538244864,2.6077449321746826,-0.373062402009964,-0.6771972179412842,0.2350129783153534,-0.1163867637515068,-0.25442105531692505,-0.9600645899772644,0.1757892370223999,-0.03447359800338745,-0.1291535496711731,0.05453845949417478,0.06577316970498281,0.12506631783838618,0.9884624324135924,0.25724900472272433,-0.12063937198395844,3.046976302278252
1782985422548164864,2.6176648139953613,-0.419534832239151,-0.7111948728561401,0.30139386653900146,-0.12337081134319305,-0.2503455579280853,-0.9602639079093933,0.18782393634319305,-0.12064138054847717,-0.1253684163093567,0.053796792794831134,0.06908580789428037,0.12286253900375177,0.9885534850717766,0.2530371768421106,-0.12777598640411844,3.0491351364800456
1782985422558083840,2.6275837421417236,-0.47771894931793213,-0.6351439356803894,0.3264760673046112,-0.1305280178785324,-0.24558575451374054,-0.9605467319488525,0.1850018948316574,-0.12180010974407196,-0.10457777976989746,0.05279611453028374,0.07243706940480177,0.12033075596763336,0.9886789059208932,0.24812390373029616,-0.13506199247816136,3.051760467346675
1782985422568003840,2.6375038623809814,-0.5749480724334717,-0.6778488159179688,0.2550697922706604,-0.1373894214630127,-0.24037966132164001,-0.9609067440032959,0.1751244068145752,-0.09610715508460999,-0.1317751407623291,0.05202454377767448,0.07565774393599295,0.11756926933558322,0.9888108644501785,0.2427569613413671,-0.1420164089496945,3.053814741103565
1782985422577923840,2.64742374420166,-0.5921703577041626,-0.7069540619850159,0.32201531529426575,-0.1445322483778,-0.23441079258918762,-0.9613334536552429,0.19427590072155,-0.08437582850456238,-0.11039811372756958,0.0511956682997423,0.07899610757510837,0.11442415916651476,0.9889619649840772,0.23661243635518678,-0.14922791954245954,3.055920784856723
1782985422587843840,2.657343864440918,-0.7333011031150818,-0.6153717041015625,0.32362866401672363,-0.151467964053154,-0.2274300456047058,-0.9619423151016235,0.16958016157150269,-0.07084876298904419,-0.11955487728118896,0.050292140341268714,0.0821962614819841,0.1107818232193084,0.9891622618512982,0.229437756051037,-0.15617822552697214,3.058025596560516
1782985422597763840,2.6672637462615967,-0.5836312770843506,-0.6224864721298218,0.24181392788887024,-0.15796998143196106,-0.2208213359117508,-0.9624361991882324,0.17220643162727356,-0.030307814478874207,-0.07970857620239258,0.04957792089190633,0.0852161241154579,0.10733180041578465,0.9893230728840067,0.22265650835355427,-0.16268494943407757,3.0596768222319204
1782985422607683840,2.6771838665008545,-0.37882086634635925,-0.5729463696479797,0.17476245760917664,-0.16423125565052032,-0.21581992506980896,-0.9625226259231567,0.17369171977043152,0.036529168486595154,-0.057405292987823486,0.049100193893522874,0.08819366991759753,0.10469265117943802,0.9893687036475894,0.21753145899372794,-0.16899837461834163,3.0609159922165907
1782985422617603840,2.687103748321533,-0.14380136132240295,-0.627046525478363,0.04004261642694473,-0.17003265023231506,-0.2130649834871292,-0.9621289968490601,0.14731231331825256,0.08306010067462921,-0.009230256080627441,0.049026096890061995,0.091051326538538,0.1031753718444261,0.9892728988240075,0.21471090530559206,-0.17491932052614947,3.061456926745649
1782985422627523072,2.6970229148864746,-0.05598016455769539,-0.5600690841674805,0.0919811800122261,-0.17574237287044525,-0.21224437654018402,-0.9612839818000793,0.11298298835754395,0.07074964046478271,0.06054246425628662,0.04905657832996407,0.09393405651400556,0.10263717913717368,0.9890578510014449,0.21387109849158778,-0.18082352411835065,3.0619382313132446
1782985422637442048,2.706942081451416,0.03225814923644066,-0.49077433347702026,0.034391287714242935,-0.18100924789905548,-0.21201983094215393,-0.9603557586669922,0.12804600596427917,0.058165475726127625,0.15815550088882446,0.0489706447702078,0.09659964698519165,0.10242370639003785,0.9888274320593683,0.2136413216752484,-0.18629589988334114,3.062659194230907
1782985422647362048,2.7168619632720947,-0.09138283133506775,-0.441671758890152,-0.03790208324790001,-0.18535999953746796,-0.21198271214962006,-0.9595337510108948,0.08182911574840546,0.02245330810546875,0.24023443460464478,0.04927690254296069,0.09884676776125129,0.10228611423922014,0.9886043393596046,0.21360334108457535,-0.19082661164550546,3.0625052865524864
1782985422657282048,2.7267820835113525,-0.29998257756233215,-0.25738760828971863,0.05225766822695732,-0.18864649534225464,-0.21010443568229675,-0.9593062996864319,0.07673853635787964,0.06154486536979675,0.3580489754676819,0.04953804776000508,0.10049047489780687,0.10123489540175497,0.9885337762950822,0.21168177353392084,-0.19417124784126275,3.0621437809544205
1782985422667202048,2.7367019653320312,-0.2936498522758484,-0.06305143237113953,0.05628729611635208,-0.19039137661457062,-0.20709775388240814,-0.9596153497695923,0.0630568116903305,0.05365537106990814,0.40376824140548706,0.04943532811374615,0.10127605940754027,0.09967686466102495,0.9886171601707702,0.2086074571467486,-0.19586033075760736,3.0622352863398623
1782985422677122048,2.746622085571289,-0.49296727776527405,0.03179743140935898,0.0010599627858027816,-0.19011130928993225,-0.20337221026420593,-0.9604672789573669,0.037950679659843445,0.038211092352867126,0.4258298873901367,0.04955862751775133,0.10102994713502784,0.09777165822700232,0.9888264250889393,0.2048008844412351,-0.19541040748175795,3.0615830050692825
1782985422687042048,2.7565419673919678,-0.4019804000854492,0.16321830451488495,0.05955949053168297,-0.18923361599445343,-0.19885100424289703,-0.9615866541862488,0.08988365530967712,0.06805267930030823,0.46439433097839355,0.04957432338449578,0.10044444898878481,0.09548601873637856,0.9891085272934842,0.2001853696014367,-0.1943101007061668,3.0610112867729966
1782985422696962048,2.7664620876312256,-0.30644193291664124,0.39923396706581116,-0.1243741512298584,-0.18628016114234924,-0.19569511711597443,-0.9628100395202637,0.08046045899391174,0.043397143483161926,0.44871091842651367,0.0496888204465582,0.09885403497216481,0.0939301562505545,0.9894119163378992,0.19696621782611337,-0.191114218125537,3.06017557009319
1782985422706881024,2.776381015777588,-0.1543687880039215,0.46163421869277954,-0.09903950244188309,-0.18173517286777496,-0.1936785876750946,-0.9640855193138123,0.08282771706581116,0.0637194961309433,0.49811267852783203,0.050246779836694164,0.09653149538033771,0.09294567763916073,0.9897060614903825,0.1949103616492587,-0.18631886624078495,3.0584087809540854
1782985422716801280,2.7863011360168457,-0.21473392844200134,0.6110354661941528,-0.22019340097904205,-0.17611771821975708,-0.19233007729053497,-0.9653971791267395,0.10427933931350708,0.09424658119678497,0.5015605092048645,0.05095154174577735,0.09369927047386793,0.09231393968487066,0.9900012859118762,0.19353600869804133,-0.18044599306976492,3.056314456376561
1782985422726721024,2.7962210178375244,-0.03835942968726158,0.7024226188659668,-0.34455767273902893,-0.16855266690254211,-0.19178031384944916,-0.9668558835983276,0.060718804597854614,0.16371941566467285,0.5196512937545776,0.05215698558065432,0.08995145360728649,0.0920912241970423,0.9903067734528781,0.1929758171946046,-0.1725961840485863,3.053101396278943
1782985422736641280,2.8061411380767822,-0.01728110760450363,0.8197022676467896,-0.42044395208358765,-0.15903723239898682,-0.1926516741514206,-0.9682936072349548,0.08851110935211182,0.1759738177061081,0.49272292852401733,0.053784624461612945,0.08530293985696459,0.09260999311378647,0.9905826390613575,0.19386373087198688,-0.16279139269751888,3.048971274260803
1782985422746561024,2.816061019897461,0.19693319499492645,0.8689067959785461,-0.3571648597717285,-0.1500163972377777,-0.19406917691230774,-0.9694494605064392,0.1273113191127777,0.18439510464668274,0.5302709937095642,0.055384822808834736,0.08092752264472516,0.09341312301330183,0.9907861735429765,0.19530849539147266,-0.15352621284079682,3.0449787907030457
1782985422756481280,2.8259811401367188,0.2703758478164673,1.0401110649108887,-0.2454100400209427,-0.14024722576141357,-0.19697381556034088,-0.9703257083892822,0.17352665960788727,0.09325984120368958,0.514271080493927,0.056265251726644185,0.07616093630748198,0.09506127464829302,0.9909576405381751,0.19827030824662945,-0.1435421791312375,3.0424583121801745
1782985422766401024,2.8359010219573975,0.2860104739665985,1.006048560142517,-0.26535817980766296,-0.1295473724603653,-0.20006945729255676,-0.9711795449256897,0.1921999752521515,0.08156970143318176,0.6014438271522522,0.05696706842661469,0.07091999362886413,0.09685342820227795,0.9911329840106846,0.201428816549541,-0.1326089688367777,3.040186009845645
1782985422776320000,2.8458199501037598,0.16019780933856964,1.138814926147461,-0.2618010640144348,-0.11859025061130524,-0.20262090861797333,-0.9720499515533447,0.24749651551246643,0.04940742254257202,0.655750572681427,0.05761950261552201,0.06553342202768929,0.09838898019558302,0.991314769129873,0.2040336043715636,-0.12140022319331732,3.0379177828123054
1782985422786240000,2.8557400703430176,0.15984760224819183,1.2429088354110718,-0.29612281918525696,-0.10641641914844513,-0.20450720191001892,-0.9730634093284607,0.22584697604179382,0.02947363257408142,0.6566266417503357,0.05853768106813363,0.059544469348168344,0.09961306587122741,0.9915165796523532,0.20596024368321258,-0.10892937807189476,3.0349209123724954
1782985422796160000,2.8656599521636963,0.07358607649803162,1.398413896560669,-0.1580519676208496,-0.09299461543560028,-0.20613445341587067,-0.9740947484970093,0.21453087031841278,-0.0024074167013168335,0.6346782445907593,0.05882541832071549,0.05286181818938866,0.10078814613207358,0.9917595453745522,0.20762291361671983,-0.09517927276507981,3.0330268531668825
1782985422806080000,2.875580072402954,-0.16688723862171173,1.566523551940918,-0.2779597342014313,-0.07829973101615906,-0.2056405395269394,-0.9754902124404907,0.09986039251089096,-0.016573205590248108,0.6499439477920532,0.05919200717293308,0.04548370711278008,0.10092639153586748,0.9920893450894317,0.20711819033907578,-0.0800953430503842,3.0307347423108153
1782985422816000000,2.885499954223633,-0.12208828330039978,1.5452921390533447,-0.28763121366500854,-0.06240065395832062,-0.2042427808046341,-0.9769293665885925,0.07817824184894562,-0.030071184039115906,0.5989387035369873,0.0598634428536897,0.03750959484084208,0.10063961824484992,0.9924117055610083,0.20569011633416104,-0.0637876166723113,3.027681975242015
1782985422825920000,2.8954200744628906,0.1633320152759552,1.6211652755737305,-0.3012990951538086,-0.04647166654467583,-0.20460136234760284,-0.9777415990829468,0.14858348667621613,0.03550347685813904,0.44173091650009155,0.060434952901349814,0.029575145461052426,0.1012645164479809,0.992581752193812,0.20605644213131738,-0.04749385651085425,3.024881068541303
1782985422835840000,2.9053399562835693,0.3937779366970062,1.747365117073059,-0.33986958861351013,-0.029532138258218765,-0.2073342353105545,-0.977824330329895,0.15357083082199097,0.145520880818367,0.3274184465408325,0.061200630168630754,0.02123610053693784,0.10313523609268921,0.9925556063546469,0.20884919486999357,-0.03019270840967714,3.021593892624293
1782985422845760000,2.915260076522827,0.6210707426071167,1.7649049758911133,-0.374179869890213,-0.011737773194909096,-0.2125742882490158,-0.977074384689331,0.19527049362659454,0.168873131275177,0.26485520601272583,0.06198316224048234,0.01255573932352685,0.10632567391548346,0.9923181669155509,0.21420870446243948,-0.012012604931580573,3.0181203271673662
1782985422855678976,2.9251790046691895,0.7327248454093933,1.8114444017410278,-0.3592492640018463,0.006156770046800375,-0.21907159686088562,-0.9756893515586853,0.21274583041667938,0.13435481488704681,0.2941403388977051,0.062861188421185,0.0038792101264574414,0.11018289191154976,0.991913944744621,0.22086285264691566,0.0063100904154937505,3.014314999941288
1782985422865599232,2.9350991249084473,0.7257676124572754,1.9062541723251343,-0.4094248116016388,0.025217823684215546,-0.22629162669181824,-0.973733127117157,0.21875494718551636,0.026905030012130737,0.3129817843437195,0.06363439894925386,-0.005370684240395115,0.11447533925011767,0.9913713947979582,0.22826886311086295,0.025892298877854172,3.010423758211626
1782985422875518976,2.945019006729126,0.6388459801673889,1.8686636686325073,-0.3200218379497528,0.04422437399625778,-0.23253844678401947,-0.971581220626831,0.16033495962619781,-0.02934814989566803,0.35878825187683105,0.06448087905371884,-0.014618758227788303,0.11830333268910154,0.990773899312806,0.2346868669270017,0.0454865409931087,3.0062502281195083
1782985422885439232,2.954939126968384,0.5202610492706299,1.9314066171646118,-0.2886202335357666,0.06302689015865326,-0.23821642994880676,-0.9691648483276367,0.14580488204956055,-0.08169932663440704,0.3085203766822815,0.06486905470329887,-0.023843856314822144,0.12185661731177971,0.9901386097724726,0.24052899540952968,0.06494072223341199,3.0028987420553928
1782985422895358976,2.9648590087890625,0.4239632189273834,1.7819039821624756,-0.41360798478126526,0.08208134770393372,-0.24231559038162231,-0.9667190909385681,0.12336298078298569,-0.022256553173065186,0.2935776114463806,0.06555606568874446,-0.033218896042597944,0.12464734194937153,0.9894755422965883,0.24475186498095017,0.0847039756862928,2.9988553911961846
1782985422905279232,2.9747791290283203,0.6252302527427673,1.7415419816970825,-0.22167344391345978,0.09956225752830505,-0.2473122775554657,-0.9638070464134216,0.22078076004981995,0.021711081266403198,0.21269315481185913,0.06599192102568682,-0.04181553536335876,0.12785907916099815,0.9887105694705104,0.24990537099009413,0.1029359162178887,2.9953587530636363
1782985422915198976,2.984699010848999,0.6381486654281616,1.502423644065857,-0.28225386142730713,0.11615204811096191,-0.2529289126396179,-0.9604871869087219,0.16134428977966309,0.06548994779586792,0.16600781679153442,0.06652690199983047,-0.049942930145201486,0.13138532383218468,0.9878348451016589,0.25570640227376296,0.12034596498461952,2.991613962392997
1782985422925117952,2.9946179389953613,0.514685869216919,1.4969351291656494,-0.3162331283092499,0.1307351291179657,-0.2585638761520386,-0.9571065902709961,0.1380484402179718,0.14178839325904846,0.08898836374282837,0.06694029971343711,-0.05708468641218769,0.13486301984458013,0.9869510694145198,0.2615352217703834,0.13575397435758352,2.9882683153110525
1782985422935038208,3.004538059234619,0.6338464021682739,1.5117093324661255,-0.22569948434829712,0.14595921337604523,-0.2633058428764343,-0.9536067843437195,0.08969751000404358,0.1645357310771942,0.12265896797180176,0.06743353419183348,-0.06458034179496965,0.13793468789409438,0.9860304663394437,0.26644737893889225,0.1518814236777342,2.984634216109235
1782985422944957952,3.014457941055298,0.18071885406970978,1.315833568572998,-0.5015518665313721,0.15991392731666565,-0.2669166028499603,-0.9503594636917114,0.11421021819114685,0.09890204668045044,0.025936245918273926,0.06830827605825669,-0.07142582962939575,0.1404230405715774,0.985146518757416,0.2701921170313477,0.16670514286322569,2.9804269971282715
1782985422954878208,3.0243780612945557,0.18733002245426178,1.2920401096343994,-0.21512413024902344,0.17400911450386047,-0.2675861418247223,-0.9476911425590515,0.15857146680355072,0.08974495530128479,0.11656016111373901,0.06958157341307887,-0.07838615304569949,0.14145685645612924,0.9843800267362617,0.27088694615797604,0.18159104315858982,2.975642265179765
1782985422964797952,3.0342979431152344,0.10261700302362442,1.2469053268432617,-0.2701956331729889,0.18652984499931335,-0.26900285482406616,-0.9449042677879333,0.16700105369091034,-0.03505903482437134,-0.04575735330581665,0.06959051363120392,-0.08471573978695063,0.14272737772921393,0.9836713634725265,0.27235756392716454,0.19490015423141388,2.973546805143335
1782985422974718208,3.044218063354492,-0.38934656977653503,1.0412977933883667,-0.6159234642982483,0.198118656873703,-0.2665688991546631,-0.9432337880134583,0.04388575255870819,0.023175954818725586,-0.03224527835845947,0.07113723097536369,-0.09047526965699856,0.14211726550859224,0.9831360336936874,0.26983134607610904,0.20703235456304878,2.9689279352286535
1782985422984637952,3.054137945175171,0.10875671356916428,1.1879082918167114,-0.08731687068939209,0.2098752111196518,-0.26413828134536743,-0.9413731098175049,0.036844149231910706,0.007653325796127319,-0.13150286674499512,0.07218891997703397,-0.09640217165361929,0.14149224845706582,0.9825860960615996,0.2673103770939599,0.21935839416670924,2.965308718441316
1782985422994558208,3.0640580654144287,0.056873612105846405,1.0443865060806274,0.03177453204989433,0.22042275965213776,-0.26579028367996216,-0.9384931325912476,-0.10665322840213776,-0.12794750928878784,-0.26505911350250244,0.07132564234183886,-0.10187242262742773,0.14274259932929548,0.9819160741943249,0.26902358937354925,0.23068762404030338,2.9652135308973087
1782985423004476928,3.073976993560791,-0.6559086441993713,0.8975380063056946,0.2528613805770874,0.2286815047264099,-0.26290273666381836,-0.9373296499252319,-0.2438945323228836,-0.12776803970336914,-0.10585272312164307,0.06992739697480242,-0.1063924322390181,0.14147727312833275,0.9817203726795082,0.2660295611564445,0.23929656821562964,2.967203999085378
1782985423014397184,3.083897113800049,-0.9857608079910278,0.928252100944519,0.14197616279125214,0.23675860464572906,-0.2562501132488251,-0.9371665716171265,-0.07228413224220276,-0.24123215675354004,-0.14689403772354126,0.0676717887915543,-0.11104747688145136,0.1381490521011455,0.9818369015872469,0.2591407761105276,0.24745463950387117,2.9715568259860987
1782985423024316928,3.0938169956207275,-1.8267459869384766,0.9448278546333313,-0.24105723202228546,0.24559327960014343,-0.2429584115743637,-0.9384322762489319,-0.08619999885559082,-0.11022152006626129,-0.09931790828704834,0.06668900562072887,-0.11608636724923961,0.1315591708943889,0.9822263700519951,0.24541447844608877,0.2559652951191473,2.974270983037515
1782985423034237184,3.1037371158599854,-2.1500725746154785,0.9009550213813782,-0.12737932801246643,0.2536889612674713,-0.2242300808429718,-0.9409371614456177,-0.0540124773979187,0.052126213908195496,-0.08491116762161255,0.06558800480820756,-0.1208971004867035,0.12212821920912711,0.9829378008441914,0.2261529343446184,0.2633511513415255,2.9782589856365775
1782985423044156928,3.113656997680664,-2.3659350872039795,1.0732147693634033,-0.3448922038078308,0.26450422406196594,-0.2016921490430832,-0.943057656288147,-0.19484788179397583,0.21252590417861938,-0.16868239641189575,0.0651125560476191,-0.12712411287878014,0.11095322255144784,0.9835086065709887,0.20308526623175854,0.27344922421333007,2.981341203882626
1782985423054077184,3.123577117919922,-2.350269079208374,0.8806403279304504,0.21566618978977203,0.2734394967556,-0.18007031083106995,-0.9448838829994202,0.09698286652565002,0.34762707352638245,-0.32252639532089233,0.06304105296899634,-0.1325231075893621,0.09997844216247827,0.9841076464507348,0.1810579254568575,0.2816942171469059,2.9879088793582493
1782985423063996928,3.1334969997406006,-2.2792084217071533,0.6270429491996765,0.034468453377485275,0.28054842352867126,-0.15773893892765045,-0.9467898607254028,0.27024808526039124,0.32441067695617676,-0.28479278087615967,0.0607980713761571,-0.13698189924007145,0.08854961416075548,0.9847327369789106,0.1584005038476087,0.28807300834125693,2.9952461419808762
1782985423073915904,3.143415927886963,-2.089510917663574,0.6392351984977722,0.12496782839298248,0.2863773703575134,-0.13815324008464813,-0.9481042623519897,0.18968158960342407,0.09190385043621063,-0.40568602085113525,0.05834462145541934,-0.14069200761571002,0.078445077701932,0.985214717863243,0.1385965371830382,0.2933388616571604,3.0027833803942103
1782985423083836160,3.1533360481262207,-2.465109348297119,0.3238391876220703,-0.491504430770874,0.2906983494758606,-0.11628451943397522,-0.9497222900390625,0.0962950587272644,0.06074252724647522,-0.397735595703125,0.05752204422862401,-0.14353057425904336,0.06736351189299183,0.9856735348353372,0.11654819358320245,0.297032486289332,3.0075516390641823
1782985423093755904,3.1632559299468994,-2.5808162689208984,0.4727324843406677,-0.9008069038391113,0.29492950439453125,-0.09110201895236969,-0.9511661529541016,0.11725616455078125,0.10559786856174469,-0.43451499938964844,0.05907441841864563,-0.14627321211058353,0.05496438018913708,0.9859479179084943,0.09122851359858968,0.3006709068813292,3.0080744942809785
1782985423103676160,3.1731760501861572,-4.420111656188965,-0.015028131194412708,-1.048082947731018,0.2986089289188385,-0.055366840213537216,-0.9527682065963745,0.1651667058467865,0.07520325481891632,-0.2553311586380005,0.06122292822378236,-0.14907315053704404,0.037324332696233954,0.9862229759548224,0.05539516615706531,0.303715476814831,3.0091158304263415
1782985423113595904,3.183095932006836,-4.996392726898193,0.39776843786239624,-1.2844672203063965,0.30022406578063965,-0.006908048875629902,-0.9538437128067017,0.22486138343811035,0.44419440627098083,0.14380037784576416,0.06353976805435316,-0.1513359586647277,0.013250761986761724,0.9863490321374102,0.006908104042283568,0.3049350465958637,3.0118706056180264
1782985423123516160,3.1930160522460938,-4.5137786865234375,0.09737613797187805,-1.3034758567810059,0.30266809463500977,0.04255223646759987,-0.9521456360816956,0.20851656794548035,0.47786402702331543,-0.11812102794647217,0.06634011293854193,-0.15427802047265257,-0.011201089512821612,0.9857342152799814,-0.04256508894663871,0.3077787074673975,3.0137984168502774
1782985423133435904,3.2029359340667725,-4.027341365814209,0.049567218869924545,-1.115095615386963,0.30212071537971497,0.08627596497535706,-0.9493574500083923,0.26781031489372253,0.37264737486839294,-0.27162033319473267,0.06891129461311202,-0.15568670041231344,-0.03290796026489241,0.9848502230975263,-0.08638336143216437,0.30810292821869933,3.015299590989226
1782985423143356160,3.2128560543060303,-4.287927150726318,-0.15779022872447968,-1.0163745880126953,0.30139634013175964,0.1277654469013214,-0.9449000954627991,0.23453810811042786,0.1594812572002411,-0.2631534934043884,0.07083986335104543,-0.15707676900173126,-0.05363607275398771,0.9835810844319055,-0.12811563285068497,0.3087698214567366,3.0177605866491533
1782985423153275136,3.2227749824523926,-4.844202995300293,0.08148068189620972,-1.0945615768432617,0.2992379665374756,0.17382974922657013,-0.9382109642028809,0.21034452319145203,0.13168169558048248,-0.08234256505966187,0.0724859425523279,-0.15807354467441265,-0.07685872951510739,0.9817592388873975,-0.17471730699689952,0.3087459097713679,3.021450310186605
1782985423163195136,3.2326951026916504,-5.651825428009033,-0.014839465729892254,-1.1620519161224365,0.2975638210773468,0.2253039926290512,-0.9277358651161194,0.1881386637687683,0.11957517266273499,-0.12884366512298584,0.07374434110645865,-0.15973565725325142,-0.10303675560884708,0.97899427878279,-0.2272550373110607,0.31037584500370197,3.026926489813702
1782985423173115136,3.242614984512329,-6.336909294128418,0.14499779045581818,-1.2517367601394653,0.29503294825553894,0.283856064081192,-0.9123493432998657,0.14028504490852356,0.23369154334068298,0.08002817630767822,0.0748982134352982,-0.16153343202325063,-0.13316263663455918,0.974969206308967,-0.2878132165751989,0.312763419342688,3.0339387842982024
1782985423183035136,3.252535104751587,-6.4005608558654785,0.12956823408603668,-1.2900545597076416,0.29214417934417725,0.34503594040870667,-0.8919652104377747,0.22111570835113525,0.25579413771629333,0.021313965320587158,0.07600460693421733,-0.16358632498465583,-0.16509663191058743,0.9696421731733937,-0.3522770790555962,0.31651729563508224,3.0419386777207147
1782985423192955136,3.2624549865722656,-6.072303771972656,0.0543128177523613,-1.2407306432724,0.2881964147090912,0.40326428413391113,-0.8685163855552673,0.2910424768924713,0.24573779106140137,-0.10848861932754517,0.0772485345238333,-0.16527693109374642,-0.19602382332584645,0.9634784794333477,-0.41508123867953567,0.32039345098636685,3.0496044977604844
1782985423202875136,3.2723751068115234,-5.3058929443359375,0.03362219035625458,-1.207375407218933,0.2835703492164612,0.45554834604263306,-0.8438385725021362,0.4183797240257263,0.42257967591285706,-0.21222221851348877,0.07836275719378555,-0.16653542472490607,-0.2243806437638125,0.9569631317613091,-0.47298810276756775,0.3241918589887736,3.0569657550461593
1782985423212795136,3.282294988632202,-4.306765079498291,0.14133480191230774,-1.2941153049468994,0.2786589562892914,0.49879106879234314,-0.8207049369812012,0.38361823558807373,0.5631290674209595,-0.33736079931259155,0.0804346399760279,-0.16754435746378393,-0.24814595668516418,0.9507274221453516,-0.5222033869247253,0.3273226316230846,3.0609813749050354
1782985423222715136,3.29221510887146,-3.372833251953125,0.21256104111671448,-1.3012243509292603,0.2734723389148712,0.5333179831504822,-0.8004903793334961,0.3424181640148163,0.6899638772010803,-0.2707834243774414,0.08349302831715154,-0.16828511092312887,-0.26727315951204006,0.9451318161903292,-0.5625181185814281,0.32919978652915405,3.0612764608267593
1782985423232634112,3.3021340370178223,-2.5710134506225586,0.3464953601360321,-1.3492456674575806,0.26868781447410583,0.5600042343139648,-0.7837104797363281,0.27045097947120667,0.6074457168579102,-0.22602462768554688,0.08763720695644668,-0.16915633968136284,-0.28201224443563117,0.9403057121400834,-0.594390902010534,0.33028261128371117,3.057723581605999
1782985423242553856,3.312053918838501,-2.270768880844116,0.33587998151779175,-1.4088318347930908,0.26360657811164856,0.5821221470832825,-0.769184947013855,0.25177428126335144,0.44105595350265503,-0.20357811450958252,0.09244520506279577,-0.16987661423747374,-0.29419292147364373,0.9359735101877038,-0.621336167699727,0.33016476130336586,3.051569010446031
1782985423252474112,3.321974039077759,-2.339656114578247,0.41066306829452515,-1.5537582635879517,0.25801268219947815,0.6032983064651489,-0.7546261548995972,0.26803410053253174,0.3483160734176636,-0.14930450916290283,0.09794203947197687,-0.17065229507410942,-0.3058835191817736,0.9315151045346958,-0.6476303950612977,0.3294477510576197,3.0435447142932732
1782985423262393856,3.3318939208984375,-2.5187058448791504,0.47861015796661377,-1.689098834991455,0.251717209815979,0.6256333589553833,-0.738391101360321,0.2013620138168335,0.3981093168258667,-0.11414796113967896,0.10402860112074076,-0.17159306097080607,-0.3183712878304427,0.9264845580163766,-0.675943116062231,0.32854463891124686,3.034350520347894
1782985423272314112,3.3418140411376953,-2.3566179275512695,0.5898288488388062,-1.7248555421829224,0.24556191265583038,0.6477959156036377,-0.7211517691612244,0.14413230121135712,0.4420936107635498,-0.14133602380752563,0.110436554753886,-0.17297796930452092,-0.33091198516200354,0.9210753033448346,-0.7046876337549858,0.32819872762315383,3.0245519887719223
1782985423282233856,3.351733922958374,-1.9488383531570435,0.6200477480888367,-1.7977075576782227,0.239981010556221,0.6676927804946899,-0.7046952843666077,0.1210419237613678,0.3783887028694153,-0.24545425176620483,0.11730850972202876,-0.17486241203372868,-0.34216297454626227,0.9157436033429238,-0.7311052189422301,0.3282276667410414,3.0133783728422796
1782985423292154112,3.361654043197632,-1.4947317838668823,0.6844123005867004,-1.9604383707046509,0.23223097622394562,0.6840264797210693,-0.6915030479431152,0.1606065332889557,0.3304998278617859,-0.2584328055381775,0.1253459325705654,-0.17577120941816682,-0.35121639657269754,0.9110652171417846,-0.7532683049374028,0.32400042711996324,2.997246304938654
1782985423302073088,3.371572971343994,-1.1614726781845093,0.5873214602470398,-2.076019287109375,0.22299355268478394,0.6977502107620239,-0.680748462677002,0.18852072954177856,0.3596227765083313,-0.21408790349960327,0.13445248212009514,-0.17612755413331518,-0.3586152064809557,0.9068057503066639,-0.7722520412532758,0.31655565612868575,2.976790975550873
1782985423311993088,3.381493091583252,-0.866489589214325,0.565998375415802,-2.0610029697418213,0.21257956326007843,0.7089133262634277,-0.6724966764450073,0.27284830808639526,0.38845300674438477,-0.23259365558624268,0.14389517152348455,-0.17577569865681758,-0.36449219541433725,0.9030738957266696,-0.7879562731845664,0.3061657474343125,2.9536758501402782
1782985423321913088,3.3914129734039307,-0.9818676114082336,0.5690524578094482,-2.112546682357788,0.2014089822769165,0.7191503643989563,-0.6650242209434509,0.274375319480896,0.3513147234916687,-0.12507587671279907,0.1534512322948194,-0.17507655826577534,-0.36991361771741016,0.8994247623776073,-0.8025787881524349,0.2940782265203713,2.929149453648099
1782985423331833088,3.4013330936431885,-1.4616705179214478,0.5754187107086182,-2.09838604927063,0.18997757136821747,0.7312162518501282,-0.6551575660705566,0.24762922525405884,0.22155779600143433,0.04584360122680664,0.1629290923507174,-0.1747067093927668,-0.3766945602253529,0.895004470237334,-0.8201032157554592,0.282231906042804,2.9047992511991803
1782985423341753088,3.411252975463867,-1.9420586824417114,0.6932265758514404,-2.0017499923706055,0.1794203519821167,0.7458676695823669,-0.6414746642112732,0.2759629487991333,0.08364588022232056,0.1523541808128357,0.17162643410549805,-0.17521575328656722,-0.38543755389079004,0.8895401509007671,-0.841836515841823,0.2727303265619585,2.8831025027089456
1782985423351673088,3.421173095703125,-2.5348634719848633,0.7918994426727295,-2.010560989379883,0.1692676693201065,0.7634591460227966,-0.6232805252075195,0.2706889808177948,-0.01501554250717163,0.21210193634033203,0.17993126881467,-0.17667486376571329,-0.39641609400334177,0.8827599081708966,-0.8686521821135497,0.2651796201377357,2.863021899914086
1782985423361593088,3.4310929775238037,-3.1956372261047363,0.9339889287948608,-1.835686445236206,0.15959025919437408,0.7841958999633789,-0.5996395945549011,0.3089766204357147,-0.15251260995864868,0.2184598445892334,0.18761541853981936,-0.1792135394960698,-0.4099545107258034,0.8744256486980132,-0.9013992405618513,0.2601140059739768,2.8453042910874706
1782985423371513088,3.4410130977630615,-3.6312642097473145,0.9701586961746216,-1.6804794073104858,0.1515958607196808,0.8068231344223022,-0.5710123777389526,0.3918001651763916,-0.27465760707855225,0.23818767070770264,0.19401024960845342,-0.18308636770630177,-0.425409458329172,0.8647925349362078,-0.9387548694462492,0.25949990549714963,2.8323791972440846
1782985423381432064,3.450932025909424,-4.041803359985352,1.0914888381958008,-1.765335202217102,0.14330102503299713,0.830492377281189,-0.5382817387580872,0.35581398010253906,-0.32460248470306396,0.29348498582839966,0.2000581241787056,-0.18755287960773226,-0.44236076564129484,0.853883863674564,-0.979991065902223,0.26018474306675454,2.8206512233710037
1782985423391352064,3.4608519077301025,-3.9313063621520996,1.0839415788650513,-1.4329012632369995,0.13557583093643188,0.8535016775131226,-0.5031443238258362,0.3470444083213806,-0.238908052444458,0.2832499146461487,0.20545295469271793,-0.19262370106825497,-0.4596998307538884,0.842235949157172,-1.0226686442582542,0.263205784665783,2.8113374201879493
1782985423401272064,3.4707720279693604,-3.6300878524780273,1.1288387775421143,-1.0798795223236084,0.1303611397743225,0.8734728097915649,-0.46909597516059875,0.4018043875694275,-0.238997220993042,0.20856744050979614,0.2094912582019415,-0.19830083271578608,-0.47553001466369926,0.8310603208913726,-1.0622902546470123,0.2710590773027958,2.8076035664252954
1782985423411192064,3.480691909790039,-3.278881311416626,1.2675048112869263,-1.0207676887512207,0.12695792317390442,0.8903407454490662,-0.43723565340042114,0.30645275115966797,-0.29425615072250366,0.26844292879104614,0.21301811251176733,-0.20444059565038145,-0.4894754524966884,0.8205126755332933,-1.0980929859559732,0.2825940678894475,2.8071880333900117
1782985423421112064,3.490612030029297,-2.3026037216186523,1.2494914531707764,-0.8631207942962646,0.12411527335643768,0.9035527110099792,-0.41010716557502747,0.18911714851856232,-0.21811264753341675,0.28754860162734985,0.21690580940192908,-0.210384780252091,-0.5006841902371546,0.811175336494699,-1.1279898093109317,0.2938780241031486,2.805716155577685
1782985423431032064,3.5005319118499756,-1.3063527345657349,1.2696857452392578,-0.7452033162117004,0.12237520515918732,0.9117404222488403,-0.3921143412590027,0.1713564693927765,-0.03355139493942261,0.2670228183269501,0.22116814871979254,-0.2155662371771125,-0.5074189828473438,0.8044512106868339,-1.1475012927598531,0.3025118604372994,2.8013659351356095
1782985423440952064,3.5104520320892334,-0.6618341207504272,1.4614778757095337,-0.5261258482933044,0.12240181863307953,0.9163032174110413,-0.38132157921791077,0.17798271775245667,0.14522022008895874,0.40115803480148315,0.225956778421298,-0.2207567951702401,-0.5104954893770406,0.7997526258512742,-1.1587499662757297,0.3106040677028402,2.7950383011357682
1782985423450872064,3.520371913909912,-0.7082265615463257,1.740075945854187,-0.2510051429271698,0.12553517520427704,0.9193298816680908,-0.37292566895484924,0.25707894563674927,0.00700068473815918,0.6258705854415894,0.23058910205165903,-0.22717023360211178,-0.5117918055389375,0.7957961643442597,-1.1663740357358623,0.32470789092480473,2.7928098178718246
1782985423460791040,3.5302910804748535,-1.1924188137054443,1.9871861934661865,0.015196453779935837,0.13237154483795166,0.923147439956665,-0.3609384000301361,0.27741849422454834,-0.2625334858894348,0.8851999044418335,0.23434390900851423,-0.23588804227535706,-0.5136999452137728,0.7909185237246729,-1.176188634220472,0.3515118543196658,2.801220836676436
