time,seconds_elapsed,rotationRateX,rotationRateY,rotationRateZ,gravityX,gravityY,gravityZ,accelerationX,accelerationY,accelerationZ,quaternionW,quaternionX,quaternionY,quaternionZ,pitch,roll,yaw
1784805496842369024,0.38133907318115234,-0.12915895879268646,0.10395948588848114,-0.15977387130260468,0.0606817901134491,0.6738004088401794,-0.7364174723625183,-0.0896277129650116,0.005627691745758057,0.040601491928100586,0.8428350520604991,-0.3409380256039086,-0.12470972983615873,0.39728811685318544,-0.7393400663182393,0.08221559617420313,0.9128391776385927
1784805496852288000,0.39125800132751465,-0.25935083627700806,0.14698544144630432,-0.19785179197788239,0.05980053171515465,0.6756170988082886,-0.7348233461380005,-0.10296764224767685,0.01507192850112915,0.029623210430145264,0.8429324512521169,-0.3419283102731899,-0.12519325178471705,0.3960763584068641,-0.7418014242329012,0.08120187737899098,0.9101177915046389
1784805496862208000,0.40117812156677246,-0.2897140681743622,0.12650145590305328,-0.19680969417095184,0.05865835025906563,0.6780726313591003,-0.7326505184173584,-0.08237053453922272,0.008160889148712158,0.012908697128295898,0.8429463178530359,-0.34324843707179026,-0.1259176040095484,0.3946731880050912,-0.7451371435957768,0.07989278655771521,0.907020238212262
1784805496872126976,0.41109704971313477,-0.21565955877304077,0.11830593645572662,-0.1971975862979889,0.05731024965643883,0.6803561449050903,-0.7306374907493591,-0.04726998135447502,-0.029706180095672607,-0.020613789558410645,0.8429878898646426,-0.3444236124386331,-0.1267029603360442,0.39330690588054906,-0.7482485068962781,0.07827841632731615,0.9038307208306082
1784805496882046208,0.42101621627807617,-0.06937159597873688,0.11590562760829926,-0.1571020931005478,0.05605313181877136,0.681688129901886,-0.7294926047325134,-0.03282926604151726,-0.060548603534698486,-0.05108606815338135,0.8432179483859761,-0.3450660101276437,-0.12721304363812097,0.3920840778970689,-0.7500674680017513,0.07668783560394747,0.9006934274532911
1784805496891966208,0.4309360980987549,0.10876664519309998,0.1068703904747963,-0.047430749982595444,0.05529678612947464,0.6816357374191284,-0.7295991778373718,-0.012282270938158035,-0.04697692394256592,-0.0561063289642334,0.8435960276673256,-0.34497292745859154,-0.1272559543979863,0.39133798429755595,-0.7499958997107653,0.07564601103298778,0.8984817671926869
1784805496901884928,0.4408550262451172,0.3041907548904419,0.11836645752191544,0.03219350427389145,0.05530345439910889,0.6800253987312317,-0.7310999035835266,-0.02512158453464508,-0.01831275224685669,-0.05872553586959839,0.844121166423914,-0.3440913359704572,-0.1266933583222738,0.3911643763444611,-0.7477973001406446,0.0755003978519383,0.8975150124330086
1784805496911805184,0.450775146484375,0.4513813257217407,0.09948567301034927,0.07269489020109177,0.055568937212228775,0.6770055294036865,-0.7338771820068359,-0.04374339431524277,-0.009708106517791748,-0.07326698303222656,0.8448758294769464,-0.34242920012120603,-0.12571258563817644,0.39131006813866226,-0.7436862580846998,0.0755754529137623,0.8969676982274378
1784805496921724160,0.4606940746307373,0.44856369495391846,0.05056020990014076,0.10136621445417404,0.05574581399559975,0.6731995940208435,-0.7373566031455994,-0.017430998384952545,-0.020611703395843506,-0.061776697635650635,0.8457095632595879,-0.3402690501018677,-0.12465421271575369,0.39173168256823837,-0.7385272328100415,0.07545869842438169,0.8967670113630792
1784805496931644160,0.4706141948699951,0.19945493340492249,0.004041291307657957,0.10422465205192566,0.05573112890124321,0.6703439354896545,-0.7399547696113586,-0.006887763738632202,-0.05147796869277954,-0.017033696174621582,0.8462432110499339,-0.3385914196839068,-0.12400989648250518,0.39223704338220533,-0.7346721774332703,0.07517500482118787,0.8969928816008149
1784805496941563136,0.4805331230163574,-0.023531537503004074,0.011763925664126873,0.035491395741701126,0.055492326617240906,0.6692837476730347,-0.7409318089485168,-0.04580302536487579,-0.08249169588088989,0.07120835781097412,0.8463996752553292,-0.33790145158485463,-0.12392213535785913,0.3925221921394731,-0.7332443588326061,0.07475575309361314,0.8971837170076621
1784805496951482112,0.4904520511627197,-0.22232545912265778,0.05287381261587143,-0.03293593227863312,0.05520926043391228,0.6699063181877136,-0.7403900623321533,-0.08157645165920258,-0.07957428693771362,0.10342717170715332,0.8463233491728743,-0.338210555827186,-0.1241716598904286,0.3923414062709551,-0.7340826403772037,0.07443005649951429,0.8968113434255471
1784805496961402112,0.5003721714019775,-0.3974008858203888,0.08623550087213516,-0.07870528846979141,0.05496525764465332,0.6721406579017639,-0.738380491733551,-0.07901312410831451,-0.017141878604888916,0.11791235208511353,0.8460079230418177,-0.3394932420934413,-0.12471602248312867,0.39174085150084653,-0.7370961461394829,0.07430324297117352,0.8960069773674596
1784805496971321088,0.5102910995483398,-0.4011378884315491,0.11265846341848373,-0.09608044475317001,0.054811444133520126,0.6751182675361633,-0.7356705069541931,-0.07428167760372162,0.034888386726379395,0.06873935461044312,0.845594386947802,-0.34125261837126153,-0.12534510509140054,0.390903487885243,-0.741125017496589,0.07436801958476585,0.8949461698222485
1784805496981241088,0.5202109813690186,-0.33150848746299744,0.10525780916213989,-0.10709554702043533,0.05457652360200882,0.6778120994567871,-0.7332067489624023,-0.06125987693667412,0.044630467891693115,0.02684694528579712,0.8452741028124169,-0.34284597603628386,-0.12590976522397093,0.3900192373319876,-0.7447827693048024,0.0742983658049114,0.8936397589316445
1784805496991160064,0.53013014793396,-0.2801637053489685,0.10050235688686371,-0.10110846161842346,0.05425215885043144,0.680074155330658,-0.731133222579956,-0.05635787174105644,0.04645782709121704,0.0031211376190185547,0.8450569537011257,-0.3441758047757995,-0.12639776189320734,0.3891598017785475,-0.7478637972684992,0.07406709653768417,0.8921989823104118
1784805497001080064,0.5400500297546387,-0.2542242705821991,0.09658990800380707,-0.07885188609361649,0.05394019931554794,0.6820932626724243,-0.7292730808258057,-0.04196205362677574,0.029759764671325684,-0.030996084213256836,0.8448715138935282,-0.3453646026907329,-0.1268335058850331,0.38836671534455924,-0.7506213367392653,0.07382989670075867,0.89084081737402
1784805497010999296,0.5499691963195801,-0.13860805332660675,0.07956850528717041,-0.020048828795552254,0.05376807972788811,0.6835977435112,-0.727875828742981,-0.016445089131593704,-0.007618129253387451,-0.06938064098358154,0.84471874484771,-0.34626270498979395,-0.12713863258762428,0.3877992756386576,-0.7526806828639326,0.07373592886129916,0.8899195267781331
1784805497020918016,0.5598881244659424,-0.013513256795704365,0.03544817864894867,0.003269543405622244,0.0536690428853035,0.684116005897522,-0.7273960113525391,0.009181894361972809,-0.022403359413146973,-0.10115623474121094,0.8446905394120912,-0.34657121426673837,-0.12724140145133322,0.38755131269597,-0.7533910040938785,0.07364897165413277,0.8894557213004975
1784805497030838016,0.5698080062866211,0.044895194470882416,0.03665927052497864,0.016550594940781593,0.053429488092660904,0.6838992238044739,-0.7276174426078796,0.030631173402071,-0.020141899585723877,-0.08128148317337036,0.8447899217643714,-0.3464041589217529,-0.12726128790460525,0.3874774398935773,-0.7530938650341432,0.07329918252139364,0.8890708760242134
1784805497040757248,0.5797271728515625,0.02596571110188961,0.08818424493074417,0.00928069744259119,0.053403340280056,0.6835086941719055,-0.7279862761497498,-0.014371369034051895,-0.001150965690612793,-0.030589163303375244,0.8449463036894943,-0.3461920980545633,-0.12711373761998615,0.3873743913838473,-0.7525586750186188,0.07322645825948162,0.8886775979628312
1784805497050676992,0.5896470546722412,0.014713987708091736,0.11926496773958206,0.0030961045995354652,0.05363127216696739,0.6832446455955505,-0.7282173037528992,-0.04145476967096329,0.008909285068511963,-0.003960371017456055,0.8451160151830069,-0.3461280419560993,-0.12683340601484866,0.38715319746836213,-0.7521969813545836,0.07351462113553027,0.8881913972842264
1784805497060595968,0.5995659828186035,0.01913882978260517,0.12208446115255356,0.008396062068641186,0.05396178364753723,0.682985782623291,-0.7284356355667114,-0.014243144541978836,-0.006685793399810791,0.010341823101043701,0.8452917551107006,-0.346093691691867,-0.12649634099402446,0.3869102764990325,-0.7518425242597969,0.07394393412134263,0.8877132465315227
1784805497070516224,0.6094861030578613,0.0028284990694373846,0.16387513279914856,0.03278818726539612,0.05456801876425743,0.6828009486198425,-0.7285637855529785,0.010876927524805069,-0.00791996717453003,0.036623477935791016,0.8454401422049312,-0.34616432444066536,-0.12604906808368294,0.3866688240271426,-0.751589504526179,0.07475848569893838,0.8874190509077478
1784805497080434944,0.6194050312042236,0.05621076375246048,0.23659220337867737,0.09696957468986511,0.05602588132023811,0.6825277209281921,-0.7287091016769409,0.024799920618534088,0.001355886459350586,0.04323858022689819,0.8455322242229736,-0.3463605589973923,-0.12521900402661346,0.38656146101706973,-0.751215617488164,0.07673278331236519,0.8878899579644012
1784805497090354176,0.629324197769165,0.23171022534370422,0.32720431685447693,0.1540190428495407,0.05855703726410866,0.6814271807670593,-0.7295396327972412,0.058218471705913544,-0.012787044048309326,0.006334066390991211,0.8457405500995979,-0.34630673170580795,-0.12370051365687935,0.38664296013015154,-0.7497108409784364,0.08009402753168382,0.8891206848978084
1784805497100274176,0.6392440795898438,0.5340447425842285,0.4359145760536194,0.19164498150348663,0.06222376599907875,0.6785807609558105,-0.7318854331970215,0.11374060064554214,-0.027045786380767822,-0.05543750524520874,0.846305934843769,-0.34549789367524825,-0.12119608758538426,0.3869223318276424,-0.7458287496733265,0.08481449253282429,0.8908313742820881
1784805497110192896,0.649163007736206,1.3394392728805542,0.5677555203437805,0.16753605008125305,0.06691320985555649,0.671894371509552,-0.7376181483268738,0.1807979792356491,-0.023701012134552002,-0.12181788682937622,0.8477869757556697,-0.3427360899035562,-0.11714477434912918,0.38738382623274065,-0.7367635504302076,0.09046762245246535,0.8921536662247764
1784805497120113152,0.6590831279754639,2.008183002471924,0.3894649147987366,-0.012086176313459873,0.07116985321044922,0.6589045524597168,-0.7488521933555603,0.2550935745239258,0.008972644805908203,-0.14630460739135742,0.8508689188486476,-0.3363614915816586,-0.11151162428816959,0.38787645529936776,-0.7193615463153331,0.09475398754955652,0.8910855527935646
1784805497130032128,0.6690020561218262,2.271470546722412,0.20451800525188446,0.14411397278308868,0.07351823151111603,0.6424543857574463,-0.762789249420166,0.3731522858142853,0.05546736717224121,0.021715641021728516,0.854586228875057,-0.3276671647593583,-0.10601695211170735,0.38868631940181736,-0.697696768116794,0.0960840089948641,0.8886880663067508
1784805497139952128,0.678922176361084,2.300611972808838,0.1379309892654419,0.545828104019165,0.07768542319536209,0.6242564916610718,-0.7773472666740417,0.5031251311302185,0.012035012245178223,0.14294785261154175,0.8576570897744411,-0.31833654755990437,-0.09994103698614155,0.39127725806479746,-0.6741794581921603,0.0996058576252693,0.8909566797228693
1784805497149871104,0.6888411045074463,1.9660091400146484,0.1360684633255005,0.5501786470413208,0.08315321803092957,0.6067472696304321,-0.7905336022377014,0.37689927220344543,-0.07932722568511963,0.28407907485961914,0.8599348483282003,-0.30973039302886907,-0.0938098982865106,0.3946884569220544,-0.6519621619959836,0.10480082100067845,0.8960403736641137
1784805497159790080,0.6987600326538086,1.1565022468566895,0.2350381761789322,0.3096664249897003,0.087795689702034,0.5938760042190552,-0.7997519969940186,0.1305423080921173,-0.15047085285186768,0.32486796379089355,0.8615039059289002,-0.3036473724258345,-0.08900715860560085,0.3970983117208069,-0.6358678589570617,0.1093408099821291,0.8998381651191504
1784805497169710080,0.7086801528930664,0.4172041118144989,0.4823979139328003,0.141770601272583,0.09217281639575958,0.5875521302223206,-0.8039195537567139,-0.10187741369009018,-0.23435693979263306,0.28959155082702637,0.8623637974290213,-0.3012080254758686,-0.08552154321615664,0.39785491021639213,-0.6280303998481092,0.11415580274811565,0.9016206372085501
1784805497179629056,0.7185990810394287,-0.06234943866729736,0.7035918235778809,0.11103451997041702,0.09789203107357025,0.5860839486122131,-0.8043150901794434,-0.17461323738098145,-0.29004818201065063,0.18694448471069336,0.8626089816434879,-0.301765670963244,-0.0823403532494101,0.39757187565441665,-0.6262172370788192,0.12111288938848704,0.9030081901843974
1784805497189549312,0.7285192012786865,-0.3078446090221405,0.7532169818878174,0.13386011123657227,0.1045641079545021,0.5876367092132568,-0.802340030670166,-0.0959581509232521,-0.14201903343200684,0.17265546321868896,0.8623445121029295,-0.3041862433662556,-0.07937711893120145,0.39690314908011987,-0.628134962010124,0.1295935464771739,0.9048547720364887
1784805497199468032,0.7384381294250488,-0.18627236783504486,0.6930513978004456,0.1691722869873047,0.11137769371271133,0.5894902944564819,-0.8000600934028625,0.029384635388851166,0.08586364984512329,0.15304172039031982,0.8619244632165518,-0.30679193030681784,-0.07647654543887383,0.39637891306136963,-0.6304277274798323,0.13832267054222436,0.9072432566072849
1784805497209387008,0.7483570575714111,0.09184059500694275,0.6163915991783142,0.11622019857168198,0.11752576380968094,0.5898025631904602,-0.798949658870697,0.07874804735183716,0.2683364152908325,0.14945930242538452,0.8617765755606525,-0.30841235389023935,-0.0735322380095353,0.39599983259265253,-0.6308143655477642,0.14605288759746,0.9092106259924566
1784805497219307264,0.758277177810669,0.532402515411377,0.60646653175354,0.08099803328514099,0.12300390005111694,0.5872343182563782,-0.8000161647796631,0.03257471323013306,0.34880077838897705,0.14855748414993286,0.8622706331889853,-0.30833889354238575,-0.0701359038982038,0.39559745517164374,-0.6276377045143967,0.15255712741838706,0.9098695474926782
1784805497229226240,0.7681961059570312,0.8634425401687622,0.6994147300720215,0.07217217981815338,0.12872689962387085,0.5815684795379639,-0.8032481074333191,-0.07995980978012085,0.31561779975891113,0.11828106641769409,0.863391106583973,-0.30666515019623247,-0.06582118032769677,0.3951960928422549,-0.6206554266661407,0.158906761581222,0.909575762825439
1784805497239145984,0.77811598777771,1.0323691368103027,0.8175058960914612,-0.035149749368429184,0.13505826890468597,0.5739675760269165,-0.80766361951828,-0.19127164781093597,0.2183297872543335,0.07682859897613525,0.8650071212373683,-0.304127604039203,-0.06061849742230276,0.3944547115402248,-0.6113428289308742,0.16568792541163666,0.908079259245304
1784805497249065216,0.7880351543426514,1.1182873249053955,0.89890456199646,-0.187872976064682,0.1414317935705185,0.5655942559242249,-0.812465488910675,-0.2004833072423935,0.10713523626327515,-0.003071010112762451,0.8670622087900163,-0.3012392384916835,-0.05497427214768842,0.39298337275674416,-0.6011536777636206,0.17235023896308516,0.9046256326456805
1784805497258984960,0.7979550361633301,1.2631715536117554,0.8956762552261353,-0.2526485025882721,0.14756183326244354,0.5564071536064148,-0.817702054977417,-0.10282307863235474,0.053135693073272705,-0.10334897041320801,0.8694763760659464,-0.29789035520405066,-0.049094984514668705,0.39097555706461157,-0.5900554898803079,0.17853766913268035,0.89954350129805
1784805497268904192,0.8078742027282715,1.2482131719589233,0.8218901753425598,-0.3014772832393646,0.15314136445522308,0.5465710163116455,-0.8232908248901367,0.016170158982276917,0.07491946220397949,-0.1330079436302185,0.8203758125355323,-0.2869551649765657,-0.07753264389695676,0.48849647846798305,-0.5782639853183125,0.1839093796705716,1.1289889888020805
1784805497278823168,0.8177931308746338,1.0280286073684692,0.7259082794189453,-0.3229423463344574,0.15787172317504883,0.537810206413269,-0.828152596950531,0.08738277852535248,0.11357223987579346,-0.050189077854156494,0.8230218725538732,-0.2841332052668236,-0.07205571814653192,0.48652989034692895,-0.5678375344919132,0.18837109306688807,1.12289063213375
1784805497288742912,0.8277130126953125,0.7035982608795166,0.6872107982635498,-0.28023087978363037,0.16216038167476654,0.531227707862854,-0.8315654397010803,0.08407068252563477,0.04122096300125122,0.010078072547912598,0.825183013617286,-0.2822427819019318,-0.06750025775003439,0.48461914785936194,-0.5600490244110196,0.19258920555709585,1.1175808315303057
1784805497298662144,0.8376321792602539,0.21069879829883575,0.6117818355560303,-0.25941187143325806,0.1662476658821106,0.527994692325592,-0.8328165411949158,0.018459975719451904,-0.07625824213027954,0.08772987127304077,0.826666602112174,-0.2819314847031538,-0.06408102805453456,0.48273245033479323,-0.5562375236843239,0.19703110443125704,1.1134935458437993
1784805497308582144,0.8475520610809326,0.03712928295135498,0.05529755353927612,-0.14335764944553375,0.16880150139331818,0.5279048681259155,-0.8323596119880676,-0.04660910367965698,-0.13651692867279053,0.11769896745681763,0.8273926237990907,-0.2827066679589992,-0.0624270991136775,0.4812496018855742,-0.5561317728132323,0.200085228647424,1.110921347379257
1784805497318501120,0.8574709892272949,0.2369081825017929,-0.13046859204769135,0.1137673556804657,0.16776922345161438,0.526951789855957,-0.8331718444824219,-0.16508367657661438,-0.13045215606689453,-0.09093093872070312,0.827533198478639,-0.2819371408515346,-0.06265408342415045,0.48142981987251426,-0.5550099728090724,0.19870492378537072,1.1105806875029847
1784805497328421120,0.8673911094665527,0.26976504921913147,-0.11542164534330368,0.24393793940544128,0.16766305267810822,0.5243697166442871,-0.8348206877708435,-0.3077082335948944,-0.042222559452056885,-0.311892569065094,0.8273909200272418,-0.2805511502138063,-0.06229543176599741,0.48252947613982594,-0.5519747279219458,0.1982004364302974,1.1122440769746635
1784805497338340096,0.877310037612915,0.3044588565826416,0.09496275335550308,-0.00054530194029212,0.1687781661748886,0.5219043493270874,-0.8361397981643677,-0.2500007152557373,-0.0985492467880249,-0.3716391324996948,0.8274662538137808,-0.279604062398542,-0.06125082810814302,0.4830833797864307,-0.5490819706374901,0.1991776142464618,1.1131309868589818
1784805497348259328,0.8872292041778564,0.09516335278749466,0.03663712739944458,-0.22359347343444824,0.1686248630285263,0.520426332950592,-0.8370914459228516,-0.012664780020713806,-0.25065094232559204,-0.39420127868652344,0.828075242244267,-0.2788750874338807,-0.06068738372644338,0.4825319948756929,-0.5473501329478904,0.19878112507884343,1.1111976383347264
1784805497358179072,0.8971490859985352,-0.42903462052345276,0.05173804983496666,-0.23659849166870117,0.1676349639892578,0.5219131708145142,-0.836364209651947,0.1793346405029297,-0.27673500776290894,-0.2102818489074707,0.828456319198305,-0.27940999713354275,-0.06122039102813615,0.48149995826671727,-0.5490923114806148,0.19781183877550373,1.1088478252971108
1784805497368098048,0.9070680141448975,-1.175510048866272,-0.14128322899341583,0.05723610520362854,0.16679833829402924,0.5287219882011414,-0.8322448134422302,0.17682957649230957,-0.36220288276672363,-0.005859434604644775,0.8275886390106324,-0.2825876471453061,-0.0634178845019124,0.48085289090381395,-0.5570941928084107,0.19779917979009085,1.1094436435410722
1784805497378018048,0.9169881343841553,-1.8887306451797485,-0.025439444929361343,0.37358394265174866,0.16710683703422546,0.5407585501670837,-0.8244121670722961,-0.030266016721725464,-0.566774845123291,0.08520019054412842,0.8248279367080916,-0.2885853749605295,-0.06717429887764549,0.4815235601303964,-0.5713386479117485,0.1999885974416982,1.115741887797164
1784805497387937024,0.9269070625305176,-2.4913523197174072,0.2189905047416687,0.4042329788208008,0.17010515928268433,0.5580579042434692,-0.8121795654296875,-0.3666993975639343,-0.5633984804153442,0.1175994873046875,0.8206745165880449,-0.2979948992836069,-0.07147906989795079,0.48226875939264385,-0.5920434966229451,0.20645846470076945,1.1257470122966413
1784805497397857280,0.9368271827697754,-2.7034616470336914,0.3340531885623932,0.3186911940574646,0.17444296181201935,0.5783467888832092,-0.796921968460083,-0.32542866468429565,-0.330330491065979,0.05870175361633301,0.8159447900002981,-0.30944454351523815,-0.07604664377341001,0.48238480591032684,-0.6167007531003234,0.21549695167682037,1.1367218615739472
1784805497407776000,0.9467461109161377,-2.361907482147217,0.14066343009471893,0.3722749352455139,0.17833314836025238,0.5977016687393188,-0.7816329002380371,-0.0036657899618148804,-0.028060615062713623,-0.05277872085571289,0.8112666693280799,-0.32044461835426,-0.08061509994003886,0.48235141950779903,-0.6406313085750127,0.2243150037440069,1.147521484001161
1784805497417694976,0.9566650390625,-1.8359555006027222,-0.07487817108631134,0.49360162019729614,0.18115253746509552,0.6130859851837158,-0.7689664363861084,0.2314756214618683,0.19428706169128418,-0.1348726749420166,0.8068592798001253,-0.32912046100983783,-0.08483220524707288,0.48317847544729614,-0.6599609312240067,0.23136082994558266,1.1586854606421415
1784805497427615232,0.9665851593017578,-1.2086238861083984,-0.22473634779453278,0.5113600492477417,0.18315590918064117,0.6235635876655579,-0.7600147128105164,0.21328268945217133,0.23700159788131714,-0.17219048738479614,0.8030744632421913,-0.3349807118036949,-0.08820749725755124,0.48484924627434767,-0.6732928050549343,0.23648081060035187,1.1694326443783414
1784805497437534208,0.9765040874481201,-0.7778218388557434,-0.34414130449295044,0.5196824669837952,0.18412120640277863,0.6299877762794495,-0.7544633150100708,0.13494005799293518,0.1670551300048828,-0.1309279203414917,0.800076545978655,-0.33839070036649166,-0.09088497271924594,0.48693873168367635,-0.6815374404745979,0.23936391027415263,1.178695277091031
1784805497447454208,0.9864242076873779,-0.5868346095085144,-0.419405460357666,0.5689615607261658,0.1846911758184433,0.6338620781898499,-0.7510712742805481,0.07327388226985931,0.12280607223510742,-0.12606489658355713,0.7974720340591263,-0.34029837169427235,-0.09306646570815544,0.48946309260609094,-0.686536384250714,0.24111958042624146,1.1875102172637668
1784805497457373184,0.9963431358337402,-0.613018810749054,-0.43194442987442017,0.61287522315979,0.18515509366989136,0.6369792222976685,-0.7483148574829102,-0.020024463534355164,0.03420913219451904,-0.06178957223892212,0.7948684918563015,-0.3417366116183371,-0.0951770635399048,0.49228203707183227,-0.6905733190564953,0.24255781963388817,1.1966376409151926
1784805497467292928,1.006263017654419,-0.6485676169395447,-0.345964252948761,0.5932260155677795,0.18612517416477203,0.6403707265853882,-0.7451729774475098,-0.12115325033664703,-0.07282006740570068,0.023737430572509766,0.7921352892328987,-0.34346615602045477,-0.09718288400568686,0.4950839504269154,-0.69498080671133,0.24476638121021374,1.206235101083628
1784805497477212160,1.0161821842193604,-0.6732628345489502,-0.24071721732616425,0.4634634256362915,0.18738465011119843,0.6441177725791931,-0.741619348526001,-0.18041139841079712,-0.07076883316040039,0.05384474992752075,0.789582806391574,-0.3455302999893251,-0.0989905261652589,0.4973617151660849,-0.6998693612001445,0.24748961936130848,1.2149606956080057
1784805497487131136,1.0261011123657227,-0.39017176628112793,-0.19029730558395386,0.3336726725101471,0.18838366866111755,0.6473872661590576,-0.7385129928588867,-0.16372548043727875,0.14179730415344238,0.03581523895263672,0.7875441912689585,-0.3473399782748253,-0.10049107678438456,0.4990297894727338,-0.7041513391679618,0.24975889775411234,1.2217669354756484
1784805497497050880,1.0360209941864014,0.21991421282291412,-0.24352137744426727,0.13180744647979736,0.18829289078712463,0.6474514007568359,-0.7384798526763916,-0.08692875504493713,0.32973670959472656,-0.0892179012298584,0.7867580739027971,-0.34718918579203256,-0.1010927408470979,0.500251682746149,-0.7042355386371041,0.24965422043403251,1.2248566035192405
1784805497506970112,1.0459401607513428,0.6456109285354614,-0.3660659193992615,0.030918648466467857,0.18647153675556183,0.6440245509147644,-0.7419304251670837,0.04689638316631317,0.4083588123321533,-0.10290300846099854,0.7872047603992459,-0.34470504579256656,-0.10106050867562281,0.5012722832509913,-0.6997475336896793,0.24623279132737075,1.2242860902981874
1784805497516890112,1.0558600425720215,0.9194986820220947,-0.4286174476146698,-0.0006853509112261236,0.1834782361984253,0.6379581689834595,-0.7478938102722168,0.1373072862625122,0.276363730430603,-0.0536808967590332,0.7883574956049171,-0.3404810380706704,-0.10062686898000757,0.5024334539076417,-0.6918438581637039,0.24057534779678505,1.2218869514049018
1784805497526809088,1.065779209136963,0.836914598941803,-0.45057132840156555,-0.07511348277330399,0.17967095971107483,0.6311928629875183,-0.7545289993286133,0.13690312206745148,0.01303321123123169,-0.02997112274169922,0.7897914939155404,-0.33568652660292075,-0.10025001127356228,0.5034818860892488,-0.6830901781401327,0.2337697717228468,1.2184887117855268
1784805497536729088,1.0756990909576416,0.5619605183601379,-0.42448166012763977,-0.1747599095106125,0.17549294233322144,0.6255706548690796,-0.7601734399795532,0.09390096366405487,-0.16330569982528687,0.013576149940490723,0.7911812759612243,-0.3314480728856983,-0.10027693676023282,0.5041022080013511,-0.675862788334215,0.2268841581555371,1.2146101471010342
1784805497546648064,1.085618019104004,0.3949830234050751,-0.3659822642803192,-0.25997135043144226,0.17111492156982422,0.6222941875457764,-0.7638518214225769,0.03069782257080078,-0.07998162508010864,0.0704771876335144,0.7923347092247879,-0.3284441733050581,-0.10098771190240242,0.5041146868607681,-0.6716701430190787,0.2203775307835416,1.2104807502766652
1784805497556567296,1.0955371856689453,0.4925636649131775,-0.34104016423225403,-0.3632678985595703,0.16651751101016998,0.6193852424621582,-0.7672247886657715,-0.018003717064857483,0.0754542350769043,0.057507991790771484,0.7936738477669442,-0.3256300248696172,-0.10174812259563669,0.5036807583087801,-0.6679593795137996,0.21372400589202042,1.2053801272402185
1784805497566487040,1.105457067489624,0.6538093686103821,-0.3288459777832031,-0.3685781955718994,0.1615995615720749,0.61553955078125,-0.7713602781295776,-0.03705732524394989,0.22785955667495728,0.04362285137176514,0.7953450754947208,-0.3222757864199618,-0.10226522185890402,0.5030968108919062,-0.6630703784910525,0.20651274328598168,1.199336248558285
1784805497576406016,1.1153759956359863,0.7944186925888062,-0.30914902687072754,-0.5035045742988586,0.15650051832199097,0.6105257868766785,-0.7763800024986267,-0.05617398023605347,0.22625094652175903,0.06304687261581421,0.7974324513289782,-0.31832214472996434,-0.10237683150969046,0.5022863363628193,-0.6567242924347894,0.19891164616888726,1.1921675366710482
1784805497586326016,1.1252961158752441,0.8664368987083435,-0.2674421966075897,-0.5676548480987549,0.15082338452339172,0.6049844026565552,-0.7818223237991333,-0.07573486864566803,0.21139132976531982,0.1072770357131958,0.7999339095408139,-0.31401138278262086,-0.10239968009706063,0.5010158086652076,-0.6497463042682167,0.19057156392665495,1.1834565177678418
1784805497596244992,1.1352150440216064,0.9573073983192444,-0.23684751987457275,-0.6243172883987427,0.14518190920352936,0.5988328456878662,-0.7876048684120178,-0.08024050295352936,0.1659528613090515,0.06890064477920532,0.8027014379032118,-0.3094634770406485,-0.10212704764091746,0.4994724512046859,-0.6420429676386997,0.18228718318220904,1.1739877548974416
1784805497606165248,1.1451351642608643,1.0096724033355713,-0.2723172903060913,-0.8819130659103394,0.1387217789888382,0.5922968983650208,-0.7936879992485046,-0.03580126166343689,0.10303086042404175,0.024538278579711914,0.8058612866165411,-0.304575136003853,-0.10193121248695038,0.4974250750171043,-0.6339066116905204,0.17303340611532395,1.1629104012057996
1784805497616084224,1.1550540924072266,1.3470430374145508,-0.4569787383079529,-1.1232285499572754,0.12971808016300201,0.5846409797668457,-0.8008546829223633,0.1412017047405243,0.1458888053894043,-0.03901958465576172,0.8099722893471744,-0.2985625729843973,-0.10214233115014963,0.49434025373770096,-0.6244374256220804,0.16057993753990657,1.147874081493042
1784805497626002944,1.1649730205535889,1.7282522916793823,-0.606045126914978,-0.9614637494087219,0.11925186961889267,0.5738908648490906,-0.8102025985717773,0.39623579382896423,0.31627631187438965,0.039206504821777344,0.8144685914290871,-0.29060229170977947,-0.10222041760740894,0.4916728451411317,-0.6112491613457952,0.14613842366191104,1.1324140994517373
1784805497635923200,1.1748931407928467,2.095289468765259,-0.4666006565093994,-1.1121610403060913,0.10914582759141922,0.5596076846122742,-0.821539044380188,0.16558867692947388,0.38304978609085083,0.09264194965362549,0.819332904405515,-0.28103459598628516,-0.10124244044058647,0.4893496300720436,-0.5939123471819922,0.13208183015796315,1.117266357767857
1784805497645842176,1.184812068939209,2.4674134254455566,-0.2573319673538208,-1.546592116355896,0.0989963486790657,0.5423848628997803,-0.8342771530151367,-0.2274600863456726,0.3136179447174072,0.02414226531982422,0.8254618439878546,-0.27028900210995505,-0.09902160543098527,0.48554225553754143,-0.5732732001856269,0.11810894784658114,1.0982557598236016
1784805497655762176,1.1947321891784668,2.66526198387146,-0.06043090671300888,-1.6120648384094238,0.08912841230630875,0.5224031805992126,-0.848027765750885,-0.23163023591041565,0.18201881647109985,0.025365352630615234,0.8326406932493198,-0.25853821932602883,-0.09562488843606143,0.48033664450913255,-0.5496668254225842,0.10471638168361805,1.0760487549649091
1784805497665681152,1.204651117324829,2.9365038871765137,0.01889609917998314,-1.4802459478378296,0.08105512708425522,0.5001246929168701,-0.862151563167572,-0.09629865735769272,0.12832379341125488,0.16693061590194702,0.8397856270187526,-0.24622953812387546,-0.09107813246001668,0.4752219067936908,-0.5237427746788431,0.09373940562714062,1.0550556357209118
1784805497675600896,1.2145709991455078,3.220738649368286,0.08473609387874603,-1.4345623254776,0.0745924785733223,0.47487789392471313,-0.8768848180770874,-0.1753768026828766,0.18755194544792175,0.1375049352645874,0.8467993323346986,-0.2329510367477964,-0.08538975904604236,0.4705033018441014,-0.49482527549004196,0.0848610202964804,1.035750857671024
1784805497685520128,1.2244901657104492,3.1303629875183105,0.222758948802948,-1.5004464387893677,0.06927303969860077,0.44828760623931885,-0.8912011384963989,-0.34325987100601196,0.16790807247161865,0.08507931232452393,0.8538670634216561,-0.21944325932763217,-0.07901955777917606,0.46530806966954374,-0.46484876437213346,0.07757399508638003,1.016273937320551
1784805497695439104,1.2344090938568115,3.046342134475708,0.19655051827430725,-1.511173129081726,0.06461157649755478,0.42188119888305664,-0.9043459296226501,-0.23114600777626038,-0.04756784439086914,0.10806608200073242,0.8606858592083944,-0.20627237682697488,-0.07265488376137484,0.4597746938820426,-0.43551919798099376,0.07132444737063498,0.9970451174697084
1784805497705359104,1.2443292140960693,3.0470423698425293,0.10988044738769531,-1.3888369798660278,0.059912823140621185,0.3955847918987274,-0.9164732098579407,0.0035484768450260162,-0.13967964053153992,0.020568668842315674,0.8670281247677909,-0.1931719134506609,-0.06669339766317149,0.45442145909010834,-0.40670448762719674,0.06528035008694535,0.9789697275085715
1784805497715278080,1.2542481422424316,2.689948320388794,0.12255389988422394,-1.1116650104522705,0.055897582322359085,0.3701166808605194,-0.9273020625114441,0.11149133741855621,-0.2155299186706543,-0.006688416004180908,0.8725614511756454,-0.18061013376722984,-0.06106516697277728,0.4497638122001887,-0.3791346227896328,0.060206947902189945,0.9634210907805975
1784805497725198080,1.2641680240631104,2.0293660163879395,0.4058467149734497,-0.7468003630638123,0.0547531321644783,0.3490838408470154,-0.9354905486106873,0.1237899512052536,-0.5361260771751404,0.14726728200912476,0.876717074404706,-0.1707472529762184,-0.05567853153236311,0.44622027010188214,-0.35659326519579376,0.05846209670002386,0.9521297251319581
1784805497735117312,1.2740871906280518,1.2635602951049805,0.6686189770698547,-0.604344367980957,0.05716951563954353,0.3345860540866852,-0.9406294822692871,0.011784955859184265,-0.6375187635421753,0.2076735496520996,0.8796780299743161,-0.16472443199410886,-0.050508633658232445,0.44326207694064484,-0.34116593021115427,0.06070326304234753,0.943971200811184
1784805497745037056,1.2840070724487305,0.7534939646720886,0.8411445617675781,-0.6333314180374146,0.06219560652971268,0.3256607949733734,-0.9434387683868408,-0.10401995480060577,-0.3749162256717682,0.1458161473274231,0.8820069955327928,-0.16188527262243926,-0.045538615823222585,0.4402079330715526,-0.33171054945190936,0.06582911476994201,0.9368746849062272
1784805497754956032,1.2939260005950928,0.29785293340682983,0.9144675135612488,-0.7431745529174805,0.06815533339977264,0.3211596608161926,-0.9445694088935852,-0.12732891738414764,-0.17705565690994263,0.0800979733467102,0.884117844115666,-0.16132089696671528,-0.04112027525615533,0.43660082838036374,-0.32695376255631753,0.07203009737782332,0.9292795093328672
1784805497764875264,1.3038451671600342,-0.04572811722755432,1.0113755464553833,-0.7193584442138672,0.07490646839141846,0.32046324014663696,-0.9442946314811707,-0.07751572877168655,-0.20480161905288696,0.06656330823898315,0.8859976128667201,-0.16269924546613326,-0.03717040776863729,0.4326149556001137,-0.3262184724189549,0.07915955476741618,0.9214896637596921
1784805497774795008,1.313765048980713,-0.35341590642929077,1.1160862445831299,-0.7800707817077637,0.08247227221727371,0.322957843542099,-0.9428130984306335,-0.01598973572254181,-0.2167414426803589,0.04570317268371582,0.8876034383912194,-0.1657356916645761,-0.03354290471506253,0.4284468308645441,-0.3288531448729913,0.08725257860516582,0.913911616150022
1784805497784714240,1.3236842155456543,-0.4453691244125366,1.1792993545532227,-0.966977596282959,0.09028445184230804,0.32776814699172974,-0.9404343366622925,-0.07508669793605804,-0.16024187207221985,0.06099402904510498,0.8892557452662793,-0.16991797687505164,-0.03017794012413517,0.4236051725942486,-0.3339402402300448,0.09570961329960197,0.9052562691904158
1784805497794633984,1.333604097366333,-0.18006208539009094,1.2071605920791626,-0.9504414796829224,0.09825876355171204,0.3315450847148895,-0.9383086562156677,-0.07314279675483704,0.055585652589797974,-0.06280523538589478,0.8911713690021229,-0.17363813298894465,-0.026372039212420366,0.41829168134479694,-0.3379408090693994,0.10433873414531172,0.895509833528219
1784805497804552960,1.3435230255126953,0.053372833877801895,1.1045809984207153,-0.8799163103103638,0.10600428283214569,0.3330005705356598,-0.9369491338729858,0.08314365148544312,0.09752613306045532,-0.06685024499893188,0.8931522180756597,-0.17616551005355002,-0.022161520021215454,0.4132236371657814,-0.33948397196343216,0.11265865939720089,0.8859885463553265
1784805497814473216,1.3534431457519531,0.23318494856357574,0.9587191939353943,-0.9079287648200989,0.11263186484575272,0.33244839310646057,-0.9363718032836914,0.08368770778179169,0.03615817427635193,-0.048903465270996094,0.8952026357238504,-0.17744966788753122,-0.018047529840961064,0.4084094815546862,-0.3388984359970357,0.11971026947559485,0.8765342148604414
1784805497824392192,1.3633620738983154,-0.6098408102989197,0.6961686611175537,-1.1178882122039795,0.11692345142364502,0.33485549688339233,-0.9349870085716248,-0.04445946216583252,0.010557711124420166,-0.039424002170562744,0.8971813189512244,-0.1796229232782889,-0.015559596587249312,0.40318631643409936,-0.34145186778694137,0.12440772681817155,0.8661720997680686
1784805497834310912,1.3732810020446777,-1.232731819152832,1.047990322113037,-1.160429835319519,0.12142742425203323,0.34465768933296204,-0.9308418035507202,-0.10540569573640823,-0.32239511609077454,0.14951550960540771,0.8987166356566312,-0.1853982517245907,-0.014373248501437145,0.3971514782270248,-0.3518741183407113,0.1297165620537697,0.8553029049398313
1784805497844231424,1.3832013607025146,-2.159804582595825,1.0391042232513428,-1.0680381059646606,0.12702904641628265,0.3615380525588989,-0.9236632585525513,0.09112586081027985,-0.5644036531448364,0.11061394214630127,0.8993918414483221,-0.19485741366661835,-0.014104985549356177,0.391057392900512,-0.3699170068609259,0.13667009408464215,0.8458963130758338
1784805497854150400,1.393120288848877,-2.789865255355835,1.2074223756790161,-0.9115608930587769,0.13360728323459625,0.3854479491710663,-0.9130054712295532,0.13860951364040375,-0.4424547851085663,0.19636118412017822,0.8988512702753503,-0.2080280837694135,-0.01488575630965005,0.3854466226256004,-0.39569322835882387,0.1453065013199635,0.8393845708153703
1784805497864070400,1.4030404090881348,-3.2571940422058105,1.4255049228668213,-0.9500547647476196,0.14176082611083984,0.413973867893219,-0.8991826772689819,-0.036490440368652344,-0.3739500939846039,0.09328973293304443,0.8974528924938387,-0.22396379197541072,-0.015775705758107487,0.37969692809190486,-0.4268152668128526,0.1563681522855549,0.8344435494049022
1784805497873989376,1.412959337234497,-3.5363786220550537,1.6623468399047852,-0.9968451857566833,0.15122349560260773,0.44543957710266113,-0.8824483156204224,-0.10483679175376892,-0.25717663764953613,0.08467304706573486,0.8954607612239954,-0.24188162968959812,-0.016404531110066033,0.37332873686975476,-0.4616651830978659,0.16971953257250919,0.8299796411132453
1784805497883909376,1.4228794574737549,-3.70827579498291,1.90858793258667,-1.0461244583129883,0.16190367937088013,0.4784014821052551,-0.8630870580673218,-0.12181885540485382,-0.12577086687088013,0.05951344966888428,0.8929745207955215,-0.26112453380112594,-0.01644549803660564,0.36625150548766355,-0.49883347165760344,0.18543174316255331,0.825807815011378
1784805497893828352,1.4327983856201172,-3.822720527648926,2.1218721866607666,-1.0600669384002686,0.1737866997718811,0.5120237469673157,-0.8412074446678162,-0.1358838826417923,-0.07775861024856567,0.05574601888656616,0.8899563858874335,-0.2813347374607645,-0.015718051309645986,0.35858254649576626,-0.5375391330631357,0.2037258778567687,0.8223378183279139
1784805497903747328,1.4427173137664795,-3.807528018951416,2.2007808685302734,-1.010305643081665,0.18616123497486115,0.5451453924179077,-0.8174108862876892,-0.07249853014945984,-0.050363898277282715,0.03452819585800171,0.8864405851007464,-0.30180806229310697,-0.014368522452283093,0.3506117775752129,-0.5765625152548327,0.22392563080920017,0.8199475491520337
1784805497913667328,1.4526374340057373,-3.7873165607452393,2.2434141635894775,-0.990722119808197,0.19842210412025452,0.5773125886917114,-0.7920472621917725,-0.028957992792129517,-0.0021020174026489258,0.02750563621520996,0.882431655197105,-0.3222055913983371,-0.0126461434455554,0.3425465290506192,-0.6154335886652397,0.24546613655126498,0.8189251308581211
1784805497923586304,1.4625563621520996,-3.7289724349975586,2.3054208755493164,-0.9792554974555969,0.210115447640419,0.6083247661590576,-0.7653708457946777,-0.0512409508228302,-0.06640887260437012,0.015401363372802734,0.8780321416515471,-0.3423454164670491,-0.010685837061285255,0.33428293148528015,-0.6539481566147194,0.2679269925010992,0.8188998400686859
1784805497933506560,1.4724764823913574,-3.4651458263397217,2.3812854290008545,-0.9978675842285156,0.22154395282268524,0.6374712586402893,-0.737935483455658,-0.06677408516407013,-0.022984564304351807,0.05325835943222046,0.8734148356206768,-0.36189212204873317,-0.008146288844114932,0.32575196270866996,-0.6912117029077576,0.2916598294293912,0.8196348632095302
1784805497943425536,1.4823954105377197,-2.46132755279541,2.346243381500244,-1.1267634630203247,0.23187480866909027,0.6614014506340027,-0.713289737701416,-0.09059369564056396,0.2585204243659973,-0.17851018905639648,0.8696485200780198,-0.3785947688272818,-0.004597219764059184,0.31679088894875895,-0.7226857791762363,0.31430246624744906,0.8183005223712843
1784805497953345280,1.4923152923583984,-0.8577372431755066,2.202697277069092,-1.349112629890442,0.23954880237579346,0.6758280396461487,-0.6970458030700684,-0.12756453454494476,0.4793233275413513,-0.35265207290649414,0.8684577040546833,-0.3892004928271558,0.00029357318857861186,0.3070896485903047,-0.7420875431344445,0.3310182080934978,0.8095566870995019
1784805497963264512,1.5022344589233398,1.9020802974700928,2.194005012512207,-2.0933258533477783,0.24356302618980408,0.6782099604606628,-0.693331241607666,-0.07855446636676788,0.6211369037628174,-0.2729009985923767,0.8712780357118114,-0.39151996140691064,0.006819681708063434,0.295871684887282,-0.7453240558629437,0.3378270354906049,0.7878700700880967
1784805497973183488,1.5121533870697021,4.476170063018799,2.1827776432037354,-3.040301561355591,0.24116617441177368,0.6611012816429138,-0.7104814648628235,-0.12274269759654999,0.7328959107398987,-0.40067875385284424,0.8813529347405882,-0.38013563211686047,0.016004912781901273,0.28010293624287136,-0.722285584610913,0.32723686671698776,0.7399841467593243
1784805497983103488,1.52207350730896,6.039255619049072,1.7747431993484497,-2.826143503189087,0.23645229637622833,0.6296411156654358,-0.7400286197662354,0.24055270850658417,0.7911505103111267,-0.14846014976501465,0.8949313991624639,-0.35956132502893906,0.026483036456704728,0.262891593226944,-0.6810911578408269,0.3092654608626196,0.6817955536188611
1784805497993022464,1.5319924354553223,5.915894031524658,1.3461596965789795,-2.1553399562835693,0.23244601488113403,0.5895728468894958,-0.773545503616333,0.532507598400116,0.5353660583496094,-0.03425472974777222,0.9084408494315577,-0.3344941275795925,0.03661861089394942,0.24800783223557957,-0.6305299064097396,0.2919102116558228,0.6288316705064967
1784805498002942208,1.541912317276001,5.502955436706543,1.2526895999908447,-1.4045144319534302,0.23241843283176422,0.5487777590751648,-0.8030097484588623,0.4378238916397095,0.2617996335029602,0.058609724044799805,0.9194564015591619,-0.310385956125153,0.04642937521016134,0.23686455842773368,-0.5809014720488203,0.28173538365100814,0.5889856435872258
1784805498012861440,1.5518314838409424,4.1444196701049805,1.263495683670044,-1.1449699401855469,0.23580512404441833,0.5116577744483948,-0.8261975049972534,0.021717458963394165,-0.22283947467803955,0.16004455089569092,0.9279059409410888,-0.2894474975896597,0.05586954524789737,0.2282309603290385,-0.5371131603242578,0.2780184318042579,0.5593226293294081
1784805498022781440,1.561751365661621,1.9925339221954346,1.8419405221939087,-1.7522395849227905,0.24160920083522797,0.49002304673194885,-0.8375574350357056,-0.40075838565826416,-0.5151848196983337,0.19963324069976807,0.9332771005370503,-0.2776161775050117,0.06442476569953716,0.21856955776060624,-0.5121162034223967,0.28084445576673883,0.5340792859136911
1784805498032700416,1.5716702938079834,0.6536794304847717,2.026909589767456,-2.2051196098327637,0.24808046221733093,0.4839267432689667,-0.8392085433006287,-0.5572082996368408,-0.6645450592041016,0.15453141927719116,0.9365479087155957,-0.2742228586137782,0.07209401153939374,0.20611240094700353,-0.5051363317428967,0.28742662847614664,0.5079061070097558
1784805498042619392,1.5815894603729248,-0.1426757127046585,2.1276767253875732,-2.3217544555664062,0.2543090879917145,0.4876870810985565,-0.8351576328277588,-0.3368591368198395,-0.5574654936790466,0.11411881446838379,0.9383147852515443,-0.27606159283763676,0.07881110780881141,0.19272841821468262,-0.5094384360804016,0.2955840391236954,0.48265112086312983
1784805498052539392,1.5915093421936035,-0.24105021357536316,2.2893776893615723,-2.694838047027588,0.26039785146713257,0.4959554970264435,-0.8283846378326416,-0.15839284658432007,-0.22880461812019348,0.1443941593170166,0.9393961552503326,-0.2801823333007754,0.08547251731694329,0.17812104955559296,-0.5189348566854866,0.3045640564255266,0.4562081102049238
1784805498062458624,1.601428508758545,0.34401845932006836,2.2318854331970215,-2.889350414276123,0.2649519443511963,0.5030415058135986,-0.8226479887962341,0.0431840717792511,0.05495715141296387,-0.02419954538345337,0.9408187667852579,-0.2831836121330597,0.09210348965046627,0.16181470945769677,-0.5271143893275576,0.3115814046883841,0.42536547973485755
1784805498072378368,1.6113483905792236,1.0966179370880127,2.1516060829162598,-2.7172234058380127,0.2686969041824341,0.5046188831329346,-0.8204643130302429,0.2614086866378784,0.23230433464050293,-0.1291358470916748,0.9429414979974605,-0.28281276533195737,0.09891798839473778,0.14523592473553232,-0.528940477541854,0.31648570513678,0.39202435046604006
1784805498082297344,1.621267318725586,1.8394546508789062,2.058688163757324,-2.5862228870391846,0.2726875841617584,0.49959155917167664,-0.8222224712371826,0.3151114583015442,0.29415541887283325,-0.16665387153625488,0.9457364377626374,-0.27862376969813885,0.10610166032307614,0.12920502778472226,-0.5231272218747148,0.3202320681082106,0.35796708875386213
1784805498092217344,1.6311874389648438,2.2506868839263916,1.996861219406128,-2.6930384635925293,0.2762633264064789,0.4896964430809021,-0.8269679546356201,0.17295542359352112,0.2421608567237854,-0.07209515571594238,0.9490637916069071,-0.2714674101536195,0.11323195793386104,0.1129686660885957,-0.5117415714146473,0.322411391054499,0.32197995292375986
1784805498102136320,1.641106367111206,2.2630767822265625,1.9274542331695557,-2.797893762588501,0.2791273891925812,0.4784565269947052,-0.8325666785240173,0.04660198092460632,0.1491069495677948,0.053544461727142334,0.95239132699024,-0.2632921247386403,0.1199746815021917,0.09609421611038792,-0.49889614884306976,0.32348473068260164,0.2842024741136177
1784805498112055296,1.6510252952575684,2.30859375,1.9402533769607544,-2.8187170028686523,0.28197646141052246,0.4672403633594513,-0.8379592299461365,0.03795453906059265,0.01850789785385132,-0.051826536655426025,0.9553765603401645,-0.2549873312361774,0.12649838341223088,0.07896331746849104,-0.4861669066407432,0.3246012591104317,0.24609487377828743
1784805498121975296,1.6609454154968262,2.237929105758667,1.8479204177856445,-3.0628550052642822,0.2843906581401825,0.4561826288700104,-0.8432196378707886,0.060992032289505005,-0.08891883492469788,-0.14477169513702393,0.9580487613818729,-0.24656095540748674,0.13265700215131754,0.061256471694611576,-0.4737007366741427,0.3252872060931849,0.20688024533518098
1784805498131894272,1.6708643436431885,2.3971028327941895,1.7703747749328613,-3.147433280944824,0.28545308113098145,0.4458252191543579,-0.8483846187591553,0.16272807121276855,-0.09206545352935791,-0.2534525394439697,0.9604021116893566,-0.23823487138152422,0.13802844115716867,0.042662678226517405,-0.4620959605837951,0.3245678485097282,0.16577865186993443
1784805498141814528,1.6807844638824463,3.7852838039398193,1.6006819009780884,-2.9834113121032715,0.2866117060184479,0.4283426105976105,-0.8569576144218445,0.3378542363643646,-0.14674165844917297,-0.3976505398750305,0.9632757591214722,-0.22591077000320764,0.1431276133365705,0.024055940638099186,-0.44265779046899956,0.3227575649761351,0.12316544503347358
1784805498151733504,1.6907033920288086,5.231879234313965,1.6320412158966064,-2.9082725048065186,0.287582665681839,0.39821067452430725,-0.8710479140281677,0.4446713626384735,-0.13019004464149475,-0.4929199814796448,0.9672119582728794,-0.20661834065782245,0.14759708966770207,0.00500273711325148,-0.4095653686530571,0.318889224935712,0.07711817977638641
1784805498161653248,1.7006232738494873,7.519767761230469,1.3342207670211792,-2.6394245624542236,0.2905031442642212,0.34969279170036316,-0.8906867504119873,0.5439542531967163,0.0005116760730743408,-0.014281511306762695,0.972182505970216,-0.17761222510852545,0.15202144131644124,-0.014306540087615872,-0.3572431790095175,0.3152774191236336,0.02795282464930426
1784805498171572480,1.7105424404144287,7.270013332366943,0.6115842461585999,-2.577706813812256,0.29093000292778015,0.28992360830307007,-0.9117587804794312,0.7100923657417297,-0.07590386271476746,0.32037389278411865,0.9771144313094468,-0.14307365047462076,0.1537873414747271,-0.03356896532371389,-0.2941470301775072,0.30887415637317356,-0.022566685134272065
1784805498181492224,1.7204623222351074,6.520642280578613,0.186153843998909,-1.8832709789276123,0.28861382603645325,0.23377205431461334,-0.9284679293632507,1.0403809547424316,-0.24198128283023834,0.7552959322929382,0.9806810173621026,-0.1113984316566896,0.15282807658014863,-0.049988868772605985,-0.2359554417617725,0.30138053385763547,-0.06586806219712879
1784805498191411456,1.7303814888000488,5.754730224609375,-0.5043625831604004,-1.5430691242218018,0.2840237319469452,0.18075843155384064,-0.9416245818138123,1.2052950859069824,-0.6301755905151367,0.6331071853637695,0.9833067841934796,-0.0823836853268548,0.14966837990573295,-0.06261029129943214,-0.18175753433960384,0.2929529985286628,-0.1002870121413711
1784805498201330432,1.7403004169464111,4.595803260803223,-0.9803602695465088,-1.6036738157272339,0.27484139800071716,0.1364983767271042,-0.9517512321472168,1.0974119901657104,-0.5475091338157654,0.0940394401550293,0.9851039485731287,-0.058502732277454526,0.14388125997931925,-0.07379639809932868,-0.13692584500625654,0.2811265513630511,-0.1301410478150192
1784805498211250432,1.7502202987670898,4.174117565155029,-1.0308200120925903,-1.5060774087905884,0.26386523246765137,0.09934891760349274,-0.9594295024871826,0.8230793476104736,-0.09246719628572464,-0.3841221332550049,0.986224197983095,-0.0386761104423241,0.13707448598483377,-0.08412318375311653,-0.09951307894065557,0.2683876508329095,-0.15673887359101477
1784805498221169408,1.7601394653320312,5.089339256286621,-1.0837420225143433,-1.4320400953292847,0.25279682874679565,0.059878021478652954,-0.9656647443771362,0.5034745335578918,0.34457144141197205,-0.43722832202911377,0.9868984185786673,-0.01795476501942283,0.12978928045064417,-0.09414862211031398,-0.059913860984669776,0.2560395908926777,-0.1825067279457048
1784805498231089408,1.77005934715271,6.308096408843994,-1.5703444480895996,-1.2130012512207031,0.23991809785366058,0.007500507403165102,-0.97076416015625,0.5177723169326782,0.5498572587966919,-0.4342803955078125,0.9871773187626018,0.008931317380512508,0.12057425273394906,-0.10422662593549477,-0.0075005775134278935,0.24228843400650452,-0.20946839524631544
1784805498241008384,1.7799782752990723,6.812019348144531,-1.973610758781433,-0.8877150416374207,0.2232346534729004,-0.05359075963497162,-0.9732904434204102,0.7518477439880371,0.5659198760986328,-0.17676448822021484,0.9868180483372073,0.03961671950659835,0.10856005605083788,-0.11329317401808973,0.05361644605575013,0.22546119334510514,-0.23468357054589026
1784805498250928384,1.78989839553833,6.980869293212891,-2.0228309631347656,-0.5677934885025024,0.2046757936477661,-0.11867965757846832,-0.9716084599494934,0.8920801877975464,0.16996444761753082,-0.1325938105583191,0.9854813271982721,0.0718771754317403,0.09502343137089932,-0.12095739815146707,0.11896003291458802,0.20762103388099004,-0.2566654518140253
1784805498260847360,1.7998173236846924,7.192269802093506,-2.050981283187866,-0.2440948337316513,0.18592606484889984,-0.18613241612911224,-0.964772641658783,0.786943793296814,-0.05446818470954895,-0.09679657220840454,0.9830055563112406,0.10512693874952429,0.08100626217277744,-0.1268316552524641,0.18722429124113027,0.19038094263538455,-0.2745587888182716
1784805498270766592,1.8097364902496338,7.148163318634033,-2.144606351852417,-0.10481046140193939,0.16586416959762573,-0.25353917479515076,-0.9529989361763,0.5060718655586243,0.025069326162338257,-0.22282809019088745,0.9793699077241721,0.13832372602108509,0.06608390088760537,-0.13165856354416153,0.2563372253925602,0.17231835979537932,-0.28952324003847824
1784805498280686336,1.8196563720703125,7.709880828857422,-1.5905892848968506,0.43902647495269775,0.14776909351348877,-0.32402992248535156,-0.9344350695610046,0.34344184398651123,0.06340980529785156,-0.7202127575874329,0.9742354645061367,0.17346267486270198,0.05189571236599209,-0.13447216377720117,0.32998614587348435,0.1568385835077502,-0.3004902882375593
1784805498290605312,1.8295753002166748,6.483481407165527,-1.5983712673187256,-0.05054987967014313,0.13283663988113403,-0.38987091183662415,-0.9112382531166077,0.03186672925949097,0.26050692796707153,-0.2810530662536621,0.9680043559276581,0.20693744706510425,0.03946871748922426,-0.13633311548797913,0.40049141003638844,0.14475632712447156,-0.30926803439796047
1784805498300525312,1.8394954204559326,5.4006524085998535,-1.4719704389572144,-0.3513188064098358,0.1196606308221817,-0.44244644045829773,-0.8887758255004883,-0.1750652939081192,0.30058547854423523,0.19508075714111328,0.9616224815428769,0.2341457717027549,0.028068575524866923,-0.1402499822530496,0.45832482678147385,0.13383056848134386,-0.3209136621345504
1784805498310444288,1.849414348602295,4.346088886260986,-1.109342336654663,-0.01523346733301878,0.10990709066390991,-0.4845065772533417,-0.8678558468818665,-0.1736888438463211,-0.23729515075683594,0.02332770824432373,0.9556917906380502,0.2563401123608662,0.019021564268498044,-0.14346093169127053,0.5057990332670526,0.12597150393813988,-0.3305945925213749
1784805498320364544,1.8593344688415527,3.9362590312957764,-1.2365493774414062,0.7717275023460388,0.0982004851102829,-0.519878089427948,-0.8485772609710693,0.018620789051055908,-1.1551706790924072,-0.11409968137741089,0.95062268774308,0.27497043908437363,0.010129936561102244,-0.14354450044344805,0.5467082239558817,0.11521119944529563,-0.332071551420492
1784805498330283520,1.869253396987915,2.955428123474121,-1.2972793579101562,1.4266947507858276,0.08154398202896118,-0.550283670425415,-0.8309864401817322,0.17611591517925262,-2.036264181137085,-0.03287464380264282,0.9464882699114492,0.29070051406432357,1.995900997285564e-05,-0.14018929297775035,0.5827039180664206,0.09781597255666785,-0.3234470939388385
1784805498340203264,1.8791732788085938,0.8444566130638123,-1.1793934106826782,1.9656848907470703,0.06191159784793854,-0.5674706101417542,-0.8210627436637878,0.20369814336299896,-2.2804908752441406,0.09495800733566284,0.944754607507348,0.2989572445993553,-0.00965349374439145,-0.1340525493244584,0.603430694604528,0.07526179429614656,-0.30533370179814184
1784805498350122496,1.8890924453735352,-1.5020002126693726,-0.850791871547699,2.2917404174804688,0.0415496863424778,-0.565735936164856,-0.8235389590263367,0.2413177490234375,-2.147566556930542,0.11968153715133667,0.9465841039111669,0.2965282314489611,-0.017364315765949413,-0.1254910145095559,0.6013254906576981,0.050409861717103085,-0.27924100966895427
1784805498360041472,1.8990113735198975,-3.425790786743164,-0.697252094745636,2.3315184116363525,0.02252124436199665,-0.5459648966789246,-0.8375052809715271,0.207047238945961,-1.7837927341461182,0.1853904128074646,0.9514866028825693,0.2841286027538871,-0.02276589511822896,-0.11587030070597623,0.5775403792276652,0.026884389444960372,-0.250350072913057
1784805498369961472,1.9089314937591553,-4.802595615386963,-0.8820701241493225,2.161339521408081,0.004220924340188503,-0.5113803148269653,-0.8593441247940063,0.16309168934822083,-1.3146237134933472,0.05387842655181885,0.9582643317867559,0.2637963817358908,-0.027192019912719374,-0.10677782919165366,0.5367902722937656,0.0049117580788126,-0.22329207490503145
1784805498379880448,1.9188504219055176,-5.360507011413574,-1.32607901096344,2.02409291267395,-0.015404844656586647,-0.4665032625198364,-0.8843852877616882,0.2188350111246109,-0.9092901945114136,-0.06130862236022949,0.9656089613428607,0.2382397093112597,-0.03239112409451534,-0.09895385381740852,0.4853333609665865,-0.017416941150101204,-0.1999317814371639
1784805498389800192,1.9287703037261963,-4.045906066894531,-2.237724542617798,2.231295108795166,-0.04026094079017639,-0.4231606125831604,-0.9051597118377686,0.5298696756362915,-0.5290488004684448,-0.23963093757629395,0.9716803444832378,0.21388399720450685,-0.0409117624946641,-0.09174452113850196,0.43693081416496926,-0.04445007933048834,-0.17840879740781895
1784805498399719424,1.9386894702911377,-1.4324599504470825,-2.827709674835205,3.010305643081665,-0.0740138366818428,-0.39669427275657654,-0.9149620532989502,0.7266932725906372,-0.26810064911842346,-0.7147834300994873,0.975029358769672,0.19879549963887685,-0.054765972124808784,-0.0824541451528913,0.40791281456158396,-0.08071703543030063,-0.15202656593242336
1784805498409639424,1.9486093521118164,1.1937366724014282,-3.185011386871338,3.6265640258789062,-0.1143360286951065,-0.3927377164363861,-0.91251540184021,0.5774250030517578,-0.2429739534854889,-0.9130613803863525,0.975433831072771,0.19617069340011134,-0.07252147539412222,-0.06918407000772707,0.40360662465892033,-0.12464804736024437,-0.11608255912182615
1784805498419558400,1.9585282802581787,2.875959873199463,-3.4762368202209473,3.8303232192993164,-0.15912175178527832,-0.4066408574581146,-0.8996241092681885,0.4233124256134033,-0.4460965692996979,-0.897632360458374,0.9731102554166458,0.2038214476125428,-0.09297729569264146,-0.05355808512773129,0.41877416842909604,-0.17506516517261603,-0.07267250339913275
1784805498429478400,1.9684484004974365,3.294407606124878,-3.576313018798828,4.011386394500732,-0.20664580166339874,-0.42743903398513794,-0.8801099061965942,0.42342740297317505,-0.7877709269523621,-0.7589281797409058,0.9688684956052926,0.21623357638519206,-0.11483946261950288,-0.03672619851837382,0.44165808441712634,-0.23061811285394054,-0.023785834870559186
1784805498439397376,1.9783673286437988,3.1049396991729736,-3.4984753131866455,4.202570915222168,-0.25497734546661377,-0.4458125829696655,-0.8580429553985596,0.5200988054275513,-1.128177285194397,-0.6260573863983154,0.9636703741089102,0.22861259425555433,-0.13680207014899848,-0.018999065910604043,0.4620818512364,-0.2888506599444871,0.028973906876007583
1784805498449316608,1.9882864952087402,2.622255325317383,-3.165999412536621,4.544185161590576,-0.3029099404811859,-0.45796066522598267,-0.8357736468315125,0.6598740816116333,-1.4305739402770996,-0.4561269283294678,0.9580641520037262,0.2390031176818128,-0.15808439128773608,-9.636060886464965e-08,0.4756998076622234,-0.34770562347066597,0.08510548883956935
1784805498459236352,1.998206377029419,1.8278781175613403,-3.1676981449127197,4.898090839385986,-0.35041916370391846,-0.4612438380718231,-0.8151445388793945,0.7786113023757935,-1.604445219039917,-0.18326854705810547,0.9524471078957886,0.2459664491814445,-0.17868478138234078,0.020416497547914286,0.4793965467470059,-0.40600178226745415,0.14339180050753345
1784805498469155328,2.0081253051757812,1.0136061906814575,-2.9677722454071045,5.323769569396973,-0.3982612192630768,-0.4534960687160492,-0.7973263263702393,0.9077979922294617,-1.716196894645691,0.11321383714675903,0.9470461412720637,0.24826978863056395,-0.1992459222418803,0.04203303542013595,0.47068406364297477,-0.4632442346144401,0.20169721501364987
1784805498479075328,2.018045425415039,-0.29316481947898865,-2.670555830001831,5.630178451538086,-0.4445446729660034,-0.4338380694389343,-0.7836865186691284,0.9856365919113159,-1.7477262020111084,0.4842480421066284,0.9421532407760258,0.24528921851178098,-0.2190660725245814,0.06473387931399667,0.44874826322889805,-0.5159889893837394,0.25749750630070506
1784805498488994304,2.0279643535614014,-1.568894624710083,-2.4172439575195312,5.824742794036865,-0.4878157079219818,-0.3998252749443054,-0.7759997248649597,1.0829541683197021,-1.6018836498260498,0.8477007746696472,0.9382914826150012,0.23519391908705872,-0.23808393559950486,0.08722896861453705,0.411326207710695,-0.5612044709452365,0.3055010778012368
1784805498498914560,2.037884473800659,-2.3620855808258057,-2.2895877361297607,6.231266498565674,-0.5283581614494324,-0.3543902337551117,-0.7715213298797607,1.2732465267181396,-1.5621899366378784,0.9450138211250305,0.9346844785005208,0.219824495194665,-0.2567421150116071,0.11011605991445123,0.3622618911478096,-0.6004695507959262,0.3478162652955588
1784805498508833536,2.0478034019470215,-2.9789798259735107,-2.316450834274292,6.5605387687683105,-0.5666853785514832,-0.29901355504989624,-0.7677621245384216,1.4650466442108154,-1.499127984046936,0.9991921186447144,0.9305796618444806,0.20029774986679738,-0.2756805445524207,0.1338006529030015,0.3036587423601259,-0.6358416334831496,0.3862258128108299
1784805498518752256,2.057722330093384,-3.2196412086486816,-2.3139142990112305,6.6233086585998535,-0.6018321514129639,-0.23709779977798462,-0.7626157402992249,1.5628154277801514,-1.4659051895141602,0.9919704794883728,0.925459937832114,0.17829297078925335,-0.2947944335831927,0.15758134732593507,0.23937736901237341,-0.668101278299073,0.4207402224620738
1784805498528672512,2.0676424503326416,-3.1164424419403076,-2.313349962234497,6.751774311065674,-0.632800281047821,-0.17224843800067902,-0.7549134492874146,1.6111633777618408,-1.4919055700302124,0.990982174873352,0.9189998066355273,0.15560256515859824,-0.31357793299062464,0.18137279125822642,0.1731117765946864,-0.6976282937259054,0.45280446765650467
1784805498538591488,2.077561378479004,-2.989323377609253,-2.288358688354492,7.042802810668945,-0.6594488024711609,-0.10552415996789932,-0.7443063259124756,1.6833593845367432,-1.5098170042037964,1.1303842067718506,0.9108578653788669,0.133034086157985,-0.33188667314422704,0.2061338045290494,0.10572099155544552,-0.7250212660168648,0.4852458587939723
1784805498548511488,2.0874814987182617,-2.7146520614624023,-2.2113142013549805,7.3588666915893555,-0.6808962225914001,-0.036428388208150864,-0.7314733266830444,1.742053508758545,-1.4821109771728516,1.3149694204330444,0.9010161457825698,0.11025960849915473,-0.3494369032707682,0.23217780595812249,0.03643644965325076,-0.7496033652260611,0.5187310555414986
1784805498558430464,2.097400426864624,-2.249131441116333,-2.096769094467163,7.6114373207092285,-0.6965230703353882,0.03231067210435867,-0.7168065309524536,1.8214468955993652,-1.4969255924224854,1.2808477878570557,0.8892555213778798,0.08876995168389229,-0.36567284311754833,0.2600535085955301,-0.03231629695658609,-0.7710475984131077,0.555896578982273
1784805498568350208,2.1073203086853027,-2.051204204559326,-1.8845034837722778,7.752218723297119,-0.7054981589317322,0.10071029514074326,-0.7015196084976196,1.912498950958252,-1.364122748374939,1.4213683605194092,0.8759618313853182,0.06793027589667112,-0.3802968149728592,0.28887824277089824,-0.100881318680131,-0.7882257862644759,0.5951225336420634
1784805498578269440,2.117239475250244,-1.945879578590393,-1.6140791177749634,8.076658248901367,-0.7069896459579468,0.16963788866996765,-0.6865774989128113,2.0088391304016113,-1.2936155796051025,1.5251243114471436,0.8612724496444131,0.046920030078598594,-0.39307728840089556,0.3185884165008883,-0.17046221522355534,-0.8000445064513017,0.6363732216844996
1784805498588189440,2.127159357070923,-1.952114224433899,-1.2756606340408325,8.445669174194336,-0.6999630928039551,0.24013090133666992,-0.6725986003875732,2.0877652168273926,-1.4101901054382324,1.6771762371063232,0.8451018396432837,0.024903738949655068,-0.4038322621128662,0.3494313274551796,-0.24250068980687045,-0.8053322969602997,0.6804360818644689
1784805498598108416,2.137078285217285,-2.476076602935791,-0.8901906609535217,8.829675674438477,-0.68362957239151,0.3131881356239319,-0.6592144966125488,2.1463828086853027,-1.711625576019287,1.8019146919250488,0.8274743314573392,0.0006434587462877166,-0.4127860590274121,0.3806487821201911,-0.31854820051328087,-0.8035777861778146,0.7260014828382597
1784805498608027392,2.1469974517822266,-3.4606292247772217,-0.43622106313705444,9.224641799926758,-0.6570640802383423,0.39029425382614136,-0.644931972026825,2.2404074668884277,-2.099797487258911,1.8264811038970947,0.8084695604756759,-0.02769110634703332,-0.42043691924055904,0.4109051905673538,-0.4009511769459128,-0.7947159440339725,0.7703011925110536
1784805498617947392,2.1569173336029053,-4.7455596923828125,-0.08737368881702423,9.421372413635254,-0.618780255317688,0.4749005436897278,-0.6257638931274414,2.317861557006836,-2.4218456745147705,1.950028419494629,0.7873916505560503,-0.06284102776102272,-0.4279825387895546,0.4391996125092428,-0.49485100099585044,-0.7797868036218047,0.8107471726664018
1784805498627866624,2.1668365001678467,-5.462073802947998,0.08982265740633011,9.73610782623291,-0.5695616602897644,0.5625882148742676,-0.5992445945739746,2.426983594894409,-2.4010281562805176,2.1179213523864746,0.7638849005973514,-0.10316222284306577,-0.43558611655665963,0.46486799200819007,-0.5975131158183925,-0.7600077118341069,0.8485856608197192
1784805498637786368,2.1767563819885254,-5.378758907318115,0.05068781226873398,10.17288589477539,-0.509329617023468,0.6473012566566467,-0.5670841336250305,2.5817630290985107,-2.1876301765441895,2.0840518474578857,0.7371575897630029,-0.14521898554435925,-0.44200607301775924,0.4900415452847984,-0.7040384898241742,-0.7317949474408426,0.8937389157762292
1784805498647705344,2.1866753101348877,-5.241183280944824,-0.08023957908153534,10.509520530700684,-0.4390047490596771,0.7248644232749939,-0.5308921337127686,2.7039735317230225,-1.9808764457702637,1.8865439891815186,0.7069713033324482,-0.1869465744622141,-0.4467716525407391,0.5154005301458917,-0.8108375649144363,-0.6909407533761579,0.9533689071822286
1784805498657625344,2.1965954303741455,-5.345023155212402,-0.1580774188041687,10.830452919006348,-0.3592377007007599,0.7937759160995483,-0.49078309535980225,2.7358245849609375,-2.0348191261291504,1.8104699850082397,0.6733732785648137,-0.22833598313251366,-0.4499679148004611,0.5403332232464944,-0.9169923456813873,-0.6318606262372751,1.0325157758164671
1784805498667544320,2.206514358520508,-5.858426094055176,-0.20836615562438965,11.166054725646973,-0.2701317369937897,0.8540785908699036,-0.4444981813430786,2.7023215293884277,-2.317060708999634,1.9444066286087036,0.6359134919397024,-0.27055870222496947,-0.4522708236906479,0.5637935477576299,-1.023776827357968,-0.5460787811947763,1.1386023152212692
1784805498677464576,2.2164344787597656,-6.486248016357422,-0.3359011113643646,11.348170280456543,-0.172870934009552,0.9043988585472107,-0.3901006281375885,2.6847116947174072,-2.621577024459839,1.9306279420852661,0.5942946791736131,-0.31393639190527606,-0.4543056495882177,0.5846915844172589,-1.1299687006271826,-0.41713823388249255,1.2877670883084147
1784805498687383296,2.226353406906128,-7.243779182434082,-0.5821633338928223,11.417984962463379,-0.07008587568998337,0.9425301551818848,-0.32668787240982056,2.7968618869781494,-2.7197670936584473,1.8505678176879883,0.5483179099737606,-0.35773123964086384,-0.45681989966514697,0.6022386922162568,-1.2301236679224137,-0.21133135021995986,1.5148777942639549
1784805498697302272,2.2362723350524902,-7.786769866943359,-1.0008904933929443,11.486649513244629,0.03622698411345482,0.9662452936172485,-0.255064457654953,2.95129132270813,-2.665830135345459,1.7476792335510254,0.49773795394077247,-0.4009853468012052,-0.46008534561640096,0.6162704757399721,-1.3102340766022058,0.14108705078633801,1.8912750173366948
1784805498707222528,2.246192455291748,-8.079371452331543,-1.4633169174194336,11.45859432220459,0.14418908953666687,0.9730686545372009,-0.17985239624977112,2.9924838542938232,-2.6396336555480957,1.7291992902755737,0.442883352903388,-0.4419513407685699,-0.4634142984887474,0.6275193651210818,-1.3381890077323606,0.6757814857786972,2.4544526610765227
1784805498717141504,2.2561113834381104,-7.791909694671631,-1.3630704879760742,10.955008506774902,0.2505118250846863,0.9623636603355408,-0.1053566187620163,2.9062721729278564,-2.557929515838623,1.7313027381896973,0.38554595682476156,-0.4797272273464928,-0.4660294814839623,0.63563559245947,-1.2955697139672904,1.1726877831930775,2.982702158199554
1784805498727061504,2.266031503677368,-5.368618011474609,0.6055144667625427,21.528697967529297,0.4157247841358185,0.9057371616363525,-0.08254136145114899,4.052018165588379,-1.497061014175415,1.4392460584640503,0.31689277711212616,-0.520117144371713,-0.4338288531211416,0.6639650730760894,-1.1331157084276346,1.3747972127631005,-3.0696350575881226
1784805498736980480,2.2759504318237305,-0.37013715505599976,-7.132898330688477,0.4833410680294037,0.4919013977050781,0.8672014474868774,-0.0774262547492981,7.896495819091797,7.334168910980225,7.119678020477295,0.25491038966323065,-0.5194101186834331,-0.43760713172635723,0.688283288938398,-1.0495544029065824,1.414675258498042,-2.931818910629529
1784805498746900224,2.285870313644409,1.6927378177642822,-2.6637396812438965,4.189369201660156,0.5159205794334412,0.8491160273551941,-0.11325975507497787,-0.49254417419433594,1.3692066669464111,0.4873136878013611,0.2448291716757895,-0.5133476787633318,-0.4240805146803238,0.7047612868531803,-1.0143095089640968,1.3546949029214357,-2.9697750177652447
1784805498756819456,2.2957894802093506,-1.5202500820159912,-0.19047850370407104,7.250277996063232,0.5659968256950378,0.8168321251869202,-0.11150267720222473,0.8213932514190674,3.9499831199645996,1.7278815507888794,0.22020329503467745,-0.5245018389913536,-0.4112742170590209,0.7122231747964992,-0.9558980340896939,1.3762848314461713,-2.936012783511978
1784805498766739456,2.3057093620300293,-2.757798433303833,2.9133379459381104,3.123573064804077,0.6092981100082397,0.7877799868583679,-0.09032382816076279,0.652649462223053,1.1397712230682373,0.8169015645980835,0.19889755102930773,-0.5410622550912744,-0.4026036800751688,0.7110566867954902,-0.9071964830107544,1.423625723158717,-2.8908849030394776
1784805498776658176,2.3156282901763916,-7.782602787017822,4.474041938781738,1.0383555889129639,0.6243331432342529,0.7807550430297852,-0.02509063482284546,1.4965927600860596,-0.07244211435317993,1.1163229942321777,0.1865887384573861,-0.563078805682173,-0.4127916437419491,0.6911800708327331,-0.8958732903353468,1.5306300467460667,-2.8040352483834416
1784805498786577408,2.325547456741333,-9.922589302062988,2.293884754180908,1.9838589429855347,0.6337608695030212,0.7706275582313538,0.06693395227193832,3.2197699546813965,-0.2081887125968933,1.4038759469985962,0.16350915744464015,-0.5854864214475426,-0.436660768577947,0.6631724584036152,-0.8798253264742999,1.6760201447354186,-2.661304014427126
1784805498796497408,2.3354673385620117,-7.581396579742432,0.4257796108722687,2.675109386444092,0.6501075625419617,0.7462179660797119,0.1432449072599411,3.7083215713500977,-0.11453455686569214,1.323704481124878,0.13288952655236969,-0.6020398795928176,-0.4573515498443272,0.6408728358949811,-0.8423625559946608,1.7876712297663153,-2.533427437695015
1784805498806416384,2.345386505126953,-3.534459352493286,-2.3714327812194824,1.968370795249939,0.6683165431022644,0.7222826480865479,0.17793411016464233,3.099780321121216,1.3495862483978271,0.6271500587463379,0.10683581837913458,-0.6077917889101978,-0.46856824273701203,0.6321542153061108,-0.8070971946991199,1.8310024571421526,-2.462264541250131
1784805498816336384,2.355306386947632,0.7618663311004639,-3.5681231021881104,2.305602550506592,0.6871618032455444,0.7071554660797119,0.16655291616916656,2.222506046295166,2.572995901107788,-0.5059999227523804,0.0896828544089638,-0.60316891203275,-0.46846955100768206,0.6392812897129072,-0.785467003709547,1.8085885837176507,-2.4508615321472154
1784805498826255360,2.365225315093994,1.242123007774353,-2.7142927646636963,2.9403133392333984,0.711032509803772,0.689358651638031,0.13862676918506622,0.7645686864852905,3.195498466491699,-0.7142341136932373,0.07755493362148566,-0.599996208111697,-0.4575127683409262,0.6516685046639894,-0.7606033581564186,1.763346307358063,-2.4749750530329324
1784805498836175360,2.375145435333252,1.718821406364441,-2.6981167793273926,-1.209221601486206,0.7186534404754639,0.6868468523025513,0.10852955281734467,-0.6430004239082336,2.638943672180176,-0.18943166732788086,0.0739872063855789,-0.5918985549070527,-0.45157599425967665,0.6635217758044264,-0.7571417238916329,1.7206816514706302,-2.497560404607141
1784805498846093312,2.385063409805298,0.2263750433921814,-1.875368595123291,-0.005738166160881519,0.7188042402267456,0.6904631853103638,0.081122487783432,-0.9057244658470154,0.21508485078811646,0.02307974547147751,0.07259348358894512,-0.5817316835820405,-0.4496103790391218,0.673920518638295,-0.7621291659039441,1.6831783572884365,-2.5131441566427832
1784805498856013312,2.3949832916259766,-4.700339317321777,1.0463883876800537,0.44760578870773315,0.7200286388397217,0.6875461935997009,0.09401597827672958,-1.0446593761444092,-0.6740421652793884,0.6011134386062622,0.06519983570349853,-0.5818663661089344,-0.45655177408560066,0.6698813437866012,-0.7581044079423926,1.7006343305558718,-2.4837823004249144
1784805498865932544,2.404902458190918,-6.229599952697754,0.7384214401245117,-0.5140137672424316,0.7200081944465637,0.6796483397483826,0.140236496925354,0.13472813367843628,0.20595645904541016,0.892234206199646,0.050193313711938616,-0.5871434205044018,-0.4747429311534739,0.6537295507441826,-0.7472830901757395,1.763158693270362,-2.4066707240633995
1784805498875851520,2.4148213863372803,-5.548879623413086,-0.26566824316978455,-0.9686473608016968,0.7134172320365906,0.6769002676010132,0.18122266232967377,0.6763532161712646,0.20220428705215454,0.11545394361019135,0.03660344935014365,-0.586848939213049,-0.4962052553846279,0.638786932187888,-0.7435432558782328,1.819555484012977,-2.3266497617237696
1784805498885771520,2.424741506576538,-5.240207672119141,-0.6027320027351379,-0.24660581350326538,0.7108401656150818,0.6702023148536682,0.2133895307779312,0.8900814652442932,0.8414401412010193,0.4293869733810425,0.021432278416999646,-0.5846607275173704,-0.5146519188018663,0.6267741741850407,-0.7344813107118588,1.86243054597958,-2.2554341486683707
1784805498895690496,2.4346604347229004,-3.8366150856018066,-0.23115022480487823,-0.503955066204071,0.7095494270324707,0.6618925929069519,0.2417387217283249,0.3925623297691345,1.5581085681915283,0.3781190812587738,0.007910087115373514,-0.5830373478189398,-0.530034729962566,0.6156849949074787,-0.7233407896694547,1.8991561410213573,-2.1948311123892137
1784805498905610240,2.444580316543579,-2.7425169944763184,-0.10294085741043091,-0.9184356331825256,0.7050791382789612,0.6592991948127747,0.26112842559814453,-0.19047647714614868,1.5502192974090576,0.22732067108154297,0.0006702245500952775,-0.5806115411634104,-0.5417143635536816,0.6078119374107912,-0.719886308630961,1.9254870315367052,-2.152453392214844
1784805498915529472,2.4544994831085205,-2.650214672088623,-0.2683669924736023,-0.9755855202674866,0.6994314193725586,0.6586852669715881,0.277361124753952,-0.02227693796157837,1.322943091392517,0.2806374728679657,-0.004813132067285137,-0.5773885638596734,-0.5525423130119623,0.6010791888365014,-0.7190700906262518,1.9483270017921444,-2.1146779356359855
1784805498925449472,2.464419364929199,-2.011676073074341,-0.277582049369812,-0.8367541432380676,0.6946011781692505,0.658207893371582,0.290330708026886,-0.030263900756835938,0.6456100344657898,0.08762961626052856,-0.00952299656615066,-0.5741250994680422,-0.5617345635978486,0.5956039983218621,-0.7184358400925063,1.966707557566825,-2.0826386792736455
1784805498935368192,2.4743382930755615,-2.2980549335479736,-0.21718773245811462,-1.0794602632522583,0.6889605522155762,0.6586397290229797,0.3025348484516144,-0.2416643500328064,0.53273606300354,0.2603314220905304,-0.01360458150433425,-0.5703329257972857,-0.570953399137002,0.5903791894735184,-0.7190095576928391,1.9845638788350612,-2.0510731460792986
1784805498945288448,2.4842584133148193,-1.5770894289016724,0.029272383078932762,-1.3265502452850342,0.6815357208251953,0.6604267358779907,0.3151918649673462,-0.512239396572113,0.667942464351654,0.3378233015537262,-0.016069797331540153,-0.5666394109042167,-0.5800997438242798,0.5849324300867048,-0.7213869371111631,2.0039742612917917,-2.0205608367771504
1784805498955207424,2.4941773414611816,0.49228161573410034,0.19329293072223663,-1.3240396976470947,0.672207236289978,0.6681109666824341,0.31900694966316223,-0.6333277821540833,0.8160504698753357,0.15062811970710754,-0.013242940387474136,-0.5628516319359173,-0.5854071312041328,0.5833705960832036,-0.7316671066678223,2.0138908046120276,-2.0068206927835774
1784805498965127424,2.5040974617004395,1.9027775526046753,0.06321296095848083,-1.2277048826217651,0.6636797189712524,0.680065393447876,0.3115130364894867,-0.44586050510406494,1.1132237911224365,0.00043761730194091797,-0.005930098833587862,-0.5596956653652267,-0.5852326680069861,0.586692731990931,-0.7478518409983835,2.0096431390681033,-2.014805777682718
1784805498975046400,2.5140163898468018,2.9209442138671875,0.07118525356054306,-1.5522879362106323,0.6536340117454529,0.6972202062606812,0.29435843229293823,-0.5325097441673279,1.254577398300171,-0.04583856463432312,0.00532643268580357,-0.5554495101626773,-0.5819407726733998,0.5939634125728932,-0.771512362615639,1.9939340939193877,-2.0376360433407363
1784805498984965376,2.523935317993164,3.915229558944702,-0.46859222650527954,-1.2083967924118042,0.6444125771522522,0.7164320945739746,0.2673153579235077,-0.3263888955116272,1.006361484527588,-0.15470552444458008,0.018063619870456935,-0.5497674911943232,-0.5756851427390185,0.6049925910307894,-0.7986746404071856,1.9640130832752667,-2.074141382473486
1784805498994885376,2.533855438232422,4.382153511047363,-0.577930748462677,-1.1221423149108887,0.6377401351928711,0.734046459197998,0.23337367177009583,-0.04736238718032837,0.7267994284629822,-0.04282189905643463,0.03117439196514192,-0.5442314021110355,-0.5661263274318331,0.6183375269185959,-0.8242615071938633,1.921599121066479,-2.1244306823398245
1784805499004804352,2.543774366378784,4.271807670593262,-0.513007640838623,-1.3133513927459717,0.6303678154945374,0.7505078315734863,0.1984298825263977,-0.45101606845855713,0.6936144232749939,0.15635226666927338,0.04437847384107439,-0.5381878673578675,-0.5563890345292773,0.6315184935199663,-0.8488301987680867,1.8757609001728395,-2.177730433313854
1784805499014724608,2.553694486618042,4.419763088226318,-0.007508952170610428,-0.7318317890167236,0.6226654648780823,0.7653616666793823,0.16281621158123016,-0.549240231513977,0.6310768127441406,0.3331707715988159,0.059222308788083454,-0.5333256350771381,-0.544951260198761,0.6442705651746187,-0.8716030810549903,1.8265526525139666,-2.2395576084098736
1784805499024643328,2.5636134147644043,4.800817966461182,-0.2626238167285919,-0.36384445428848267,0.6183452606201172,0.7754555344581604,0.12774206697940826,-0.3847636580467224,0.9298363327980042,0.7095992565155029,0.07229141679229203,-0.5296143507397207,-0.5323341771370745,0.6564320270008442,-0.8874362642192942,1.7745174139606437,-2.304470063405429
1784805499034563328,2.573533296585083,6.142101287841797,-0.44079241156578064,-1.427436113357544,0.613285481929779,0.7856204509735107,0.08174052834510803,-0.29379695653915405,0.9852535724639893,0.39526450634002686,0.0885132795128547,-0.5243984212895503,-0.5156321957065106,0.6717850664209882,-0.9036983293681948,1.7032984119949104,-2.3912972603983684
1784805499044482560,2.5834524631500244,5.261082172393799,-0.10089261829853058,-2.544973611831665,0.5952244400978088,0.8027119636535645,0.036895859986543655,-0.8371525406837463,1.2428964376449585,0.43901050090789795,0.1090768532931248,-0.514453738885966,-0.5037710588114537,0.6853132578913229,-0.9318288713440153,1.6327035855515761,-2.4748087144303743
1784805499054402304,2.593372344970703,6.479593276977539,-0.6359536051750183,-2.1442434787750244,0.5750152468681335,0.8180422782897949,-0.012820007279515266,-0.44884032011032104,0.9747891426086426,0.3186519145965576,0.13304665428537957,-0.5043518784071855,-0.4891003774915257,0.699076987568047,-0.9579989678110394,1.5485049466201593,-2.5778501607830124
1784805499064321280,2.6032912731170654,6.542950630187988,-1.3752270936965942,-1.135952115058899,0.5583576560020447,0.8265886902809143,-0.07062523812055588,-0.17829179763793945,0.2675122618675232,0.039207398891448975,0.15301966062497274,-0.4912760875789104,-0.4725835234600219,0.7154702178462222,-0.9730191465328112,1.4449770363218515,-2.6904587470546706
1784805499074240512,2.613210439682007,7.1457977294921875,-0.08842229843139648,-0.3629305064678192,0.5561234354972839,0.8204153776168823,-0.13283640146255493,0.18144065141677856,-0.5619467496871948,0.008172094821929932,0.16878326359334167,-0.4822885688360193,-0.44830741227941917,0.733437446519331,-0.9621370973644046,1.3363282411832522,-2.8123955289206664
1784805499084160256,2.6231303215026855,7.647220134735107,-0.08645954728126526,-0.9670014977455139,0.5483267307281494,0.8141844868659973,-0.1908966451883316,-1.103334665298462,-0.051504313945770264,-0.05441895127296448,0.18827689033215758,-0.47327556870073684,-0.42492577484398714,0.7483316356418164,-0.9513232506019609,1.2357759569197584,-2.9326602503672183
1784805499094079488,2.633049488067627,8.016593933105469,0.8234500885009766,-1.2889240980148315,0.5428624153137207,0.8001807928085327,-0.25497302412986755,-0.5473790168762207,0.3897911310195923,-0.5295881032943726,0.21255973183891347,-0.4656183844682388,-0.3946048705200367,0.763089107981982,-0.9275966038695261,1.1316954472342982,-3.0697244252683475
1784805499103999488,2.6429693698883057,8.50694465637207,-0.6458728313446045,-0.315857470035553,0.5330820083618164,0.7828392386436462,-0.3209150433540344,-0.1775522232055664,1.2669808864593506,-0.43444082140922546,0.2342750283544176,-0.4528953938022837,-0.36664457472583,0.7781856271227732,-0.8992158591400944,1.0289080168207245,3.089311740675817
1784805499113918208,2.652888298034668,7.152719974517822,-0.9978697299957275,-1.3332316875457764,0.5258622765541077,0.7581150531768799,-0.3856557011604309,0.22345101833343506,0.7861964106559753,-0.5613046884536743,0.25290816246301356,-0.4393210612570033,-0.3378892689760331,0.793010217918139,-0.8604177466282077,0.9380186041941312,2.9810659224097833
1784805499123838464,2.662808418273926,5.402161121368408,-2.198774576187134,-1.9717646837234497,0.5054329633712769,0.7430458664894104,-0.43865758180618286,-0.20939719676971436,0.2963981032371521,0.09753209352493286,0.27048023959612344,-0.42210857539048763,-0.3201492658741339,0.8038465971228409,-0.8376101412110643,0.8560104214958667,2.893133108084138
1784805499133757440,2.672727346420288,3.7304444313049316,-1.6283563375473022,-0.10568167269229889,0.4866563677787781,0.727822482585907,-0.48315638303756714,0.9122846722602844,-0.3891841769218445,0.30836695432662964,0.28144555573494895,-0.40515759037441085,-0.30703280213658896,0.8138591063518431,-0.8151412792393181,0.7890070742562847,2.831405899963244
1784805499143677440,2.682647466659546,2.983889579772949,0.8965904712677002,-2.0498948097229004,0.4776063859462738,0.7164950370788574,-0.5084555745124817,1.0205930471420288,-0.027774333953857422,0.7326987981796265,0.2917570545665044,-0.3975715820654429,-0.2961571152773518,0.8179888392543766,-0.7987649228535699,0.7541230877537121,2.7875949090720105
1784805499153596416,2.692566394805908,3.554033041000366,0.4955204427242279,-0.7213155031204224,0.4719350337982178,0.7078595161437988,-0.5255590081214905,0.8752787113189697,0.45257139205932617,0.6616673469543457,0.30567241525587524,-0.394923696792518,-0.2850540003455459,0.8181343817254436,-0.7864632602126495,0.7316911803014409,2.7416754142336237
1784805499163516160,2.702486276626587,3.0035903453826904,-0.7161824107170105,-0.4050142765045166,0.4667093753814697,0.6931653022766113,-0.5492761731147766,0.9947011470794678,0.43987607955932617,0.18950438499450684,0.3141497070910633,-0.3882249716418568,-0.2732092546385511,0.8221606627194314,-0.7658713692382108,0.7043087097581898,2.7055428703768096
1784805499173435392,2.7124054431915283,4.219333171844482,-1.0406016111373901,-0.16704067587852478,0.45859384536743164,0.6745191812515259,-0.5785460472106934,0.8888335227966309,-0.18997639417648315,0.45041805505752563,0.3217688932100127,-0.3780678985069907,-0.2603682573639945,0.8280928581479763,-0.7403132005955888,0.6702530103329613,2.6690253760182987
1784805499183354368,2.7223243713378906,3.36405611038208,-0.6272092461585999,0.354576975107193,0.45428961515426636,0.651161789894104,-0.6079549789428711,0.9463909864425659,-0.6824270486831665,0.1278524398803711,0.326995403789928,-0.36830108476485723,-0.24571697109452847,0.8348960559043731,-0.7091142335961113,0.6417337815957305,2.6398440883516994
1784805499193274624,2.7322444915771484,3.3599143028259277,-0.807325005531311,0.07909263670444489,0.4509265422821045,0.6302781105041504,-0.6319926977157593,0.499924898147583,-0.07807779312133789,0.4527171850204468,0.33204171835416935,-0.3603543738660293,-0.23269801139775875,0.840086141758409,-0.6819113912841829,0.6197287385441242,2.6150241303915647
1784805499203193344,2.7421634197235107,3.2018344402313232,-0.7002571821212769,0.8802639245986938,0.4506654739379883,0.6060677766799927,-0.655425488948822,0.17933940887451172,0.16247165203094482,0.11343330144882202,0.3345977210732045,-0.3528173260140915,-0.21864856548444925,0.8460243505594844,-0.6511075886247104,0.602349980432173,2.5973084373013124
1784805499213113344,2.7520833015441895,2.6279749870300293,-0.7072763442993164,-0.3846243619918823,0.44772154092788696,0.5865845680236816,-0.6748807430267334,-0.03486448526382446,0.17214345932006836,0.0996091365814209,0.337714627749378,-0.3456339087977527,-0.2075977692928745,0.8505229405474563,-0.626835221909336,0.5857434683632641,2.580483196120843
1784805499223032576,2.762002468109131,2.996699810028076,-0.6036093831062317,-0.2614579498767853,0.44211453199386597,0.5682904720306396,-0.6939600706100464,-0.09952419996261597,-0.06691724061965942,-0.08042347431182861,0.34316204064573086,-0.33799893733619246,-0.19691796702730566,0.8539436379391024,-0.6044267705599082,0.5672455590994648,2.5586306775868937
1784805499232952320,2.7719223499298096,2.0447275638580322,0.17721958458423615,-0.15405496954917908,0.43825843930244446,0.5513595938682556,-0.7098817825317383,-0.04154518246650696,-0.22041171789169312,-0.14999675750732422,0.3481971077720809,-0.33182276122397,-0.186956620078993,0.856562642750136,-0.5839930122601138,0.5530924795052911,2.53960239551499
1784805499242871296,2.781841278076172,1.472353219985962,-0.5312353372573853,-0.16592441499233246,0.43614277243614197,0.5394007563591003,-0.7202960252761841,0.10430824756622314,-0.19462841749191284,0.025242924690246582,0.3518394398166415,-0.3278749524075355,-0.17986106585829442,0.8581125358315724,-0.5697252900639439,0.54445740013106,2.5264992782521216
1784805499252791296,2.7917613983154297,0.41422775387763977,-0.44781360030174255,-0.2665725648403168,0.43031686544418335,0.5331154465675354,-0.7284334897994995,0.46886831521987915,-0.2797890305519104,-0.04477512836456299,0.3525421932198106,-0.32289404530854443,-0.17754627290920375,0.8601923419439031,-0.5622786775765077,0.5335849410796275,2.5211999743618727
1784805499262710272,2.801680326461792,0.7871848344802856,-0.2848033905029297,-1.0219379663467407,0.42384782433509827,0.5321926474571228,-0.7328875064849854,0.43497785925865173,-0.1789974570274353,0.15183281898498535,0.35664975503867136,-0.31982912744555403,-0.17682076766387328,0.8597934534309717,-0.5611883247472684,0.5243301848507393,2.50954226398554
1784805499272629504,2.8115994930267334,-0.08638526499271393,-0.6174677610397339,-0.12532101571559906,0.4166737198829651,0.5317698121070862,-0.7372949719429016,0.5142497420310974,-0.006821691989898682,-0.01915949583053589,0.35915341931451755,-0.31620420682257255,-0.17710846527509158,0.8600327180619612,-0.5606889565055064,0.5143914436300108,2.501586287220307
1784805499282549504,2.821519374847412,0.060085926204919815,-0.6090646982192993,-0.28505343198776245,0.41091814637184143,0.5332192182540894,-0.7394752502441406,0.26085004210472107,0.12882912158966064,0.13634109497070312,0.3593509868478929,-0.3134521757346517,-0.1789137299131385,0.86058388721379,-0.562401377423394,0.5072003530395861,2.4999297015010202
1784805499292468224,2.8314383029937744,-0.340867280960083,-0.42573803663253784,-0.10609017312526703,0.40592876076698303,0.5349070429801941,-0.741010308265686,0.14558491110801697,-0.06452435255050659,-0.048555731773376465,0.35954503332592297,-0.31120260993259735,-0.18068693878049183,0.8609486673346624,-0.5643977480542703,0.5011560101658465,2.4985463785878634
1784805499302388480,2.8413584232330322,-0.4585784673690796,-0.7103990912437439,-0.2566767632961273,0.40036261081695557,0.5384107232093811,-0.7415009140968323,0.18346917629241943,-0.1230512261390686,-0.02296435832977295,0.35919546262232116,-0.30904478703592325,-0.1836868216911129,0.8612369306918097,-0.5685499929803702,0.49508326125464547,2.4987434731076767
1784805499312307456,2.8512773513793945,-0.5105684995651245,-0.395721435546875,-0.19166235625743866,0.39495429396629333,0.5428540706634521,-0.7411617040634155,0.19183769822120667,-0.15210694074630737,-0.05452311038970947,0.3589868026444521,-0.3072788078191126,-0.18707989196547317,0.8612255565066987,-0.5738317598029529,0.48960857993474965,2.4988809851952705
1784805499322227456,2.8611974716186523,-0.38234901428222656,-0.4899238348007202,0.20536595582962036,0.39123234152793884,0.5464144349098206,-0.740519106388092,0.19522392749786377,-0.10332977771759033,-0.03455108404159546,0.35773699766403544,-0.30596756025418886,-0.1900639670683505,0.86155891360716,-0.5780770428785645,0.4860474529072616,2.5016579918995783
1784805499332146432,2.8711163997650146,0.6327496767044067,-0.3217860758304596,-0.5679383873939514,0.387198805809021,0.5472684502601624,-0.7420068979263306,0.089607834815979,0.02777421474456787,-0.11404162645339966,0.35859461462903736,-0.3041728758994914,-0.19098533724882086,0.8616340627196929,-0.5790970798665885,0.4809558663870023,2.4986956800485705
1784805499342066176,2.8810362815856934,1.0043219327926636,-0.8129613995552063,0.09125655144453049,0.3812699019908905,0.5419791340827942,-0.7489271759986877,0.1939558982849121,0.20029997825622559,-0.18562781810760498,0.3605837918692019,-0.2998368028314827,-0.1887704720841704,0.8628111215794902,-0.5727903081420468,0.47089161240112154,2.490939553865706
1784805499351985408,2.8909554481506348,1.5841126441955566,-0.5142614841461182,-0.11596441268920898,0.3761419355869293,0.5326396822929382,-0.7581636905670166,0.3381830155849457,0.215162992477417,-0.06822174787521362,0.36146540210470846,-0.2945897551138441,-0.18475668953039262,0.8651153331167937,-0.5617164651733667,0.46054065630676355,2.4850920147448883
1784805499361905408,2.9008753299713135,1.6020545959472656,-0.316053569316864,0.010028146207332611,0.3718019425868988,0.5208579897880554,-0.7684206962585449,0.004296690225601196,-0.09361189603805542,-0.10985994338989258,0.3639222972466704,-0.28947955318811625,-0.17886097119461752,0.867047293458834,-0.5478557112789192,0.450646010510288,2.4754399984769555
1784805499371824384,2.910794496536255,0.7355738878250122,-0.6145589351654053,0.062206562608480453,0.36785754561424255,0.5111297965049744,-0.7768057584762573,0.15124642848968506,-0.17926639318466187,-0.1126747727394104,0.3651476797983313,-0.28494214082188507,-0.1743706056060496,0.8689476156314588,-0.5364987188335452,0.44226585010052755,2.4693972070132335
1784805499381744384,2.9207143783569336,-0.13542704284191132,-0.45920509099960327,0.11942111700773239,0.36346128582954407,0.5092993378639221,-0.7800706028938293,0.10257264971733093,-0.23964601755142212,0.04304051399230957,0.36476067016912844,-0.28201207975549164,-0.17445313942489882,0.8700488353272987,-0.5343704217066084,0.4360252119448856,2.468758862392755
1784805499391663360,2.930633306503296,-0.3473484218120575,-0.400941401720047,0.031984444707632065,0.36025360226631165,0.511071503162384,-0.7803994417190552,0.046255797147750854,-0.29169589281082153,0.0026284456253051758,0.3636605797504056,-0.2805520213058475,-0.17632598134943306,0.8706036250001284,-0.5364309268498781,0.4324809236193426,2.4708353447249025
1784805499401582592,2.9405524730682373,-0.3445236086845398,-0.4435751438140869,-0.07770396769046783,0.3563011586666107,0.5144927501678467,-0.7799658179283142,0.036856770515441895,-0.07474970817565918,0.02113097906112671,0.3631426676819798,-0.2792548091369524,-0.17897999331212866,0.8706953280043875,-0.540416007819492,0.4285079560068745,2.471713238559986
1784805499411502336,2.950472354888916,0.2669464945793152,-0.20610645413398743,0.23809397220611572,0.3544458746910095,0.5148953795433044,-0.7805452346801758,0.08606010675430298,0.16347986459732056,-0.05470561981201172,0.36245852156228253,-0.27823080838440073,-0.17976371474608774,0.8711466213537535,-0.5408855809384313,0.4262585500462979,2.4728788626664997
1784805499421421312,2.9603912830352783,0.7297394275665283,-0.6693617105484009,0.0007959326030686498,0.35181209444999695,0.5102501511573792,-0.7847757935523987,0.10885074734687805,0.33952707052230835,-0.12617391347885132,0.36263171855140924,-0.2756168623809444,-0.1778972942841694,0.8722878785534846,-0.5354756166105057,0.42143623305417965,2.4708338141007893
1784805499431341312,2.970311403274536,0.751602053642273,-0.385872483253479,-0.0638498067855835,0.3471393287181854,0.5046645402908325,-0.7904479503631592,0.13503840565681458,0.331623911857605,-0.03187870979309082,0.36324062851433203,-0.27177336996910434,-0.17582731821171355,0.873659136184459,-0.5289933556302052,0.41380946784912825,2.467122210642742
1784805499441260288,2.9802303314208984,0.9198898673057556,-0.5322033166885376,-0.033458344638347626,0.3430812656879425,0.4981703460216522,-0.796317458152771,0.075177401304245,0.09268045425415039,0.105094313621521,0.36455131601694724,-0.26817833606660046,-0.17297873864101687,0.8747919732835906,-0.5214873687770312,0.4068023547704397,2.4618572484623518
1784805499451180544,2.9901504516601562,0.7355645298957825,-0.20866383612155914,0.12366282939910889,0.34014835953712463,0.49177709221839905,-0.8015325665473938,0.11979731917381287,-0.15297091007232666,0.0952642560005188,0.3651371409089965,-0.26507910984522554,-0.17019631681125783,0.8760372413090715,-0.5141295087110106,0.4013390033673462,2.4586158838893746
1784805499461099264,3.0000693798065186,0.5954487323760986,-0.46546390652656555,0.21517224609851837,0.3380764126777649,0.48622608184814453,-0.8057844042778015,0.1282169222831726,-0.19626331329345703,0.01675248146057129,0.3652437623927497,-0.2625747884982625,-0.16781616042346195,0.8772053410832624,-0.5077657170167914,0.3972554776651318,2.4568757793552596
1784805499471019520,3.0099895000457764,0.39468514919281006,-0.34877535700798035,0.07341854274272919,0.3356906771659851,0.4821694493293762,-0.8092122673988342,0.21019247174263,-0.11829310655593872,0.03423357009887695,0.36506795797964986,-0.26024946345084693,-0.16632527173711145,0.8782549179701301,-0.5031293574184288,0.3932305841016565,2.4559996770886383
1784805499480938496,3.0199084281921387,0.44883787631988525,-0.3842872679233551,0.15788468718528748,0.332961767911911,0.47905129194259644,-0.8121861219406128,0.0853273868560791,-0.09773418307304382,0.04900258779525757,0.3649384750557368,-0.2580028441525404,-0.1653525751206043,0.8791546551437688,-0.4995736085412689,0.3890608253777555,2.4551209326348413
1784805499490858240,3.0298283100128174,0.35268688201904297,-0.33609068393707275,0.10495026409626007,0.3304447829723358,0.475185364484787,-0.815478503704071,0.16281083226203918,-0.10531231760978699,0.04263603687286377,0.36461279044999,-0.2556485949698081,-0.16402608749349867,0.8802254621136484,-0.49517469766295363,0.3849946779607174,2.4546292816329234
1784805499500777472,3.039747476577759,0.4871954321861267,-0.29466310143470764,-0.015452313236892223,0.32811209559440613,0.47205737233161926,-0.8182324171066284,0.13216927647590637,0.08594128489494324,0.06806457042694092,0.36486864950051334,-0.25369324170515684,-0.1628604381863994,0.8809013336949242,-0.49162309240166346,0.3813690834150209,2.4529999966193174
1784805499510696448,3.049666404724121,0.5934004783630371,-0.45418575406074524,0.23059087991714478,0.32468631863594055,0.4672623574733734,-0.8223409652709961,0.15686577558517456,0.09413900971412659,-0.037598609924316406,0.3647000535926264,-0.25068204582476,-0.1612080017400786,0.8821363007010328,-0.4861917864108037,0.37604306602305965,2.4518391938109017
1784805499520616192,3.0595862865448,0.6150490045547485,-0.33799949288368225,0.01964934915304184,0.32167741656303406,0.46187329292297363,-0.8265571594238281,0.11541056632995605,0.09206652641296387,-0.07116317749023438,0.3646841601912515,-0.2477816599275106,-0.15914040362822135,0.8833369430709012,-0.48010610602012027,0.3711419291572703,2.4503645758922112
1784805499530535424,3.069505453109741,0.8487942218780518,-0.43993818759918213,0.10499876737594604,0.3191247284412384,0.45602673292160034,-0.8307821750640869,0.020413845777511597,0.06391650438308716,0.002718210220336914,0.3652096563517033,-0.2451149643073844,-0.15661275289590185,0.8843150446573315,-0.47352554778823047,0.3667471072224929,2.4477286966233778
1784805499540455424,3.07942533493042,0.552383542060852,-0.43533650040626526,-0.09212575107812881,0.3150140047073364,0.4498893618583679,-0.8356828093528748,0.1432989537715912,0.003906995058059692,-0.023676931858062744,0.36543385267581213,-0.24153594968584605,-0.15433402478551053,0.8856068161348031,-0.46664144310251454,0.3604827094168907,2.445442022609913
1784805499550374400,3.0893445014953613,0.370380699634552,-0.23539352416992188,0.18739865720272064,0.3121807873249054,0.44617927074432373,-0.8387295603752136,0.0030657947063446045,0.00859367847442627,0.07983362674713135,0.3655173637532927,-0.2391941352936157,-0.15304051277083364,0.8864320904037948,-0.46249152378393976,0.3563195382297537,2.4441300526788763
1784805499560294400,3.09926438331604,0.27880603075027466,-0.37715837359428406,0.0758897215127945,0.3101941645145416,0.443225234746933,-0.841029703617096,0.061601489782333374,-0.004199355840682983,0.07093387842178345,0.3652950513372484,-0.2374234320807104,-0.1520370248757642,0.8871721503329357,-0.4591934351595695,0.35334746018333946,2.443805429976819
1784805499570213376,3.1091833114624023,0.2531266212463379,-0.18882133066654205,-0.018951639533042908,0.30761295557022095,0.4412282407283783,-0.8430254459381104,0.09618034958839417,-0.003148376941680908,0.07959771156311035,0.36526519012562814,-0.23561674380446654,-0.15156521790509628,0.8877466794151082,-0.45696687220276017,0.3498792535418237,2.4430697820271843
1784805499580133376,3.11910343170166,0.32229211926460266,-0.14548318088054657,0.07949716597795486,0.3059203624725342,0.4388904571533203,-0.8448597192764282,0.08975529670715332,0.04327201843261719,0.03507578372955322,0.3655196875660184,-0.23423397284959638,-0.15068044668287386,0.8881583365676101,-0.4543634612984276,0.347409921058994,2.4418341855689003
1784805499590052352,3.1290223598480225,0.5357530117034912,-0.04967474192380905,0.024837519973516464,0.3051556944847107,0.43506819009780884,-0.8471101522445679,0.1789141297340393,0.023168474435806274,0.016131818294525146,0.36540916131553725,-0.23291062655881614,-0.14898842718275085,0.8888369752240187,-0.4501140189820572,0.34576041265469337,2.4414119220635095
1784805499599972608,3.1389424800872803,0.6478654146194458,-0.2996661961078644,0.018894143402576447,0.3031631112098694,0.4301448166370392,-0.8503337502479553,0.22726288437843323,0.012772023677825928,-0.1082843542098999,0.3659683868400369,-0.2308162380338067,-0.14682294632912907,0.8895133028901812,-0.444653190468375,0.34247364316131995,2.4391055069182737
1784805499609891328,3.1488614082336426,0.7958564758300781,-0.33444708585739136,-0.0724291130900383,0.3003159761428833,0.42407721281051636,-0.8543821573257446,0.2246168851852417,0.09882625937461853,-0.13286149501800537,0.3665704977217397,-0.22803086711694545,-0.14425966873487156,0.8904027977380499,-0.4379426810106888,0.3380111672568191,2.436414069104342
1784805499619811328,3.1587812900543213,1.0897784233093262,-0.41491609811782837,0.018383082002401352,0.29629212617874146,0.4163435399532318,-0.8595749139785767,0.12291258573532104,0.10854354500770569,-0.18542325496673584,0.3675999778773354,-0.22433797578708226,-0.14101424402439772,0.8914357622354114,-0.42942001966805776,0.33194195310898894,2.4323730147645524
1784805499629730560,3.1687004566192627,1.0352814197540283,-0.3485415577888489,-0.05980156734585762,0.29229995608329773,0.40702757239341736,-0.8653839230537415,0.09251144528388977,-0.011214584112167358,-0.14509886503219604,0.368482777301768,-0.2202863747862553,-0.1370472954500079,0.8926995327925346,-0.41919751712240216,0.3257374274205942,2.428536635662072
1784805499639649280,3.178619384765625,0.7528043985366821,-0.4129090905189514,0.09988716244697571,0.2881825566291809,0.39963769912719727,-0.8701956868171692,0.022822082042694092,-0.09522485733032227,-0.01554650068283081,0.36935960361347137,-0.2166373156020371,-0.1340538118733285,0.8936841990188639,-0.41112157082398526,0.3198021441374926,2.424984235676368
1784805499649569536,3.188539505004883,0.5202622413635254,-0.32575756311416626,0.016464142128825188,0.285274863243103,0.3942926526069641,-0.8735854625701904,0.08787882328033447,-0.10379582643508911,0.01405787467956543,0.36963200731239526,-0.2139892175708547,-0.13196926162780157,0.8945193589768745,-0.40529801231129176,0.3156389103772783,2.4232683349132027
1784805499659488512,3.198458433151245,0.5567472577095032,-0.3384901285171509,0.04928547143936157,0.28194308280944824,0.38960984349250793,-0.8767623901367188,0.11000943183898926,-0.039771586656570435,-0.00176239013671875,0.3697656122484307,-0.21126943414975877,-0.1303228222268703,0.8953516482272258,-0.4002079306502957,0.3111291462768549,2.421890198055005
1784805499669408256,3.208378314971924,0.6446628570556641,-0.3767727315425873,0.03377502039074898,0.27823060750961304,0.38454511761665344,-0.8801777362823486,0.12351804971694946,0.07379841804504395,-0.020579099655151367,0.3699652841183925,-0.20829136974244622,-0.1285528835756644,0.8962224463293995,-0.39471499134570565,0.30616784069710334,2.420284629908389
1784805499679327488,3.2182974815368652,0.8537894487380981,-0.34341317415237427,-0.10647956281900406,0.27459263801574707,0.3781931400299072,-0.8840638399124146,0.09376981854438782,0.13900351524353027,-0.01388537883758545,0.3708045950083132,-0.2051598045968698,-0.12600614345776573,0.8969591782463395,-0.3878436772019169,0.3011554537164628,2.417157824224939
1784805499689247488,3.228217363357544,0.9316134452819824,-0.3976749777793884,0.17211268842220306,0.2707286477088928,0.3705986440181732,-0.8884608149528503,0.09093517065048218,0.11617198586463928,-2.7954578399658203e-05,0.37131775818511087,-0.20160151842590293,-0.12298948373879681,0.8979719196749547,-0.37965348762516404,0.2957781931551343,2.414634051957907
1784805499699166208,3.2381362915039062,0.7713078856468201,-0.3502179980278015,0.0870412066578865,0.267937570810318,0.3625622093677521,-0.8926130533218384,0.09090334177017212,0.0017566084861755371,0.028019607067108154,0.37158470416881456,-0.19845735208551196,-0.11961665873289698,0.8990168514070161,-0.3710157070732182,0.29161470444886545,2.4128177690982464
1784805499709086464,3.248056411743164,0.4568113088607788,-0.2168007344007492,0.17983895540237427,0.26567062735557556,0.3571653366088867,-0.895461916923523,0.06890884041786194,-0.06740093231201172,0.11000049114227295,0.3712913197780523,-0.19609855652499666,-0.11753470140177782,0.8999297747945644,-0.36523129003359417,0.2884132727229383,2.4126095607370366
1784805499719005440,3.2579753398895264,0.3646528720855713,-0.33266472816467285,0.11067000031471252,0.2631990611553192,0.353603720664978,-0.8976027369499207,0.12174966931343079,-0.04984700679779053,0.053806960582733154,0.37099031551911565,-0.1940518698387585,-0.11637226328842183,0.9006484120855938,-0.36142092577407464,0.28522914284220696,2.412578659434794
1784805499728925440,3.267895460128784,0.5652410984039307,-0.36343395709991455,-0.012151657603681087,0.26004958152770996,0.34934699535369873,-0.9001837968826294,0.12425824999809265,-0.0016907453536987305,-0.03431016206741333,0.37121051938628546,-0.1915904949023865,-0.11489634497856642,0.9012739568896069,-0.35687408303788576,0.2812285910478676,2.4112401526568936
1784805499738844416,3.2778143882751465,0.7269455790519714,-0.4579988121986389,0.16072425246238708,0.2558010518550873,0.3436645269393921,-0.9035820364952087,0.13026157021522522,0.08463442325592041,-0.08823925256729126,0.37128707007637857,-0.18826502153941296,-0.11298341125429918,0.9021846014920585,-0.350816322504982,0.2758779037037931,2.4099553760015606
1784805499748764416,3.2877345085144043,1.0822843313217163,-0.3482035994529724,0.04258821904659271,0.2521834075450897,0.33559632301330566,-0.9076225161552429,0.06773236393928528,0.09634947776794434,-0.08944779634475708,0.37148306491739014,-0.18475676280373673,-0.10978923688088507,0.9032229075942801,-0.34223819572598474,0.2710143869554803,2.408310911137165
1784805499758683392,3.2976534366607666,1.1699888706207275,-0.45341283082962036,0.13597436249256134,0.24873115122318268,0.3252093195915222,-0.9123440980911255,0.03409048914909363,0.07295352220535278,-0.07163417339324951,0.37204094986694547,-0.18088722374508345,-0.10539340211618492,0.904299576636661,-0.33123307922699113,0.2661602725580151,2.405724592419475
1784805499768602368,3.307572364807129,1.1070857048034668,-0.4124460816383362,0.22293981909751892,0.24482454359531403,0.3149698078632355,-0.9169814586639404,0.11865505576133728,0.018068552017211914,-0.03333592414855957,0.371903834452279,-0.17676779913249663,-0.1013035834861958,0.9056370380891026,-0.3204248334796589,0.26090389896327537,2.404673954473407
1784805499778522368,3.3174924850463867,0.9944494366645813,-0.3679731786251068,0.005152098368853331,0.24101674556732178,0.3056585490703583,-0.9211317896842957,0.08053170144557953,-0.036707133054733276,0.023106276988983154,0.37254296826418587,-0.17300079436016,-0.09749271057874882,0.906519538648538,-0.3106300072499527,0.25591562061723866,2.4020405868248447
1784805499788441344,3.327411413192749,0.9622344374656677,-0.43861135840415955,0.23233310878276825,0.23723304271697998,0.29662227630615234,-0.9250598549842834,0.16971884667873383,-0.057379722595214844,-0.0019573569297790527,0.3726484049142187,-0.1692616256382271,-0.09391793782959734,0.9075588970606447,-0.3011537924654784,0.25104145042471177,2.4006482132819453
1784805499798361344,3.3373312950134277,0.8930753469467163,-0.3188015818595886,0.2835899293422699,0.23349133133888245,0.28782203793525696,-0.9287843108177185,0.11447009444236755,-0.11983802914619446,-0.013461172580718994,0.3719830405230709,-0.16553177966329374,-0.09059292802500973,0.9088569042620177,-0.2919518689031718,0.24629077399777088,2.4010100989151146
1784805499808280576,3.347250461578369,0.7361685037612915,-0.3118515908718109,0.13903099298477173,0.23073428869247437,0.28051406145095825,-0.9317046403884888,0.05753473937511444,-0.12154799699783325,-0.0014160871505737305,0.37182052296748974,-0.162657322868306,-0.08769417954941056,0.9097262887966141,-0.28432963306504994,0.24276328851708984,2.400511028078077
1784805499818200320,3.357170343399048,0.6947036385536194,-0.3943430185317993,0.23143070936203003,0.22708386182785034,0.27353721857070923,-0.9346712231636047,0.18909960985183716,-0.07369285821914673,-0.057699382305145264,0.37139935051113593,-0.15940681870606443,-0.085169556642942,0.9107129332147496,-0.2770685834274751,0.23833799076021245,2.400533799945548
1784805499828119296,3.36708927154541,0.8478543162345886,-0.4496981203556061,0.12180594354867935,0.22280988097190857,0.26651695370674133,-0.9377230405807495,0.15064898133277893,-0.008994370698928833,-0.06143772602081299,0.37099188445540854,-0.15586077046702648,-0.08273998585095624,0.9117162735359644,-0.26977745225056377,0.23328140717426446,2.4004853501366292
1784805499838039296,3.377009391784668,0.8877694606781006,-0.4505053162574768,0.20272263884544373,0.2182057499885559,0.2585535943508148,-0.9410293698310852,0.09307354688644409,0.015341639518737793,-0.07186424732208252,0.37097181869082574,-0.15201076218799647,-0.07986264744914863,0.9126305500163231,-0.2615245905290129,0.2278530538196691,2.3995152668631388
1784805499847959808,3.386929750442505,1.043698787689209,-0.48001179099082947,0.1089024618268013,0.21326471865177155,0.24962472915649414,-0.9445663690567017,0.10930606722831726,0.023156628012657166,-0.06928855180740356,0.37085925705803935,-0.14780870484416614,-0.07661199358519626,0.9136446125708756,-0.2522926904409112,0.22205726005900542,2.3986832994877205
1784805499857879808,3.3968498706817627,0.9292035698890686,-0.5071680545806885,0.14809593558311462,0.20813104510307312,0.2405424267053604,-0.9480615854263306,0.08563113212585449,-0.004961982369422913,-0.05413562059402466,0.3709616471072572,-0.14351708698229662,-0.073294200107897,0.9145591320056297,-0.24292465065030963,0.216105062941388,2.397392652504292
1784805499867798784,3.406768798828125,0.8432673215866089,-0.5112683176994324,0.19920796155929565,0.20284199714660645,0.2324204295873642,-0.9512286186218262,0.11412882804870605,-0.0559830367565155,-0.04681825637817383,0.3704915356436071,-0.1393147373846757,-0.07054853408244632,0.91561479013625,-0.23456551889168684,0.21009533398220614,2.3974424568084665
1784805499877719040,3.416688919067383,0.7896496057510376,-0.48143473267555237,0.16316767036914825,0.19783803820610046,0.22485239803791046,-0.9540972113609314,0.08888986706733704,-0.07771189510822296,-0.0770764946937561,0.3700807372795894,-0.1353795004026746,-0.06799839895061911,0.9165635699654842,-0.226791555847789,0.2044587876120074,2.3974536081420883
1784805499887637760,3.426607847213745,0.701530396938324,-0.5792428255081177,0.21255971491336823,0.19284270703792572,0.21765589714050293,-0.9567850232124329,0.10597015917301178,-0.06255029141902924,-0.06970423460006714,0.36960586901455805,-0.13153091013690835,-0.06562848927119416,0.9174879568754764,-0.21941213531143325,0.19888818808707429,2.397657630737017
1784805499897556736,3.4365267753601074,0.6236324310302734,-0.4950120747089386,0.20864488184452057,0.187717005610466,0.21124723553657532,-0.9592376947402954,0.083218052983284,-0.04333952069282532,-0.07948911190032959,0.36900003504032397,-0.12777901483870194,-0.06366853727814956,0.9183995715080894,-0.2128508174914916,0.19325170845919748,2.39821120932527
1784805499907476992,3.4464468955993652,0.6626585125923157,-0.4700072109699249,0.07828929275274277,0.1831052154302597,0.20506998896598816,-0.9614669680595398,0.0804751068353653,-0.001044735312461853,-0.07014918327331543,0.3686193288580274,-0.12434344917962625,-0.06168638457348493,0.9191589808096072,-0.20653521273814462,0.18819002877139313,2.3983482103395546
1784805499917395712,3.4563658237457275,0.6702730059623718,-0.491899698972702,0.13369768857955933,0.17814119160175323,0.19855600595474243,-0.9637640714645386,0.10524502396583557,0.050787851214408875,-0.08068472146987915,0.3683661389045657,-0.12069205117892401,-0.0595934673779228,0.9198850328327904,-0.19988437285774058,0.18277609006227358,2.398186381245874
1784805499927315968,3.4662859439849854,0.7728739380836487,-0.589142918586731,0.059109076857566833,0.17298944294452667,0.19170844554901123,-0.966086208820343,0.14138737320899963,0.07200922071933746,-0.04789084196090698,0.368295295213882,-0.11690725400164532,-0.05735501119545108,0.9205442916037537,-0.1929025782575689,0.17718435079023867,2.3976220997129514
1784805499937234944,3.4762048721313477,0.753423810005188,-0.5759727954864502,0.105227030813694,0.16740524768829346,0.18413011729717255,-0.9685409665107727,0.12180984020233154,0.029614999890327454,-0.015574634075164795,0.36822861735720414,-0.1127850152021363,-0.05485490282641333,0.9212373590399537,-0.18518676868876718,0.171151721096514,2.3970099963517906
1784805499947154688,3.4861247539520264,0.7591814398765564,-0.6526370644569397,0.1127617135643959,0.16168226301670074,0.1768028885126114,-0.9708756804466248,0.14173875749111176,0.015930861234664917,0.025761544704437256,0.3679512424219687,-0.10864353849395247,-0.05252375323963776,0.921981338944548,-0.1777372153803064,0.16501805036142891,2.396890399654814
1784805499957073920,3.4960439205169678,0.7390902638435364,-0.5715150237083435,0.1502196192741394,0.1560196876525879,0.1694922000169754,-0.973103404045105,0.1483626365661621,-0.028333142399787903,0.01152503490447998,0.36753147019721966,-0.1045364724992186,-0.05020376547688893,0.9227526484311873,-0.17031439331607356,0.15897902788538892,2.3971139092408205
1784805499966993920,3.5059638023376465,0.5647333860397339,-0.5838912725448608,0.00830667931586504,0.1506814956665039,0.16309815645217896,-0.9750354290008545,0.1174001693725586,-0.001583874225616455,0.011244535446166992,0.5313780912523342,-0.10794709125485902,-0.02880475345188857,0.8397350924336245,-0.16383005459488886,0.15332657744253195,2.0258384838546606
1784805499976912640,3.515882730484009,0.4272066652774811,-0.5855357646942139,0.1012030616402626,0.14496825635433197,0.15845482051372528,-0.9766659140586853,0.14154602587223053,0.03582009673118591,0.031170308589935303,0.635116783885549,-0.10700486754195261,-0.014731208103730067,0.7648265719879148,-0.1591254978847401,0.14735588347515036,1.767346040936788
1784805499986832896,3.5258028507232666,0.42797547578811646,-0.6061854958534241,0.020795274525880814,0.13907288014888763,0.15430966019630432,-0.9781857132911682,0.11463500559329987,-0.004681974649429321,-0.005899369716644287,0.635040323604247,-0.10334589281509597,-0.015059080097823238,0.7653866143488824,-0.1549287014360515,0.14122781724846153,1.7673940002399176
1784805499996751872,3.535721778869629,0.4500938057899475,-0.616644024848938,0.11629410088062286,0.1332370638847351,0.15000124275684357,-0.979667067527771,0.09381371736526489,0.005256950855255127,-0.047234177589416504,0.6349823085587383,-0.09966163282311669,-0.01529829422788735,0.7659184149984517,-0.15056952484664612,0.13517305343469596,1.7673973765735944
1784805500006671872,3.5456418991088867,0.4643239378929138,-0.6142748594284058,0.0785657986998558,0.1274009644985199,0.14550696313381195,-0.9811201095581055,0.06719435751438141,0.052338480949401855,-0.07979291677474976,0.634802508686256,-0.09591861552098775,-0.015477446356820107,0.7665415108084359,-0.14602537253451336,0.12913000770563687,1.7677214746636403
1784805500016590848,3.555560827255249,0.5137513875961304,-0.5499704480171204,0.06986338645219803,0.12187210470438004,0.1406300663948059,-0.9825326204299927,0.07568343728780746,0.022150695323944092,-0.06547152996063232,0.7063402268387742,-0.09323803402738255,-0.006352301024273377,0.7016764892133933,-0.14109777910411223,0.12340840269683692,1.5729037240130583
1784805500026510848,3.565480947494507,0.678417444229126,-0.5514121055603027,0.05832181125879288,0.11667878925800323,0.13483662903308868,-0.9839741587638855,0.08894865214824677,0.050649210810661316,-0.0753520131111145,0.7576765389056748,-0.08951274350658388,0.0006239960229727827,0.6464622354565951,-0.13524858660912226,0.11802798266366588,1.4207201394827589
1784805500036429824,3.575399875640869,0.7580094337463379,-0.5532137155532837,0.0743524357676506,0.11143827438354492,0.12768660485744476,-0.9855341911315918,0.14233064651489258,0.09553422033786774,-0.0763707160949707,0.7949471296110603,-0.0848354748500027,0.00598716108891338,0.6006881256839153,-0.12803613611738995,0.11259573685221765,1.3014184226957062
1784805500046348800,3.5853188037872314,0.9475038647651672,-0.6434963941574097,-0.010951470583677292,0.10577649623155594,0.11946920305490494,-0.9871871471405029,0.14314013719558716,0.12831827998161316,-0.06765294075012207,0.7952763490669668,-0.07979941593127068,0.0062035923821342955,0.6009402237194332,-0.1197552360388495,0.10674213010353721,1.3006032865722252
1784805500056269056,3.5952389240264893,0.8360574841499329,-0.5437655448913574,0.03732631355524063,0.09977460652589798,0.11054588109254837,-0.9888501763343811,0.16318011283874512,0.08839821070432663,-0.047053754329681396,0.8234998183355494,-0.07398542284044564,0.010053740375108916,0.5623817446164077,-0.11077228401823666,0.10055928961020599,1.2039168473296529
1784805500066187776,3.6051578521728516,0.8132307529449463,-0.5626101493835449,-0.042870521545410156,0.09431862831115723,0.10248373448848724,-0.9902530312538147,0.12440085411071777,0.058923736214637756,-0.0026516318321228027,0.8451821701289961,-0.0686328960628764,0.012767381455472567,0.5298997068549949,-0.10266398626550934,0.094960529177537,1.1249048485433013
1784805500076107776,3.6150777339935303,0.6423056125640869,-0.5473228096961975,-0.021485337987542152,0.08860041946172714,0.09528134763240814,-0.9914996027946472,0.09320805221796036,-0.011556379497051239,-0.010468780994415283,0.8620563651809018,-0.0636046474856787,0.014305788723703241,0.5026018667217345,-0.09542611157805572,0.0891232988847968,1.0599496544430291
1784805500086027008,3.6249969005584717,0.5624752640724182,-0.5737260580062866,-0.0073096975684165955,0.08303310722112656,0.08947322517633438,-0.9925220608711243,0.10548923164606094,0.010960131883621216,-0.0026866793632507324,0.8753259639650444,-0.059294289875854986,0.014938388516895384,0.4796514846305888,-0.08959303355804947,0.08346434738004709,1.0063087475625738
1784805500095946752,3.6349167823791504,0.6174642443656921,-0.4876548647880554,-0.19053597748279572,0.0781218558549881,0.08380343019962311,-0.9934152960777283,0.0862610712647438,0.051282621920108795,-0.021965503692626953,0.8863995184215032,-0.05526629922770034,0.015426766082611804,0.4593513691992574,-0.08390183322620168,0.07847816606950898,0.9595327478307086
1784805500105865984,3.644835948944092,0.6774799823760986,-0.5354703664779663,-0.13700559735298157,0.0729459747672081,0.07788103073835373,-0.9942904114723206,0.1235261932015419,0.08468610048294067,-0.024706780910491943,0.8957339861452258,-0.05112430688075627,0.015527312110914135,0.44136826421849135,-0.07795997911795537,0.07323365541902778,0.9185107005251626
1784805500115785728,3.6547558307647705,0.7400853037834167,-0.5582156181335449,-0.16441884636878967,0.06782898306846619,0.07080692797899246,-0.9951812028884888,0.1734277307987213,0.07779842615127563,-0.06132209300994873,0.903584430345062,-0.04653576753150823,0.015614917383626654,0.42558866603647455,-0.07086622667231186,0.06805217326985442,0.882773196134696
1784805500125704704,3.664674758911133,0.9070510268211365,-0.6227469444274902,-0.18143463134765625,0.06152261421084404,0.06324904412031174,-0.9960996508598328,0.11750875413417816,0.10726792365312576,-0.050073444843292236,0.9105923728464704,-0.04151905783165572,0.015044583889091629,0.41093957132654435,-0.06329129185335258,0.0616851554415758,0.8498026327918168
1784805500135624960,3.6745948791503906,1.1435507535934448,-0.6419515013694763,-0.10815508663654327,0.05525364354252815,0.05299472436308861,-0.997065007686615,0.13157497346401215,0.1132345199584961,-0.07584148645401001,0.9164125141929342,-0.03534083473980098,0.014782771140125063,0.39839763442313814,-0.05301956115622087,0.05535966733856383,0.8216448561780206
1784805500145543936,3.684513807296753,1.2860832214355469,-0.5819609761238098,-0.04502598196268082,0.04892277345061302,0.04094420000910759,-0.997963011264801,0.09396052360534668,0.09784974157810211,-0.038276612758636475,0.9214468724453722,-0.02836408032238106,0.014628145951316188,0.3871913926854318,-0.04095565043671536,0.04898341949249752,0.7965983302816353
1784805500155463936,3.6944339275360107,1.1798290014266968,-0.4741583466529846,-0.009872524067759514,0.04376396909356117,0.02878805622458458,-0.9986270666122437,0.03988470882177353,0.04128029942512512,0.03648412227630615,0.9258512743002812,-0.021590592850248128,0.014843413343451359,0.3769786289952503,-0.028792034427503218,0.04379611607205239,0.7739743425965923
1784805500165382912,3.704352855682373,1.0334571599960327,-0.38742297887802124,0.05418016389012337,0.039463698863983154,0.01782558113336563,-0.9990620017051697,0.050227463245391846,-0.03807399421930313,0.09758800268173218,0.929572244830674,-0.015553764029072647,0.015069311232250719,0.3680033249775716,-0.017826525563072612,0.03948022744323954,0.7542591212241658
1784805500175301888,3.7142717838287354,0.7961069941520691,-0.39736536145210266,0.10585347563028336,0.03532662242650986,0.008635998703539371,-0.9993385076522827,0.05715689808130264,-0.0935206413269043,0.09340894222259521,0.9327825813783963,-0.010389636009196561,0.014926573269179089,0.3599802734572418,-0.00863610648780792,0.0353352932433762,0.7367737144857505
