time,seconds_elapsed,rotationRateX,rotationRateY,rotationRateZ,gravityX,gravityY,gravityZ,accelerationX,accelerationY,accelerationZ,quaternionW,quaternionX,quaternionY,quaternionZ,pitch,roll,yaw
1782818622575387648,0.17301368713378906,0.5711079835891724,0.24575018882751465,-0.16930104792118073,0.17736642062664032,0.566766083240509,-0.8045603632926941,-0.042036205530166626,0.03861111402511597,0.008478820323944092,0.6421104144572055,-0.13287068544067765,0.2829579598002589,-0.699981678569442,-0.6025752898928557,0.21698077732074428,-1.5893170275262034
1782818622585307904,0.18293380737304688,0.7572528123855591,0.27845168113708496,-0.18718549609184265,0.17707328498363495,0.5626197457313538,-0.807529628276825,-0.02738456428050995,0.0031914114952087402,0.03340548276901245,0.641319699421121,-0.13087215403599556,0.2812608444719179,-0.701764852117741,-0.5975512365835003,0.21586129820707523,-1.5940262955590079
1782818622595226880,0.19285273551940918,0.849567174911499,0.3510948121547699,-0.20697937905788422,0.17658667266368866,0.5576266050338745,-0.8110916614532471,-0.018459826707839966,-0.028909623622894287,0.03040623664855957,0.6404022876893293,-0.12854767475588325,0.2791588624505288,-0.7038683547698077,-0.5915238777536189,0.21436957360653924,-1.5996047534779492
1782818622605146880,0.202772855758667,0.80025315284729,0.40486642718315125,-0.2252926081418991,0.17646625638008118,0.5522757768630981,-0.8147705793380737,-0.027281075716018677,-0.03234785795211792,0.034985482692718506,0.6393525416218596,-0.12590658977629215,0.27705999817815374,-0.7061257367006291,-0.5850916467430936,0.21328966990668005,-1.605508095376577
1782818622615066880,0.2126927375793457,0.7213701009750366,0.4301532804965973,-0.2375476360321045,0.1764785647392273,0.5470319986343384,-0.818297803401947,-0.011729419231414795,-0.04918348789215088,0.02191108465194702,0.6382171192001322,-0.12325159989088609,0.27506388708463214,-0.7083980925750335,-0.5788146224196278,0.21241212502456394,-1.6114683344368457
1782818622624985856,0.2226119041442871,0.5560157299041748,0.4161386489868164,-0.2518613338470459,0.17687593400478363,0.5422287583351135,-0.8214030265808105,-0.01148591935634613,-0.06891638040542603,0.019996166229248047,0.6370314276696518,-0.12064113940246658,0.27339386223442774,-0.7105579286159522,-0.5730873876810054,0.21209529955905754,-1.6171021764044653
1782818622634905856,0.23253178596496582,0.41343966126441956,0.3422256410121918,-0.2498522698879242,0.17758698761463165,0.5381062030792236,-0.8239566683769226,0.0030160248279571533,-0.09842425584793091,0.03483313322067261,0.6359433004754079,-0.11825226981652583,0.2720993920612316,-0.7124285064169543,-0.5681886707676225,0.21228224691465986,-1.621924459320991
1782818622644825856,0.24245190620422363,0.3170401453971863,0.23166263103485107,-0.28935521841049194,0.17799195647239685,0.5347209572792053,-0.8260704278945923,0.023118868470191956,-0.08093982934951782,0.051427483558654785,0.6349157839540756,-0.11631610153672806,0.2709895641185735,-0.7140849210451821,-0.5641775233401651,0.21222368112652806,-1.6263181274905847
1782818622654744832,0.25237083435058594,0.3614470958709717,0.1399829387664795,-0.32496190071105957,0.17780035734176636,0.5316500663757324,-0.8280913233757019,0.013376981019973755,-0.021472454071044922,0.06972956657409668,0.6338884729292326,-0.11473964094152314,0.269794635516544,-0.715703197088612,-0.5605475560791586,0.21149996302950988,-1.6308024076619283
1782818622664664832,0.26229071617126465,0.5979531407356262,0.03363119065761566,-0.33460894227027893,0.17693084478378296,0.5277426838874817,-0.8307726383209229,-0.003972470760345459,0.02863854169845581,0.08567070960998535,0.6329638312132156,-0.1131226965951182,0.2679868385655242,-0.7174559634375781,-0.5559408100678541,0.20983642609449701,-1.6356868436242835
1782818622674583808,0.27220988273620605,0.9724289178848267,-0.07209010422229767,-0.41672542691230774,0.17492921650409698,0.5217642188072205,-0.8349621891975403,-0.024096086621284485,0.08230072259902954,0.11067324876785278,0.6321377799480328,-0.11114161505708729,0.26488948393329925,-0.7196408093965896,-0.548917649772214,0.20651858243998675,-1.6417401684156283
1782818622684503808,0.28212976455688477,1.5384271144866943,-0.06729081273078918,-0.43248307704925537,0.17213739454746246,0.5124744772911072,-0.8412720561027527,-0.07498466968536377,0.18144947290420532,0.14469307661056519,0.6313234365906171,-0.10816471478099611,0.2601237645164783,-0.7225418485621218,-0.538063936038434,0.20182968112606092,-1.6495226266016076
1782818622694423808,0.2920498847961426,2.0799524784088135,0.08643224090337753,-0.41808921098709106,0.16984127461910248,0.4988465905189514,-0.849885880947113,-0.11716796457767487,0.23679488897323608,0.14175599813461304,0.6306378048282909,-0.10339431118772267,0.2537058723522149,-0.7261122468137191,-0.5222674608925437,0.19724180022524074,-1.658435408466668
1782818622704342784,0.3019688129425049,2.218001127243042,0.2673615515232086,-0.6232495307922363,0.16837354004383087,0.48305290937423706,-0.8592498302459717,-0.15308423340320587,0.25945502519607544,0.18523859977722168,0.629408245914602,-0.09738285055896088,0.2467623803669332,-0.7303904700168696,-0.5041380685102806,0.19350228155518245,-1.6690679176912475
1782818622714262784,0.3118886947631836,2.1404995918273926,0.39331871271133423,-0.5774574875831604,0.16737307608127594,0.46788787841796875,-0.8677944540977478,-0.15908755362033844,0.26805877685546875,0.2466549277305603,0.6273315745605159,-0.09127724032539779,0.2403564908942312,-0.7350866136236466,-0.48689939845591124,0.1905322207865222,-1.6811913504784244
1782818622724182016,0.321807861328125,2.177344560623169,0.30315259099006653,-0.4590030312538147,0.16687367856502533,0.45285317301750183,-0.8758294582366943,-0.01532338559627533,0.10377219319343567,0.26045775413513184,0.6255899236285183,-0.08525937978933266,0.2341284265905191,-0.7392916223406267,-0.4699628759512221,0.1882755195433855,-1.6918231819564293
1782818622734101760,0.3317277431488037,2.1361215114593506,-0.016794469207525253,-0.5294141173362732,0.16526316106319427,0.4375346004962921,-0.8838843703269958,0.06615164875984192,-0.037189751863479614,0.23949044942855835,0.6169870469222836,-0.07757455012578356,0.22812278622787618,-0.7491790085179904,-0.4528550627447914,0.18483950741458158,-1.7210201363906792
1782818622744022016,0.3416478633880615,2.512040615081787,-0.19892673194408417,-0.6471670866012573,0.161195769906044,0.42016464471817017,-0.89301598072052,0.062452301383018494,0.036973387002944946,0.1954910159111023,0.6125131214807842,-0.0715861505878716,0.21992594189375902,-0.7558674524499174,-0.43362673990037187,0.1785841218192624,-1.7401212678881148
1782818622753940736,0.35156679153442383,3.5762882232666016,-0.27395299077033997,-0.45451033115386963,0.15662725269794464,0.39600226283073425,-0.904792845249176,0.055805593729019165,0.23084402084350586,0.0803300142288208,0.6093494302173875,-0.06400064779345424,0.20858448588537534,-0.7622924357562428,-0.40715909317410626,0.1714097002897773,-1.757417314043959
1782818622763860992,0.36148691177368164,5.015758991241455,-0.3231186866760254,-0.39820176362991333,0.1523825079202652,0.35932403802871704,-0.9206876754760742,0.0750497430562973,0.41118377447128296,-0.09264850616455078,0.6079280405563359,-0.05275185987396045,0.19202447795825175,-0.768613873065269,-0.3675434399833342,0.16402252038777457,-1.77265465732049
1782818622773780736,0.37140679359436035,5.914605617523193,-0.3411387801170349,-0.4766705334186554,0.14801663160324097,0.3117719888687134,-0.9385570287704468,0.06624728441238403,0.5884660482406616,-0.08425486087799072,0.6059324142530506,-0.038202008825379115,0.17106165701862477,-0.7759667505405146,-0.3170574047822439,0.15641830063677853,-1.7905970308381467
1782818622783699712,0.38132572174072266,6.64007043838501,-0.3617660105228424,-0.41812756657600403,0.14394207298755646,0.2575313150882721,-0.9554885029792786,0.09571245312690735,0.5300663113594055,0.05393826961517334,0.6037837471754716,-0.021875537842336666,0.14757102646447726,-0.7830640698976213,-0.26046648008522993,0.14952326669634522,-1.8082942302579599
1782818622793619968,0.39124584197998047,6.769382476806641,-0.4008130133152008,-0.36195191740989685,0.14057864248752594,0.19965824484825134,-0.969728946685791,0.14617979526519775,0.28171077370643616,0.15613031387329102,0.602627449755967,-0.004810681436108163,0.12293242896454715,-0.7884825484625041,-0.20100913313517849,0.14396403931731325,-1.8218846192427742
1782818622803538688,0.4011647701263428,6.400907516479492,-0.4739506244659424,-0.3744046092033386,0.13715298473834991,0.14197629690170288,-0.9803223013877869,0.1610647737979889,0.07025820016860962,0.29291385412216187,0.6009776176489074,0.011841352361140985,0.09848165698492975,-0.7930871443885701,-0.14245765166459548,0.13900376866348702,-1.8347483134532119
1782818622813458944,0.4110848903656006,5.975961208343506,-0.5521246194839478,-0.38860687613487244,0.1329306960105896,0.08561145514249802,-0.987420916557312,0.1848183423280716,-0.15999804437160492,0.3120211362838745,0.5987298180426681,0.027517893811584978,0.07437940358381306,-0.7970151371960619,-0.08571637940054634,0.1338195715908069,-1.8472887061626393
1782818622823378688,0.4210047721862793,5.322282791137695,-0.6855588555335999,-0.4427223205566406,0.12763747572898865,0.03275090456008911,-0.9912800192832947,0.18081894516944885,-0.3191736340522766,0.3034443259239197,0.5957276319521525,0.04151051927490756,0.051350493910528136,-0.8004677800557273,-0.03275676275001534,0.128055685974758,-1.8599034256684506
1782818622833297664,0.4309237003326416,4.454732418060303,-0.7111624479293823,-0.5446529388427734,0.1215660572052002,-0.01334097795188427,-0.9924936890602112,0.1610724925994873,-0.3407849967479706,0.3247843384742737,0.5920510228180441,0.05299148474953325,0.030741835282340382,-0.8035686009843344,0.013341374127548199,0.12187838940509464,-1.8724374165484072
1782818622843217920,0.4408438205718994,3.573925495147705,-0.7179351449012756,-0.6743541955947876,0.11552850902080536,-0.05111614987254143,-0.9919880628585815,0.12021978199481964,-0.3544777035713196,0.32359206676483154,0.5878050172775212,0.06185916544496929,0.013394598796273145,-0.8065230289950382,0.051138436951755024,0.11593930064685182,-1.8849543720799886
1782818622853136896,0.4507627487182617,2.789238691329956,-0.7159727215766907,-0.7874481081962585,0.10959627479314804,-0.08080149441957474,-0.9906865358352661,0.09307096153497696,-0.37761831283569336,0.3005772829055786,0.5828530317021865,0.06823589334581137,-0.0007771329118646308,-0.8097071454524838,0.08088967798505776,0.11017858449785395,-1.8982311350568823
1782818622863056896,0.46068286895751953,2.0873961448669434,-0.6460575461387634,-0.8954774141311646,0.1042681559920311,-0.10340048372745514,-0.9891594648361206,0.0884808674454689,-0.36794352531433105,0.2918022871017456,0.5777926784712777,0.07264327909951174,-0.011967043023542939,-0.8128563134816977,0.10358562852905842,0.10502302406394054,-1.9111432804695494
1782818622872976896,0.47060275077819824,1.2240160703659058,-0.49615857005119324,-1.196294903755188,0.10047338157892227,-0.11848295480012894,-0.9878597259521484,0.06503869593143463,-0.31738436222076416,0.2312069535255432,0.5715562553281242,0.07535337044046428,-0.019798828108003323,-0.8168557709569132,0.11876193523723154,0.10135959758875576,-1.9265708181305998
1782818622882895616,0.48052167892456055,0.581643283367157,-1.0189560651779175,-1.108426809310913,0.09602808207273483,-0.12566258013248444,-0.987414538860321,0.08280491828918457,-0.29876062273979187,-0.11565852165222168,0.5651480519082245,0.07541105475662599,-0.024614824076252047,-0.8211668787291417,0.12599567505586481,0.09694716652853375,-1.942153294928259
1782818622892815872,0.49044179916381836,0.5832487344741821,-0.24870100617408752,-1.367675542831421,0.09298931807279587,-0.1294732689857483,-0.9872130751609802,0.03960955888032913,-0.3800176978111267,-0.15841680765151978,0.5585679806051127,0.07502528020815384,-0.027652660020804024,-0.8255957036706879,0.1298377632515942,0.09391666234189401,-1.9580564972938856
1782818622902735616,0.5003616809844971,1.2822741270065308,-0.5505015850067139,-1.052881121635437,0.091387540102005,-0.13724930584430695,-0.9863117933273315,0.029751986265182495,-0.41362348198890686,-0.011323094367980957,0.5521708546914504,0.0763231966332404,-0.03191982911035522,-0.8296163231881095,0.13768390889724347,0.09239203774325025,-1.9734764982639819
1782818622912654848,0.5102808475494385,1.8209939002990723,-0.87822425365448,-0.6259904503822327,0.08601927757263184,-0.15198825299739838,-0.9846320152282715,0.19529175758361816,-0.32564234733581543,0.09901195764541626,0.5471221312565248,0.07798065065693542,-0.04003744807789177,-0.8324502398609541,0.15257957953035936,0.08714060907137243,-1.9853574143686255
1782818622922574848,0.5202007293701172,2.3680808544158936,-0.7138624787330627,-0.5104252696037292,0.07937602698802948,-0.17210209369659424,-0.9818758964538574,0.19709795713424683,-0.20977960526943207,0.1146426796913147,0.5429653757087437,0.08056620330613369,-0.05070628590436378,-0.8343420649984598,0.17296320553990333,0.08066578239355802,-1.994756425079867
1782818622932493824,0.5301198959350586,2.5632965564727783,-0.5825520157814026,-0.37394145131111145,0.07452129572629929,-0.19612015783786774,-0.9777440428733826,0.027926214039325714,-0.20799358189105988,0.13671016693115234,0.5392679681909471,0.08495737032157614,-0.0625316831937336,-0.8355011461157965,0.19739966738506207,0.0760705130781795,-2.002799550160135
1782818622942413824,0.5400397777557373,2.7104148864746094,-0.5294933319091797,-0.3803498148918152,0.07028437405824661,-0.22147274017333984,-0.9726304411888123,-0.07725764811038971,-0.20043277740478516,0.20525068044662476,0.5355605198491593,0.08992802688719989,-0.07481804612066942,-0.8363552779759297,0.22332445382618782,0.07213677413495162,-2.0105611212445873
1782818622952333824,0.5499598979949951,2.946408748626709,-0.45480114221572876,-0.4403981864452362,0.06682968139648438,-0.2486938238143921,-0.966273844242096,-0.11646653711795807,-0.15090332925319672,0.16532480716705322,0.5316055391400921,0.09568454541348898,-0.08779259180414835,-0.8369781087548157,0.25133147641200115,0.0690522978549613,-2.0185914746971165
1782818622962252800,0.5598788261413574,3.1090118885040283,-0.36372265219688416,-0.4845976233482361,0.06434449553489685,-0.27757951617240906,-0.958545446395874,-0.08665285259485245,-0.09154582023620605,0.1454198956489563,0.5270628077586424,0.1022151854661392,-0.10138701239516791,-0.8375425851665378,0.28127370608386537,0.06702666790906019,-2.0277189867309784
1782818622972172800,0.5697987079620361,3.446378469467163,-0.28779882192611694,-0.47586315870285034,0.06286315619945526,-0.30836594104766846,-0.9491884112358093,-0.050183095037937164,-0.09089553356170654,0.14227312803268433,0.522113269931732,0.10962090887830024,-0.115711026134485,-0.8378496395096092,0.31347478806118045,0.06613174242902096,-2.0374992341060927
1782818622982091776,0.5797178745269775,3.9471182823181152,-0.3479638993740082,-0.5251439213752747,0.06165599077939987,-0.3430141806602478,-0.9373045563697815,-0.009409897029399872,-0.0878177285194397,0.073092520236969,0.5169618466972674,0.11818585956363564,-0.13183258250648888,-0.8374979080428939,0.3501238908944355,0.06568547137845682,-2.047172834557344
1782818622992011776,0.5896377563476562,4.365584373474121,-0.44107890129089355,-0.6658728122711182,0.06024450436234474,-0.381260484457016,-0.9225025773048401,0.027493543922901154,0.011952012777328491,0.04825031757354736,0.5106774864448299,0.12750143478644738,-0.1499736027739924,-0.8369348533410966,0.39115939571034725,0.06521290955334091,-2.0587802389423464
1782818623001932032,0.5995578765869141,4.918405532836914,-0.5183039307594299,-0.7895422577857971,0.05893503874540329,-0.4230761229991913,-0.9041754603385925,0.058450810611248016,0.07805964350700378,0.06802433729171753,0.5032781424067123,0.13769280313262514,-0.17015571992981024,-0.8359418371481748,0.43683757052249667,0.06508890470181392,-2.0721946907265516
1782818623011850752,0.6094768047332764,5.551153182983398,-0.5308976173400879,-0.8184902667999268,0.05792993679642677,-0.46940091252326965,-0.8810828328132629,0.09339147061109543,0.10798123478889465,0.08048468828201294,0.49504419700306035,0.14921452189913006,-0.1928564845478472,-0.8339500056893508,0.48861216071089253,0.06565407538374428,-2.086543743317032
1782818623021770752,0.6193966865539551,5.866333484649658,-0.5430133938789368,-0.9337827563285828,0.05768757686018944,-0.5183385610580444,-0.8532275557518005,0.07837504893541336,0.09048217535018921,0.1682605743408203,0.48552065727836957,0.16167125721336842,-0.2173674663804995,-0.8311940319820259,0.5449069886700094,0.06750826899318321,-2.103132360905918
1782818623031690752,0.6293168067932129,6.463909149169922,-0.6721504926681519,-0.9363679885864258,0.05783868953585625,-0.5689372420310974,-0.8203445076942444,0.06484198570251465,0.05489915609359741,0.3057876229286194,0.47484660170908094,0.17470165763808637,-0.24353044455543368,-0.8274618085926811,0.6052130058135189,0.07038888745343243,-2.1216228663953514
1782818623041609728,0.6392357349395752,7.5652546882629395,-1.1173958778381348,-0.8161811232566833,0.05634927749633789,-0.6242306232452393,-0.7792052626609802,0.11024616658687592,0.04032254219055176,0.2775725722312927,0.4629083857360733,0.18843704949853432,-0.2736582619239771,-0.8217775804842548,0.6741463383346173,0.07219067553795999,-2.1409053258977018
1782818623051529984,0.649155855178833,7.825233459472656,-0.938025951385498,-0.9386014342308044,0.05431457608938217,-0.6819202899932861,-0.7294070720672607,0.15451721847057343,0.16234326362609863,0.33707308769226074,0.44969916131416315,0.20288280164102562,-0.3068143162623165,-0.8139252170567054,0.7503848081734062,0.07432683263308051,-2.1613461775650453
1782818623061448704,0.6590747833251953,7.813204288482666,-0.9891687631607056,-1.1064088344573975,0.05520964041352272,-0.7360363602638245,-0.6746869087219238,0.03194857016205788,0.24928098917007446,0.5399670600891113,0.43483809465436335,0.2176576415503876,-0.33953158794535826,-0.8051455840757475,0.8271963909576099,0.08164809788302961,-2.1870646036544663
1782818623071368960,0.6689949035644531,7.458528518676758,-1.003191590309143,-0.9528160095214844,0.05669088289141655,-0.7846945524215698,-0.617284893989563,0.03441934287548065,0.15499484539031982,0.535558819770813,0.41949461387458864,0.23141703725188703,-0.3712192339946516,-0.7954034554968455,0.9022031772082942,0.09158219050841045,-2.2153292300565717
1782818623081288704,0.6789147853851318,7.009525775909424,-0.9883082509040833,-0.993346095085144,0.058867450803518295,-0.8264867067337036,-0.5598698854446411,0.005234699696302414,0.07959955930709839,0.5307103991508484,0.40429283589250636,0.2438429534453176,-0.40075638114110657,-0.7851637971714402,0.972838022906548,0.10475995575156268,-2.2460088547272377
1782818623091207680,0.6888337135314941,6.252254962921143,-1.0925004482269287,-1.0814926624298096,0.062071844935417175,-0.8611856698989868,-0.5044862627983093,0.056824635714292526,0.010111451148986816,0.4298555850982666,0.3891464232153376,0.2547316880805435,-0.42763143058689806,-0.7751181837917276,1.0375976984388866,0.12242440179949533,-2.280982866198891
1782818623101127936,0.698753833770752,5.639070510864258,-1.2334405183792114,-1.2170027494430542,0.06656143814325333,-0.8887242078781128,-0.4535846710205078,0.10172776132822037,0.04921603202819824,0.44192689657211304,0.37398964644845867,0.263738985899255,-0.45127532493162453,-0.766109793086145,1.0945546982185228,0.14570541078022903,-2.322206279893324
1782818623111046912,0.7086727619171143,5.098642349243164,-1.294217824935913,-1.3402258157730103,0.07266701012849808,-0.9108750224113464,-0.40623408555984497,0.12349995970726013,0.02189803123474121,0.34144529700279236,0.3586419710101008,0.27147416920816403,-0.47242431928691836,-0.7579531283443365,1.1453995057489699,0.1770075469421427,-2.371987474821638
1782818623120966912,0.7185928821563721,4.619227886199951,-1.2779786586761475,-1.4135682582855225,0.08038532733917236,-0.9284709692001343,-0.36260148882865906,0.08883463591337204,0.07945674657821655,0.33483049273490906,0.34322452692478767,0.27815648583935254,-0.491251684777713,-0.7506648311338329,1.190274579740146,0.2181622419159426,-2.431915118614564
1782818623130886912,0.7285127639770508,4.2327375411987305,-1.2031725645065308,-1.563506007194519,0.09000784903764725,-0.9423241019248962,-0.3223724961280823,0.014484338462352753,0.13133472204208374,0.2946472764015198,0.3282824856226175,0.28456965173525306,-0.5077734443816835,-0.7439199957188571,1.2295075800578088,0.2722708919927568,-2.5032478742686957
1782818623140805632,0.7384316921234131,4.114869117736816,-1.1035122871398926,-1.7360897064208984,0.10219988971948624,-0.9534764289855957,-0.283615380525589,-0.04214134067296982,0.10040342807769775,0.21424898505210876,0.31296649659004044,0.2911895892102144,-0.5228775524451726,-0.7374683349976241,1.2645649225212834,0.34586255236057184,-2.593460040331126
1782818623150725888,0.7483518123626709,3.9186959266662598,-1.098172903060913,-1.8469254970550537,0.11646478623151779,-0.962195098400116,-0.2462041676044464,-0.04508420079946518,0.022711515426635742,0.15764220058918,0.2973006636431726,0.2978847168383557,-0.5368077983060451,-0.731241642280286,1.2949501634798033,0.44184916903639987,-2.7057510137638734
1782818623160644864,0.7582707405090332,3.764209032058716,-1.1504180431365967,-1.8995884656906128,0.13194823265075684,-0.9686245322227478,-0.2106090486049652,-0.049108266830444336,-0.021548807621002197,0.1084820032119751,0.2814612843946282,0.3042555690851069,-0.5496580956267971,-0.7253165246869048,1.319635299112281,0.5596829172077461,-2.839997153859029
1782818623170564864,0.768190860748291,3.8377482891082764,-1.1802195310592651,-1.887087345123291,0.14804218709468842,-0.9733095765113831,-0.17536211013793945,-0.0738539844751358,-0.05050933361053467,0.03655292093753815,0.26536777988272087,0.31033690684137705,-0.5621476190078084,-0.7192085616819563,1.3392364468472084,0.7011221745250741,-2.9981828476455625
1782818623180484864,0.7781107425689697,3.9685299396514893,-1.1759920120239258,-1.8977928161621094,0.16446734964847565,-0.976529598236084,-0.139070063829422,-0.12389422953128815,0.0025305747985839844,-0.032820165157318115,0.24896828559873374,0.31630678395665324,-0.574817347455564,-0.7124253324075439,1.3537120396874038,0.8688747291601406,3.100284198304307
1782818623190403840,0.7880299091339111,4.173942565917969,-1.219416618347168,-1.9524542093276978,0.18173441290855408,-0.9781131148338318,-0.10132680833339691,-0.19984662532806396,0.09708601236343384,-0.0942145437002182,0.23204230029658285,0.32239293262029767,-0.5877068935481224,-0.7048543684098066,1.3611911240265235,1.0621717588540196,2.8898318673799346
1782818623200323840,0.7979497909545898,4.309981822967529,-1.2299866676330566,-1.9817543029785156,0.19985038042068481,-0.9778603315353394,-0.06203948333859444,-0.2250274121761322,0.13789457082748413,-0.14782994985580444,0.21438735329498496,0.32845190688363524,-0.6009156373473891,-0.6964608827215124,1.3599796319993265,1.269798730210612,2.6643501008057546
1782818623210243840,0.8078699111938477,4.34384298324585,-1.2901924848556519,-2.009270429611206,0.2186852991580963,-0.9755401015281677,-0.02231607399880886,-0.1929895430803299,0.09092718362808228,-0.1398543119430542,0.196351378624587,0.33442353612710307,-0.6140055874499333,-0.6874620510130794,1.3491649025341808,1.4691018255740413,2.4469628032143556
1782818623220162816,0.81778883934021,4.208566665649414,-1.3739334344863892,-1.9631448984146118,0.23792248964309692,-0.971145510673523,0.016407376155257225,-0.1443098485469818,0.004486024379730225,-0.12077748775482178,0.17803320744397297,0.33985684352085593,-0.6266586107243943,-0.6783070416371814,1.3299879514565551,1.6396483359859433,2.257538913573453
1782818623230082816,0.8277087211608887,4.015355587005615,-1.4391027688980103,-1.9152113199234009,0.256982684135437,-0.9649616479873657,0.05299917608499527,-0.11550319194793701,-0.06865346431732178,-0.07465136051177979,0.15996839213154068,0.3446162885925827,-0.6385445958828756,-0.6692611645007115,1.3052970936388069,1.7741811301147306,2.103866367553687
1782818623240001792,0.8376278877258301,3.7906107902526855,-1.496593713760376,-1.8684957027435303,0.27605146169662476,-0.9572335481643677,0.086597740650177,-0.12308219075202942,-0.1070515513420105,-0.03839530050754547,0.14212166014192473,0.34861564448970517,-0.649435140896043,-0.6606833031844898,1.277283886672455,1.8747753571762105,1.983612026003388
1782818623249921792,0.8475477695465088,3.6117968559265137,-1.5319373607635498,-1.7733763456344604,0.29476651549339294,-0.9483107924461365,0.11755610257387161,-0.14079007506370544,-0.07326513528823853,-0.0032219886779785156,0.12458784944292754,0.3518301761264058,-0.6595404308409814,-0.6524567753607629,1.2478698265925368,1.9502772143273195,1.8879528904775646
1782818623259841792,0.8574678897857666,3.377967119216919,-1.5116875171661377,-1.757993221282959,0.3133040964603424,-0.9383544921875,0.14605343341827393,-0.1884872019290924,0.0293121337890625,0.010562777519226074,0.10745354258081621,0.3545483248921567,-0.6688215045044504,-0.6445363700831489,1.2178389157154375,2.007016785529745,1.8110807350177953
1782818623269760768,0.8673868179321289,3.0176382064819336,-1.524465799331665,-1.7001993656158447,0.3317253887653351,-0.9277173280715942,0.17116868495941162,-0.25463801622390747,0.10636729001998901,0.035420045256614685,0.0908997080255344,0.3568135629927006,-0.67695525785471,-0.6373012463995197,1.1882505768431504,2.0471579953253,1.7510926900062644
1782818623279680768,0.8773066997528076,2.6896374225616455,-1.5239641666412354,-1.6081418991088867,0.3496043384075165,-0.9169304370880127,0.1923937350511551,-0.264933317899704,0.1126091480255127,0.03754091262817383,0.07518942852285501,0.35851713763194076,-0.6838584125029233,-0.6309910173501194,1.1603189418956235,2.073884026830176,1.7049378820727275
1782818623289600000,0.887225866317749,2.252577781677246,-1.5417264699935913,-1.5196290016174316,0.36678844690322876,-0.9063675403594971,0.20967663824558258,-0.24473339319229126,0.07053685188293457,0.0018864870071411133,0.06037583179882057,0.3596336505511187,-0.6895664969043486,-0.62571280532863,1.1346054134856138,2.090113478234969,1.6696714691326955
1782818623299519744,0.8971457481384277,1.8410381078720093,-1.5269947052001953,-1.427180290222168,0.3832046091556549,-0.8964657783508301,0.22249405086040497,-0.23586565256118774,0.06112325191497803,-0.0325983464717865,0.04667862582120542,0.3602590155698065,-0.6938735245424066,-0.6217508885324027,1.111728066059337,2.096839629757441,1.6447080509219467
1782818623309440000,0.9070658683776855,1.5524051189422607,-1.504140853881836,-1.3235582113265991,0.3986426293849945,-0.8873155117034912,0.23185212910175323,-0.24466609954833984,0.08212435245513916,-0.10309848189353943,0.03403750928826477,0.3604549038195618,-0.6971358033380739,-0.618801616361404,1.091491008190308,2.097579503195746,1.626524248223121
1782818623319358720,0.9169847965240479,1.3724392652511597,-1.4701645374298096,-1.2996888160705566,0.4135645925998688,-0.8785852789878845,0.23885616660118103,-0.24722853302955627,0.13143867254257202,-0.15140807628631592,0.022043025694918936,0.36042315766384286,-0.6996593662490571,-0.6165111618403799,1.0728917866378564,2.094548403668758,1.6126476052707537
1782818623329278720,0.9269046783447266,1.3632937669754028,-1.484087347984314,-1.2303701639175415,0.42808136343955994,-0.8699514269828796,0.24480736255645752,-0.2139243483543396,0.1375907063484192,-0.1949721872806549,0.01037691342253531,0.360227402363546,-0.7018831085186334,-0.614400964353206,1.0551037889604753,2.0902759707002168,1.6002135836705924
1782818623339198720,0.9368247985839844,1.36911940574646,-1.4922767877578735,-1.170307993888855,0.44204074144363403,-0.861359715461731,0.2503185570240021,-0.16562780737876892,0.14508169889450073,-0.20118525624275208,-0.0011616161539336164,0.3596661321026715,-0.7041303507677709,-0.6122412503066216,1.0379402367841415,2.0860521280382915,1.5873290189323563
1782818623349117696,0.9467437267303467,1.368871808052063,-1.4520169496536255,-1.066841959953308,0.45517587661743164,-0.8529008030891418,0.2556862235069275,-0.16261902451515198,0.1283065676689148,-0.15502390265464783,-0.01240540132889285,0.3587740430341044,-0.7064872908712937,-0.6099205874490867,1.0215166698677869,2.082601123921635,1.5735619843419162
1782818623359037952,0.9566638469696045,1.3001790046691895,-1.4621353149414062,-1.0685713291168213,0.46781739592552185,-0.8445785045623779,0.2604489028453827,-0.1522047221660614,0.12361615896224976,-0.12105995416641235,-0.023327006576193517,0.357737367162548,-0.7086948737650616,-0.6076439978486414,1.0057774416475738,2.0787933403728243,1.5603643706146642
1782818623368956928,0.9665827751159668,1.2429440021514893,-1.4354981184005737,-1.1059328317642212,0.4805489480495453,-0.8361093997955322,0.26456353068351746,-0.1622658669948578,0.15706276893615723,-0.12985897064208984,-0.03415534798963845,0.35677259085045465,-0.7106300598015673,-0.6054351175357783,0.9901520615650223,2.074057401340924,1.5483297818364965
1782818623378876928,0.9765028953552246,1.0855931043624878,-1.4329915046691895,-1.1149559020996094,0.49358251690864563,-0.8275448083877563,0.2674807906150818,-0.17227819561958313,0.20446735620498657,-0.1586703062057495,-0.04489171596646445,0.35595006448294175,-0.7120673762925935,-0.6035265950709492,0.9747200910145,2.067412666522991,1.538531359966471
1782818623388796928,0.9864227771759033,1.0152490139007568,-1.448716163635254,-1.0313371419906616,0.506105363368988,-0.8194432854652405,0.26901698112487793,-0.18123048543930054,0.23580986261367798,-0.21898341178894043,-0.05522959630196408,0.35491046629349327,-0.7131248494323364,-0.6020309222338895,0.9604390582049303,2.0593591072345183,1.5303172595346537
1782818623398715648,0.9963417053222656,1.1212998628616333,-1.4146666526794434,-1.0157166719436646,0.5183047652244568,-0.8113391399383545,0.27034980058670044,-0.1706942915916443,0.211622953414917,-0.24923157691955566,-0.06559320120215485,0.353580626347047,-0.7142518010950719,-0.6004353856075612,0.9464392780632168,2.0515773105360715,1.521310899156078
1782818623408635904,1.0062618255615234,1.0124655961990356,-1.2971382141113281,-0.9518551230430603,0.5299667119979858,-0.8031736612319946,0.27211713790893555,-0.16198569536209106,0.18067598342895508,-0.21343180537223816,-0.07561282392751452,0.35234311774655297,-0.7154808864280492,-0.5985184018103538,0.9326034227324581,2.045154489902102,1.5115751758152942
1782818623418554880,1.0161807537078857,0.9673933982849121,-1.2374069690704346,-0.9884093999862671,0.5408610701560974,-0.7954630851745605,0.2733278274536133,-0.12931621074676514,0.168967604637146,-0.1316957175731659,-0.08459795358925291,0.35159652408489606,-0.7162707529732618,-0.5968076704095194,0.9197713295613454,2.0387201685845064,1.5040788103447102
1782818623428474880,1.0261008739471436,0.9782533049583435,-1.2239294052124023,-1.103646993637085,0.5525505542755127,-0.7870450615882874,0.27431347966194153,-0.07939082384109497,0.13026106357574463,-0.13660290837287903,-0.09387227113994419,0.35123813967637824,-0.7167904179208653,-0.5950052312501753,0.9060042239841591,2.031599538229472,1.4974587283919192
1782818623438395136,1.0360209941864014,1.044108510017395,-1.0836143493652344,-1.0226166248321533,0.5639021992683411,-0.7783547639846802,0.2760038673877716,-0.02560269832611084,0.08958834409713745,-0.1679411232471466,-0.10282430125752184,0.3511811805042934,-0.7174076375371237,-0.5928112853864068,0.8920410166341042,2.025971149505302,1.4902838685623367
1782818623448313856,1.0459399223327637,0.8893102407455444,-1.0767039060592651,-0.9385492205619812,0.5744383931159973,-0.7700631022453308,0.27753135561943054,0.015130758285522461,-0.01649707555770874,-0.18646690249443054,-0.1112330186018343,0.3510639609218029,-0.7179970547202679,-0.5906451169911552,0.8789400544953638,2.0208612204908216,1.483242992183742
1782818623458233856,1.0558598041534424,0.8106377720832825,-0.9387270212173462,-0.7506810426712036,0.5835844874382019,-0.7628932595252991,0.2782500684261322,0.018313705921173096,-0.09126323461532593,-0.1769622564315796,-0.11872592462057181,0.3506557339661605,-0.7184466474695359,-0.5888795694480371,0.8677764619692482,2.015708057396552,1.4770464917450867
1782818623468153088,1.0657789707183838,0.9111391305923462,-0.9829185009002686,-0.8000721335411072,0.5918068885803223,-0.7561053037643433,0.27940937876701355,0.023305416107177734,-0.02987492084503174,-0.2050684690475464,-0.12576029517455625,0.35007056442051426,-0.719135098934473,-0.5869239758512349,0.8573413869222763,2.011899830612385,1.4698661222387177
1782818623478072832,1.0756988525390625,0.8293590545654297,-0.904888927936554,-0.9428585767745972,0.6010224223136902,-0.7484372854232788,0.2803815007209778,-0.01078188419342041,0.12302523851394653,-0.22799810767173767,-0.13316806190626845,0.34998180820765296,-0.7195161493327143,-0.5848722491014189,0.8457025905431257,2.0072928252634803,1.4637255068970232
1782818623487993088,1.0856189727783203,0.7904139757156372,-1.0207158327102661,-1.0715224742889404,0.6109868884086609,-0.7402225136756897,0.28065213561058044,0.045995473861694336,0.2150912880897522,-0.24798309803009033,-0.14081149137684973,0.3502492199755725,-0.7194800594850959,-0.5829631795348839,0.8334012747707819,2.001392106750021,1.4590782548540933
1782818623497911808,1.0955379009246826,0.5721820592880249,-0.9627153277397156,-0.8860623836517334,0.620977520942688,-0.7321422100067139,0.2799195349216461,0.1278476119041443,0.08156847953796387,-0.24857795238494873,-0.14836536155054073,0.3505341960497618,-0.7190866014162101,-0.5814017770738343,0.8214616109766596,1.9942924084972715,1.4557437522405832
1782818623507832064,1.1054580211639404,0.4529896080493927,-0.9118691682815552,-0.7935941219329834,0.6297796368598938,-0.7255219221115112,0.2774811387062073,0.21494698524475098,-0.054186999797821045,-0.16571053862571716,-0.15512033132200514,0.35038736680598426,-0.7183100030300474,-0.580686843906773,0.8117924887974753,1.9858060707301568,1.4541953838545612
1782818623517751808,1.1153779029846191,0.49839597940444946,-0.9030115008354187,-0.8174818754196167,0.6380871534347534,-0.7191886901855469,0.2749774158000946,0.16229736804962158,-0.06605911254882812,-0.146223783493042,-0.1615756561550481,0.3501817687810325,-0.717538452435071,-0.5800040412027007,0.8026339717533397,1.9776875846637119,1.452596236017636
1782818623527670784,1.1252968311309814,0.3995702266693115,-0.8294397592544556,-0.6947622299194336,0.6461142897605896,-0.7129544019699097,0.27245619893074036,0.1227760910987854,-0.09455597400665283,-0.05849742889404297,-0.16769138811635095,0.3501821149160572,-0.716659323132377,-0.5793543729565094,0.7937024869608272,1.9698551364577448,1.4515165992526486
1782818623537591040,1.1352169513702393,0.5526285171508789,-0.7492091059684753,-0.5446465015411377,0.6526306867599487,-0.7076614499092102,0.270718514919281,0.24469292163848877,-0.1451827883720398,-0.02610492706298828,-0.17324788780224457,0.3495570846846572,-0.7163582223218677,-0.5784686066176083,0.7861828663929477,1.9640054079279368,1.44825132851082
1782818623547510016,1.1451358795166016,0.3274843394756317,-0.7738666534423828,-0.5253520011901855,0.6584643721580505,-0.7029138207435608,0.2689548432826996,0.2680492401123047,-0.13367974758148193,0.0031246840953826904,-0.1782712986466458,0.34893626086680435,-0.7160453210784237,-0.5777039761338348,0.7794858603390327,1.9585724707938899,1.445335530521677
1782818623557430016,1.1550559997558594,0.016901690512895584,-0.7067491412162781,-0.4633983373641968,0.6637573838233948,-0.6992625594139099,0.2654397189617157,0.2421875,-0.10490620136260986,-0.0022256076335906982,-0.18254234970411667,0.3484188248025384,-0.7150693578062076,-0.5778914378392269,0.7743653634317054,1.9512205809110925,1.4455622777876769
1782818623567350016,1.164975881576538,-0.27917033433914185,-0.6784502863883972,-0.25506237149238586,0.6682204604148865,-0.6971012353897095,0.2598683834075928,0.2625352740287781,-0.1661342978477478,-0.017924994230270386,-0.18581118637057142,0.34796907492852946,-0.7133384338710962,-0.5792582529861401,0.7713464759194205,1.9416939760069818,1.449497580136185
1782818623577268736,1.1748948097229004,-0.5095701813697815,-0.5311306118965149,-0.18022064864635468,0.6712235808372498,-0.6967492699623108,0.2529817223548889,0.37507164478302,-0.2601752281188965,-0.04640814661979675,-0.18794196124927107,0.3472389890917037,-0.7112776878528039,-0.5815385797873699,0.7708556717600382,1.9312285268546676,1.4555627857554077
1782818623587188992,1.1848149299621582,-0.6708557605743408,-0.4270969331264496,0.03083357959985733,0.6730939149856567,-0.6975777745246887,0.24562087655067444,0.4250504970550537,-0.301460862159729,0.011184558272361755,-0.1887977891768771,0.346864579808162,-0.7088691000394662,-0.5844184096671405,0.7720113129166241,1.9206946047906488,1.4641333166676258
1782818623597107968,1.1947338581085205,-0.5932299494743347,-0.45942556858062744,0.2548712193965912,0.6730846762657166,-0.7001754641532898,0.23814155161380768,0.5502124428749084,-0.31132972240448,0.0054039061069488525,-0.18887955708177462,0.34552910960568683,-0.7068807619401164,-0.5875829890796083,0.7756432077024843,1.910857954749111,1.471593616403592
1782818623607027968,1.2046539783477783,-0.7061496376991272,-0.3093056082725525,0.2643284499645233,0.6722286343574524,-0.7033393979072571,0.2311328500509262,0.5168430209159851,-0.3080741763114929,0.0928570032119751,-0.18840281005998943,0.34411779066897485,-0.7050882009492768,-0.5907097257451062,0.7800843723041431,1.901964577897945,1.4788195527136725
1782818623616947968,1.214573860168457,-0.7784629464149475,-0.3270646333694458,0.39289841055870056,0.6707949042320251,-0.7071130871772766,0.22366279363632202,0.4733700156211853,-0.3074589967727661,0.18496762216091156,-0.18737376826087873,0.34274284946293426,-0.7031064882738877,-0.5941881895322486,0.7854071054368769,1.8926333898498702,1.4873514256889244
1782818623626866944,1.2244930267333984,-0.7338375449180603,-0.2877695560455322,0.5855935215950012,0.668026328086853,-0.7119880318641663,0.21636463701725006,0.4563174843788147,-0.38740766048431396,0.17702218890190125,-0.18566877910597857,0.3408996145642124,-0.7014055687316507,-0.5977831671026487,0.7923253742292534,1.8840206748650332,1.4954100502615053
1782818623636786944,1.2344129085540771,-0.8872955441474915,-0.21817022562026978,0.7737764716148376,0.6638984680175781,-0.7180688381195068,0.208844855427742,0.39721304178237915,-0.46512824296951294,0.20712509751319885,-0.18328431455510968,0.3385235980871981,-0.6998744170346425,-0.6016514930045808,0.8010235721564014,1.8755690887311778,1.5034517843116233
1782818623646706944,1.244333028793335,-1.1826757192611694,-0.214803546667099,0.882152795791626,0.6584199070930481,-0.7256079912185669,0.19994039833545685,0.33007490634918213,-0.49363023042678833,0.20382247865200043,-0.17984060578269434,0.33591709662660296,-0.6979469175418271,-0.606372108255508,0.8119175931635587,1.8656139263988063,1.5141686616037395
1782818623656625920,1.2542519569396973,-1.5535573959350586,-0.13385915756225586,0.9961310029029846,0.6520457863807678,-0.7342871427536011,0.18883536756038666,0.24477434158325195,-0.5307580232620239,0.15225961804389954,-0.1754058728723135,0.3333455538248841,-0.6951966821191258,-0.612221494535928,0.8246160081784015,1.8526888571422204,1.5293443452185655
1782818623666545920,1.264171838760376,-1.9644968509674072,-0.12571749091148376,1.1207902431488037,0.6446247100830078,-0.7441763877868652,0.17510193586349487,0.25852781534194946,-0.5837350487709045,0.11849237978458405,-0.16969127024767858,0.3309487963449593,-0.6913926995639192,-0.6193980829177499,0.8393010006768067,1.836030441178016,1.5503785020326437
1782818623676465152,1.2740910053253174,-2.106616735458374,-0.09232836961746216,1.4112880229949951,0.635571300983429,-0.75550377368927,0.1589444875717163,0.3429596424102783,-0.5988358855247498,0.10924400389194489,-0.16290460024187045,0.32799763494987744,-0.6869423512316999,-0.6276861846948161,0.856422769689756,1.8158514859013328,1.5755964929634692
1782818623686384896,1.284010887145996,-2.2771811485290527,-0.06951288878917694,1.5316466093063354,0.6244736909866333,-0.7680436968803406,0.14192162454128265,0.414329469203949,-0.589988648891449,0.11932410299777985,-0.15500233072837347,0.32441167670728854,-0.68243525474072,-0.6364067659298677,0.8757807004926673,1.7942665157723077,1.6028334931897121
1782818623696305152,1.293931007385254,-2.4607133865356445,-0.011263957247138023,1.5329177379608154,0.612985372543335,-0.7804487943649292,0.12307959794998169,0.38802170753479004,-0.5092087984085083,0.13345122337341309,-0.14658463099384958,0.3209231490046916,-0.6771618200874888,-0.6457345687713908,0.8953833060838434,1.7689486628859128,1.6347047355513613
1782818623706223872,1.3038499355316162,-2.5203588008880615,0.03802487626671791,1.67354416847229,0.6006219387054443,-0.7927703857421875,0.10377191007137299,0.41283637285232544,-0.5001527070999146,0.061572328209877014,-0.1374576786004706,0.3174684004352575,-0.6716396143320091,-0.6551484654045804,0.9153408477267333,1.7418814270862797,1.669412814959674
1782818623716143872,1.313769817352295,-2.766519069671631,0.11387889087200165,1.7506736516952515,0.5871468186378479,-0.8052061796188354,0.08307529985904694,0.4676474332809448,-0.5581207871437073,0.08434414118528366,-0.12757264354125863,0.3137813046888258,-0.6656417531854749,-0.6649717997040676,0.9360230587589784,1.7113531614630493,1.7083172625825829
1782818623726063104,1.3236889839172363,-2.920250654220581,0.05398759990930557,1.8960981369018555,0.5728207230567932,-0.8174669146537781,0.06020313501358032,0.4866580367088318,-0.6110761761665344,0.1419910192489624,-0.11704293363360029,0.3098742863596534,-0.6588470943396305,-0.6754254005371838,0.9569993220951425,1.6755113340159422,1.7531375312913517
1782818623735982848,1.333608865737915,-2.927746057510376,0.0115727623924613,1.9602550268173218,0.5578814148902893,-0.8291429281234741,0.03592003881931305,0.5222424268722534,-0.6520124077796936,0.20925819873809814,-0.10632966283481787,0.3055765945323938,-0.6516003096124443,-0.6861005488024511,0.9775728486113896,1.6350940825783202,1.8022190044634356
1782818623745903104,1.3435289859771729,-2.80899977684021,-0.04948712885379791,2.1147265434265137,0.5422018766403198,-0.8401675820350647,0.011644852347671986,0.5366708040237427,-0.6585811972618103,0.2800421714782715,-0.09557555650389477,0.30082011618743143,-0.644460769955858,-0.6964501944611627,0.9975921080493058,1.5922699951038026,1.8530920219067577
1782818623755821824,1.3534479141235352,-2.6619906425476074,-0.060760289430618286,2.1630284786224365,0.5245546102523804,-0.8512981534004211,-0.01157214306294918,0.5426908731460571,-0.6094714999198914,0.27663254737854004,-0.08434875617597488,0.29520092253411095,-0.6380206452956088,-0.7061666781926697,1.0184545678582302,1.5487390116367847,1.9040422817001177
1782818623765742080,1.363368034362793,-2.5955183506011963,-0.15537627041339874,2.29782772064209,0.5057677626609802,-0.8619901537895203,-0.03423862159252167,0.543899655342102,-0.5401095747947693,0.30151158571243286,-0.0730438057616832,0.2889647470311056,-0.6319652399875445,-0.7153908592204898,1.0391825755575634,1.5032031281094724,1.9561985037905303
1782818623775661824,1.3732879161834717,-2.738382339477539,-0.22723928093910217,2.3048949241638184,0.48596084117889404,-0.8720589280128479,-0.05792449414730072,0.5406657457351685,-0.4875449538230896,0.32531946897506714,-0.06164804277978868,0.28206701987101285,-0.6256803884266395,-0.7246804509390955,1.0593937281177737,1.4521602537922083,2.013037831728371
1782818623785580800,1.383206844329834,-3.041565418243408,-0.27898791432380676,2.2857282161712646,0.4660416841506958,-0.8807662129402161,-0.08400102704763412,0.5061721801757812,-0.507280170917511,0.3222823143005371,-0.05020466307731849,0.27498661793239826,-0.6183703140161247,-0.7344930591327654,1.077477731932335,1.3924674417184664,2.078422593855876
1782818623795501056,1.3931269645690918,-3.5025012493133545,-0.32065191864967346,2.255765438079834,0.4459090828895569,-0.8878318071365356,-0.11366557329893112,0.4885086417198181,-0.5859383344650269,0.34540075063705444,-0.038350576822074586,0.26781311599587804,-0.6094615233767685,-0.7452261842492187,1.092611773424833,1.3212041996483754,2.155971598661059
1782818623805420032,1.403045892715454,-4.132425785064697,-0.32042694091796875,2.2600691318511963,0.42562639713287354,-0.8926131129264832,-0.14860785007476807,0.46447989344596863,-0.6019091010093689,0.33967840671539307,-0.02589651000167592,0.2605308645171707,-0.5981803613429496,-0.7573859435818798,1.1031086307997466,1.2348781265342683,2.249497949160955
1782818623815340032,1.412966012954712,-4.6153435707092285,-0.29094603657722473,2.2895994186401367,0.4051182270050049,-0.8945874571800232,-0.1886596977710724,0.4531733989715576,-0.5700426697731018,0.4350128173828125,-0.012597558118422636,0.2532311360526808,-0.5844177810061353,-0.7708249691888432,1.1075071922258308,1.1349710988419388,2.3580737589197334
1782818623825260032,1.4228858947753906,-4.928194999694824,-0.24032452702522278,2.2586350440979004,0.38426926732063293,-0.893567681312561,-0.23210789263248444,0.45063063502311707,-0.554399847984314,0.5483767986297607,0.0013539376134006824,0.2457730235581359,-0.5688072395110934,-0.7848899146419664,1.1052304133854858,1.0274232069761178,2.4753069287682035
1782818623835178752,1.432804822921753,-5.048203468322754,-0.1794249564409256,2.258004665374756,0.3638001084327698,-0.8892838358879089,-0.2771713435649872,0.4758147895336151,-0.5276473164558411,0.6539260745048523,0.015523879354802156,0.23839289344955028,-0.5518905351643606,-0.7989648277889226,1.095776858392603,0.9197364843475551,2.593455397555635
1782818623845099008,1.4427249431610107,-5.265054225921631,-0.3084103763103485,2.3206584453582764,0.3431384563446045,-0.8820728063583374,-0.3228054344654083,0.533799409866333,-0.47960615158081055,0.7197933197021484,0.029987190258011324,0.23081566732542028,-0.5341548546363191,-0.8127135765413579,1.080244098888171,0.8159212962566472,2.7082097747458533
1782818623855017984,1.452643871307373,-5.747395992279053,-0.17738258838653564,2.2416510581970215,0.32231375575065613,-0.8707131743431091,-0.37144654989242554,0.5563636422157288,-0.4459525942802429,0.7608813047409058,0.04488004132730028,0.22282183101281858,-0.514419245501087,-0.8268670874982869,1.056650657994801,0.7146952385433053,2.820892422371389
1782818623864937984,1.4625639915466309,-5.772310733795166,-0.2121138572692871,2.291146993637085,0.30239632725715637,-0.8548958897590637,-0.42155611515045166,0.5437798500061035,-0.4506003260612488,0.7427078485488892,0.05989468925425613,0.21490728882369375,-0.4929876295027321,-0.8409463428217261,1.0253501484367964,0.6222647011471044,2.925660871885687
1782818623874857984,1.4724838733673096,-5.502108097076416,-0.12674009799957275,2.4791643619537354,0.28153762221336365,-0.8369708061218262,-0.4692721962928772,0.5830711126327515,-0.45137453079223633,0.6351199746131897,0.07541103945832431,0.20655772262462962,-0.47190867942965486,-0.8537852423060326,0.9917242202387881,0.5403792238969718,3.020357727027254
1782818623884776704,1.4824028015136719,-5.367440700531006,-0.004873930476605892,2.5201706886291504,0.260608047246933,-0.8175119161605835,-0.5135735273361206,0.5087095499038696,-0.3681875467300415,0.6189659833908081,0.09136537668904897,0.1983058561086397,-0.4515396258643182,-0.8651237601682644,0.9570773893952869,0.46958234201009996,3.105118581886657
1782818623894696960,1.4923229217529297,-5.621240139007568,-0.022511247545480728,2.4961626529693604,0.240703746676445,-0.7945806980133057,-0.557407557964325,0.4038427472114563,-0.32419365644454956,0.6960641741752625,0.1074603304133589,0.1901956728676698,-0.4302578777286594,-0.8758744245623684,0.9183167091520457,0.40763912291955595,-3.1011026392598025
1782818623904616960,1.5022428035736084,-4.885073184967041,-0.13566702604293823,2.753567695617676,0.22021149098873138,-0.7701587080955505,-0.5986338257789612,0.3316226005554199,-0.26598936319351196,0.6330576539039612,0.12362724487823422,0.18153018964722584,-0.40954838378843567,-0.8854564906358201,0.8790899238272215,0.35249343537925654,-3.031245699500656
1782818623914535936,1.5121619701385498,-3.930940866470337,-0.29913583397865295,2.970189332962036,0.19703035056591034,-0.7495583295822144,-0.6319345831871033,0.34352749586105347,-0.12153542041778564,0.5102304816246033,0.13976177842106866,0.1719405291414171,-0.3930256480816224,-0.892431473888424,0.8473946120036436,0.3022371364814177,-2.9680457575248687
1782818623924455936,1.5220818519592285,-3.0698044300079346,-0.2988967001438141,2.776876211166382,0.17413730919361115,-0.7325903177261353,-0.6580179929733276,0.23507294058799744,0.12838804721832275,0.5635812878608704,0.15490551228498023,0.16267776070231993,-0.38016700798546843,-0.8972253885162658,0.8221197826066354,0.258708505223117,-2.9129453020267295
1782818623934375168,1.53200101852417,-2.393641233444214,-0.4209807813167572,2.5945186614990234,0.15234094858169556,-0.7193582653999329,-0.6777284741401672,0.08172887563705444,0.25932103395462036,0.45501118898391724,0.16831440873129225,0.15391670853753373,-0.3707363039831365,-0.9002969020624936,0.8028780753550234,0.22110663524257118,-2.866123394021836
1782818623944294912,1.5419209003448486,-2.6367294788360596,-0.44870662689208984,2.4272654056549072,0.131662055850029,-0.706427276134491,-0.6954319477081299,-0.06231085956096649,0.23366421461105347,0.3327152729034424,0.18054334867394328,0.14533790171543987,-0.36216144566152986,-0.9028399890728972,0.7844376283075756,0.18710955490529474,-2.8244397448697027
1782818623954215168,1.5518410205841064,-3.668154001235962,-0.2887957990169525,2.049191474914551,0.1134759783744812,-0.6876194477081299,-0.7171489596366882,-0.1844751238822937,0.12142682075500488,0.339738130569458,0.19212722313730204,0.13683806882546093,-0.35028680861960204,-0.9064555179255016,0.7582052783695019,0.15693100441960448,-2.7864912101538977
1782818623964133888,1.5617599487304688,-5.1602783203125,-0.27179327607154846,1.7911282777786255,0.09878454357385635,-0.6579126715660095,-0.7465872764587402,-0.24783238768577576,0.008330762386322021,0.39557409286499023,0.20308623278106644,0.12809039061792676,-0.33211325617454895,-0.9121675814333888,0.7180437364790514,0.13155065370483748,-2.752886474423919
1782818623974053888,1.5716798305511475,-6.424201965332031,-0.16069579124450684,1.6781740188598633,0.08622240275144577,-0.6156657338142395,-0.7832760810852051,-0.22556567192077637,0.055988609790802,0.4357419013977051,0.2141356963687063,0.11839543458401731,-0.30715547428425394,-0.9196651170281958,0.6632305125792657,0.10963777460792001,-2.721847819735953
1782818623983973120,1.5815989971160889,-6.804948329925537,-0.049036066979169846,1.5322725772857666,0.0760480985045433,-0.5640543699264526,-0.8222283124923706,-0.261427104473114,0.18075358867645264,0.4124230146408081,0.22512595764673687,0.10839756306767145,-0.2777333542167179,-0.9275949881830584,0.5992875808158905,0.09222785674085643,-2.6939143830803363
1782818623993892864,1.5915188789367676,-6.236955642700195,-0.10337626934051514,1.3633754253387451,0.06768391281366348,-0.5108572840690613,-0.8569969534873962,-0.3150288760662079,0.3036276698112488,0.28018420934677124,0.23511607126874973,0.09873940161095895,-0.2484996086770874,-0.9344618862159666,0.5361817044348478,0.07881441019644547,-2.67027474707919
1782818624003813120,1.6014389991760254,-5.436347961425781,-0.14237026870250702,1.1347508430480957,0.06066782772541046,-0.4616527855396271,-0.8849836587905884,-0.37402233481407166,0.3939647972583771,0.19798719882965088,0.2434882767032615,0.08987986164975256,-0.22232807956154835,-0.9397899910855753,0.479857521405953,0.06844539725254428,-2.651316164775498
1782818624013731840,1.6113579273223877,-4.380558490753174,-0.3195439875125885,0.9707658290863037,0.054097287356853485,-0.41865503787994385,-0.9065326452255249,-0.4355059862136841,0.44990503787994385,0.1813434362411499,0.2502143802306514,0.08172306626073846,-0.20013750131889577,-0.9437473239291564,0.43196381204329165,0.05960426304162009,-2.6363420024587794
1782818624023651840,1.6212778091430664,-2.3585424423217773,-0.6474539041519165,1.0149273872375488,0.04576943814754486,-0.3888695240020752,-0.9201552271842957,-0.46071693301200867,0.6208946704864502,0.07835835218429565,0.25575077227974496,0.07434064376668097,-0.18546116691132783,-0.94586960469896,0.39940421117295644,0.049700032983604904,-2.623509130899236
1782818624033571840,1.6311979293823242,-0.38124242424964905,-0.6977341175079346,0.696974515914917,0.036047808825969696,-0.3773699402809143,-0.9253607392311096,-0.5435551404953003,0.9715471863746643,0.00800234079360962,0.2597021415156006,0.06861626996833284,-0.18058636770759198,-0.9461687443411247,0.386954599631774,0.03893572269317637,-2.613461270937288
1782818624043490816,1.6411168575286865,1.0203428268432617,-0.8217188119888306,0.2581303119659424,0.02735668048262596,-0.3815784454345703,-0.9239315390586853,-0.6720557808876038,1.2170276641845703,0.1277431845664978,0.2611752822233461,0.06524216807047924,-0.1837870773031619,-0.9453852245654806,0.3915033619050049,0.029600342048198988,-2.608381832999637
1782818624053411072,1.6510369777679443,1.5183043479919434,-0.6798282861709595,-0.06362161785364151,0.020059308037161827,-0.3943045437335968,-0.9187608361244202,-0.7056214809417725,1.0860464572906494,0.31715261936187744,0.2604891816189099,0.06340144643286408,-0.19131080970436332,-0.9442063795765666,0.40531097131862315,0.021829534047072812,-2.607706887535926
1782818624063330048,1.6609559059143066,0.9664079546928406,-0.5850791335105896,-0.2567256689071655,0.015006735920906067,-0.40662240982055664,-0.9134730696678162,-0.7220380306243896,0.7470765113830566,0.40395158529281616,0.2586285366921901,0.062357968504682164,-0.19843125661922537,-0.9433173518611255,0.41875396423466293,0.016426742646803535,-2.60989590743556
1782818624073250048,1.6708760261535645,0.3615489602088928,-0.3454345762729645,-0.59172123670578,0.012430861592292786,-0.41321927309036255,-0.9105467200279236,-0.7484995722770691,0.5269582867622375,0.5144590735435486,0.25600630384276574,0.06150712355186901,-0.20234504765501696,-0.9432572216041808,0.4259864527336911,0.013651237318013555,-2.6145002050844903
1782818624083170048,1.6807959079742432,-0.3742818534374237,-0.03333479166030884,-0.7206630706787109,0.013051046058535576,-0.4144744873046875,-0.9099673628807068,-0.8342180252075195,0.396728515625,0.5309695601463318,0.2527348879101377,0.06129537125423444,-0.2031236175530464,-0.9439856005732041,0.4273652906861378,0.014341340424412987,-2.6215118011118888
1782818624093088768,1.6907148361206055,-0.8602421879768372,0.18530407547950745,-1.1072182655334473,0.01697346940636635,-0.4121089279651642,-0.9109764695167542,-0.9589290618896484,0.5325465202331543,0.5045738816261292,0.248740216838037,0.062038077186340385,-0.20165079036742042,-0.9453129175538179,0.4247674664000742,0.018630014747411657,-2.6310147360838467
1782818624103009024,1.7006349563598633,-1.2838613986968994,0.18991343677043915,-1.0549440383911133,0.0226125568151474,-0.4047240912914276,-0.9141592383384705,-0.9824666976928711,0.635101318359375,0.37235015630722046,0.244317551697202,0.06284859405350024,-0.19740934043481617,-0.9473059246175408,0.41667710061522395,0.024730864111340397,-2.6420065424812194
1782818624112928768,1.710554838180542,-1.6475642919540405,-0.17265009880065918,-1.1782567501068115,0.026916928589344025,-0.3924153745174408,-0.9193941950798035,-0.8194736838340759,0.6415456533432007,0.21868008375167847,0.2397935689341157,0.06234542923081144,-0.1908296530959995,-0.9498400883069174,0.4032561388024308,0.02926844969824177,-2.6529965549442878
1782818624122848000,1.7204740047454834,-1.7810006141662598,0.02496332675218582,-1.1601872444152832,0.030991947278380394,-0.37555211782455444,-0.9262829422950745,-0.8010419607162476,0.7005032896995544,0.19003111124038696,0.23490865647053372,0.061128970640638394,-0.18199386745454563,-0.9528691248698721,0.3849924324631231,0.03344592523351096,-2.6646962945158563
1782818624132768000,1.730393886566162,-0.8223037123680115,-0.1437242180109024,-0.9305295348167419,0.033469829708337784,-0.36480438709259033,-0.9304824471473694,-0.8190227746963501,0.6997653245925903,-0.11669772863388062,0.23060331823916883,0.06013493938348996,-0.1764725900275569,-0.9550201538930766,0.3734227095560196,0.03595490192695885,-2.6745275116432508
1782818624142686720,1.7403128147125244,-0.6210780739784241,-0.12639985978603363,-1.3891628980636597,0.03644407540559769,-0.3565877676010132,-0.9335507750511169,-0.9342254400253296,0.7256978750228882,-0.05445581674575806,0.2251791949271203,0.05956777389609728,-0.1722681161858854,-0.957115379699522,0.36461301257185336,0.039018314898580216,-2.686653785040749
1782818624152606976,1.7502329349517822,-0.1382765769958496,-0.34454551339149475,-1.6721866130828857,0.03929195553064346,-0.35360947251319885,-0.9345675110816956,-0.9343420267105103,0.695268988609314,-0.21751677989959717,0.2180206900796553,0.05932933228999479,-0.17086913472347418,-0.9590363312011031,0.3614270654066311,0.042018183814927064,-2.7022027333889835
1782818624162526720,1.760152816772461,0.051622387021780014,-0.2179260551929474,-1.535921335220337,0.0416710339486599,-0.3522728979587555,-0.9349691867828369,-0.8662407398223877,0.4710473120212555,0.004854440689086914,0.20984914590182935,0.05889935901561951,-0.1704297046066851,-0.9609619744973789,0.3599985660771384,0.04453994317882172,-2.719701073413167
1782818624172445952,1.7700719833374023,0.3875593841075897,-0.07840012013912201,-1.2238960266113281,0.044788867235183716,-0.3533240258693695,-0.9344282150268555,-0.7199903130531311,0.320044606924057,0.06763744354248047,0.20329009763832664,0.0594100577877508,-0.17104484565388425,-0.962230302837095,0.3611219279599935,0.047895189223955296,-2.7339215702918307
1782818624182365952,1.779991865158081,-0.27330508828163147,0.07536882162094116,-1.1715959310531616,0.048904143273830414,-0.3543536961078644,-0.9338318109512329,-0.7737881541252136,0.5252673625946045,0.12249147891998291,0.19741269990871077,0.06053432948662198,-0.1715217008549837,-0.9632985706447353,0.36222283916302994,0.052321529465377895,-2.746905126691574
1782818624192285184,1.7899110317230225,-1.4428181648254395,-0.015710752457380295,-1.0720735788345337,0.052653033286333084,-0.34618648886680603,-0.9366870522499084,-0.6442515254020691,0.5790050625801086,0.42061954736709595,0.19281084073648813,0.060700104284964584,-0.16724826449500096,-0.9649702461448724,0.3535031649007613,0.056152885538827954,-2.7571990205476333
1782818624202204928,1.7998309135437012,-1.8933249711990356,0.3985520303249359,-1.0302188396453857,0.05729006975889206,-0.3287602663040161,-0.9426741600036621,-0.26998233795166016,-0.1737879514694214,0.1951613426208496,0.18836920504807278,0.06040666940832133,-0.15815804376766546,-0.9673954845525431,0.33499057348897526,0.06069933295733809,-2.767235721623245
1782818624212125184,1.809751033782959,-2.4756858348846436,0.42827504873275757,-0.9344280362129211,0.06370365619659424,-0.3080960512161255,-0.9492200016975403,0.19999873638153076,-0.2881411015987396,-0.17465078830718994,0.1845851289728052,0.060870821514662346,-0.14725735881956367,-0.9698135119395729,0.3131910787605762,0.06701109270906146,-2.7760148456034037
1782818624222043904,1.8196699619293213,-2.4408957958221436,0.11706369370222092,-1.3707144260406494,0.06943298131227493,-0.2827118933200836,-0.9566885828971863,0.5381872653961182,0.2819336950778961,-0.03583461046218872,0.17944826976114403,0.06044371408353787,-0.13417251931358104,-0.9726986433662805,0.2866201681489559,0.07244934309992943,-2.7871840891423054
1782818624231963904,1.82958984375,-2.180403709411621,-0.017306365072727203,-1.1960728168487549,0.07392258197069168,-0.2600365877151489,-0.9627649784088135,0.9778352379798889,0.10923397541046143,-0.3425328731536865,0.17463656192774732,0.059862615281008315,-0.12261309075738899,-0.9751331313605115,0.2630600827485693,0.07663118829438606,-2.7973127279032743
1782818624241883904,1.8395099639892578,-1.427207350730896,-0.017966676503419876,-1.396684169769287,0.0781179890036583,-0.24170656502246857,-0.9671998620033264,1.071555495262146,0.10645267367362976,-0.3800291419029236,0.16870910608122078,0.05953827347831753,-0.11338111775620778,-0.9773112033872223,0.244124185014866,0.0805922263885487,-2.8096022054391208
1782818624251802880,1.8494288921356201,-1.031984567642212,-0.694670557975769,-1.3192380666732788,0.07721997797489166,-0.2286534607410431,-0.9704404473304749,1.1001176834106445,0.08665518462657928,-0.32512223720550537,0.1631224112526065,0.05729864486173684,-0.10722237809845028,-0.9790870312640252,0.2306942803055562,0.07940478180743225,-2.820616844868978
1782818624261723136,1.859349012374878,-1.3348348140716553,-0.6499722003936768,-1.5723240375518799,0.0730372816324234,-0.21659186482429504,-0.9735263586044312,0.7446964979171753,0.06636908650398254,-0.26844751834869385,0.15553119488714176,0.05337869650286694,-0.10191932079820142,-0.981108189737477,0.21832210740536365,0.07488314697931057,-2.8353678855487323
1782818624271641856,1.8692679405212402,-1.5641212463378906,-0.5621539354324341,-1.1746094226837158,0.07070308923721313,-0.20101825892925262,-0.9770326018333435,0.35042423009872437,-0.10786540806293488,-0.068667471408844,0.1490370177885447,0.050308144733142796,-0.09461913941275317,-0.9830078048353629,0.20239728520925784,0.07223920359926089,-2.8479967329481966
1782818624281561856,1.879187822341919,-0.4336492419242859,-0.33437806367874146,-0.6281818151473999,0.06732403486967087,-0.18938788771629333,-0.9795916080474854,0.44201433658599854,0.25524482131004333,0.0008776187896728516,0.1444680614535539,0.04729774755521289,-0.08925874227472146,-0.9843397797069624,0.1905387162815749,0.0686187335090658,-2.8567001878244582
1782818624291481856,1.8891079425811768,0.4843088388442993,-0.7386597394943237,-0.9762465953826904,0.0629550963640213,-0.1904624104499817,-0.9796738028526306,0.4088008999824524,0.1553824543952942,-0.21365505456924438,0.14081804236760373,0.044868176216634005,-0.09027709320563268,-0.9848894326065725,0.19163315516271354,0.06417304938574883,-2.8637304638150276
1782818624301400832,1.899026870727539,0.8219050765037537,0.20558138191699982,-0.6879590749740601,0.06096333637833595,-0.1954450160264969,-0.9788179993629456,-0.10545796155929565,-0.08990959823131561,0.005749762058258057,0.1360076377070973,0.04378983849247723,-0.09313130430099346,-0.9853481428852556,0.19671120125580702,0.06220225648829934,-2.873405718128689
1782818624311321088,1.9089469909667969,1.409656286239624,0.48775848746299744,-0.4058384597301483,0.06544311344623566,-0.20586693286895752,-0.9763892889022827,0.052324213087558746,0.06582176685333252,0.022669196128845215,0.13382111908848124,0.0465560415451433,-0.09817281850869924,-0.9850311780172727,0.20734953840097645,0.06692553675279374,-2.8785025751432425
1782818624321240832,1.9188668727874756,1.7894606590270996,0.6214243769645691,-0.6187846064567566,0.07111450284719467,-0.22176316380500793,-0.9725039005279541,0.03842833638191223,-0.13712355494499207,0.1355745792388916,0.1309824418765572,0.050217436609321806,-0.10595406076631757,-0.9844264736784546,0.22362229260276917,0.07299523833628763,-2.885236839319731
1782818624331159808,1.928785800933838,1.687656283378601,1.0723567008972168,-0.2944169044494629,0.08064421266317368,-0.23823636770248413,-0.9678532481193542,0.09559480845928192,-0.30863863229751587,0.22200363874435425,0.12870562485288445,0.055888109559279586,-0.11379756601701226,-0.9835454070111411,0.24054953517811026,0.08313073948675623,-2.8914064163658435
1782818624341080064,1.9387059211730957,1.3469878435134888,1.000827670097351,-0.14380933344364166,0.09012604504823685,-0.2528909146785736,-0.9632878303527832,0.31240081787109375,-0.2099844217300415,0.2676854729652405,0.12759868340983788,0.06153961161257699,-0.12070191160595654,-0.9825286053544161,0.2556671288814317,0.09328929388238169,-2.895302387047302
1782818624350998784,1.948624849319458,0.8427672982215881,0.9939881563186646,0.1420338749885559,0.09951534122228622,-0.26308465003967285,-0.9596265554428101,0.3661981523036957,-0.5251233577728271,0.28575271368026733,0.12815799849057466,0.06705005234248686,-0.12526373178140068,-0.9815237435988985,0.2662181022765848,0.10333278737499095,-2.8957692417757057
1782818624360919040,1.9585449695587158,0.03763100504875183,0.41480815410614014,0.15342387557029724,0.10452237725257874,-0.267166405916214,-0.9579651355743408,0.5681002736091614,-0.404708594083786,0.2710907459259033,0.12899682122712458,0.06997013738457133,-0.1269709418268959,-0.980990472408699,0.2704513619519083,0.10867885075210303,-2.894900630580956
1782818624370838784,1.9684648513793945,0.21899360418319702,0.3000493347644806,0.09532835334539413,0.10812603682279587,-0.26883941888809204,-0.9570966958999634,0.42057573795318604,-0.15175384283065796,0.22345411777496338,0.12956682552436546,0.07197970158260612,-0.12755612484307371,-0.9806939982546291,0.27218788347068623,0.11249597584570739,-2.894300380829321
1782818624380758016,1.978384017944336,-0.21825449168682098,-0.0081934854388237,0.41879791021347046,0.1083386242389679,-0.26827800273895264,-0.9572302103042603,0.3787524402141571,0.06045329570770264,0.22387754917144775,0.13103416565108686,0.07223636973818508,-0.12714877279882975,-0.9805330260272718,0.27160506437256726,0.1126997037446748,-2.891311222238193
1782818624390678016,1.9883038997650146,-0.11784720420837402,0.07451151311397552,0.1946130245923996,0.10841262340545654,-0.2677150368690491,-0.9573794007301331,0.35675156116485596,0.03085288405418396,0.17544281482696533,0.132911615388194,0.07247513348495942,-0.12671876083956074,-0.980318375487616,0.27102071572007,0.11275859571315656,-2.8874661110592106
1782818624400598016,1.9982240200042725,-0.24382664263248444,-0.3640134632587433,0.6630172729492188,0.10554773360490799,-0.26522499322891235,-0.9583920836448669,0.2889835238456726,-0.06907981634140015,0.19746679067611694,0.13460953182462432,0.07106595088437345,-0.12551330441225975,-0.9803450349929043,0.26843727047022126,0.10968798099509772,-2.88350841187813
1782818624410516992,2.0081429481506348,-0.3543110489845276,0.13978658616542816,0.4011979103088379,0.10225292295217514,-0.2634083926677704,-0.9592499136924744,0.38129809498786926,0.0005604922771453857,0.08762210607528687,0.13725509961106824,0.06960936499514683,-0.12461776692523177,-0.9801969446664148,0.26655367283307924,0.10619573669378593,-2.877596686263986
1782818624420436736,2.0180628299713135,-0.07139907777309418,-0.19799476861953735,0.3657550513744354,0.10127033293247223,-0.26160526275634766,-0.9598473906517029,0.07895121723413467,0.044091224670410156,-0.04737001657485962,0.13889368112655845,0.06918511047607184,-0.12365164683473998,-0.9801184130096631,0.2646850104094402,0.10511781281141089,-2.874051086497437
1782818624430354688,2.0279805660247803,0.22752371430397034,0.09066525846719742,0.21115055680274963,0.10062085837125778,-0.2625367045402527,-0.9596613645553589,0.2535508871078491,-0.0050566792488098145,-0.2181493043899536,0.140121113444147,0.06908588981173089,-0.12408248211199419,-0.9798962411411845,0.2656501827410116,0.10446866550967294,-2.8714973461342015
1782818624440274688,2.037900686264038,0.4918282628059387,-0.044270869344472885,0.2567596733570099,0.10093098878860474,-0.26608675718307495,-0.9586504697799683,0.21947306394577026,-0.09946799278259277,-0.23298460245132446,0.14101763347986024,0.069632540699856,-0.12580168199996586,-0.9795097151923517,0.2693311631833179,0.10489799687455732,-2.869847420636395
1782818624450194688,2.047820568084717,0.9770599603652954,-0.10370117425918579,-0.057628072798252106,0.0994521975517273,-0.27328673005104065,-0.9567776918411255,0.2820785641670227,0.023256242275238037,-0.19153767824172974,0.1413261298052005,0.06949434665919416,-0.12954410552664472,-0.9789870689366241,0.27680819284918545,0.10357298526415157,-2.8692942516941917
1782818624460113664,2.057739734649658,0.8945679664611816,0.1532321274280548,0.46165674924850464,0.09905171394348145,-0.2825186550617218,-0.9541341662406921,0.18853068351745605,-0.020032614469528198,-0.06521397829055786,0.14171133305438416,0.07007401706912676,-0.13424811456720617,-0.9782561264248387,0.2864187061863133,0.10344265000044012,-2.8688008676690138
1782818624470033664,2.067659616470337,0.5492217540740967,0.01457490585744381,0.18000268936157227,0.09976587444543839,-0.29011085629463196,-0.9517785906791687,0.07549658417701721,-0.11682578921318054,0.014446437358856201,0.14316741946638917,0.07124257929911659,-0.1379681206930067,-0.9774418088724233,0.29434266872274895,0.10443907469101704,-2.866214098036356
1782818624479952896,2.0775787830352783,0.547459065914154,0.17496347427368164,0.22683018445968628,0.10009244829416275,-0.29515156149864197,-0.9501931667327881,0.17139193415641785,0.005265086889266968,0.07218718528747559,0.14425362218418783,0.07196960561851119,-0.14044141415290046,-0.9768763814020025,0.2996141347412347,0.10495200330075927,-2.8642306530891983
1782818624489872640,2.087498664855957,0.19291327893733978,0.011629145592451096,0.23535363376140594,0.10069060325622559,-0.29938411712646484,-0.9488047957420349,0.24214386940002441,-0.10039615631103516,-0.03514295816421509,0.14507594686804393,0.07273569146680009,-0.14250305510685618,-0.9763991498871363,0.3040471042936869,0.10572789843157077,-2.8627985510649108
1782818624499792896,2.097418785095215,0.3397669494152069,0.19226406514644623,0.36663299798965454,0.10146646946668625,-0.30231159925460815,-0.9477933645248413,0.19875019788742065,-0.08166056871414185,-0.01644003391265869,0.14682984014539058,0.0736254948907863,-0.14381448900466207,-0.9758779108512822,0.3071168013672251,0.1066492847919366,-2.8594367029818613
1782818624509711616,2.107337713241577,0.39045676589012146,0.1950177699327469,0.49885547161102295,0.10230395942926407,-0.30617818236351013,-0.9464612007141113,0.06069043278694153,-0.13882914185523987,-0.13146543502807617,0.1487973786437085,0.07466331589144828,-0.1455842739548568,-0.9752384724159784,0.31117580223299246,0.10767298143436925,-2.8556823394450435
1782818624519631616,2.117257595062256,0.3075036406517029,0.09253065288066864,0.38194379210472107,0.10282770544290543,-0.31023913621902466,-0.9450809955596924,0.2541821599006653,-0.07945504784584045,-0.05928295850753784,0.1509912330847677,0.07560293753889218,-0.14745739457376547,-0.9745471477963509,0.31544456157525036,0.10837674236753321,-2.8514205147725304
1782818624529551872,2.1271777153015137,0.20885907113552094,-0.07339733093976974,0.3099207282066345,0.10149069130420685,-0.3136178255081177,-0.9441099166870117,0.07392434775829315,-0.012813448905944824,-0.08453083038330078,0.1527763152432272,0.07549331964600797,-0.14915030206047397,-0.9740196665979284,0.31900070486155346,0.10708757137311856,-2.8476680943452224
1782818624539470592,2.137096643447876,0.04613907262682915,-0.2027972936630249,-0.10469405353069305,0.099481001496315,-0.31432977318763733,-0.944087028503418,0.2823244333267212,-0.09822210669517517,-0.04735279083251953,0.15324914960626276,0.07461561669091707,-0.14962952230465015,-0.9739395305463214,0.3197505594515099,0.1049852830451554,-2.8463966271551158
1782818624549390848,2.147016763687134,0.10183988511562347,-0.31487321853637695,0.009524928405880928,0.09770867228507996,-0.31565386056900024,-0.9438303112983704,0.24436286091804504,-0.18167585134506226,-0.07602137327194214,0.15245680694931193,0.07371611447711984,-0.1505017453990709,-0.9739980336229044,0.32114566003328077,0.10315609017053423,-2.8477811385408653
1782818624559309824,2.156935691833496,0.14744971692562103,0.21005244553089142,0.18244171142578125,0.09618575870990753,-0.3167177736759186,-0.9436303377151489,0.14780229330062866,-0.07938513159751892,-0.0006598234176635742,0.15295975444139218,0.0731194986576292,-0.15112373294510223,-0.9738678287811352,0.3222671026213497,0.10158076923766877,-2.8465348847911813
1782818624569229568,2.166855573654175,0.08635919541120529,0.04933574050664902,0.07786790281534195,0.0975741595029831,-0.31843891739845276,-0.9429082274436951,0.046362005174160004,-0.08248576521873474,-0.05918222665786743,0.15380696747493658,0.07410094332963763,-0.15183850126000475,-0.9735489947423451,0.32408222704212886,0.10311511029264517,-2.8450823689799285
1782818624579149824,2.1767756938934326,0.13297797739505768,-0.15959955751895905,0.09812396764755249,0.09721934795379639,-0.31930971145629883,-0.9426503777503967,0.2594243288040161,0.03358888626098633,-0.011893689632415771,0.15388786834714316,0.07401125459844689,-0.15230609878471407,-0.9734699980642718,0.32500096863653816,0.10277069902377203,-2.844887262876709
1782818624589068544,2.186694622039795,0.0766635611653328,0.09201882779598236,-0.047525640577077866,0.09728705883026123,-0.3208298981189728,-0.9421270489692688,0.26326286792755127,-0.14792010188102722,-0.0599481463432312,0.15427675396208218,0.07424002362637785,-0.15305191101545967,-0.9732739330620209,0.3266055671464849,0.1028984890472569,-2.8441513417515023
1782818624598988800,2.1966147422790527,-0.02924889326095581,0.027641477063298225,0.1143307015299797,0.09798913449048996,-0.32083860039711,-0.942051351070404,0.10077184438705444,-0.17934450507164001,-0.008784830570220947,0.15447996384809648,0.0746264275574032,-0.1529876838295449,-0.9732222452164225,0.3266147732697251,0.10364404897482278,-2.8438512201012864
1782818624608908544,2.2065346240997314,-0.11458109319210052,0.003927892539650202,0.0664297565817833,0.09795045852661133,-0.3206983804702759,-0.9421030879020691,0.24335813522338867,-0.11310896277427673,0.018397092819213867,0.15488978844207038,0.07465895228554745,-0.15288716358277138,-0.9731705073158505,0.3264667153215354,0.10359778042072891,-2.842997791520756
1782818624618827520,2.2164535522460938,-0.28521254658699036,-0.055500201880931854,0.10243739187717438,0.09768012166023254,-0.31874707341194153,-0.9427931308746338,0.21820732951164246,-0.08565661311149597,0.06574845314025879,0.15536973749092403,0.07442526117428612,-0.15186938593102117,-0.9732712324539062,0.32440731919951593,0.1032388060799253,-2.8418995474514848
1782818624628747776,2.2263736724853516,-0.2950049936771393,0.032531119883060455,0.17128996551036835,0.09769289940595627,-0.31642216444015503,-0.9435746669769287,0.16860347986221313,-0.09661799669265747,-0.007841348648071289,0.15591719500629792,0.07431070827154156,-0.1506339924821246,-0.9733843292288576,0.32195548102781424,0.10316730727317194,-2.840697191330869
1782818624638666752,2.236292600631714,-0.4727103114128113,0.0381414070725441,0.11919932812452316,0.09753153473138809,-0.31353306770324707,-0.9445552229881287,0.17692831158638,-0.08473658561706543,-0.07396888732910156,0.15690015912415106,0.0741240016720709,-0.14909059661768473,-0.9734782923118416,0.31891141827049685,0.1028919297032102,-2.838553046501393
1782818624648586752,2.2462127208709717,-0.6255671977996826,-0.11182225495576859,0.0008495149668306112,0.0974036306142807,-0.308759868144989,-0.9461394548416138,0.1667870283126831,-0.055421650409698486,-0.06078803539276123,0.15762255391047691,0.07374399814986288,-0.14660183065615812,-0.9737683471367513,0.3138889304381797,0.10258709402084154,-2.8368870724941933
1782818624658506752,2.2561326026916504,-0.5294593572616577,-0.04970372095704079,0.06834134459495544,0.09673747420310974,-0.3029721975326538,-0.9480768442153931,0.18699970841407776,-0.03368246555328369,-0.08619439601898193,0.1576064489321689,0.07289169744992761,-0.14369543658945916,-0.9742682415758666,0.30780990324596463,0.10168357144703563,-2.8366209181312425
1782818624668425728,2.266051769256592,-0.6420308947563171,-0.11188480257987976,-0.061342883855104446,0.09629812836647034,-0.29816338419914246,-0.9496448040008545,0.17836007475852966,-0.09023383259773254,-0.12207150459289551,0.15779555049031074,0.07227205757050158,-0.1412598287789804,-0.9746399751028213,0.30276792420430615,0.10105891644050129,-2.8360049125467004
1782818624678345728,2.2759716510772705,-0.3287104368209839,0.1794239729642868,0.23647138476371765,0.09641534090042114,-0.2938457131385803,-0.9509778022766113,0.18663519620895386,0.08887439966201782,-0.06273984909057617,0.15851258057393627,0.07205117299701767,-0.13899542961566486,-0.9748654012216059,0.2982476869938819,0.10104022830485601,-2.834407863635269
1782818624688265728,2.2858917713165283,-0.24864701926708221,-0.2064073532819748,-0.017799770459532738,0.09730345010757446,-0.29172515869140625,-0.9515400528907776,0.06941407173871994,0.08826446533203125,-0.1624736189842224,0.15919070627350498,0.07240486581504048,-0.13779518330359553,-0.9748990880326783,0.2960299567135034,0.1019046956143838,-2.8330782012784597
1782818624698184704,2.2958106994628906,-0.05876544117927551,-0.21902255713939667,-0.04157683625817299,0.09623231738805771,-0.2900238633155823,-0.9521688222885132,0.3118792474269867,0.09046944975852966,-0.10375458002090454,0.15904018361273864,0.07169468672598349,-0.1370235458385452,-0.9750849216164583,0.2942517683810923,0.1007244231625004,-2.8331715441033745
1782818624708104704,2.3057305812835693,0.08179140836000443,-0.3046692907810211,0.15082962810993195,0.09421281516551971,-0.29096436500549316,-0.9520838856697083,0.3020274043083191,-0.061437368392944336,-0.17201584577560425,0.15897797376044248,0.07075583699888371,-0.13766509992965478,-0.9750732759317531,0.2952346535487978,0.09863322200088566,-2.833030957029122
1782818624718023680,2.3156497478485107,-0.19604234397411346,-0.14388985931873322,-0.03389974310994148,0.09320416301488876,-0.29087284207344055,-0.9522110819816589,0.14526018500328064,-0.02690666913986206,-0.08302140235900879,0.1591415350820548,0.07026462737007823,-0.13768562192391695,-0.9750792660568303,0.29513898835162755,0.09757101219101874,-2.832543052408761
1782818624727943680,2.3255696296691895,0.07959989458322525,-0.12605227530002594,0.15312448143959045,0.09279607236385345,-0.2909891605377197,-0.9522154331207275,0.09610774368047714,0.07663369178771973,-0.06107497215270996,0.1593004045771789,0.07009262314801912,-0.1377654291048355,-0.9750544369608721,0.2952605679960651,0.09714605204368876,-2.832160278595471
1782818624737863680,2.3354897499084473,-0.061770349740982056,-0.26722851395606995,0.11297754943370819,0.09230189770460129,-0.2918902635574341,-0.951987624168396,0.1275314837694168,-0.08333861827850342,-0.088997483253479,0.15944199482740876,0.06994480778910563,-0.13825306170209617,-0.974972919468113,0.2962025706077601,0.09665491811838647,-2.8318241602433067
1782818624747782656,2.3454086780548096,-0.25639790296554565,-0.22191987931728363,0.018410034477710724,0.0905754342675209,-0.29087570309638977,-0.9524638652801514,0.2129981815814972,-0.09627029299736023,-0.018300294876098633,0.15973342949684724,0.06902965304243831,-0.13785127304140293,-0.9750472524934849,0.2951419826521267,0.0948108136135572,-2.8309390376223025
1782818624757702656,2.3553285598754883,-0.3080035448074341,-0.22706592082977295,-0.03459019958972931,0.0892079770565033,-0.2885531187057495,-0.9532990455627441,0.1210276186466217,-0.153875470161438,-0.02274465560913086,0.1595472739655368,0.06811126519418179,-0.13678939547971736,-0.975291903442699,0.2927153269369371,0.09330644717883718,-2.83105101809918
1782818624767622656,2.365248680114746,-0.5018012523651123,-0.25352412462234497,-0.05489520728588104,0.08763818442821503,-0.28474950790405273,-0.9545875191688538,0.13355323672294617,-0.10146570205688477,0.01528698205947876,0.15932418351924799,0.06695653680972885,-0.13499286759153947,-0.9756586179669001,0.2887451003655785,0.09155075183624391,-2.8311711213809527
1782818624777541632,2.3751676082611084,-0.41902095079421997,-0.25127264857292175,-0.04502610117197037,0.08599938452243805,-0.28052690625190735,-0.9559857249259949,0.19589146971702576,-0.014455974102020264,0.008109807968139648,0.15904748939605257,0.06572534124597053,-0.13299362370379816,-0.9760618108973498,0.28434300255854317,0.08971736349255838,-2.831385923030174
1782818624787461632,2.385087728500366,-0.5226078033447266,-0.08783470839262009,-0.1160597950220108,0.0852317363023758,-0.2758478820323944,-0.957414984703064,0.1582222282886505,0.0454554557800293,0.00624316930770874,0.15874348432633278,0.06488962280207182,-0.13069749574329892,-0.9764773044539696,0.2794717019672539,0.08878871248553515,-2.8317736784956384
1782818624797380608,2.3950066566467285,-0.36432963609695435,-0.19288161396980286,0.06667347252368927,0.08423075079917908,-0.27178123593330383,-0.9586657881736755,0.16796651482582092,0.01731044054031372,0.03268623352050781,0.1586933169711315,0.06402671923007795,-0.1287154731287364,-0.97680567380063,0.27524345259135397,0.08763742613136914,-2.8316290193264897
1782818624807300864,2.4049267768859863,-0.25344279408454895,-0.16149625182151794,0.0365682989358902,0.08265143632888794,-0.26902884244918823,-0.9595791697502136,0.22084587812423706,0.00471612811088562,-0.010086297988891602,0.15890406602225124,0.06302406798861046,-0.12742986446617066,-0.9770051804482565,0.272384550728469,0.0859209393127637,-2.8309099692081348
1782818624817220608,2.414846658706665,-0.2364666610956192,-0.3536977171897888,0.02522060088813305,0.0806765928864479,-0.2672896981239319,-0.9602330327033997,0.1473354995250702,0.056932032108306885,-0.06161755323410034,0.15884465847121607,0.06187696546320945,-0.12670721273978736,-0.9771820794973306,0.27057928108724205,0.08382086464404455,-2.83072034643999
1782818624827139584,2.4247655868530273,-0.32966476678848267,-0.40971946716308594,-0.18095865845680237,0.07754654437303543,-0.264057457447052,-0.9613845348358154,0.23249679803848267,0.053364098072052,-0.02611851692199707,0.15822722784844967,0.059951923857655624,-0.12535352421838816,-0.977576835669133,0.2672265631174112,0.08048706370276162,-2.831487091094538
1782818624837059840,2.434685707092285,-0.27841916680336,-0.4041987359523773,0.04323235899209976,0.07359664142131805,-0.26187771558761597,-0.9622908234596252,0.22176773846149445,-0.05666476488113403,-0.07278913259506226,0.15785061962774316,0.05774142281553689,-0.12458139681536096,-0.9778694079632635,0.2649673028480583,0.07633206656421314,-2.8316849611639703
1782818624846979584,2.444605588912964,-0.38074180483818054,-0.3822452127933502,-0.08757545053958893,0.070492684841156,-0.2581324577331543,-0.9635343551635742,0.08444506675004959,-0.0405583381652832,-0.004864692687988281,0.15740606549360994,0.055813488394311835,-0.12295398976262661,-0.9782589742502716,0.26108864092873085,0.07303041911427853,-2.8321114036431343
1782818624856898816,2.4545247554779053,-0.2623424828052521,-0.2951286733150482,0.07463475316762924,0.06748819351196289,-0.2550034523010254,-0.964582085609436,0.11439657211303711,0.01725625991821289,-0.034853339195251465,0.15726571819907484,0.054028697445268,-0.12161356866325342,-0.9785492811570352,0.25785128585003686,0.06985242100838411,-2.831951294138759
1782818624866818560,2.464444637298584,-0.19550643861293793,-0.28362220525741577,-0.01587623544037342,0.06495579332113266,-0.2530505657196045,-0.9652699828147888,0.12815943360328674,0.024275541305541992,-0.03260904550552368,0.15735088211301398,0.05260889915191812,-0.12081931702617846,-0.9787112982779618,0.25583216282572174,0.0671915781694676,-2.831419145800516
1782818624876737536,2.4743635654449463,-0.29130682349205017,-0.43997877836227417,-0.054982125759124756,0.061798177659511566,-0.25070610642433167,-0.9660887122154236,0.13281242549419403,-0.013530313968658447,-0.00908517837524414,0.15682149989953723,0.05076924666472699,-0.11990878229680148,-0.9790053590288624,0.2534095805605208,0.06388035991825915,-2.8320626153255946
1782818624886657792,2.484283685684204,-0.12192150205373764,-0.3052537143230438,0.09092740714550018,0.05831150338053703,-0.24875803291797638,-0.9668087959289551,0.24736782908439636,-0.07027272880077362,0.003490924835205078,0.15686022966687635,0.04886996043987215,-0.11919453963792337,-0.9791829918421939,0.2513977746042244,0.060240402302647905,-2.8315164291870745
1782818624896577536,2.494203567504883,-0.2397945523262024,-0.25273677706718445,0.021772339940071106,0.05567377433180809,-0.24754033982753754,-0.9672766923904419,0.10011846572160721,-0.13086237013339996,-0.034386515617370605,0.15702677117359015,0.04747193404608243,-0.11877737605791079,-0.9792757836582348,0.25014076430766935,0.057493804656963875,-2.830830337612763
1782818624906496768,2.504122734069824,-0.3994417190551758,-0.32884085178375244,0.047514189034700394,0.05364752933382988,-0.24401697516441345,-0.9682859182357788,0.16357660293579102,-0.08215488493442535,0.06656783819198608,0.15688751973730986,0.04614875769585323,-0.11716365248363138,-0.9795557006495741,0.24650589655468294,0.055348046276508155,-2.8308247020000485
1782818624916416768,2.514042615890503,-0.31090599298477173,-0.29985272884368896,0.1262671798467636,0.050405822694301605,-0.24073299765586853,-0.9692816138267517,0.2297913283109665,-0.10425294935703278,0.027539730072021484,0.15734166293201304,0.0443114708747022,-0.11573969326571207,-0.9797369890717993,0.2431209882372545,0.05195647596001717,-2.829468948140136
1782818624926336768,2.5239627361297607,-0.01001620851457119,-0.3367273807525635,0.059944361448287964,0.04762993007898331,-0.23902904987335205,-0.9698435664176941,0.1571735441684723,0.01309216022491455,-0.003163635730743408,0.15756270527332158,0.04281151986237218,-0.1150886619235769,-0.9798448045114425,0.2413657947954932,0.04907151427099331,-2.828667188885878
1782818624936255744,2.533881664276123,0.03520087152719498,-0.3070856034755707,0.3032352030277252,0.0444619245827198,-0.2390962690114975,-0.9699773788452148,0.190202996134758,-0.021569624543190002,-0.021523475646972656,0.15832054594941058,0.04132824889483471,-0.11533986649335137,-0.979756814720785,0.241435011397482,0.04580604209974152,-2.8267366129928537
1782818624946175744,2.543801784515381,-0.08214705437421799,-0.2970319092273712,0.2632196247577667,0.04147328808903694,-0.23953090608119965,-0.9700025320053101,0.18011483550071716,-0.14030613005161285,0.02310311794281006,0.1595568785853351,0.04002253135536045,-0.11574511836675318,-0.9795625749468346,0.24188266976520087,0.042729830750852744,-2.8238509688762665
1782818624956094720,2.553720712661743,-0.13737216591835022,-0.2893338203430176,0.2761342525482178,0.03834707662463188,-0.23841531574726105,-0.9704059362411499,0.17275826632976532,-0.20006124675273895,0.0487903356552124,0.16062551213752288,0.03849774952458365,-0.1153904942253415,-0.9794908889521807,0.2407337864345467,0.039495981108668886,-2.8212862942565784
1782818624966014720,2.563640594482422,-0.48447659611701965,-0.29092690348625183,0.2253192812204361,0.03496960550546646,-0.23561519384384155,-0.9712170958518982,0.16992542147636414,-0.23363834619522095,0.016169488430023193,0.16182899314311225,0.03671949201769452,-0.11420657166265524,-0.9794998514008408,0.2378515380913903,0.035990414178987414,-2.8184199408153403
1782818624975934720,2.5735607147216797,-0.20648439228534698,-0.31566888093948364,0.2150631695985794,0.031840868294239044,-0.23224395513534546,-0.9721362590789795,0.13003961741924286,-0.11040741205215454,-0.006623506546020508,0.16257142199561064,0.034961029218997686,-0.11273685462684584,-0.9796114795391344,0.23438409237485286,0.03274179982074541,-2.816535403522755
1782818624985853696,2.583479642868042,-0.3383564054965973,-0.29831573367118835,0.37142080068588257,0.028539123013615608,-0.22988790273666382,-0.9727985858917236,0.15716034173965454,-0.09581094980239868,-0.09891772270202637,0.16398849778240115,0.03327978178971159,-0.11177283880442083,-0.9795443142167389,0.2319624966317591,0.02932872182612456,-2.813260219008616
1782818624995773696,2.5933997631073,-0.4596019387245178,-0.39160051941871643,0.24902936816215515,0.0243994127959013,-0.2263810783624649,-0.9737331867218018,0.09207092225551605,-0.048826441168785095,-0.08571505546569824,0.16545205475735097,0.03108593101562109,-0.11030449462377842,-0.9795367474989334,0.2283606871785843,0.025052354225746504,-2.8098076035258317
1782818625005693696,2.6033196449279785,-0.1436500996351242,-0.5155339241027832,0.12046738713979721,0.019911227747797966,-0.22335688769817352,-0.9745333194732666,0.19716030359268188,-0.09803897142410278,-0.13920563459396362,0.1659914379186073,0.028655558520205033,-0.10914295489579498,-0.9796497239477393,0.2252570093858606,0.02042870880502034,-2.8082125315661943
1782818625015612672,2.613238573074341,-0.20932573080062866,-0.5167712569236755,0.3036080598831177,0.01418977603316307,-0.22201283276081085,-0.9749404788017273,0.20083709061145782,-0.14744822680950165,-0.1961715817451477,0.16690045453833757,0.025800437435517878,-0.10892241556956561,-0.9795992234677107,0.2238783424977568,0.014553476790799585,-2.8057170201151043
1782818625025532672,2.6231586933135986,-0.005877790041267872,-0.5051934719085693,0.17490869760513306,0.00881862547248602,-0.22066493332386017,-0.9753097891807556,0.116578109562397,-0.008918806910514832,-0.12285000085830688,0.16771164930295096,0.023108478149547786,-0.10867885744843413,-0.9795549025927531,0.2224961603648007,0.009041624399040212,-2.8034667831841626
1782818625035451648,2.633077621459961,-0.022877147421240807,-0.5589964389801025,0.2527572214603424,0.003564629703760147,-0.2209661900997162,-0.9752749800682068,0.12402936816215515,-0.039013057947158813,-0.1700039505958557,0.1684882184202775,0.020615581444934545,-0.10925896087221859,-0.9794127094648202,0.22280504271787846,0.0036549833900022966,-2.801276890655229
1782818625045371648,2.6429977416992188,-0.08158066868782043,-0.5786066055297852,0.19422893226146698,-0.00239236350171268,-0.22036081552505493,-0.9754154682159424,0.17387063801288605,-0.058386728167533875,-0.10388439893722534,0.16932074463238136,0.017701997095659273,-0.10944811719065843,-0.9793050377616358,0.22218436372287922,-0.0024526560653471484,-2.7989065847143455
1782818625055291648,2.6529176235198975,-0.20337554812431335,-0.5553810000419617,0.29069235920906067,-0.008391971699893475,-0.21906307339668274,-0.9756746292114258,0.15653955936431885,-0.15291568636894226,-0.11110210418701172,0.17011450011066984,0.014702877096763017,-0.10930013154291114,-0.9792336035201384,0.22085411141096115,-0.008600987237712325,-2.79662811076266
1782818625065210624,2.6628365516662598,-0.3552553653717041,-0.5736966133117676,0.21038472652435303,-0.014292885549366474,-0.21614307165145874,-0.9762570858001709,0.1740829348564148,-0.20550304651260376,-0.0725100040435791,0.17098232934582414,0.011618227811496797,-0.10833501560455233,-0.9792311640454381,0.21786242302709213,-0.01463944727160125,-2.7942595919609508
1782818625075130624,2.6727566719055176,-0.4404277205467224,-0.5635606050491333,0.2365531176328659,-0.020130561664700508,-0.21226471662521362,-0.9770048260688782,0.14835017919540405,-0.13746671378612518,-0.09144604206085205,0.17187157329748373,0.00848206563771787,-0.1068907573091062,-0.9792664353212535,0.21389190377899914,-0.020601446414803493,-2.791898985808235
1782818625085050624,2.6826765537261963,-0.42324098944664,-0.6641284823417664,0.18021367490291595,-0.026482651010155678,-0.20804913341999054,-0.9777597784996033,0.18499095737934113,-0.05337968468666077,-0.13166093826293945,0.1725726863021458,0.005040140903902848,-0.1053313641112199,-0.9793358380741991,0.2095800330401181,-0.027078407816562095,-2.789897843573362
1782818625094969856,2.6925957202911377,-0.3228271007537842,-0.6597042679786682,0.16261868178844452,-0.033083993941545486,-0.2046928107738495,-0.9782670140266418,0.20233449339866638,-0.03326800465583801,-0.17854756116867065,0.17306490184122203,0.0015283015790006575,-0.1042313187733535,-0.9793784460611021,0.20614985652996684,-0.03380609849658839,-2.78828877171403
1782818625104889600,2.7025156021118164,-0.49668145179748535,-0.6359044313430786,0.21784065663814545,-0.039484597742557526,-0.20043247938156128,-0.9789115190505981,0.14251194894313812,-0.07393579185009003,-0.11801224946975708,0.17360967036735456,-0.0019586695465927946,-0.10266643671781503,-0.9794465430219851,0.2017993439554762,-0.0403133515008648,-2.78664924576223
1782818625114808832,2.712434768676758,-0.3552843928337097,-0.5894872546195984,0.21818992495536804,-0.04589897021651268,-0.19608379900455475,-0.9795123338699341,0.13484245538711548,-0.04686664044857025,-0.10642516613006592,0.17435527593000327,-0.005439877274592602,-0.10106549819738066,-0.9794674713629532,0.1973625776425577,-0.046824750351022064,-2.7846260878518097
1782818625124728576,2.7223546504974365,-0.4638851583003998,-0.543337345123291,0.24763436615467072,-0.051751092076301575,-0.19232644140720367,-0.9799655079841614,0.11679930984973907,-0.08724509179592133,-0.10890167951583862,0.17515502529328053,-0.008586093354895352,-0.09971726281118364,-0.9794404439288094,0.1935323024440633,-0.05276008842235018,-2.782547937789894
1782818625134648832,2.7322747707366943,-0.3423396944999695,-0.5607364177703857,0.22582952678203583,-0.05754898115992546,-0.18813997507095337,-0.9804547429084778,0.15651749074459076,-0.038269951939582825,-0.06030148267745972,0.17609832838629713,-0.01173069686958458,-0.09815817432320563,-0.9793961717001669,0.1892679498487533,-0.05862894493072216,-2.7802220588140276
1782818625144567808,2.7421936988830566,-0.3838226795196533,-0.6124076247215271,0.16861151158809662,-0.063531294465065,-0.1846923828125,-0.9807407855987549,0.16719950735569,-0.0364990234375,-0.11342120170593262,0.176635886310223,-0.014942635173966505,-0.09698619467463726,-0.9793723377060918,0.1857588495164537,-0.06468849883641326,-2.7786891065735837
1782818625154487552,2.7521135807037354,-0.3409332036972046,-0.5835143327713013,0.16601456701755524,-0.06948249787092209,-0.18087926506996155,-0.9810478687286377,0.16007393598556519,-0.022779792547225952,-0.0894935131072998,0.17709546099175708,-0.018180287271643645,-0.09563238903827036,-0.9793677606186848,0.18188038899802764,-0.0707067131932166,-2.77735574856094
1782818625164407808,2.762033700942993,-0.294050395488739,-0.607819139957428,0.2153693288564682,-0.07565602660179138,-0.17783553898334503,-0.9811476469039917,0.16165456175804138,-0.020376130938529968,-0.1306535005569458,0.17778275619335815,-0.021437817222389202,-0.09469214215942427,-0.9792686265243404,0.1787864918148389,-0.07695743802864781,-2.775510462176444
1782818625174326784,2.7719526290893555,-0.27047309279441833,-0.6073201894760132,0.19060982763767242,-0.08167976886034012,-0.17489807307720184,-0.9811927080154419,0.13835090398788452,-0.0033856183290481567,-0.1098870038986206,0.17834634959227877,-0.02462484910523147,-0.093793788505532,-0.9791777325238529,0.1758022460051503,-0.08305389418036893,-2.773941262243488
1782818625184246784,2.7818727493286133,-0.4053797721862793,-0.5961881875991821,0.17010562121868134,-0.0878366157412529,-0.1716616153717041,-0.9812324047088623,0.1679147481918335,-0.0503385066986084,-0.0924065113067627,0.1789753426760554,-0.027899438157472773,-0.09276541754321167,-0.9790730083402834,0.17251606861627336,-0.08927866841102616,-2.772258328728898
1782818625194165760,2.7917916774749756,-0.4083388149738312,-0.6020315289497375,0.10260500013828278,-0.09400302171707153,-0.16743744909763336,-0.9813908934593201,0.17069371044635773,-0.06376370787620544,-0.045617103576660156,0.17922994072607212,-0.03130399321359766,-0.09123924510540696,-0.9790670190193489,0.16822984361699317,-0.09549416619201269,-2.7714206920147406
1782818625204085504,2.8017115592956543,-0.43183454871177673,-0.5773730278015137,0.10795183479785919,-0.09988560527563095,-0.16345413029193878,-0.9814813137054443,0.15554967522621155,-0.10958664119243622,-0.07860779762268066,0.17936022457926043,-0.034558716703983035,-0.08980549818272394,-0.9790661526761711,0.16419086207850012,-0.10142107378384102,-2.770868292267515
1782818625214005760,2.811631679534912,-0.3936907649040222,-0.5022367238998413,0.0967668890953064,-0.10530054569244385,-0.159097358584404,-0.9816312193870544,0.15632593631744385,-0.08444817364215851,-0.04861170053482056,0.17956927456111238,-0.037609014996966096,-0.08814736563019357,-0.9790661257886142,0.15977629246969083,-0.10686234023756239,-2.7702438762912096
1782818625223924736,2.8215506076812744,-0.44161170721054077,-0.517723023891449,0.010470084846019745,-0.11023575812578201,-0.15535438060760498,-0.981688916683197,0.1471315175294876,-0.11176598072052002,-0.07524162530899048,0.17948483381371402,-0.040393660195945376,-0.08674042498144922,-0.9790964284149801,0.15598618055564764,-0.11182350519598608,-2.7702368928891894
1782818625233844736,2.8314707279205322,-0.37847432494163513,-0.4734170138835907,-0.04622984677553177,-0.11500535160303116,-0.1510954052209854,-0.9818064570426941,0.14608751237392426,-0.0744447410106659,0.010920286178588867,0.17909228336773295,-0.04316920714029677,-0.08504812100779426,-0.9791982726911694,0.1516763039664628,-0.11660510246507691,-2.7709276650236623
1782818625243764736,2.841390609741211,-0.4594322741031647,-0.3548693358898163,0.017745673656463623,-0.11906230449676514,-0.1472095400094986,-0.9819132089614868,0.11228740215301514,-0.0882946103811264,0.040461182594299316,0.17876091706385847,-0.04555231651657533,-0.08347687870846193,-0.9792860628965252,0.1477464805322229,-0.12066634761539767,-2.771543328182519
1782818625253683712,2.8513097763061523,-0.3944615423679352,-0.23074206709861755,-0.04948875308036804,-0.1217980906367302,-0.14291232824325562,-0.9822124242782593,0.09381347894668579,-0.07315210998058319,0.15053218603134155,0.17845877405555316,-0.04731441808266642,-0.08157893580489509,-0.9794175121705505,0.14340332879246429,-0.12337401809483614,-2.7722563848596637
1782818625263603712,2.861229658126831,-0.36623603105545044,-0.14635953307151794,-0.05445341765880585,-0.12340262532234192,-0.13950267434120178,-0.982502281665802,0.12004569172859192,-0.06491932272911072,0.18071401119232178,0.17804358413873572,-0.048445640289042836,-0.08001165094463207,-0.9795670257347397,0.13995916495587463,-0.12494605620796304,-2.7732339129847903
1782818625273522688,2.8711485862731934,-0.3913959860801697,0.016715403646230698,-0.15598164498806,-0.12378165870904922,-0.13569006323814392,-0.9829884767532349,0.13200613856315613,-0.04215113818645477,0.27350056171417236,0.17743684420832578,-0.049019448380143785,-0.07812082841668035,-0.9798012398912977,0.13610992762302723,-0.1252644955301147,-2.774737270496651
1782818625283442688,2.881068706512451,-0.5506647229194641,0.3044832646846771,-0.05747983604669571,-0.12190593779087067,-0.13150762021541595,-0.9837909936904907,0.09596599638462067,-0.03133416175842285,0.2894245386123657,0.17684407982644276,-0.04850574594366127,-0.07583999157402324,-0.980113080676493,0.1318896626649701,-0.12328602436806317,-2.776417161584502
1782818625293362688,2.89098858833313,-0.6833108067512512,0.5157676935195923,-0.05578240752220154,-0.11765754222869873,-0.12541723251342773,-0.985102653503418,0.08312690258026123,0.060964107513427734,0.40709972381591797,0.17653264059807586,-0.04696151342870043,-0.07241059506974953,-0.9805036832403421,0.12574837103547964,-0.11887371748252017,-2.777831069048303
1782818625303281664,2.9009077548980713,-0.5434801578521729,0.7378085255622864,0.09989187866449356,-0.11159717291593552,-0.11915294826030731,-0.9865843057632446,0.08883105963468552,0.10278026759624481,0.45719587802886963,0.17670135850744492,-0.04450136807600673,-0.06875654331101771,-0.9808510185687837,0.11943670752325179,-0.1126359212152661,-2.7783725602015243
1782818625313201664,2.91082763671875,-0.01196384523063898,0.7433711886405945,0.06762248277664185,-0.10426124930381775,-0.11616949737071991,-0.987742006778717,0.10268959403038025,0.1291242092847824,0.49273163080215454,0.17736421104420297,-0.04109121375827225,-0.06663720115027574,-0.9810265059371339,0.11643239086046794,-0.10516571702413852,-2.777732947269174
1782818625323121664,2.920747756958008,0.7226638197898865,0.853541374206543,0.07187661528587341,-0.09647095203399658,-0.11953741312026978,-0.9881316423416138,0.07089722901582718,0.16516119241714478,0.514361560344696,0.17803187053537387,-0.03689745678640927,-0.06762212611210999,-0.981004813772054,0.11982394445350254,-0.09732123007457133,-2.776699854646339
1782818625333040640,2.93066668510437,1.2260501384735107,0.9659103155136108,-0.23104266822338104,-0.0870523750782013,-0.12943407893180847,-0.9877594113349915,0.03180030733346939,0.20546863973140717,0.49747931957244873,0.17807756774744832,-0.03136220272270069,-0.07167073494734352,-0.9809016586794274,0.12979823350764896,-0.0879040316493326,-2.7766984057772026
1782818625342960640,2.940586566925049,1.466464638710022,1.1638317108154297,-0.268683522939682,-0.0758717730641365,-0.14331607520580292,-0.9867643713951111,-0.008997604250907898,0.3593042492866516,0.5371794700622559,0.17738734822241636,-0.024658455095006453,-0.0775226514459539,-0.9807731238953318,0.14381126757395635,-0.07673846543541535,-2.778201523736568
1782818625352879872,2.9505057334899902,1.368494987487793,1.5149390697479248,-0.39582738280296326,-0.060429103672504425,-0.1581340730190277,-0.9855667948722839,-0.031245704740285873,0.4083782136440277,0.6343705058097839,0.1763974805689947,-0.01579656226972336,-0.08346893793700907,-0.9806463238861238,0.15880065551967493,-0.061237397497657775,-2.780767510166301
1782818625362799616,2.960425615310669,1.0894638299942017,1.6882327795028687,-0.49816012382507324,-0.043739981949329376,-0.17061688005924225,-0.9843661189079285,-0.07593470066785812,0.25621867179870605,0.7975069880485535,0.17498528414145936,-0.006569196069337449,-0.08816902270108481,-0.9805933166770948,0.1714556984413435,-0.04440545803257559,-2.784596699803962
1782818625372719872,2.9703457355499268,0.7821926474571228,1.812775731086731,-0.5761122703552246,-0.025500472635030746,-0.1798442006111145,-0.9833645224571228,-0.029125990346074104,0.106769859790802,0.9029659628868103,0.17312948280638416,0.0030901286065159956,-0.09114926035917716,-0.9806673951121385,0.18082806672809273,-0.025926050255727064,-2.789758174983393
1782818625382638592,2.980264663696289,0.4946593940258026,1.8657236099243164,-0.6316967606544495,-0.0064058080315589905,-0.18615774810314178,-0.9824990034103394,0.03719804435968399,-0.027816250920295715,0.9480751752853394,0.1709523232445927,0.012883285116790436,-0.09265272565529645,-0.9808286137830521,0.18725007263714344,-0.006519820749961225,-2.7958597411216384
1782818625392558848,2.990184783935547,0.14966712892055511,1.9177303314208984,-0.6804843544960022,0.013393698260188103,-0.1893131136894226,-0.9818254113197327,0.06795091181993484,-0.09321862459182739,0.8870683312416077,0.16863571683474404,0.022739108544211527,-0.09257549629761666,-0.9810579947431102,0.1904625626725686,0.01364078285347997,-2.8024393992553382
1782818625402478592,3.0001046657562256,-0.06837678700685501,1.72422456741333,-0.6627439856529236,0.032693859189748764,-0.18942458927631378,-0.981350839138031,0.14449119567871094,0.006700590252876282,0.760739266872406,0.16620152888026785,0.03208258459980938,-0.09107852104805973,-0.9813523383859099,0.1905760920475937,0.03330284301824356,-2.809240395764527
1782818625412397568,3.010023593902588,-0.20553943514823914,1.6899629831314087,-0.5357796549797058,0.050406523048877716,-0.18770121037960052,-0.9809319376945496,0.24596494436264038,0.10048197209835052,0.6392418742179871,0.16403557910258426,0.040520939342717305,-0.08883744185237487,-0.9816100993397896,0.1888212349301986,0.05134120514498811,-2.8152979012081483
1782818625422317824,3.0199437141418457,-0.15051452815532684,1.721330165863037,-0.45085540413856506,0.06809365004301071,-0.18576177954673767,-0.9802325367927551,0.2141786813735962,0.08384832739830017,0.5703051686286926,0.16245613052988228,0.04899692535926888,-0.0865045390735624,-0.9816946259419692,0.18684708352097232,0.06935541642132272,-2.820095363187352
1782818625432236288,3.02986216545105,-0.20118629932403564,1.7111778259277344,-0.40202242136001587,0.08558225631713867,-0.18389460444450378,-0.9792131781578064,0.16820192337036133,0.042079418897628784,0.5480455756187439,0.1611951353074607,0.05742389224059306,-0.08423720044692921,-0.9816429028273125,0.18494716934431804,0.08717748541467371,-2.8241683934680712
1782818625442156288,3.0397822856903076,-0.17804183065891266,1.7640141248703003,-0.28377193212509155,0.10322491079568863,-0.18148644268512726,-0.9779607653617859,0.14158709347248077,0.06213220953941345,0.5541937351226807,0.16017534279313617,0.0659183725691825,-0.08169686637861939,-0.9814908170539993,0.18249778672681316,0.1051617889905695,-2.827684285325264
1782818625452076288,3.0497021675109863,-0.06564617902040482,1.7818772792816162,-0.24763144552707672,0.12120608240365982,-0.18015076220035553,-0.9761428236961365,0.10972043871879578,0.05205322802066803,0.469108521938324,0.15959309498262575,0.07472578679033255,-0.07965330553102437,-0.9811226043578383,0.18113971295883194,0.12353609510177609,-2.8303232975077237
1782818625461995008,3.0596210956573486,0.057415563613176346,1.7715582847595215,-0.18117758631706238,0.13887432217597961,-0.1796605885028839,-0.9738767743110657,0.12348528206348419,0.003696247935295105,0.40701282024383545,0.15923469509106383,0.083484850978217,-0.07805054270208382,-0.9806032117319837,0.18064142173504266,0.1416445300177303,-2.832483678109688
1782818625471915264,3.0695412158966064,0.22073590755462646,1.7382451295852661,-0.13657435774803162,0.15623073279857635,-0.1808111071586609,-0.9710299968719482,0.15358370542526245,0.018793299794197083,0.2951114773750305,0.1591068374168681,0.09226569587726662,-0.07727891287726357,-0.9798979953494827,0.181811091480343,0.15952464657415094,-2.8342329986906525
1782818625481835008,3.079461097717285,0.5603702068328857,1.8102236986160278,-0.017237842082977295,0.173411563038826,-0.18416976928710938,-0.9674760699272156,0.129536435008049,0.09780502319335938,0.24579638242721558,0.15899893968601758,0.1011723380813076,-0.07762812578981473,-0.979008434931772,0.18522711549315832,0.17735784929649204,-2.836103686226253
1782818625491754240,3.0893802642822266,0.6229481101036072,1.710229754447937,-0.10816531628370285,0.19026048481464386,-0.189919114112854,-0.9631882905960083,0.14943067729473114,0.038643479347229004,0.2200700044631958,0.15919717567177352,0.11017110295126896,-0.07917186355117357,-0.9778805560922361,0.19107975511479655,0.19502133632809204,-2.8375759718393145
1782818625501674240,3.0993001461029053,0.7052576541900635,1.7015515565872192,0.03903371840715408,0.20671290159225464,-0.19642293453216553,-0.958482027053833,0.12664586305618286,-0.014850258827209473,0.2458508014678955,0.1591762807191609,0.1190504885179051,-0.08115396229547026,-0.9766800573480668,0.1977084515191891,0.21241356277136825,-2.839625095599102
1782818625511594240,3.109220266342163,0.47632166743278503,1.644745945930481,0.05344155430793762,0.2226569950580597,-0.20208559930324554,-0.953721821308136,0.1707756221294403,-0.024919405579566956,0.2929399609565735,0.15970896915184563,0.1276786984744178,-0.08268764432916823,-0.9753738162301342,0.20348698452087802,0.22935315892969818,-2.840508790158169
1782818625521513216,3.1191391944885254,0.46142634749412537,1.4734410047531128,0.006880443077534437,0.23708714544773102,-0.2064984291791916,-0.9492881894111633,0.15376673638820648,0.05638246238231659,0.34011155366897583,0.1602983617807348,0.1354635012485309,-0.08369910336756685,-0.9741399086899546,0.20799489607735713,0.24474575403679047,-2.8410803233689057
1782818625531433216,3.129059314727783,0.2921883761882782,1.3346617221832275,0.09094847738742828,0.2501705288887024,-0.2102646678686142,-0.9450944066047668,0.13406100869178772,0.07662820816040039,0.2970536947250366,0.16072486047961745,0.14251692014345163,-0.08450868041869329,-0.9729926430037871,0.21184567692086284,0.2587693942111063,-2.8418424327470446
1782818625541352192,3.1389782428741455,0.269635409116745,1.1060138940811157,0.14622345566749573,0.2614179253578186,-0.21274594962596893,-0.9414880871772766,0.1709703803062439,0.21038082242012024,0.2536981701850891,0.16158568086190578,0.14857406244106786,-0.08474492537162179,-0.971922870318632,0.21438438265810264,0.27084178789809044,-2.841420340011994
1782818625551272192,3.148898124694824,-0.0860242247581482,1.1647934913635254,0.18459558486938477,0.2718793749809265,-0.2146959751844406,-0.938076376914978,0.1798112988471985,0.1392260044813156,0.12983357906341553,0.16290195361271745,0.15423628312954143,-0.08469353684667567,-0.9708249511093519,0.21638054170089616,0.2820973683508207,-2.8399374522203
1782818625561192192,3.158818244934082,-0.3232594132423401,1.0145959854125977,-0.036080606281757355,0.2818686366081238,-0.2125798463821411,-0.9356067180633545,0.09809046983718872,0.1641637086868286,0.029402494430541992,0.1639024290878089,0.15925789534137919,-0.08266545626423236,-0.9700203038160496,0.21421440399927333,0.2926199745737176,-2.838504538195286
1782818625571111168,3.1687371730804443,-0.520109236240387,0.8149399161338806,-0.13150931894779205,0.29057031869888306,-0.20871123671531677,-0.9338139891624451,0.13774389028549194,0.026795968413352966,-0.19008737802505493,0.16414194814272387,0.16339280936021297,-0.07997379464879752,-0.9695176698500083,0.21025699514466625,0.3016682769837549,-2.838240122426384
1782818625581031424,3.178657293319702,-0.9216904640197754,0.7320583462715149,0.19610662758350372,0.29758745431900024,-0.20181673765182495,-0.9331193566322327,0.12541669607162476,-0.02376919984817505,-0.24051040410995483,0.16500518313553234,0.1664254000171895,-0.07578201373946035,-0.9691919068447714,0.2032124713150553,0.30872006778997674,-2.8360518945920226
1782818625590951168,3.188577175140381,-1.2630800008773804,0.7172867059707642,0.3094423711299896,0.30404311418533325,-0.1923050433397293,-0.9330469369888306,0.016879737377166748,-0.008424341678619385,-0.27592217922210693,0.16759376331943715,0.16904115967144703,-0.07001161293202808,-0.968728918871816,0.1935104861065635,0.3150099602487849,-2.829803671917762
1782818625600870144,3.198496103286743,-0.8143097162246704,0.7214314341545105,0.2935182750225067,0.30999210476875305,-0.18339811265468597,-0.9328826665878296,-0.12201908230781555,0.026858195662498474,-0.2719208002090454,0.17025022015171776,0.17143570733807284,-0.06456371403717379,-0.9682232171963642,0.18444208257995354,0.3208156195578273,-2.823400786876331
1782818625610790144,3.208416223526001,-0.7796170711517334,0.7007044553756714,0.524086058139801,0.31559139490127563,-0.17796969413757324,-0.9320562481880188,-0.15081173181533813,0.06980013847351074,-0.3021661639213562,0.17312515418045368,0.17398336248351554,-0.060841308964488194,-0.9674997325748992,0.17892282020182887,0.32648029392271205,-2.8170054353097393
1782818625620709120,3.2183351516723633,-1.036455750465393,0.607418417930603,0.5615146160125732,0.32028043270111084,-0.17123094201087952,-0.9317190647125244,-0.21006619930267334,0.12678208947181702,-0.19161772727966309,0.17680670805526993,0.17595973652678665,-0.056379415918103276,-0.9667465756451354,0.17207892426600122,0.3310979954374438,-2.8086339474177002
1782818625630629376,3.228255271911621,-1.19393789768219,0.5389235019683838,0.692887008190155,0.3243456482887268,-0.16263315081596375,-0.931853175163269,-0.1732073426246643,0.11546824872493744,-0.21806442737579346,0.18088673752136888,0.17741749500273066,-0.05095524721828628,-0.9660262253035748,0.16335875262659735,0.33495011085773324,-2.799060180428876
1782818625640549120,3.2381751537323,-1.0057786703109741,0.5903509855270386,1.0040522813796997,0.3281441330909729,-0.1552647203207016,-0.9317801594734192,-0.1302224099636078,0.06107224524021149,-0.28410112857818604,0.18632801137732546,0.17889210690725488,-0.04590778442011742,-0.9649725382770219,0.15589542102316675,0.33860583827275814,-2.786805735213439
1782818625650468352,3.248094320297241,-1.8465179204940796,0.19863148033618927,0.11081559211015701,0.33125531673431396,-0.14514516294002533,-0.9323104619979858,-0.22529828548431396,-0.03249765932559967,-0.33044588565826416,0.1908331720096142,0.17963187845169185,-0.039713443541202126,-0.9642291893716801,0.14565968988924224,0.34139374994208926,-2.7759683893729274
1782818625660388352,3.25801420211792,-2.7494616508483887,0.02420908212661743,-0.6718192100524902,0.3327173888683319,-0.1217549666762352,-0.9351336359977722,-0.2388453185558319,0.0556996688246727,-0.2735608220100403,0.190948903024685,0.1779208518792602,-0.02788126593640893,-0.9649379965664331,0.12205781488782425,0.3418294917633527,-2.7719586408137595
1782818625670308352,3.2679343223571777,-3.4035487174987793,0.2756868302822113,-0.512795627117157,0.3347238600254059,-0.09189565479755402,-0.9378246665000916,0.017845720052719116,0.3640056550502777,-0.42844730615615845,0.1911032777265681,0.17585304880849287,-0.01278135601988504,-0.9656044741201012,0.09202549142169111,0.3428220015550652,-2.7667628513307103
1782818625680227328,3.27785325050354,-4.846540927886963,-0.039879925549030304,-0.9932924509048462,0.33693936467170715,-0.051569726318120956,-0.9401130080223083,0.06664034724235535,0.38810232281684875,-0.40766531229019165,0.1911434750638604,0.1728787072216707,0.007513825004854333,-0.9661887654200446,0.051592612252005225,0.344141134579605,-2.75993985113245
1782818625690147072,3.2877731323242188,-5.626339435577393,0.12930890917778015,-1.1206661462783813,0.3377862274646759,0.0018034916138276458,-0.9412211179733276,0.0946173369884491,0.22326365113258362,-0.22090351581573486,0.19042856322986046,0.1680212105927045,0.03403395475224646,-0.9666165389533609,-0.0018034926260713355,0.34456447732841883,-2.752250093176387
1782818625700066304,3.29769229888916,-6.765256881713867,0.09847855567932129,-1.117793321609497,0.3385501503944397,0.0625554770231247,-0.9388666749000549,0.2974209189414978,0.0391138419508934,-0.36279958486557007,0.19025741339119712,0.1625442905050989,0.06438958933963553,-0.9660411917529272,-0.06259634926686307,0.3460817701727831,-2.74173455147141
1782818625709986304,3.307612180709839,-7.065906524658203,-0.05508144199848175,-1.080385684967041,0.33755430579185486,0.13161157071590424,-0.9320598244667053,0.43278566002845764,-0.005284056067466736,-0.13336986303329468,0.1904628315262285,0.15548967611273637,0.09895984347624728,-0.9642375054245256,-0.131994523796095,0.34746598356833996,-2.7283618502832163
1782818625719906304,3.3175323009490967,-6.925496578216553,0.5379342436790466,-0.9896324872970581,0.3380553722381592,0.1996718794107437,-0.9197008609771729,0.4612457752227783,0.1590012162923813,-0.27164435386657715,0.19047888544089184,0.1494223535764989,0.13350099709904142,-0.9610246110625463,-0.20102304706373755,0.35224170675683764,-2.714364552796107
1782818625729825280,3.327451229095459,-6.707606315612793,0.4935150742530823,-1.3314210176467896,0.3397199213504791,0.2652900815010071,-0.9023367166519165,0.4793566167354584,0.4743034243583679,-0.252982497215271,0.1897599596414585,0.1443740776239282,0.1672954343207531,-0.9566397282781764,-0.26850476945460666,0.3600755084444412,-2.7007985838748487
1782818625739745024,3.3373711109161377,-6.189761161804199,0.592462956905365,-1.6856318712234497,0.3396746814250946,0.32764723896980286,-0.8816282749176025,0.3727886974811554,0.49074262380599976,-0.30004286766052246,0.18641013718856259,0.13937448733445756,0.19940067399169026,-0.9518746256599244,-0.3338122863339323,0.36775362099947495,-2.6921738644517132
1782818625749665280,3.3472912311553955,-5.663611888885498,0.5984148383140564,-1.6087812185287476,0.33878594636917114,0.38440051674842834,-0.8587551116943359,0.35785406827926636,0.27717480063438416,-0.28708839416503906,0.18198918041219336,0.1349155072477797,0.22895469940859847,-0.9467087583291105,-0.3945583536224248,0.37576313087769486,-2.6857920778711133
1782818625759584256,3.357210159301758,-5.011890888214111,0.5072505474090576,-1.582581639289856,0.3366624712944031,0.4345090985298157,-0.8353803157806396,0.3831861615180969,0.2836000323295593,-0.31095147132873535,0.17724112471072,0.1307242007422015,0.255384084376214,-0.9414222403302691,-0.4494931703594491,0.38309423227806483,-2.6808025289646307
1782818625769504256,3.3671302795410156,-4.415460109710693,0.2931673526763916,-1.3206372261047363,0.33373212814331055,0.4781130850315094,-0.8124228119850159,0.44149065017700195,0.649541974067688,-0.27529996633529663,0.17298778018200273,0.1267361616628031,0.27879479608909585,-0.9361019326414215,-0.4985050716272715,0.3897701430342418,-2.6757186230223162
1782818625779424256,3.3770501613616943,-3.32517147064209,0.3457666337490082,-1.4521739482879639,0.3295220732688904,0.5136074423789978,-0.7922263741493225,0.4023047089576721,0.8629031777381897,-0.2159828543663025,0.16867207748995894,0.12292720662200128,0.2979525382091945,-0.9314842972459336,-0.5393838847331247,0.39417548445487444,-2.6730355830656842
1782818625789343232,3.3869693279266357,-2.833683490753174,0.6601513624191284,-1.6241570711135864,0.32519564032554626,0.5425535440444946,-0.7745214700698853,0.16740384697914124,0.8953431844711304,-0.26432740688323975,0.16244952935000317,0.12036435247991353,0.3134512745634815,-0.9278312602939988,-0.57347396059201,0.3975145423174852,-2.6762948698855236
1782818625799263232,3.3968892097473145,-1.9962893724441528,0.5990509986877441,-1.7394486665725708,0.3206617832183838,0.5662116408348083,-0.7593289017677307,0.1448991298675537,0.7970238327980042,-0.2415561079978943,0.15547566024915432,0.11854346190987403,0.32601074611599345,-0.9249279368000577,-0.6019024950866309,0.3995783777246173,-2.6829841743169522
1782818625809182208,3.4068081378936768,-1.714243769645691,0.7783642411231995,-1.953858733177185,0.3153958022594452,0.5854619741439819,-0.7468331456184387,0.09996366500854492,0.39364874362945557,-0.2600637674331665,0.14676461185339137,0.11745614571698312,0.33583845516792776,-0.9229717411575291,-0.6254498138216783,0.3995907738430162,-2.6954450467788242
1782818625819102208,3.4167282581329346,-1.6535508632659912,0.8682277798652649,-1.8873095512390137,0.31047019362449646,0.603958010673523,-0.7340592741966248,0.16912880539894104,0.2586212754249573,-0.046839773654937744,0.13763313668805413,0.11694664079970445,0.34538942679651596,-0.9209162345935445,-0.648457835989362,0.4001327893088138,-2.7087905341040286
1782818625829022208,3.4266481399536133,-1.1112418174743652,0.8817590475082397,-1.8264402151107788,0.30636852979660034,0.6201935410499573,-0.7221483588218689,0.28033190965652466,0.40884387493133545,0.03670835494995117,0.1285108469018422,0.11720870321668284,0.3538190889547358,-0.9189989174027783,-0.6689894001234534,0.4012318032671772,-2.7226019453508976
1782818625838941440,3.4365673065185547,-0.2609957158565521,0.9204789996147156,-1.9218602180480957,0.30274325609207153,0.6309807300567627,-0.7142897248268127,0.39995449781417847,0.5977027416229248,-0.06528174877166748,0.11905489135551083,0.11832169120084302,0.3589639364730725,-0.9181343877172156,-0.6828167000366829,0.4008861507065825,-2.73955822581223
1782818625848861184,3.4464871883392334,0.26130378246307373,0.7100729942321777,-1.9871721267700195,0.29681992530822754,0.6366772651672363,-0.7117162942886353,0.4556824862957001,0.624568521976471,0.006775498390197754,0.10875759074710317,0.11885629584597664,0.36057598244197075,-0.9187110588140145,-0.6901816083775512,0.3951160998073055,-2.7622643261081765
1782818625858781440,3.456407308578491,0.46643003821372986,0.7714862823486328,-1.8450672626495361,0.29025155305862427,0.6397761106491089,-0.711646318435669,0.47526660561561584,0.44317060708999634,0.20400172472000122,0.0984815761951645,0.11917287872016687,0.36051997588766826,-0.9198502459291515,-0.6942069211989121,0.3872631905989108,-2.786647389791358
1782818625868700160,3.4663262367248535,0.6025850772857666,0.8489511609077454,-1.7605551481246948,0.28469523787498474,0.641232967376709,-0.712579071521759,0.47096577286720276,0.3609490394592285,0.36791348457336426,0.0885702304102708,0.11996039829207696,0.3596108651281266,-0.921110635051118,-0.6961039531834787,0.38009934919592103,-2.8105029615100876
1782818625878620160,3.4762461185455322,0.42363449931144714,0.9382791519165039,-1.9324201345443726,0.27959734201431274,0.6424964070320129,-0.7134589552879333,0.32695475220680237,0.3852745294570923,0.36134713888168335,0.07826854950548981,0.12114691018917177,0.3585999964529877,-0.9222816630966166,-0.6977516354948647,0.3734954183527046,-2.8350235337849017
1782818625888539392,3.4861652851104736,-0.562407910823822,1.0729447603225708,-1.953060269355774,0.27407917380332947,0.6483251452445984,-0.7103204727172852,0.17156901955604553,0.3363092541694641,0.5208673477172852,0.06754685582278411,0.12219054563058117,0.3604292263626066,-0.9222785647857783,-0.7053825345623566,0.36825136017803045,-2.8584904079362783
