time,seconds_elapsed,rotationRateX,rotationRateY,rotationRateZ,gravityX,gravityY,gravityZ,accelerationX,accelerationY,accelerationZ,quaternionW,quaternionX,quaternionY,quaternionZ,pitch,roll,yaw
1782905537529836544,0.1755685806274414,-0.2105666846036911,0.14358408749103546,-0.2966667115688324,0.15501731634140015,0.6885099411010742,-0.7084656953811646,-0.0036654025316238403,-0.048266470432281494,0.039886653423309326,-0.48921155995483695,0.1260012737258539,-0.36040369159574465,0.7841586941733882,-0.7594324254641646,0.21541217399782006,-1.9397747820800328
1782905537539756800,0.18548870086669922,-0.23915599286556244,0.16969718039035797,-0.2748841941356659,0.15433774888515472,0.690417468547821,-0.7067556977272034,-0.020762339234352112,-0.030673205852508545,0.059844136238098145,-0.48772449320042643,0.12635045214173993,-0.36146604731640786,0.784539894936163,-0.7620660070211862,0.2149997537305996,-1.94278065395716
1782905537549676544,0.19540858268737793,-0.25746843218803406,0.19370870292186737,-0.29942402243614197,0.15352363884449005,0.6929183006286621,-0.7044818997383118,-0.02814216911792755,-0.03030538558959961,0.04754525423049927,-0.4860506303087377,0.1269005706852566,-0.36284334739082086,0.7848539785375017,-0.7655286968094371,0.21456945518400153,-1.9459612248289895
1782905537559596800,0.20532870292663574,-0.2925339937210083,0.18984632194042206,-0.3182017207145691,0.15219007432460785,0.6958109736442566,-0.701915442943573,-0.018233150243759155,-0.03704327344894409,0.0349079966545105,-0.48416809612747064,0.1277324487007858,-0.36431675345708486,0.7851999506022644,-0.7695483825184289,0.2135161367404736,-1.9497541666178317
1782905537569515776,0.21524763107299805,-0.2773817479610443,0.19393952190876007,-0.34244462847709656,0.15067999064922333,0.6986568570137024,-0.6994098424911499,-0.019561201333999634,-0.04939544200897217,0.012230336666107178,-0.4822379390096074,0.1286012352585482,-0.36572778918868815,0.7855898292954911,-0.7735184429124222,0.21219550048253455,-1.9538109461126827
1782905537579435776,0.22516775131225586,-0.17153574526309967,0.18569649755954742,-0.3575255870819092,0.14892615377902985,0.7008058428764343,-0.6976332664489746,-0.016159459948539734,-0.039566218852996826,-0.00988626480102539,-0.48027908120215596,0.12929352529979082,-0.3666967934427367,0.7862243683821682,-0.7765265522961742,0.21031656164318407,-1.9585585807019164
1782905537589355776,0.23508763313293457,0.042798131704330444,0.15364113450050354,-0.3357912302017212,0.14697562158107758,0.701539158821106,-0.6973097920417786,0.006466761231422424,-0.007554233074188232,-0.021531760692596436,-0.47851760035145646,0.12961712372765988,-0.3668030973397734,0.7871948380949001,-0.7775550343032513,0.20773454488316118,-1.9638609350070377
1782905537599275776,0.24500775337219238,0.3270263969898224,0.11108595877885818,-0.30741631984710693,0.14507314562797546,0.7003868818283081,-0.6988648772239685,-0.0049974918365478516,0.02507704496383667,-0.007617056369781494,-0.4771167654219466,0.12936318522970186,-0.3658315473041528,0.788538016082309,-0.7759393445737436,0.20467709238722076,-1.969429832925658
1782905537609193472,0.2549254894256592,0.6653958559036255,0.07063261419534683,-0.2991970479488373,0.14302890002727509,0.69712233543396,-0.7025405764579773,-0.01543492078781128,0.04315781593322754,0.022639453411102295,-0.47605909462934626,0.12853135453485942,-0.3636061022456819,0.7903405443453506,-0.7713758684999316,0.20084326205791853,-1.975529633283408
1782905537619112704,0.2648446559906006,1.0448848009109497,-0.006107701919972897,-0.3118390738964081,0.14053703844547272,0.6916819214820862,-0.7083964347839355,-0.016376301646232605,0.03877156972885132,0.05457258224487305,-0.47523763416630666,0.127202228801438,-0.360029694262314,0.7926837348330248,-0.7638153648821575,0.1958446659149662,-1.982577344411696
1782905537629032704,0.2747645378112793,1.3554123640060425,-0.10282579809427261,-0.33759862184524536,0.13732744753360748,0.6841031312942505,-0.7163407802581787,0.0016190707683563232,0.04412257671356201,0.07345747947692871,-0.47466453333133046,0.12554132406176444,-0.3550619372852923,0.7955275545744034,-0.7533733743223757,0.18940882997285838,-1.9905483972929736
1782905537638952704,0.2846846580505371,1.6124236583709717,-0.18520323932170868,-0.346588671207428,0.1335352063179016,0.6747528314590454,-0.7258628606796265,-0.006383717060089111,0.043814003467559814,0.13464587926864624,-0.4742900168125312,0.1236303744009558,-0.34897577319197975,0.7987367591814415,-0.7406297939875311,0.1819332794205669,-1.999098973421512
1782905537648872704,0.2946045398712158,1.7632801532745361,-0.271239697933197,-0.3539316952228546,0.129254549741745,0.6640027165412903,-0.7364738583564758,-0.007870897650718689,0.012373626232147217,0.20394206047058105,-0.4741110793100974,0.12158466481843855,-0.34202376377438903,0.8021569299268335,-0.7261593076526649,0.17373523552424266,-2.007826174502718
1782905537658791424,0.3045234680175781,1.925054669380188,-0.3228605389595032,-0.41724061965942383,0.12442684918642044,0.6520864367485046,-0.7478644847869873,0.010384559631347656,-0.02157801389694214,0.2648627758026123,-0.47401510360720833,0.11948362829602116,-0.3343522558837425,0.8057555316580748,-0.710333235987397,0.16486605056935277,-2.0168008713596537
1782905537668711680,0.31444358825683594,2.586353063583374,-0.16500665247440338,-0.6105960607528687,0.11944591253995895,0.6373310089111328,-0.7612764239311218,0.025146372616291046,-0.05517774820327759,0.2994234561920166,-0.47361119399447815,0.1164376664035916,-0.3252753430238188,0.8101423586517021,-0.6910297454080184,0.15563329308995882,-2.027431547561777
1782905537678631424,0.32436347007751465,3.8963868618011475,-0.2729661166667938,-0.7693582773208618,0.11356812715530396,0.6143453121185303,-0.7808214426040649,0.11465760320425034,-0.025264501571655273,0.28317129611968994,-0.4726987955662038,0.11098892612744096,-0.3118825781634987,0.816680183082053,-0.6615559598275788,0.14443417714754547,-2.0425398520168674
1782905537688551680,0.33428359031677246,5.026886940002441,-0.7461241483688354,-0.7804775238037109,0.10557053238153458,0.5809619426727295,-0.8070552349090576,0.26602673530578613,0.200242280960083,0.3426082134246826,-0.4725876730338623,0.10375315274428208,-0.29275873194872204,0.824735422677678,-0.6199100073718838,0.1300710242325239,-2.059195099453874
1782905537698471424,0.34420347213745117,6.0623860359191895,-1.2517635822296143,-0.56275874376297,0.0940733551979065,0.5376519560813904,-0.8379024863243103,0.2006654143333435,0.5138006806373596,0.4168209433555603,-0.47400487705877725,0.09601434519499877,-0.2680112007579216,0.8332290087474207,-0.5676498302310872,0.11180424183996032,-2.0745070669843924
1782905537708390656,0.3541226387023926,6.528514385223389,-1.3275305032730103,-0.7080885171890259,0.08097339421510696,0.4865480661392212,-0.8698932528495789,0.05663037300109863,0.3557218313217163,0.5989124178886414,-0.4759120993095183,0.08738415342821702,-0.23961924745228982,0.8416972400819153,-0.5081342445360738,0.09281683145366489,-2.0882648196916884
1782905537718310656,0.3640425205230713,6.173336982727051,-1.2465600967407227,-1.1002682447433472,0.06651352345943451,0.4334547519683838,-0.8987173438072205,-0.05847214162349701,0.10585188865661621,0.7842612266540527,-0.4761060800565612,0.07890950608015546,-0.2107477247271788,0.8501068449094159,-0.4483228718583793,0.07387470533913612,-2.103682960313314
1782905537728230656,0.3739626407623291,5.133482456207275,-1.0903222560882568,-1.2715479135513306,0.05169912800192833,0.38502323627471924,-0.9214577078819275,0.031323935836553574,-0.03520023822784424,0.8874611258506775,-0.47418227256442075,0.0719359549270882,-0.18465201066343864,0.8578345186011891,-0.3952330107972887,0.05604704826426305,-2.1204379768314032
1782905537738150656,0.3838825225830078,3.845656633377075,-0.8737108111381531,-1.2269266843795776,0.03869205713272095,0.3459702134132385,-0.9374473690986633,0.13171809911727905,-0.060463011264801025,0.8860252499580383,-0.44069993124952805,0.061120459851815946,-0.16595364416221836,0.8800609608646552,-0.3532726587082401,0.04125043299346513,-2.205716675308487
1782905537748070656,0.3938026428222656,2.6673924922943115,-0.47279542684555054,-1.1710045337677002,0.029029710218310356,0.3176075220108032,-0.9477778077125549,0.08356489986181259,-0.09174692630767822,0.7811365723609924,-0.4323347114662492,0.05727553959086455,-0.15109804220610715,0.8871164488649687,-0.3232053013265962,0.03061966398544465,-2.2296502573751225
1782905537757989632,0.40372157096862793,1.7649372816085815,-0.10427357256412506,-1.217119574546814,0.02344445325434208,0.2985176146030426,-0.9541161060333252,0.04390783607959747,-0.1449073851108551,0.6588890552520752,-0.42591304320946594,0.05436227486930214,-0.14137424443535326,0.8919955574745368,-0.30313905527697627,0.024566964649859746,-2.246894846342778
1782905537767909632,0.41364145278930664,1.3125901222229004,0.061539821326732635,-1.3469665050506592,0.020082613453269005,0.2854762673377991,-0.9581753611564636,0.08170876652002335,-0.07987934350967407,0.4701535105705261,-0.41841295484782826,0.05180306208858605,-0.13501396508354183,0.8966706419570222,-0.28950333331525896,0.020956158478978058,-2.2653444697432303
1782905537777829632,0.42356157302856445,1.2130893468856812,0.21067310869693756,-1.407663106918335,0.018002618104219437,0.2747873067855835,-0.9613364934921265,0.10489167273044586,0.0829092264175415,0.31082379817962646,-0.41192865468659834,0.04944617422138797,-0.12994934815606293,0.9005459423682115,-0.2783684884888553,0.018724466913552146,-2.2809532535172017
1782905537787749632,0.43348145484924316,1.2840157747268677,0.3234289586544037,-1.3608852624893188,0.01735266111791134,0.26406124234199524,-0.9643498063087463,0.13470116257667542,0.22328922152519226,0.20417219400405884,-0.40522441791852215,0.04648359201259127,-0.1251573890121512,0.9044158941161748,-0.2672304825172287,0.017992214774483893,-2.2967103154136654
1782905537797668608,0.44340062141418457,1.365877389907837,0.4490220546722412,-1.330930471420288,0.018108701333403587,0.25257524847984314,-0.967407763004303,0.14833417534828186,0.31816449761390686,0.15080314874649048,-0.39857219983951986,0.04280911318228215,-0.12026424658001857,0.9082092963557106,-0.25534088756320883,0.018716602507086604,-2.3120955944932335
1782905537807588608,0.4533205032348633,1.4339580535888672,0.5869811773300171,-1.3270701169967651,0.020429162308573723,0.2404179573059082,-0.9704544544219971,0.10798880457878113,0.3601527214050293,0.14155131578445435,-0.3929562582978222,0.0384950642735383,-0.1152861641902163,0.9114892790865553,-0.24279641567145635,0.02104802086174694,-2.3249482623663393
1782905537817508608,0.4632406234741211,1.492107629776001,0.7148725390434265,-1.3370851278305054,0.02426866814494133,0.22783268988132477,-0.9733977913856506,0.06000562012195587,0.3335992097854614,0.13979488611221313,-0.3862775395509724,0.033342145203588296,-0.11040559186006002,0.915144054241843,-0.22985124730869116,0.024926748292089233,-2.3399004794656046
1782905537827428608,0.4731605052947998,1.5089235305786133,0.8231869339942932,-1.3226535320281982,0.029452096670866013,0.21495738625526428,-0.9761792421340942,0.02737163007259369,0.24511036276817322,0.14608585834503174,-0.37969079988648397,0.027609364804087818,-0.10558458229051373,0.9186537420487377,-0.21664819650067776,0.030161637989351914,-2.3544535167522054
1782905537837348608,0.4830806255340576,1.4167814254760742,0.909578263759613,-1.3228667974472046,0.03583512455224991,0.2025308758020401,-0.9786199927330017,0.013420246541500092,0.1272420734167099,0.1251959204673767,-0.3733690365759157,0.02152117944205408,-0.10112784878912462,0.9219032778376449,-0.20394166810546768,0.03660166299482014,-2.368231800043143
1782905537847267584,0.4929995536804199,1.2796130180358887,0.9731590151786804,-1.2923980951309204,0.04311630502343178,0.1913319230079651,-0.9805779457092285,0.005040429532527924,0.005948960781097412,0.09726190567016602,-0.36708566599108283,0.01532616619448043,-0.09734547778714843,0.9249525294784625,-0.19251896111574318,0.043941996452109285,-2.381739174106024
1782905537857187584,0.5029194355010986,1.0808407068252563,1.0558302402496338,-1.2692251205444336,0.05126278102397919,0.1817752718925476,-0.9820029735565186,-0.012551240622997284,-0.1109745055437088,0.06046372652053833,-0.3608950754080175,0.009102787544974943,-0.09442267919751766,0.9277694978088442,-0.18279149362407332,0.052154926110569565,-2.394849515399777
1782905537867107584,0.5128395557403564,0.8171629309654236,1.2130728960037231,-1.2846994400024414,0.060647666454315186,0.17456389963626862,-0.9827763438224792,-0.04253548011183739,-0.18736602365970612,0.04294174909591675,-0.3550017309794782,0.002800669737308597,-0.09275771848655681,0.9302482861673375,-0.17546285295016273,0.06163239059262154,-2.4070455096487473
1782905537877027584,0.5227594375610352,0.8970556259155273,1.3088369369506836,-1.2364403009414673,0.07144485414028168,0.16853900253772736,-0.9831023216247559,-0.08018814772367477,-0.20320698618888855,-0.09728091955184937,-0.34905662649342756,-0.003932516499894239,-0.09183332629186115,0.9325827350728281,-0.1693472852124894,0.07254532365600323,-2.4191359511677484
1782905537886947584,0.532679557800293,1.192328929901123,1.5687464475631714,-1.075948715209961,0.08439294248819351,0.1603422313928604,-0.9834470748901367,-0.0822414681315422,-0.1619291454553604,-0.485714852809906,-0.34375322433814115,-0.0119786950645858,-0.090182923225336,0.9346428809699558,-0.16103735336289485,0.0856036901406176,-2.429809846076603
1782905537896866560,0.5425984859466553,0.8344631195068359,0.5920222997665405,-0.32326003909111023,0.08910509198904037,0.1541074961423874,-0.9840280413627625,0.06305555999279022,-0.2537321448326111,-1.2473104000091553,-0.3387644124372364,-0.015751423425462083,-0.08796521453057098,0.9366176242367988,-0.15472409600949155,0.09030509104030149,-2.4404874718480842
1782905537906786560,0.5525186061859131,1.5343375205993652,0.8114210367202759,-0.8119627833366394,0.09746919572353363,0.142677441239357,-0.9849583506584167,-0.17924103140830994,-0.246315136551857,-0.48160964250564575,-0.3354673153984637,-0.021948832755784384,-0.08389925987461601,0.9380515808909481,-0.14316600083668973,0.09863654901289927,-2.4476175466593997
1782905537916706560,0.5624384880065918,0.03800690546631813,0.3177068829536438,-0.9854714870452881,0.10101089626550674,0.13719651103019714,-0.9853801131248474,-0.044492341578006744,-0.43565842509269714,-0.5417347550392151,-0.3311542134725112,-0.024925325620478816,-0.08178438201097736,0.9396950850260165,-0.13763060308475167,0.10215276141072355,-2.4569123827208292
1782905537926626560,0.5723586082458496,-0.2951785922050476,0.9422003626823425,-0.5107290148735046,0.10656524449586868,0.14086385071277618,-0.9842770099639893,0.09248565882444382,-0.63015216588974,-0.25446200370788574,-0.32699513395382934,-0.027315193514371047,-0.0843526925822646,0.9408574360214721,-0.1413339062405975,0.10784745388007223,-2.464970036177752
1782905537936546560,0.5822784900665283,-0.46664807200431824,1.1619188785552979,-0.10401155054569244,0.1169343963265419,0.14531178772449493,-0.9824514389038086,-0.1163545623421669,-0.5661949515342712,-0.1943521499633789,-0.32491015683917157,-0.03169462556646207,-0.0881460816091416,0.9410945982911054,-0.14582810109517158,0.11846576308578745,-2.468060715341836
1782905537946465792,0.5921976566314697,-0.4899785816669464,1.3470263481140137,-0.25476503372192383,0.12908998131752014,0.1512427181005478,-0.9800313115119934,-0.27244633436203003,-0.07931280136108398,-0.055765748023986816,-0.32335809069367233,-0.03664909139610278,-0.09295792945486608,0.9409862833390932,-0.15182532657898026,0.13096630077882962,-2.469626548221457
1782905537956385536,0.6021175384521484,0.3080184757709503,1.3493825197219849,-0.26470476388931274,0.1420615017414093,0.15322186052799225,-0.9779272079467773,-0.2906668484210968,0.12624286115169525,-0.17305850982666016,-0.321194406949577,-0.04271632371299411,-0.0959777047914533,0.9411683259453171,-0.15382781679063529,0.1442588714228952,-2.4726995130909826
1782905537966305792,0.6120376586914062,1.2036819458007812,1.2343037128448486,-0.07431254535913467,0.15436847507953644,0.14651012420654297,-0.9770901203155518,-0.12841328978538513,0.13499926030635834,-0.23029202222824097,-0.319718493880931,-0.04981460217563496,-0.09472819384063837,0.9414484839265941,-0.14703940365727702,0.15669282612719881,-2.475263603930408
1782905537976225536,0.621957540512085,1.9674699306488037,1.1448454856872559,0.10029149055480957,0.16593550145626068,0.1314537674188614,-0.9773358106613159,-0.02408979833126068,0.11914132535457611,-0.21996033191680908,-0.3189019254711423,-0.057833184686599995,-0.08937231019489073,0.9417905652965806,-0.1318353326418635,0.1681797325408697,-2.4774761623637223
1782905537986144512,0.6318764686584473,2.4268784523010254,1.1585975885391235,0.17652466893196106,0.1773136854171753,0.11016412079334259,-0.9779691696166992,-0.006689906120300293,0.030186228454113007,-0.19756793975830078,-0.3185252371869901,-0.06671221519511143,-0.08102399238146807,0.942086196709728,-0.11038817484715344,0.1793596487663662,-2.479576479487602
1782905537996064768,0.6417965888977051,2.593932867050171,1.1774301528930664,0.13789525628089905,0.1888948678970337,0.08588172495365143,-0.9782346487045288,-0.046164169907569885,0.006784901022911072,-0.1263185739517212,-0.31780206608168354,-0.07618979174955451,-0.07125857950942924,0.9424007102163291,-0.0859876499147633,0.19075002158702753,-2.482861756171963
1782905538005984512,0.6517164707183838,2.6144914627075195,1.0992414951324463,0.1163647323846817,0.2000647932291031,0.060738157480955124,-0.9778982400894165,-0.08536447584629059,0.038688115775585175,-0.0753549337387085,-0.31704844752639827,-0.0856046024351224,-0.061014215819347344,0.9425653383292667,-0.06077556457681183,0.2018017506085758,-2.4864797644031387
1782905538015904768,0.6616365909576416,2.511896848678589,1.0880690813064575,0.11407601088285446,0.2106321156024933,0.036030203104019165,-0.9769011735916138,-0.11082437634468079,0.029872506856918335,-0.01382148265838623,-0.3160399254082897,-0.09467503306793218,-0.050853150251598124,0.9426395821666882,-0.03603800397846946,0.21236153508314345,-2.490763987209016
1782905538025824512,0.6715564727783203,2.56892991065979,0.9929192066192627,0.02882383018732071,0.2210557460784912,0.012048089876770973,-0.9751867651939392,-0.1603257656097412,-0.008080803789198399,0.05096191167831421,-0.314611315581381,-0.10358036183841075,-0.04096013977559609,0.9426627733969546,-0.012048381601848032,0.22291332027323063,-2.495997719956991
1782905538035743744,0.6814756393432617,3.0028076171875,0.9052178263664246,-0.09640972316265106,0.23010742664337158,-0.014279639348387718,-0.9730604887008667,-0.18881714344024658,-0.010287012904882431,0.0671614408493042,-0.3121310102122657,-0.11222706585760965,-0.02957793781610189,0.9429233378355832,0.014280124508422467,0.2322121771766124,-2.5039152796935737
1782905538045663488,0.6913955211639404,3.6067488193511963,0.874319314956665,-0.194938525557518,0.2387574017047882,-0.045426808297634125,-0.9700161218643188,-0.2083161324262619,0.05531451106071472,0.07328766584396362,-0.3090053307186142,-0.12143054329400114,-0.015702008316033536,0.9431456904427303,0.045442445711207216,0.24134012491005535,-2.513881505459446
1782905538055583744,0.7013156414031982,4.500589370727539,0.4380226731300354,-0.27548182010650635,0.24563226103782654,-0.08309122920036316,-0.9657953381538391,-0.20183953642845154,0.17389628291130066,0.10396367311477661,-0.3048566106626645,-0.13076372876337894,0.001782347871072934,0.9433769745461245,0.08318713687035652,0.24905127638776928,-2.5268875866086016
1782905538065503488,0.711235523223877,5.4119486808776855,0.767544686794281,-0.532243013381958,0.2516578733921051,-0.12933890521526337,-0.9591348767280579,-0.03936237096786499,0.28894585371017456,0.05619609355926514,-0.2992928083465473,-0.14094108733447627,0.023836078474433316,0.9433935234118243,0.12970226257390857,0.25659612964483475,-2.543933119883149
1782905538075423744,0.7211556434631348,6.145901679992676,0.6844889521598816,-0.7564396262168884,0.25998973846435547,-0.18217556178569794,-0.9482707381248474,-0.20582103729248047,0.28926175832748413,0.1423777937889099,-0.29168570614635564,-0.1531006735926342,0.049242391154062294,0.9428970324696262,0.18319859032985655,0.2675967070162044,-2.566293499042315
1782905538085342720,0.7310745716094971,6.570530891418457,0.4566567838191986,-0.9011103510856628,0.26683464646339417,-0.23917172849178314,-0.9335931539535522,-0.040623098611831665,0.26585936546325684,0.19367921352386475,-0.2823672972985923,-0.16490034157453726,0.07753258075219346,0.9418414837322938,0.2415127334467151,0.2783924798930762,-2.593038466723844
1782905538095262464,0.7409944534301758,6.70371150970459,0.2960106432437897,-1.0555448532104492,0.27293747663497925,-0.29720190167427063,-0.9149733185768127,0.06139788031578064,0.26688268780708313,0.32619768381118774,-0.2715214263866961,-0.17612856127660798,0.10720103842458242,0.9400866723130215,0.3017607865610129,0.28989735870506855,-2.6236232973221076
1782905538105182720,0.7509145736694336,6.775635719299316,0.07587169855833054,-1.125243902206421,0.2781507074832916,-0.3542677164077759,-0.8928194642066956,0.12405571341514587,0.24770033359527588,0.37438684701919556,-0.25959553797026913,-0.186361926727331,0.13732993511623814,0.9375605818634075,0.3621308812711615,0.3020118224323338,-2.657057962025243
1782905538115102464,0.7608344554901123,6.996191024780273,-0.08339785039424896,-1.146765112876892,0.2824290096759796,-0.41079461574554443,-0.8668804168701172,0.13804218173027039,0.20002496242523193,0.3917980194091797,-0.24680850549198152,-0.1956215068766137,0.168202329044666,0.9340908736311688,0.4233254500313661,0.31495463575040616,-2.693169535381822
1782905538125021696,0.7707536220550537,7.1630539894104,-0.1494208425283432,-1.2551088333129883,0.28664934635162354,-0.467089980840683,-0.836456298828125,0.06884995102882385,0.16890275478363037,0.378021240234375,-0.23294397951656273,-0.20433132910607213,0.2000513887597386,0.9294973859992505,0.48599682266647504,0.3301522040677631,-2.733030400644527
1782905538134941696,0.7806735038757324,7.052899360656738,-0.10374949872493744,-1.4031175374984741,0.29215842485427856,-0.5208366513252258,-0.8021051287651062,-0.028929054737091064,0.19367295503616333,0.3782617449760437,-0.2182176004231875,-0.21283774452693432,0.23161937978717953,0.9238146940601364,0.5478307440979213,0.34930365818349024,-2.776744940504052
1782905538144861696,0.7905936241149902,6.894660472869873,-0.02335771732032299,-1.488092064857483,0.29953834414482117,-0.5705464482307434,-0.7646917700767517,-0.08695289492607117,0.2010853886604309,0.4117254614830017,-0.20282533156278948,-0.2212567659963273,0.26210600592265987,0.9171737849121592,0.6071711002035506,0.373340506197172,-2.824510655306268
1782905538154781696,0.800513505935669,6.8835859298706055,-0.016150139272212982,-1.5691429376602173,0.30840930342674255,-0.6165854930877686,-0.7243659496307373,-0.11463794112205505,0.20639872550964355,0.4018867015838623,-0.1869036882594436,-0.22950493030655766,0.29179532959566656,0.9095328459874559,0.6643982692817854,0.402518000276463,-2.8767833086326986
1782905538164701696,0.8104336261749268,6.949541091918945,-0.012716640718281269,-1.6707050800323486,0.3186250627040863,-0.659559965133667,-0.6807780861854553,-0.11922317743301392,0.2123095989227295,0.3735119104385376,-0.1701344616954186,-0.2375279474934457,0.32123421491045945,0.9008015523351198,0.7202331504309263,0.4377466906487885,-2.9353710855128115
1782905538174620672,0.8203525543212891,7.105250835418701,-0.12896762788295746,-1.7293521165847778,0.32972949743270874,-0.6997401118278503,-0.6337525844573975,-0.09707874059677124,0.22874706983566284,0.38240981101989746,-0.15246771439571738,-0.24509848080794613,0.3507854801962002,0.8908591002987182,0.7750336075781536,0.4797405635859958,-3.0015767493445953
1782905538184540416,0.8302724361419678,7.426523685455322,-0.3771902322769165,-1.7611004114151,0.34065869450569153,-0.737587034702301,-0.5830239653587341,-0.056463778018951416,0.2397080659866333,0.3744516372680664,-0.13385378589513827,-0.25164032564964495,0.3810054654246582,0.8795425297860325,0.8294899316828782,0.5287925592102185,-3.0768196458415566
1782905538194460672,0.8401925563812256,7.994605541229248,-0.6551960110664368,-1.8751944303512573,0.35138240456581116,-0.7737071514129639,-0.5271695256233215,-0.06222835183143616,0.24824023246765137,0.33394747972488403,-0.11522665982106,-0.2576794232708498,0.41233062350852306,0.8662029996816888,0.8846718387430982,0.5879186234400692,3.121262930818238
1782905538204380416,0.8501124382019043,8.471870422363281,-0.9236237406730652,-1.9898524284362793,0.3627202808856964,-0.8074143528938293,-0.4653129279613495,-0.09274649620056152,0.31745463609695435,0.2987479567527771,-0.09378032599796585,-0.2622799498704397,0.4455926049325953,0.8508006625078939,0.9397563343893203,0.6621271841371535,3.015555535565823
1782905538214300672,0.8600325584411621,8.788702964782715,-1.0802937746047974,-2.0731582641601562,0.3749513030052185,-0.8369323015213013,-0.39869287610054016,-0.13605967164039612,0.40620720386505127,0.31776028871536255,-0.07066879808455169,-0.2656649461081676,0.47966206610145107,0.8332781444414531,0.9916538355906217,0.7547198152155403,2.888424424681556
1782905538224219648,0.8699514865875244,9.082755088806152,-1.2102221250534058,-2.1702687740325928,0.3886793255805969,-0.8611078262329102,-0.3277527987957001,-0.17322516441345215,0.4442375898361206,0.3424011766910553,-0.04634488348079257,-0.2681867504168233,0.5140033698202968,0.8134670931131935,1.0374446078020445,0.8702356374516338,2.736657759905267
1782905538234139648,0.8798716068267822,9.331280708312988,-1.159520149230957,-2.209571123123169,0.4041382074356079,-0.8790239095687866,-0.2529611885547638,-0.17229613661766052,0.3995317220687866,0.3175516128540039,-0.021298626460299962,-0.2701469700510802,0.5482153054462103,0.7912187000250344,1.0738110802146636,1.011530373129256,2.5585606579899927
1782905538244059648,0.8897914886474609,9.420860290527344,-0.9457594752311707,-2.124129056930542,0.4209569990634918,-0.890074610710144,-0.1748219132423401,-0.14008837938308716,0.3223865032196045,0.3312550187110901,0.00356815291264066,-0.2719165428112637,0.5819367996386284,0.766419194417583,1.0975087772505894,1.177173368447178,2.357323974774115
1782905538253979648,0.8997116088867188,9.27060604095459,-1.0129035711288452,-1.9558287858963013,0.437751829624176,-0.8939496278762817,-0.09605881571769714,-0.1254349648952484,0.2453595995903015,0.40421009063720703,0.027527724578980214,-0.2730061797491032,0.614360008165462,0.7397780531511687,1.1060819825696648,1.3547833886122833,2.145474431704896
1782905538263898624,0.909630537033081,9.125203132629395,-1.358285903930664,-1.832053780555725,0.45373255014419556,-0.8909187316894531,-0.019764963537454605,-0.07841211557388306,0.17036819458007812,0.4479113221168518,0.05115818205541556,-0.2722020897630777,0.6449988686344701,0.7122256315772046,1.099364071183395,1.527263024705127,1.937224074596973
1782905538273818624,0.9195506572723389,8.983184814453125,-1.4582955837249756,-1.764041781425476,0.46986091136932373,-0.8811283111572266,0.0533270463347435,-0.10744941234588623,0.16366004943847656,0.4507317543029785,0.07501509689028883,-0.26961424159860015,0.6737742078179665,0.6838927401332978,1.078242956577448,1.6838081222799257,1.7425125036961358
1782905538283738624,0.9294705390930176,8.766141891479492,-1.4053826332092285,-1.7187929153442383,0.48614099621772766,-0.865077555179596,0.12372533977031708,-0.21142169833183289,0.2544054388999939,0.436958909034729,0.09823162530517496,-0.2661779370094676,0.7007224674180185,0.654589909708802,1.045304905912879,1.8200105261281099,1.5681595397406516
1782905538293658624,0.9393906593322754,8.320825576782227,-1.4161547422409058,-1.7022842168807983,0.5028142929077148,-0.8433809876441956,0.18943752348423004,-0.36260122060775757,0.4319276213645935,0.41296425461769104,0.12045557778079279,-0.26244490317591584,0.7251492485074488,0.6251174314905298,1.0035448164406664,1.9311042404570993,1.420031711862963
1782905538303578624,0.9493105411529541,8.202491760253906,-1.3354706764221191,-1.7731940746307373,0.5201414227485657,-0.816511332988739,0.25052374601364136,-0.4692228436470032,0.5172101855278015,0.38897204399108887,0.1421165347079338,-0.2584069222144571,0.7473203721579258,0.595433476481212,0.9553421852006093,2.019652773147592,1.2947205629365086
1782905538313497600,0.9592294692993164,7.6907639503479,-0.9863091111183167,-1.8886921405792236,0.5378038287162781,-0.7846852540969849,0.3082793354988098,-0.5506364703178406,0.43246662616729736,0.4049164056777954,0.1625046443811724,-0.25509208001906725,0.7675074607675056,0.5652013756025587,0.9021882155209029,2.0912910547806365,1.189025009511539
1782905538323417600,0.9691495895385742,6.717075347900391,-1.156944751739502,-1.90480375289917,0.5558120012283325,-0.750291645526886,0.3579602539539337,-0.48035728931427,0.231248676776886,0.49846982955932617,0.18137146646869243,-0.25273025433227003,0.7842879265070197,0.5367721102550843,0.8485031332492473,2.142964094459467,1.1065563964194771
1782905538333337600,0.9790694713592529,5.741602897644043,-1.0433212518692017,-1.3634628057479858,0.5722689032554626,-0.7175570726394653,0.39701467752456665,-0.2573120594024658,-0.180941641330719,0.4893380105495453,0.19844699955984427,-0.24973484264377066,0.79758375102735,0.5119683894756506,0.8002885224345081,2.1773190096607817,1.0425628852830566
1782905538343257600,0.9889895915985107,4.400538921356201,-0.8998674750328064,-1.0035709142684937,0.584285318851471,-0.6897339820861816,0.4276423752307892,-0.0747179388999939,-0.6478210091590881,0.540192186832428,0.2121193149202766,-0.24571978871777267,0.808358193247333,0.49110519521531937,0.7611216033479116,2.202616850080591,0.9906788922450884
1782905538353177600,0.9989094734191895,1.9957255125045776,-0.624852180480957,-0.9533476829528809,0.5938599705696106,-0.6700056791305542,0.44544678926467896,-0.1693299412727356,-0.8862534761428833,0.6501952409744263,0.22181570551893273,-0.24342613153234494,0.8145349033095415,0.47757138975438607,0.7342164028284688,2.2143532526485625,0.9606862673646553
1782905538363096832,1.0088286399841309,-0.39599621295928955,-0.46760138869285583,-1.1248809099197388,0.6033807992935181,-0.6602010130882263,0.4472878575325012,-0.2187524437904358,-0.9958964586257935,0.5711600184440613,0.22795392312073107,-0.24484167463815434,0.814675693789779,0.4737015448429659,0.7210863792346303,2.2087079373635823,0.9590989183027416
1782905538373016576,1.0187485218048096,-2.1879653930664062,-0.289238303899765,-1.0979264974594116,0.6120678782463074,-0.6589750647544861,0.4371783435344696,-0.22194641828536987,-0.8195100426673889,0.326585054397583,0.2306395542430209,-0.24947733092411842,0.8101544479300224,0.4777198471072661,0.7194552622538476,2.191031752183339,0.9798129299465521
1782905538382936832,1.0286686420440674,-3.1674702167510986,-0.456508994102478,-1.087117075920105,0.6206650733947754,-0.6637766361236572,0.41734325885772705,-0.23463302850723267,-0.3763386607170105,0.02111801505088806,0.23162727200339958,-0.2554484573244241,0.8021332322947434,0.4875214316964001,0.7258569491319752,2.162766637719802,1.0157637217429687
1782905538392856576,1.038588523864746,-2.9071381092071533,-0.25060296058654785,-1.1760839223861694,0.6294424533843994,-0.6694336533546448,0.3945384621620178,-0.1883566975593567,0.05213940143585205,-0.24124866724014282,0.23234033796292158,-0.26161230987104306,0.7929869006172046,0.49874711302761315,0.7334461727299869,2.1306934460538174,1.0562132952347405
1782905538402776832,1.048508644104004,-1.720583200454712,-0.3430216908454895,-1.312078833580017,0.6390622854232788,-0.6702367663383484,0.37733596563339233,-0.22365695238113403,0.4351598024368286,-0.37774795293807983,0.23398372080020427,-0.26802041847700253,0.7853871922105969,0.5065409756370147,0.734527761262657,2.1041660859300584,1.0901059993016717
1782905538412695552,1.0584275722503662,0.14050798118114471,-0.542615532875061,-1.326804757118225,0.6490492820739746,-0.6645750403404236,0.3702365756034851,-0.06681966781616211,0.5435270667076111,-0.6275761127471924,0.23821038226517732,-0.2722535673846142,0.7816625156484369,0.5080724062260391,0.7269249774490051,2.089188641768841,1.1051828533176489
1782905538422615552,1.068347454071045,1.788220763206482,-1.0599921941757202,-1.2242928743362427,0.6602924466133118,-0.6525015234947205,0.3718271553516388,0.14517319202423096,0.47736120223999023,-0.5857095718383789,0.24641153630949872,-0.27313913885742347,0.7818622561601267,0.503356432442921,0.7108808514054792,2.0836604041735263,1.09951837217235
1782905538432535552,1.0782675743103027,2.8920533657073975,-1.4431843757629395,-1.0749696493148804,0.6723485589027405,-0.6358981132507324,0.378921240568161,0.2875209450721741,0.27861350774765015,-0.4505764842033386,0.2580472725985316,-0.27048188797293204,0.7850478793489207,0.4939140354893946,0.6891716539540683,2.0840047681713405,1.077032342374954
1782905538442455552,1.0881874561309814,3.2410120964050293,-1.5748909711837769,-0.8903980255126953,0.6841129064559937,-0.6174225807189941,0.38830211758613586,0.3097224235534668,0.04961264133453369,-0.28687697649002075,0.2710224970418455,-0.26558518940612375,0.789693337826474,0.4820743012494993,0.6654619786834237,2.0870511224311,1.045990544989747
1782905538452374784,1.0981066226959229,3.0707647800445557,-1.6164541244506836,-0.6813055276870728,0.6950328350067139,-0.5996167063713074,0.39672282338142395,0.30678290128707886,-0.18535637855529785,-0.18363386392593384,0.2838264858083343,-0.2596023834006849,0.7943349553462149,0.470192543985741,0.6430220479445763,2.089466416291267,1.0138174670545577
1782905538462294528,1.1080265045166016,2.3773298263549805,-1.6569443941116333,-0.6537984013557434,0.705394983291626,-0.5839851498603821,0.4017203450202942,0.28862351179122925,-0.42053139209747314,-0.1314719021320343,0.29591133085458493,-0.25348629836728115,0.7978752247438303,0.45997423498884277,0.6236293245572824,2.0884851596091663,0.9856765809308876
1782905538472214784,1.1179466247558594,1.2588714361190796,-1.6832599639892578,-0.617814302444458,0.7156429886817932,-0.5720872282981873,0.4007135331630707,0.216607928276062,-0.5736188888549805,-0.0818810760974884,0.3061760416506899,-0.2495831673122471,0.7987897151590457,0.45376146312954563,0.6090483799067837,2.0812351372047266,0.9700547614871984
1782905538482134528,1.127866506576538,0.01979447714984417,-1.7313578128814697,-0.6233881711959839,0.7257964015007019,-0.5651392936706543,0.3922205865383148,0.14189457893371582,-0.6148228049278259,-0.1504756510257721,0.31505720691190675,-0.24724315243531259,0.7968570218989274,0.4523589161714924,0.6006020731883925,2.0662394595849216,0.9668889063711349
1782905538492054784,1.137786626815796,-0.9558133482933044,-1.7328004837036133,-0.6806991696357727,0.7360438108444214,-0.5623228549957275,0.3768717348575592,0.05668073892593384,-0.4375855326652527,-0.18700674176216125,0.32273827299822266,-0.2466960920037168,0.7921975212676444,0.45541634595187064,0.5971921831710915,2.044016440661797,0.9758264657853072
1782905538501973504,1.1477055549621582,-1.0289474725723267,-1.7160147428512573,-0.7767545580863953,0.7463785409927368,-0.5607911944389343,0.3583742380142212,0.028310120105743408,-0.1487729549407959,-0.20921960473060608,0.3298510559278662,-0.24732474368630641,0.7861409487011237,0.4604465989561242,0.5953410917825072,2.0184388537955846,0.9909429741110034
1782905538511893504,1.157625436782837,-0.5939304828643799,-1.46272873878479,-0.7761191129684448,0.7563101053237915,-0.5578149557113647,0.3418145179748535,0.035407304763793945,0.1065669059753418,-0.2155938744544983,0.33688171579012705,-0.24804656994394747,0.7806280557991654,0.4643310470162385,0.591750795660032,1.9952708903998173,1.0038512232642163
1782905538521813504,1.1675455570220947,-0.3152218461036682,-1.369329810142517,-0.8605251312255859,0.7654488682746887,-0.553183376789093,0.32874971628189087,0.09337693452835083,0.25586581230163574,-0.1644887626171112,0.3436929222242555,-0.24857589234912122,0.7762634126024968,0.46636935940082036,0.5861807362370165,1.976460687910434,1.0123405199257844
1782905538531733504,1.1774654388427734,-0.3124111592769623,-1.2549153566360474,-0.8382269740104675,0.7743274569511414,-0.5475437641143799,0.31719499826431274,0.14925646781921387,0.23077136278152466,-0.07627394795417786,0.35028900458292306,-0.2494396542126068,0.7722547220552036,0.46765378699289845,0.5794260445189312,1.9595847592297373,1.0196928447648532
1782905538541653760,1.1873855590820312,-0.8273749351501465,-1.2470577955245972,-0.7901766896247864,0.7825753092765808,-0.5428972840309143,0.30469438433647156,0.19783252477645874,0.02687549591064453,-0.12390825152397156,0.35630428457428814,-0.25054785792540507,0.7678365423459472,0.4697873675928922,0.5738832281411385,1.942086605023343,1.0290180519149188
1782905538551572480,1.1973044872283936,-1.766425609588623,-1.190005898475647,-0.6625044345855713,0.7900230884552002,-0.5410689115524292,0.28828391432762146,0.13571220636367798,-0.11841589212417603,-0.15850797295570374,0.3610292565783083,-0.2526688593482672,0.7617745143268505,0.47488502740252414,0.5717076355949401,1.9206879633146416,1.0461039431164207
1782905538561492736,1.2072246074676514,-2.8372905254364014,-0.9464794397354126,-0.5500280261039734,0.7962781190872192,-0.5425679087638855,0.2675096392631531,0.05877864360809326,-0.254871666431427,-0.1476517915725708,0.36364242679862674,-0.25651529826963587,0.7536277062829982,0.48374521180270114,0.573491079573808,1.8949000347988354,1.0739709034264764
1782905538571412480,1.21714448928833,-3.923825740814209,-0.7350196838378906,-0.5057724714279175,0.8011879920959473,-0.5470941662788391,0.24245746433734894,-0.0033060312271118164,-0.3619787096977234,-0.08582606911659241,0.3635443652123009,-0.2626559619198453,0.7431289098755383,0.49659508527570523,0.5788888209111531,1.864657292014921,1.1145335940712122
1782905538581332736,1.227064609527588,-3.901196002960205,-0.6094903945922852,-0.3232114315032959,0.8049650192260742,-0.5527727007865906,0.2155780792236328,0.006375372409820557,-0.4437330365180969,-0.05400276184082031,0.3617630533943182,-0.2696707375269494,0.7314825576375737,0.5112128156602286,0.5856878217335586,1.8324663061811872,1.1611831560873251
1782905538591251712,1.2369835376739502,-3.335414409637451,-0.46071556210517883,-0.3201506733894348,0.8076936602592468,-0.5577431321144104,0.19118957221508026,0.1038510799407959,-0.4056662321090698,-0.10006417334079742,0.359536190176383,-0.27588203317093907,0.7207523094090138,0.5245368619607432,0.591664267050956,1.803228653191239,1.204212522585536
1782905538601171712,1.246903657913208,-2.373901128768921,-0.3499721884727478,-0.2133461833000183,0.8099762201309204,-0.5606869459152222,0.17195668816566467,0.20368057489395142,-0.2288944125175476,-0.17667172849178314,0.3576881057144548,-0.2809963318628703,0.7120529533561523,0.534865433119816,0.5952151664422369,1.7799888738480432,1.2387488155902544
1782905538611093248,1.2568252086639404,-1.3686985969543457,-0.5350810885429382,-0.003474988043308258,0.8112570643424988,-0.5629223585128784,0.15805155038833618,0.34514540433883667,-0.2007799744606018,-0.2789316177368164,0.35692659916220265,-0.28343760865131096,0.7061790841767218,0.5418280098275119,0.5979173586999942,1.7632091038022872,1.2607491606496517
1782905538621013248,1.2667450904846191,-0.78023761510849,-0.6172338128089905,0.25840142369270325,0.8113839626312256,-0.5656629204750061,0.14724747836589813,0.40916669368743896,-0.28115415573120117,-0.23576365411281586,0.35715097394675605,-0.2832134393055321,0.7024342561559473,0.5466439091355667,0.6012369063040784,1.750319478133808,1.2730240729853213
1782905538630933248,1.276665210723877,-0.6028258204460144,-0.6722179651260376,0.37769800424575806,0.81050044298172,-0.5692808032035828,0.1378716230392456,0.3597572445869446,-0.448877215385437,-0.2145775407552719,0.3576717866829626,-0.2814282421408562,0.699809940895032,0.5505771268087591,0.6056308138312257,1.7392902580632121,1.2805015017187071
1782905538640852224,1.2865841388702393,-0.6987105011940002,-0.6694873571395874,0.6333469748497009,0.8085374236106873,-0.57417231798172,0.12881554663181305,0.2611037492752075,-0.5533758997917175,-0.10165488719940186,0.357791572013879,-0.2789054706741589,0.6975811859604921,0.554596661449653,0.6115928877333657,1.7287877235785394,1.286973078516595
1782905538650772224,1.296504259109497,-1.0748844146728516,-0.6378412842750549,0.8985893130302429,0.8048368692398071,-0.5815945267677307,0.1182602196931839,0.17154252529144287,-0.5904940962791443,-0.01340174674987793,0.3567521664976937,-0.27584324116153097,0.6950112346865713,0.5599980410195434,0.62068743535004,1.7166892208349922,1.2961441045877207
1782905538660692224,1.3064241409301758,-1.3787305355072021,-0.21137936413288116,0.98960280418396,0.7997283935546875,-0.5907192230224609,0.10716939717531204,0.0799102783203125,-0.5898532867431641,0.048454999923706055,0.35391837482562105,-0.27345108369812154,0.6919604069752721,0.5667072277469283,0.6319498898815117,1.7040099385558527,1.309895415085788
1782905538670612224,1.3163442611694336,-1.1787958145141602,0.008154856972396374,1.167352318763733,0.7934566140174866,-0.6005992293357849,0.09852427244186401,0.08662450313568115,-0.5248279571533203,0.10948358476161957,0.34944015180864124,-0.2717600743988881,0.689498801903632,0.573262028295182,0.6442503194393346,1.6943349584150105,1.324380183205515
1782905538680532224,1.3262641429901123,-0.8046694993972778,0.07450561225414276,1.3971539735794067,0.7855478525161743,-0.6118155121803284,0.09271536767482758,0.23007702827453613,-0.46237266063690186,0.039639346301555634,0.34422882270638,-0.2691163543175638,0.6884286975352757,0.5789203264443609,0.6583537802807048,1.6882791948423579,1.3349169547058766
1782905538690451200,1.3361830711364746,-0.47122153639793396,0.019936110824346542,1.609551191329956,0.7762429118156433,-0.6241552233695984,0.0887519121170044,0.33806055784225464,-0.5081841349601746,0.03356252610683441,0.3389598204512087,-0.26507136851192387,0.6885587307581692,0.5837209671388354,0.6740498544659305,1.684637210440278,1.340934199390121
1782905538700371200,1.3461031913757324,-0.46311524510383606,0.021642472594976425,1.8112835884094238,0.7653560638427734,-0.6378541588783264,0.08586159348487854,0.36374861001968384,-0.6513152122497559,0.036101944744586945,0.3333320914156509,-0.2598643452224073,0.6894935239261263,0.5881827525304604,0.6917087853629023,1.6825143728263068,1.3442027264191703
1782905538710291200,1.3560230731964111,-0.9771607518196106,0.09055176377296448,1.8950098752975464,0.7533041834831238,-0.652615487575531,0.08139880746603012,0.2970193028450012,-0.765994131565094,0.08313679695129395,0.32682698669487614,-0.2546779970242191,0.6898104955261729,0.5937041821721291,0.7110312269665665,1.6784343894347271,1.3508521913175786
1782905538720211200,1.365943193435669,-1.714046597480774,0.1289207637310028,1.9564752578735352,0.7404723763465881,-0.6681109070777893,0.07299749553203583,0.25997018814086914,-0.8268078565597534,0.1114659309387207,0.31905845660142357,-0.25044868926144126,0.6883125768622439,0.6014175131975067,0.7316670248258412,1.6690611615582855,1.3662378853266044
1782905538730131200,1.3758630752563477,-2.4327735900878906,0.29813510179519653,2.0229194164276123,0.7267717719078064,-0.6842371225357056,0.06018600985407829,0.28848695755004883,-0.7832311391830444,0.14945447444915771,0.30976609701872293,-0.2473672547145073,0.6847645188050835,0.6115161129908964,0.7535570492918902,1.65342059716349,1.391972640361078
1782905538740050432,1.385782241821289,-3.115936517715454,0.35114720463752747,2.0180246829986572,0.7124214768409729,-0.7004449367523193,0.042806316167116165,0.3390005826950073,-0.7295171618461609,0.23752820491790771,0.29897549329623857,-0.24555179309277017,0.6790489487006012,0.6238673146761222,0.776020743578415,1.6308098366713735,1.4288221880292564
1782905538749970176,1.3957021236419678,-3.1751959323883057,0.2745496332645416,2.1016006469726562,0.6976408958435059,-0.7161120176315308,0.021929478272795677,0.4006105065345764,-0.7092267274856567,0.3559544086456299,0.2876001775615475,-0.2440986419936661,0.6718486380609081,0.6374334747814308,0.7982159612771744,1.6022197447850324,1.4729464754837194
1782905538759890432,1.4056222438812256,-3.0687687397003174,0.24627037346363068,2.229552745819092,0.6813517212867737,-0.7319559454917908,0.0005260332254692912,0.45362746715545654,-0.6744160652160645,0.3303760290145874,0.2758676793938141,-0.24167672715386293,0.664722029255259,0.6508717341331628,0.8211882519218789,1.571568370231866,1.5180580243316488
1782905538769810176,1.4155421257019043,-3.1568098068237305,0.15421847999095917,2.26200008392334,0.6626023650169373,-0.7486037015914917,-0.023468758910894394,0.42028337717056274,-0.5417252779006958,0.3872687816619873,0.2635197716492561,-0.2378108001668585,0.6570476724541308,0.6650502159759499,0.8459535868595203,1.535392057214327,1.5673145626379172
1782905538779729408,1.4254612922668457,-3.2392494678497314,0.15826070308685303,2.3592331409454346,0.6437922716140747,-0.7637323141098022,-0.04737768694758415,0.36705678701400757,-0.46403563022613525,0.37847816944122314,0.25101082235932937,-0.234165613678451,0.6492130793612934,0.6787359669543439,0.8690752823697867,1.4973371736716188,1.6188868949290987
1782905538789649152,1.4353811740875244,-3.280740737915039,0.059304554015398026,2.3740506172180176,0.6252445578575134,-0.7771243453025818,-0.07174413651227951,0.31059229373931885,-0.47969645261764526,0.3907749056816101,0.2387125333153209,-0.2306249597665969,0.6410460653145653,0.6920177302715983,0.8900835774322767,1.4565502678010078,1.672909171620971
1782905538799569408,1.4453012943267822,-3.657836437225342,0.08032511919736862,2.3642401695251465,0.6064643859863281,-0.7890225052833557,-0.09820502996444702,0.3214071989059448,-0.4832857847213745,0.490203320980072,0.22621503406601812,-0.22715013753164964,0.6319021274932004,0.7056409510883015,0.9092162666875588,1.4102594028219664,1.732731096487826
1782905538809489152,1.455221176147461,-3.948479175567627,0.08556408435106277,2.2736403942108154,0.5880849957466125,-0.798655092716217,-0.12769559025764465,0.34358614683151245,-0.46481841802597046,0.6002602577209473,0.21338455895516323,-0.2243209570767357,0.6211540199047023,0.7199408640133177,0.9250570001619058,1.356977557663293,1.8009244743967925
1782905538819409408,1.4651412963867188,-4.173262119293213,0.1275767832994461,2.3585124015808105,0.5696749091148376,-0.8062763214111328,-0.15933950245380402,0.40731483697891235,-0.4744548797607422,0.5929332375526428,0.20018652519452415,-0.22173073943096303,0.6092337235518607,0.7345714003004358,0.9378299430091241,1.2980635014202055,1.875591019525502
1782905538829328384,1.475060224533081,-4.106024265289307,0.14524659514427185,2.454946279525757,0.5503847002983093,-0.8125581741333008,-0.1919008493423462,0.4963224530220032,-0.4132566452026367,0.6428285837173462,0.18622472400917242,-0.2189937262491887,0.5967338777927415,0.7491800853713527,0.9485276503796234,1.2353097252392657,1.9549674302024946
1782905538839248128,1.4849801063537598,-3.5386922359466553,0.03365359455347061,2.575934410095215,0.53023761510849,-0.8182001709938049,-0.2222537249326706,0.5480095148086548,-0.33786678314208984,0.593622088432312,0.1723639614037297,-0.21540688614432976,0.5852119344198258,0.7625074856487877,0.958273547553428,1.1738836681170037,2.031562911358396
1782905538849168384,1.4949002265930176,-3.0207626819610596,-0.11017094552516937,2.668015480041504,0.5085583329200745,-0.8243197202682495,-0.24872756004333496,0.605195939540863,-0.274725079536438,0.5152528285980225,0.15890947060529967,-0.21032902238799275,0.5756717137402809,0.7740229665391692,0.968999481711009,1.1159199041791878,2.101830240726191
1782905538859088128,1.5048201084136963,-2.759920120239258,-0.3090820610523224,2.670718193054199,0.48615214228630066,-0.8300874829292297,-0.27314984798431396,0.565361499786377,-0.28018778562545776,0.45068585872650146,0.14622860286282216,-0.20416051132343352,0.5672244421653977,0.784341827118453,0.9792645757390301,1.0588925483923586,2.16837321904673
1782905538869008384,1.514740228652954,-2.5984344482421875,-0.45669522881507874,2.80671763420105,0.4623222053050995,-0.8355599045753479,-0.2968124449253082,0.47383493185043335,-0.37147122621536255,0.411924809217453,0.13384918761392514,-0.19683704824534712,0.5593290212655715,0.7940343280714127,0.9891511628729277,1.0000631591778362,2.2345455089745347
1782905538878927104,1.5246591567993164,-2.825558662414551,-0.30561041831970215,2.681652069091797,0.43803900480270386,-0.8398870229721069,-0.32048657536506653,0.34405019879341125,-0.4040704369544983,0.5104737281799316,0.12138038552426984,-0.18931708846589207,0.5512855417153187,0.8034364436734687,0.9970750453898274,0.9391499399249106,2.3026549920045323
1782905538888847360,1.5345792770385742,-3.3521127700805664,-0.2297726273536682,2.531278371810913,0.41556403040885925,-0.8407182693481445,-0.3471300005912781,0.25669240951538086,-0.3455151915550232,0.5728533267974854,0.10876748874501906,-0.1830605506818517,0.5412243822201969,0.8134707042023006,0.9986084005799759,0.8748852266739245,2.37627987009579
1782905538898767360,1.544499158859253,-3.647082805633545,-0.15885472297668457,2.4959425926208496,0.39391976594924927,-0.838293194770813,-0.37695038318634033,0.29489243030548096,-0.24897170066833496,0.5950290560722351,0.0959058219020006,-0.1773954277371149,0.5292028601551837,0.824182742165989,0.9941452028782375,0.8074078885854987,2.4544627004433797
1782905538908687360,1.5544192790985107,-3.4142684936523438,-0.1163349524140358,2.583165168762207,0.37236183881759644,-0.8342573642730713,-0.4066465497016907,0.34850916266441345,-0.12234663963317871,0.6009672284126282,0.0827209387963308,-0.17185946654807202,0.5168569007513766,0.8345541122286012,0.9867845067218226,0.7414158363754882,2.5319053175295165
1782905538918607360,1.5643391609191895,-2.9540457725524902,-0.20572957396507263,2.727348804473877,0.3496561348438263,-0.8306322693824768,-0.43334800004959106,0.41070452332496643,-0.014201045036315918,0.5479873418807983,0.0693211019384821,-0.1656489619903877,0.5058521679011846,0.8437229957988288,0.9802422339658637,0.6789168265259119,2.605186808926595
1782905538928526080,1.5742580890655518,-2.439509868621826,-0.38431957364082336,2.8489677906036377,0.3254048526287079,-0.8283852934837341,-0.4559488594532013,0.45798131823539734,-0.038115501403808594,0.3425455391407013,0.05616097000092011,-0.15832631395938018,0.4969490359588059,0.8513637547604149,0.9762188906217578,0.6198530299879514,2.672995798259845
1782905538938446336,1.5841782093048096,-2.5158374309539795,-0.45113512873649597,2.892744541168213,0.29967114329338074,-0.8262160420417786,-0.4770369231700897,0.49602892994880676,-0.12883156538009644,0.2515425682067871,0.04310491550104391,-0.1500237076062781,0.4888501043151479,0.8582892247090299,0.9723573617419229,0.5608919471094785,2.739103175124921
1782905538948366080,1.5940980911254883,-3.129316806793213,-0.42816802859306335,2.794844150543213,0.2743006646633148,-0.8209887742996216,-0.5007360577583313,0.4538945257663727,-0.2796581983566284,0.2983892560005188,0.029945715972355336,-0.14185206651052473,0.4790719859100777,0.8657200898687883,0.9631406696849795,0.5011486933384317,2.806490611031943
1782905538958286336,1.604018211364746,-4.1646599769592285,-0.5635581612586975,2.833655834197998,0.24914544820785522,-0.8098964095115662,-0.5310314297676086,0.3876495957374573,-0.34787946939468384,0.38865166902542114,0.01648498305667745,-0.13363336451286967,0.4654314270070015,0.8747822533493483,0.943975504312499,0.4386830630122222,2.8772868731406303
1782905538968205312,1.6139371395111084,-5.230896949768066,-0.5931083559989929,2.9731624126434326,0.2226841002702713,-0.7911747694015503,-0.5696089863777161,0.2611721158027649,-0.2189875841140747,0.47028952836990356,0.0021087314055749386,-0.12462026781301408,0.44683921988254144,0.8858895160740535,0.9127274782479183,0.37267348582307375,2.952254750032405
1782905538978125312,1.6238572597503662,-5.539100646972656,-0.4277377724647522,2.9699573516845703,0.19664140045642853,-0.7656906247138977,-0.6124132871627808,-0.03904862701892853,0.038594067096710205,0.47953975200653076,-0.013223341296585667,-0.11576945860638475,0.4247243842013745,0.8977926777317781,0.8721143281448981,0.31069378118560464,3.025355399510686
1782905538988045312,1.633777141571045,-4.910998821258545,-0.040789783000946045,2.741331100463867,0.17360548675060272,-0.7379366159439087,-0.6521584391593933,-0.2941499352455139,0.2965303659439087,0.4295937418937683,-0.028560544533437995,-0.10821363702679533,0.4027537500048766,0.9084401292474155,0.8300077749567145,0.26016795705362594,3.089298292344177
1782905538997965312,1.6436972618103027,-2.801780939102173,0.05617104470729828,2.4542906284332275,0.15508043766021729,-0.7165887355804443,-0.6800373196601868,-0.3991447687149048,0.5182092189788818,0.28291207551956177,-0.042445300586035656,-0.10261584987289338,0.3865893571870093,0.9155420273879878,0.7988992103224261,0.22421268583388915,3.139270807294286
1782905539007885312,1.6536171436309814,-0.7569022178649902,-0.161556214094162,2.2732298374176025,0.13819192349910736,-0.7086421847343445,-0.6919026970863342,-0.29909583926200867,0.6418086886405945,-0.016883373260498047,-0.05399629935345693,-0.09761063501626546,0.38015894345020185,0.9181698284425793,0.7875718952252885,0.19713343601398745,-3.106237278852041
1782905539017804032,1.6635360717773438,0.5036652684211731,-0.581860363483429,2.2731733322143555,0.11967390775680542,-0.7113895416259766,-0.6925338506698608,-0.14361494779586792,0.6686649322509766,-0.14642488956451416,-0.06363016277862676,-0.09163391166366781,0.38122999620453374,0.9177244543766708,0.7914733932741578,0.17111594238224245,-3.074777369034484
1782905539027724288,1.6734561920166016,0.6777191162109375,-0.7970262169837952,2.3490190505981445,0.09829136729240417,-0.718777060508728,-0.6882574558258057,-0.13125035166740417,0.543697714805603,-0.19664549827575684,-0.07252879781430462,-0.08420330239344295,0.3857214836320113,0.9158975554247388,0.8020416936986411,0.14185272767168305,-3.0437729196072034
1782905539037644032,1.6833760738372803,-0.0878322497010231,-0.5911622047424316,2.156053066253662,0.07694969326257706,-0.7234541773796082,-0.6860705614089966,-0.36805686354637146,0.39206379652023315,-0.19317138195037842,-0.08140385308050418,-0.07666737052145663,0.38869890587415884,0.9145538025620453,0.8087926251220428,0.11169322842849416,-3.0118854930384282
1782905539047564288,1.693296194076538,-1.2320713996887207,-0.3124607801437378,1.7480400800704956,0.05977441743016243,-0.7207164168357849,-0.6906481981277466,-0.6531734466552734,0.2674235701560974,-0.20894896984100342,-0.08966359063856001,-0.07057503139332129,0.3869044650849142,0.9150325689744618,0.8048351801471912,0.08633315165318306,-2.9830033671671785
1782905539057484032,1.7032160758972168,-2.4016897678375244,-0.31009769439697266,1.3409212827682495,0.04672376811504364,-0.7091506123542786,-0.703507125377655,-0.7227491736412048,0.25068503618240356,-0.1811974048614502,-0.09674703606215543,-0.06544864338397517,0.37942443196538755,0.9178199956999521,0.7882927325560745,0.066318089564608,-2.9591398357554266
1782905539067403264,1.7131352424621582,-2.4788312911987305,-0.4494798183441162,1.0581228733062744,0.035529401153326035,-0.691999614238739,-0.7210230827331543,-0.696051836013794,0.334119975566864,-0.1738286018371582,-0.1022976343763624,-0.060166129302644644,0.3686034299504912,0.9219798638018109,0.7642552896677847,0.049236545324148916,-2.940378662239371
1782905539077323264,1.723055124282837,-1.9564793109893799,-0.4616767168045044,0.904076337814331,0.025336608290672302,-0.6766846776008606,-0.7358368635177612,-0.759177565574646,0.4686310887336731,-0.21860039234161377,-0.10664479708811822,-0.05508228801967823,0.3592318278964966,0.9254973048760572,0.7432503895385457,0.03441877218551931,-2.9255604391954795
1782905539087243264,1.7329752445220947,-1.4375642538070679,-0.4251008629798889,0.658843457698822,0.016347195953130722,-0.664597749710083,-0.7470225691795349,-0.9015247821807861,0.776658296585083,-0.08780109882354736,-0.11001261860154188,-0.05053529624194904,0.3520439058140786,0.9281210051516131,0.7269553173771235,0.021879644025934508,-2.9139512503548524
1782905539097163264,1.7428951263427734,-0.9380179047584534,-0.32982927560806274,0.37690848112106323,0.010116581805050373,-0.6561406254768372,-0.7545707821846008,-0.978851318359375,0.9574559926986694,-0.056052327156066895,-0.11178687157638921,-0.047165800036754836,0.3471166815110694,0.9299403144377127,0.7156931159804765,0.013406264913348825,-2.907336688952234
1782905539107083264,1.7528152465820312,-0.6902640461921692,-0.6180751919746399,0.03696717694401741,0.004577817860990763,-0.6505460739135742,-0.7594529986381531,-0.8940126299858093,0.9572172164916992,-0.029319584369659424,-0.11255153871042109,-0.044037911272874944,0.3439973122915372,0.93115986961407,0.7083032124057753,0.006027709726985182,-2.9032436319171593
1782905539117002240,1.7627341747283936,-0.5416253805160522,-0.4001486897468567,-0.34898310899734497,0.0011289319954812527,-0.6461989283561707,-0.763168215751648,-1.0502469539642334,1.031315565109253,0.07913196086883545,-0.1110511870812453,-0.0412970803919963,0.3416291198909291,0.9323367400855986,0.7025932416955668,0.001479269175805775,-2.905030708309093
1782905539126922496,1.7726542949676514,-0.5726584196090698,-0.1436530202627182,-0.7165398001670837,0.0011562550207599998,-0.6427931189537048,-0.7660390138626099,-1.126766562461853,0.9755720496177673,0.18248188495635986,-0.1086265792217875,-0.040148404916904266,0.3396595525453972,0.9333915719714581,0.6981388615775008,0.001509393267494559,-2.91042769171864
1782905539136842240,1.78257417678833,-1.1016350984573364,-0.6741570234298706,-1.0124168395996094,-0.0007949593127705157,-0.6376112103462219,-0.7703579068183899,-1.1542800664901733,0.8339155316352844,0.3112667202949524,-0.10466979744935996,-0.037277974358622123,0.3367957962854709,0.9349989835988183,0.6913933900468449,-0.0010319346577041463,-2.9182564168586476
1782905539146762240,1.7924940586090088,-0.41777846217155457,-0.5030569434165955,-0.2781388461589813,-0.003801995888352394,-0.6316577196121216,-0.7752380967140198,-0.7758763432502747,0.6878711581230164,0.2999420762062073,-0.10099644419155873,-0.033930001588075985,0.3335112001087325,0.93670633293447,0.6836896717519797,-0.0049042553010932724,-2.9250358644739824
1782905539156682240,1.8024141788482666,0.10420063883066177,-0.2544148862361908,-0.5890295505523682,-0.00492106331512332,-0.6299790143966675,-0.7765965461730957,-0.7195814847946167,0.7217758893966675,0.2641301155090332,-0.09905087067896969,-0.032527124110387676,0.3326314900092234,0.9372764409173856,0.6815261683132533,-0.0063366200362292594,-2.928768360871898
1782905539166601216,1.812333106994629,1.5737414360046387,-0.7269137501716614,-1.06508207321167,-0.003357276087626815,-0.6366069912910461,-0.7711811065673828,-1.0128475427627563,0.8900249600410461,-0.06663322448730469,-0.09422993904358593,-0.03209379673556754,0.3367186506063172,0.9363286037119615,0.6900905305665733,-0.004353393727000159,-2.9394279788251496
1782905539176521216,1.8222532272338867,1.5718542337417603,-1.2932335138320923,-1.0581132173538208,-0.004486715886741877,-0.6484243273735046,-0.7612659335136414,-0.78578120470047,0.6752035021781921,-0.40342217683792114,-0.08690411300697808,-0.029614153611347387,0.3442238095468709,0.9343879029752282,0.7055128156314274,-0.005893688015111254,-2.9539435414743496
1782905539186441216,1.8321731090545654,1.1737384796142578,-0.8853754997253418,-0.2527373731136322,-0.010498578660190105,-0.6593143939971924,-0.7517940998077393,-0.433288037776947,0.2680027484893799,0.07196927070617676,-0.08214742853788139,-0.025330228222223836,0.3513706460450603,0.9322816075377524,0.71990654315223,-0.013963791369801538,-2.960562540102147
1782905539196361216,1.8420932292938232,0.44047558307647705,-0.6117721796035767,-0.31072962284088135,-0.015397517010569572,-0.6655917763710022,-0.7461571097373962,-0.5569139122962952,0.2696110010147095,0.544924259185791,-0.07970083673152617,-0.022170643133444703,0.3555698327893822,0.9309813138617457,0.7282864698768988,-0.020632829360842958,-2.9629258498311963
1782905539206280192,1.8520121574401855,-1.1670340299606323,-0.03512965142726898,-0.7054484486579895,-0.015790173783898354,-0.6627081632614136,-0.7487112283706665,-0.4542873501777649,0.33659738302230835,0.5383231043815613,-0.0764377258863054,-0.02055250892732736,0.3538671609116939,0.931940415486552,0.7244293346467617,-0.021086679506292574,-2.9699283895854673
1782905539216200448,1.8619322776794434,-1.3542617559432983,-0.19905875623226166,-0.9489014744758606,-0.010924921371042728,-0.6522683501243591,-0.7579094171524048,0.06742822378873825,0.12089627981185913,0.15024340152740479,-0.07268867947209084,-0.021162044343277085,0.34727145717058555,0.93470377772934,0.7105732145173091,-0.014413550021988495,-2.9810240399162655
1782905539226120192,1.871852159500122,-2.005542039871216,0.38150346279144287,-1.1846778392791748,-0.0041023679077625275,-0.6401102542877197,-0.7682721614837646,0.4044624865055084,-0.23971152305603027,-0.21761345863342285,-0.0680346058038764,-0.022452627820492472,0.3396465798318309,0.9378206126899497,0.6946417439528434,-0.005339681958753697,-2.994822590877826
1782905539236040448,1.8817722797393799,-2.7769126892089844,0.7885257005691528,-1.0127449035644531,0.007223415654152632,-0.6207408905029297,-0.783982515335083,0.7107178568840027,0.1253185272216797,0.1635754108428955,-0.06410275293543809,-0.026120009106243045,0.3276072091447232,0.9422750083213857,0.6696873571181987,0.009213485008109062,-3.0089482563967285
1782905539245960192,1.8916921615600586,-1.4121835231781006,0.5675715208053589,-0.982352614402771,0.017012322321534157,-0.6038179397583008,-0.7969407439231873,1.0966808795928955,0.27798181772232056,-0.037699759006500244,-0.06155069431672574,-0.02963757359431013,0.317255821271743,0.9458762681507605,0.648282112505183,0.02134379518792042,-3.0188021290495093
1782905539255879168,1.901611089706421,-0.1231738030910492,-0.5299450159072876,-0.7533939480781555,0.021375564858317375,-0.5968689322471619,-0.8020539879798889,1.0201283693313599,0.22414249181747437,-0.18474715948104858,-0.05704228435352067,-0.030132448792778127,0.31315337810505706,0.9475090034232627,0.6395929986327221,0.02664472268849641,-3.0301573091489575
1782905539265799168,1.9115312099456787,1.2840988636016846,-1.104554295539856,-0.2083018720149994,0.01656041108071804,-0.602387011051178,-0.7980323433876038,0.850566029548645,-0.018889784812927246,-0.23730695247650146,-0.05350736889863193,-0.026645304064473418,0.31666045875097043,0.9466536297805465,0.6464881912273989,0.020748576010821,-3.0356183725730097
1782905539275719168,1.9214510917663574,1.5370638370513916,-0.530519425868988,0.2872794270515442,0.009144037030637264,-0.6136175394058228,-0.7895504236221313,0.35055139660835266,-0.06617677211761475,-0.06463658809661865,-0.05255003820733108,-0.022844757252031517,0.32357826884051955,0.9444648006754528,0.66063396492916,0.011580803649123771,-3.034398099517296
1782905539285639168,1.9313712120056152,1.3603748083114624,-0.3808595836162567,-0.15176478028297424,0.003934464883059263,-0.6250094175338745,-0.7806073427200317,-0.014218875207006931,-0.008306622505187988,0.09489262104034424,-0.052006953487742216,-0.020336649504889722,0.33057941546138286,0.9421247468927246,0.675143562601759,0.005040218610498365,-3.0330702193950687
1782905539295559168,1.941291093826294,0.6095234751701355,-0.2507515549659729,-0.7776551246643066,0.004435135051608086,-0.6329433917999268,-0.7741854190826416,-0.09740691632032394,-0.09470248222351074,0.1470949649810791,-0.049026669176527,-0.019841610325379667,0.33543046644199714,0.9405792045097535,0.6853491724250713,0.005728713598897477,-3.039482818771915
1782905539305478400,1.9512102603912354,-0.3200768828392029,-0.4889279007911682,-0.25548142194747925,0.004630990792065859,-0.6335486173629761,-0.7736890316009521,0.0010757907293736935,-0.22225582599639893,0.21913886070251465,-0.04582560304203584,-0.0188244376062617,0.3358587997369533,0.9406085714855315,0.6861311802586786,0.005985525542666906,-3.0463694055889
1782905539315398144,1.961130142211914,-1.0953929424285889,0.09122931957244873,-0.5495781898498535,0.005777643993496895,-0.6273605227470398,-0.7787075042724609,0.08385249227285385,-0.19917750358581543,0.1419888138771057,-0.04309741379624625,-0.01826076512828964,0.33213367524168097,0.9420703017002754,0.6781591013284326,0.007419394183679713,-3.0527781405073235
1782905539325318400,1.9710502624511719,-0.9491228461265564,0.576887309551239,-0.5611573457717896,0.013469059951603413,-0.6198775172233582,-0.7845829725265503,0.17824237048625946,-0.11297160387039185,0.11711776256561279,-0.041827652514584056,-0.021651318579630947,0.327474769063971,0.9436852909244554,0.6685865738726653,0.017165471669413665,-3.0589653689542153
1782905539335238144,1.9809701442718506,-1.0343725681304932,-0.06822799146175385,-0.2700451612472534,0.017000921070575714,-0.6117991209030151,-0.7908304333686829,0.2646915912628174,-0.002977430820465088,-0.06859028339385986,-0.040252223354342836,-0.022726366864095626,0.3225961712727446,0.9454073288457551,0.65833307472182,0.021494244655439088,-3.0638334205081
1782905539345158400,1.9908902645111084,-0.7449977397918701,-0.1314687430858612,-0.530388593673706,0.018529243767261505,-0.6045452356338501,-0.7963553071022034,0.3396098017692566,0.0871807336807251,-0.09259122610092163,-0.038599011175565204,-0.022757664264620406,0.31828356849398753,0.946936056041794,0.6491948223890353,0.023263360648800836,-3.0679421841761814
1782905539355077376,2.0008091926574707,-0.563987135887146,-0.23515275120735168,-0.5060816407203674,0.020700603723526,-0.5990118384361267,-0.800472617149353,0.2622889280319214,0.1938146948814392,-0.08192789554595947,-0.03577530065445523,-0.022803318531819782,0.3150296866608282,0.9481332277449683,0.6422664531839903,0.025854715662890854,-3.0747646699470486
1782905539364997120,2.0107290744781494,0.19392186403274536,0.19388169050216675,-0.28490981459617615,0.02395128272473812,-0.5967764258384705,-0.8020500540733337,0.40128064155578613,0.27628082036972046,-0.08567577600479126,-0.03428376894416515,-0.023961613408660886,0.3136890627684323,0.9486041055113303,0.6394777362871548,0.029853707793447863,-3.079226746643298
1782905539374917376,2.0206491947174072,0.69354647397995,-0.5046560168266296,-0.48948273062705994,0.025301247835159302,-0.6008858680725098,-0.798934280872345,0.3268105387687683,0.19623810052871704,-0.31031864881515503,-0.03223519972134955,-0.024098479071948002,0.3161520716106848,0.9478543901230059,0.6446089400249453,0.03165816767607258,-3.0841746518620696
1782905539384837120,2.030569076538086,0.5263752937316895,-0.16134707629680634,-0.48322057723999023,0.025565441697835922,-0.6056190133094788,-0.7953439950942993,0.28107520937919617,0.14272838830947876,-0.11311852931976318,-0.029489355007514838,-0.02343266460640883,0.31902806727828853,0.9469965739959672,0.6505435174643308,0.032132816295897315,-3.0901706588291287
1782905539394757376,2.0404891967773438,0.30467426776885986,0.12736178934574127,-0.41650068759918213,0.027890756726264954,-0.6088663935661316,-0.7927823066711426,0.18402330577373505,0.019098937511444092,0.025021076202392578,-0.027337340253270406,-0.02400747219184857,0.320986726442114,0.946384586651593,0.6546307662118968,0.035166347049587314,-3.0957776033774937
1782905539404676096,2.050408124923706,-0.46236059069633484,0.17663025856018066,-0.1658618301153183,0.03096364624798298,-0.60817950963974,-0.7931954264640808,0.22021129727363586,-0.16330486536026,0.1365792155265808,-0.026264821455752308,-0.025251881445135425,0.32056922590596115,0.946524177403619,0.6537651929750089,0.0390167806083257,-3.0993394277158526
1782905539414596352,2.060328245162964,-0.9215307235717773,0.15952078998088837,-0.08358193933963776,0.03250594437122345,-0.6026303172111511,-0.7973581552505493,0.31261733174324036,-0.2747195363044739,0.19790136814117432,-0.026113029001922076,-0.025893571173749932,0.31725453711480506,0.9476271048778094,0.6467930738493806,0.04074449546227849,-3.100151872073039
1782905539424516096,2.0702481269836426,-1.269981026649475,0.37546348571777344,-0.22191238403320312,0.035273563116788864,-0.5935689210891724,-0.8040097951889038,0.22011280059814453,-0.23394572734832764,0.2128537893295288,-0.026027932456576967,-0.027127058739094486,0.3118641154438438,0.949382699455526,0.6354862546526264,0.0438439427713654,-3.101196853224321
1782905539434436352,2.0801682472229004,-1.1668822765350342,0.4230201542377472,0.02200966514647007,0.039148081094026566,-0.5835238695144653,-0.8111518621444702,0.12903429567813873,-0.14644134044647217,0.21738660335540771,-0.026582135081160887,-0.02912553820573142,0.30590156397114754,0.9512462207017894,0.6230611658846471,0.048224914935139356,-3.1012500122645994
1782905539444356096,2.090088129043579,-1.185863971710205,0.5601012706756592,-0.033614713698625565,0.042453356087207794,-0.5743385553359985,-0.8175163269042969,0.1616024374961853,-0.17665326595306396,0.08233261108398438,-0.027301970079168642,-0.03088514248427827,0.3004795271605741,0.952897074083657,0.6117959410647313,0.05188307181419661,-3.1006937711773515
1782905539454275328,2.1000072956085205,-1.2965550422668457,0.39311346411705017,0.007824970409274101,0.046447597444057465,-0.5642727613449097,-0.824280858039856,0.12455765902996063,-0.16711151599884033,0.09147751331329346,-0.028284070316868394,-0.03305452193286406,0.29456234640092377,0.9546415478877022,0.5995520909552172,0.05628970846474919,-3.099756878985518
1782905539464195328,2.109927177429199,-1.3653285503387451,0.4066327214241028,-0.06305159628391266,0.05028782784938812,-0.553231954574585,-0.8315079808235168,0.13261927664279938,-0.20728135108947754,-0.037953078746795654,-0.028906099747152445,-0.03499453649847047,0.2881343220493399,0.9565137022343607,0.5862390454723303,0.060404292903215556,-3.0994063661584392
1782905539474115072,2.119847059249878,-1.3995059728622437,0.34695348143577576,0.1983722448348999,0.05301906168460846,-0.541569709777832,-0.8389822840690613,0.16203832626342773,-0.20795726776123047,-0.08507472276687622,-0.0298660859725682,-0.0364277196565321,0.28139274984933477,0.9584358299409727,0.5723032145737766,0.06311057459371601,-3.0978646912997547
1782905539484035328,2.1297671794891357,-1.377563714981079,0.4224942922592163,-0.021105246618390083,0.05523904785513878,-0.5302388668060303,-0.8460469841957092,0.1635414958000183,-0.24390053749084473,-0.10216468572616577,-0.03129853206557641,-0.037722737233118434,0.2748699918105692,0.960231239774536,0.5588822402493213,0.06519821813164865,-3.09514082294546
1782905539493955072,2.1396870613098145,-1.432083249092102,0.40394142270088196,0.0943135917186737,0.058641161769628525,-0.5182913541793823,-0.8531911969184875,0.07430866360664368,-0.17879116535186768,-0.0014382600784301758,-0.03218097856407734,-0.03944302099273636,0.2680459675321093,0.9620602656139849,0.5448518286716584,0.06862363612442886,-3.093895893643989
1782905539503874304,2.149606227874756,-1.350358247756958,0.2719426453113556,0.1856866329908371,0.059894610196352005,-0.5065043568611145,-0.8601546287536621,0.1817893385887146,-0.1872822642326355,-0.02981424331665039,-0.03367892198524288,-0.04020416403570522,0.2613547808721372,0.9638168837723191,0.5311257975525536,0.06952016154861511,-3.0906501547330856
1782905539513794304,2.1595261096954346,-1.0067381858825684,0.5541329979896545,0.17545121908187866,0.062391456216573715,-0.49659907817840576,-0.8657347559928894,0.1545732617378235,-0.11845219135284424,-0.0634644627571106,-0.035429483218875256,-0.04170717288826448,0.25572082650354927,0.9652005124926081,0.5196761548448258,0.07194325598322082,-3.0873455238662935
1782905539523714304,2.1694462299346924,-0.9848896861076355,0.4863766133785248,0.14556682109832764,0.06609465181827545,-0.48851272463798523,-0.8700498938560486,0.13294097781181335,-0.10363510251045227,-0.020330965518951416,-0.03725989214961681,-0.04388428782707936,0.2510960601948354,0.966248706230871,0.5103844463841757,0.07582087718799568,-3.0842970580216362
1782905539533634304,2.179366111755371,-0.9028711318969727,0.32131725549697876,0.19625231623649597,0.06801201403141022,-0.4804578721523285,-0.874376654624939,0.1453973948955536,-0.08004319667816162,0.00927966833114624,-0.038725586400045434,-0.04502548670118491,0.24654486061886616,0.9673099815679035,0.501176731992475,0.07762712693016235,-3.0814462175885167
1782905539543554304,2.189286231994629,-0.9175155758857727,0.3470572531223297,0.06760884076356888,0.07028985023498535,-0.47271621227264404,-0.8784069418907166,0.10663580894470215,-0.12522995471954346,-0.05286747217178345,-0.03992646860367239,-0.046281617044248435,0.24218700627951606,0.9683023383104771,0.4923705885938318,0.07984955253253376,-3.079247181487126
1782905539553473280,2.199205160140991,-0.8754152655601501,0.2603689134120941,0.17828981578350067,0.07224180549383163,-0.4647822976112366,-0.8824729919433594,0.08300112932920456,-0.11721840500831604,-0.07007217407226562,-0.04119845022700063,-0.04736969121380369,0.2377385596374785,0.9692983695651686,0.48338873850763475,0.08168077543525111,-3.076782962951503
1782905539563393280,2.209125280380249,-0.4137618839740753,0.12414290010929108,0.06356935948133469,0.07380308210849762,-0.4594804644584656,-0.8851162791252136,0.11551272869110107,-0.08119946718215942,-0.20106536149978638,-0.042214948273572625,-0.0482629160909437,0.23476061656320688,0.9699361655378852,0.4774101633432837,0.08318991578901432,-3.074855513021017
1782905539573313280,2.2190451622009277,-0.42582952976226807,0.06600499153137207,-0.02121986262500286,0.074106864631176,-0.455718070268631,-0.8870339393615723,0.1734059453010559,0.0015707314014434814,-0.12686681747436523,-0.04256630757788158,-0.04838950979222614,0.23268324269574947,0.9704148348948025,0.47317875155140604,0.08335100279874323,-3.0740280797434485
1782905539583233280,2.2289652824401855,-0.20293760299682617,0.02660379186272621,-0.03162989392876625,0.0741366446018219,-0.4532619118690491,-0.8882890343666077,0.1243649423122406,-0.07292217016220093,-0.14485305547714233,-0.04260449160713431,-0.04833907263181845,0.231341350130214,0.9707364899742367,0.4704213457219835,0.08326706831407898,-3.073836814260654
1782905539593152256,2.238884210586548,-0.13912566006183624,-0.054928429424762726,0.14621689915657043,0.07376471161842346,-0.45174485445022583,-0.8890924453735352,0.11458978801965714,-0.20647352933883667,-0.07894039154052734,-0.04284281699601014,-0.04815783612688301,0.23050943976265018,0.9709329474796216,0.46872016475314404,0.08277672076515914,-3.073172398966156
1782905539603072256,2.2488040924072266,0.05710669606924057,-0.1027689203619957,0.39234864711761475,0.0722038522362709,-0.4517546594142914,-0.8892155885696411,0.1803138554096222,-0.19474497437477112,-0.07613170146942139,-0.0441800482993256,-0.04767142617083671,0.23047699730783924,0.9709047116479412,0.4687311526403449,0.08102173740523065,-3.0700015598434516
1782905539612992256,2.2587242126464844,-0.238832026720047,0.02144502103328705,0.12313062697649002,0.0697341114282608,-0.4511105418205261,-0.8897395133972168,0.1548294872045517,-0.09533721208572388,-0.004211902618408203,-0.045558875825331545,-0.04670602958868132,0.23010601718747484,0.9709758823740692,0.46800928920879914,0.07821598098271397,-3.066473446785124
1782905539622912256,2.268644094467163,-0.12600666284561157,0.06611581891775131,0.14838485419750214,0.06957006454467773,-0.4498290419578552,-0.8904009461402893,0.10550928860902786,-0.12023931741714478,0.04665094614028931,-0.046026944905809025,-0.04669137358389155,0.2293892753192232,0.9711240985662559,0.46657389750320116,0.07797499106946561,-3.065409218372515
1782905539632832256,2.278564214706421,-0.1795688271522522,-0.09688535332679749,0.34033864736557007,0.06871777027845383,-0.44886893033981323,-0.8909514546394348,0.15851610898971558,-0.21278265118598938,-0.04834902286529541,-0.047378733256760765,-0.04654037993777083,0.22881925756122495,0.971200783992505,0.4654991909204537,0.07697612791651963,-3.0623579697000256
1782905539642751232,2.288483142852783,-0.31053805351257324,-0.06870990991592407,0.19603605568408966,0.06635276228189468,-0.4468304514884949,-0.8921546339988708,0.1576615273952484,-0.17366820573806763,-0.03080374002456665,-0.0488194958870861,-0.045594425487675984,0.22769242189370778,0.9714391485590113,0.463219294831114,0.07423693417225477,-3.058683286715152
1782905539652671232,2.298403263092041,-0.05111657828092575,-0.12108074873685837,0.300152450799942,0.0647643506526947,-0.44532310962677,-0.8930245637893677,0.0933014377951622,-0.08060154318809509,-0.02668362855911255,-0.04977081064857389,-0.044949277422418076,0.22686399330199475,0.9716147320564855,0.461535107322294,0.07239572789580388,-3.056249066389572
1782905539662591232,2.3083231449127197,-0.11982852965593338,-0.13454754650592804,0.24572598934173584,0.06182467192411423,-0.4449288547039032,-0.8934293985366821,0.20236599445343018,-0.0467093288898468,-0.08359086513519287,-0.0512217215330368,-0.04376268872288666,0.22664982208349393,0.9716434744961834,0.46109480309106454,0.06908914680768599,-3.0524797598022784
1782905539672511232,2.3182432651519775,0.13332396745681763,-0.2029602825641632,0.25003835558891296,0.05923373997211456,-0.4453735947608948,-0.8933833241462708,0.13600245118141174,-0.028259187936782837,-0.05368393659591675,-0.05192460182964789,-0.04260997265352098,0.22692012270064246,0.97159429745271,0.4615914937821913,0.0662058146394378,-3.050371485705724
1782905539682431232,2.3281631469726562,0.17474676668643951,-0.2222207933664322,0.4560823440551758,0.055102039128541946,-0.4471144676208496,-0.8927779197692871,0.18851977586746216,-0.09538125991821289,-0.08535623550415039,-0.0535130252431642,-0.0409186653319701,0.2278962663126814,0.9713522525756116,0.4635367823843331,0.06164156822671059,-3.0460737263256967
1782905539692350208,2.3380820751190186,0.10607543587684631,-0.136115163564682,0.33831197023391724,0.051763251423835754,-0.4487208425998688,-0.8921716213226318,0.12471989542245865,-0.09690293669700623,-0.08561158180236816,-0.05514265049016652,-0.03964292511950303,0.22878514015608256,0.9711050507054535,0.46533347336545827,0.057954418351304986,-3.041884060027289
1782905539702270208,2.3480021953582764,-0.06303954869508743,-0.2398729920387268,0.27687737345695496,0.04816851392388344,-0.44956880807876587,-0.891946017742157,0.08780254423618317,-0.16258326172828674,-0.07146340608596802,-0.05648696764931187,-0.03814324314669039,0.22928606320531367,0.970969670125354,0.46628256726920364,0.05395144042832543,-3.0381861813404196
1782905539712190208,2.357922077178955,-0.37795916199684143,-0.22692853212356567,0.3478814959526062,0.04492148384451866,-0.44802987575531006,-0.8928893208503723,0.09190408140420914,-0.18708670139312744,-0.0006195902824401855,-0.05788286235087136,-0.036746928723856154,0.22848416037787944,0.9711304007339334,0.4645604325753001,0.05026786807123383,-3.0344195546945025
1782905539722110208,2.367842197418213,-0.6358197331428528,-0.2646884322166443,0.28311261534690857,0.04093391075730324,-0.44375860691070557,-0.8952109813690186,0.11021965742111206,-0.21444451808929443,-0.030341386795043945,-0.059178784689669965,-0.034842832778212485,0.2262310334028172,0.9716498365992221,0.45978852716370305,0.04569360514731437,-3.0306275292113996
1782905539732030208,2.3777620792388916,-0.5445598363876343,-0.25391554832458496,0.40491682291030884,0.03689546138048172,-0.43879804015159607,-0.8978279232978821,0.16133147478103638,-0.17587175965309143,-0.08296126127243042,-0.060631932304450555,-0.03291982931269138,0.22361197759871962,0.9722333914761118,0.4542606321653083,0.041071025681027586,-3.0265203958560725
1782905539741949440,2.387681245803833,-0.36926019191741943,-0.35681289434432983,0.2985951900482178,0.03236055374145508,-0.4353032410144806,-0.8997021317481995,0.14136075973510742,-0.05232188105583191,-0.15249818563461304,-0.06206290849937449,-0.030789494613082086,0.2218128821143786,0.9726249172247683,0.4503750801996032,0.035952577816552686,-3.022382625401854
1782905539751869184,2.3976011276245117,-0.15413230657577515,-0.2860603332519531,0.30219173431396484,0.027813373133540154,-0.4334506690502167,-0.9007480144500732,0.0891757681965828,0.0019168555736541748,-0.11739468574523926,-0.06333005801405991,-0.028676940712659787,0.22091545428316456,0.9728121080243977,0.4483183491844227,0.03086827721447314,-3.0186143587392014
1782905539761789440,2.4075212478637695,-0.18214184045791626,-0.33488884568214417,0.3237537443637848,0.023426860570907593,-0.43270236253738403,-0.9012324213981628,0.113291896879673,-0.07373684644699097,-0.06095629930496216,-0.06449163784173419,-0.026665199521977503,0.22061904200386384,0.9728602781378607,0.4474881429689356,0.02598839707613694,-3.015118941699873
1782905539771709184,2.4174411296844482,-0.20833297073841095,-0.3188038766384125,0.4377993643283844,0.018407342955470085,-0.4320172667503357,-0.9016774892807007,0.18770837783813477,-0.1397905945777893,-0.019541382789611816,-0.06611390624579234,-0.024436436994141976,0.22037270244118415,0.9728657142741796,0.4467283566588522,0.02041171851822233,-3.0105222858243157
1782905539781629440,2.427361249923706,-0.33634257316589355,-0.2997010350227356,0.36664527654647827,0.01359477173537016,-0.4302169978618622,-0.9026231169700623,0.18071064352989197,-0.14267423748970032,-0.013484060764312744,-0.0678337965013531,-0.022290717803420998,0.2195257642037846,0.9729902920116572,0.44473314949337006,0.015060265797363439,-3.0057895126030343
1782905539791548160,2.4372801780700684,-0.4382726848125458,-0.33759942650794983,0.40746089816093445,0.008725229650735855,-0.4275791347026825,-0.9039358496665955,0.15433019399642944,-0.1225307285785675,-0.05028778314590454,-0.06942242070810699,-0.02005062442434624,0.2182431140879549,0.9732155765254578,0.4418130476339558,0.009652187896131448,-3.001335467684208
1782905539801468160,2.447200059890747,-0.5512655377388,-0.3324802815914154,0.42079561948776245,0.00397935975342989,-0.4237292408943176,-0.9057801365852356,0.12227186560630798,-0.11484497785568237,-0.02828657627105713,-0.0710898693337226,-0.01783890766949773,0.2163138735885936,0.9735688535916369,0.4375584828904543,0.0043932670668693306,-2.9967884382202308
1782905539811388160,2.457120180130005,-0.6253761053085327,-0.313901424407959,0.4541396200656891,-0.0007577664800919592,-0.41868481040000916,-0.9081313014030457,0.08701569586992264,-0.12397876381874084,0.006138503551483154,-0.07286928962456332,-0.01560226480900933,0.21375434436532464,0.97404089581283,0.4319965853711651,-0.0008344237208662331,-2.9920651050070664
1782905539821308160,2.4670400619506836,-0.6855624914169312,-0.3110997974872589,0.3513701260089874,-0.005416786298155785,-0.41326138377189636,-0.9105963110923767,0.09573356062173843,-0.10092929005622864,-0.02443176507949829,-0.07462836346922624,-0.0133791445859262,0.21100434136212498,0.974540297079503,0.4260327032399506,-0.0059485440429166364,-2.987448291267173
1782905539831228160,2.4769601821899414,-0.42348727583885193,-0.27443423867225647,0.4303932785987854,-0.009472048841416836,-0.40834832191467285,-0.9127770066261292,0.09876648336648941,-0.012534856796264648,0.005504727363586426,-0.07625567673741637,-0.01145135111424125,0.2085194226328727,0.9749736160557925,0.42064392804983425,-0.01037680466421221,-2.983269065699997
1782905539841147136,2.4868791103363037,-0.4310184419155121,-0.29569530487060547,0.4252469837665558,-0.0137983039021492,-0.4045402407646179,-0.9144160747528076,0.1467176079750061,-0.00297623872756958,-0.023144960403442383,-0.07798998776996909,-0.009451028827932632,0.20664615143598924,0.975256684252691,0.4164760544297731,-0.015088597562782066,-2.9788066311937835
1782905539851067392,2.4967992305755615,-0.3562455475330353,-0.14462769031524658,0.35911327600479126,-0.017322460189461708,-0.4010554254055023,-0.9158899784088135,0.14986030757427216,-0.030020594596862793,0.04192763566970825,-0.07973712819424034,-0.007871572713747567,0.20492204468474554,0.9754931941326672,0.4126687077074383,-0.018910998775114388,-2.974516215969204
1782905539860987136,2.5067191123962402,-0.433788537979126,-0.2553422152996063,0.38564157485961914,-0.02071318030357361,-0.39772164821624756,-0.9172722697257996,0.1462319791316986,-0.07049429416656494,0.016500234603881836,-0.08143807416003913,-0.006352613262483208,0.203281812990013,0.9757069409582372,0.4090322970840768,-0.022577441288668443,-2.9703641558193024
1782905539870907392,2.516639232635498,-0.5874495506286621,-0.2016923874616623,0.3776472210884094,-0.024236153811216354,-0.3931516408920288,-0.919154167175293,0.17139191925525665,-0.08688986301422119,0.02993297576904297,-0.08298578900045821,-0.004673981764467767,0.2010001679149571,0.976058651454379,0.4040567629676618,-0.02636177974991306,-2.966558202946374
1782905539880827136,2.5265591144561768,-0.6014444828033447,-0.2579657733440399,0.4531984329223633,-0.027812836691737175,-0.3876412808895111,-0.9213905930519104,0.16782748699188232,-0.131081223487854,-0.019649386405944824,-0.08485109354739306,-0.002983963695380869,0.19823164775137123,0.9764709409594159,0.3980714123930943,-0.030176553838654058,-2.962149507399247
1782905539890746368,2.536478281021118,-0.7071889638900757,-0.2889247238636017,0.28918251395225525,-0.03192395716905594,-0.3816286325454712,-0.9237642884254456,0.16116589307785034,-0.10904824733734131,-0.06022924184799194,-0.08635554896615408,-0.0009188986333019932,0.1952357955793256,0.9769466536546679,0.3915576287997634,-0.03454480722685451,-2.9584127487631853
1782905539900666112,2.546398162841797,-0.5599289536476135,-0.24033640325069427,0.30789121985435486,-0.0355544313788414,-0.37566033005714417,-0.9260751605033875,0.1139998584985733,-0.028026163578033447,-0.07159024477005005,-0.08759899383060643,0.0009575942303042605,0.19225376430409655,0.9774271900114924,0.38510920404278415,-0.03837375023297218,-2.9553435880837857
1782905539910586368,2.5563182830810547,-0.5508962869644165,-0.2918752431869507,0.22525252401828766,-0.03898518905043602,-0.37070703506469727,-0.9279312491416931,0.08447164297103882,-0.029927700757980347,-0.1589827537536621,-0.08847858678566223,0.002759935724076201,0.18980712514620526,0.977822654593688,0.3797701688072441,-0.04198831908695828,-2.9530421916048195
1782905539920506112,2.5662381649017334,-0.5325942635536194,-0.26482632756233215,0.38512131571769714,-0.04248024895787239,-0.36570003628730774,-0.9297628402709961,0.1397397816181183,-0.04747745394706726,-0.1591043472290039,-0.08962808958550138,0.004548019115999699,0.1873443341261762,0.9781862353684725,0.3743848277008387,-0.04565758603436361,-2.950199857817518
1782905539930426368,2.576158285140991,-0.5552359223365784,-0.37488171458244324,0.3105123043060303,-0.04699099063873291,-0.3606571853160858,-0.9315139651298523,0.2057129144668579,-0.06425431370735168,-0.1560562252998352,-0.0911596885085255,0.006783755255943111,0.1849243155291879,0.9784922242776511,0.36897241928923813,-0.050403098499406294,-2.9463945638835596
1782905539940345344,2.5860772132873535,-0.4766923785209656,-0.2684447467327118,0.23065102100372314,-0.050784703344106674,-0.35569894313812256,-0.9332197904586792,0.14860880374908447,-0.008772492408752441,-0.1467820405960083,-0.09195664992695535,0.008794599700455272,0.18251783584781595,0.978853324022138,0.363661806366303,-0.05436517942440128,-2.9442579288125863
1782905539950265088,2.5959970951080322,-0.4326048195362091,-0.4015420973300934,0.3810573220252991,-0.05507331341505051,-0.35150933265686035,-0.9345630407333374,0.2159925103187561,-0.06317874789237976,-0.17291980981826782,-0.09312798992951724,0.010951379708941836,0.18055063864806334,0.9790857103359071,0.35918284248888216,-0.05886140648467667,-2.9412395655276384
1782905539960185344,2.60591721534729,-0.3632350564002991,-0.45776090025901794,0.30560970306396484,-0.06048469990491867,-0.3477529287338257,-0.9356332421302795,0.21694833040237427,-0.08092749118804932,-0.17253631353378296,-0.09440273611322814,0.013638956119556565,0.17887809029902738,0.9792368613763106,0.3551733807649188,-0.06455590983442218,-2.937787667740604
1782905539970105088,2.6158370971679688,-0.3912961781024933,-0.5423526763916016,0.3258485496044159,-0.06604331731796265,-0.34393224120140076,-0.9366690516471863,0.13611167669296265,-0.09382715821266174,-0.12677699327468872,-0.09541424527257575,0.016454543355978155,0.17718556221626483,0.9794032662173856,0.35110141776417975,-0.07039220680771732,-2.93487307916342
1782905539980025344,2.6257572174072266,-0.28756341338157654,-0.5141071677207947,0.42225125432014465,-0.07238562405109406,-0.34053099155426025,-0.9374427795410156,0.15756019949913025,-0.07150208950042725,-0.11980819702148438,-0.09673835831204765,0.019591391456689387,0.17576912406220602,0.9794708620506833,0.34748158565395876,-0.07706313255577783,-2.931167488019369
1782905539989944320,2.635676145553589,-0.3824238181114197,-0.4629656672477722,0.308531790971756,-0.07825323939323425,-0.33754533529281616,-0.9380509257316589,0.12517401576042175,-0.07515913248062134,-0.08715659379959106,-0.09808498414379724,0.022466026836606975,0.17455602570506829,0.9794921161818745,0.3443079682747901,-0.08322839352154618,-2.927501414773529
1782905539999864320,2.6455962657928467,-0.4954582154750824,-0.4956005811691284,0.21233360469341278,-0.08360443264245987,-0.33318495750427246,-0.9391475319862366,0.12391816079616547,-0.013952493667602539,-0.020508229732513428,-0.09889183666220808,0.02524677649961802,0.17259441626612146,0.9796908899865261,0.33967953416565566,-0.08878756721159352,-2.9251543769506223
1782905540009784320,2.6555161476135254,-0.5321125984191895,-0.49605998396873474,0.14068114757537842,-0.08873593807220459,-0.32824426889419556,-0.9404156804084778,0.1640228033065796,-0.04973119497299194,-0.04852169752120972,-0.09913765550597806,0.02804498438678428,0.1703104304945192,0.979989605702364,0.33444426286606466,-0.09407965848175205,-2.9240628583324564
1782905540019704320,2.665436267852783,-0.5516820549964905,-0.5792152881622314,0.21401607990264893,-0.0942343920469284,-0.32316675782203674,-0.9416385293006897,0.1867484301328659,-0.12293919920921326,-0.0715298056602478,-0.09954191455235337,0.03100763209107585,0.16798588533127995,0.9802605383741598,0.3290738903986444,-0.09974281771610093,-2.9226192197631513
1782905540029624320,2.675356149673462,-0.6895943880081177,-0.5279673337936401,0.18371155858039856,-0.09977962076663971,-0.31688278913497925,-0.9432016611099243,0.1838097721338272,-0.08996230363845825,-0.045140624046325684,-0.09989576577211805,0.03406283092889093,0.16504213291350478,0.9806231367962458,0.3224411035364993,-0.1053962168050415,-2.9213974556616855
1782905540039543040,2.685275077819824,-0.6714209914207458,-0.48870885372161865,0.1772025227546692,-0.10506686568260193,-0.31045079231262207,-0.9447652101516724,0.17827853560447693,-0.08772730827331543,-0.04707133769989014,-0.10026355789830016,0.03699264973767938,0.16201526790922857,0.9809841969841331,0.3156672337205419,-0.11075440829014241,-2.9202408768972536
1782905540049463296,2.695195198059082,-0.6174259185791016,-0.4989795684814453,0.39431923627853394,-0.11054982244968414,-0.30409446358680725,-0.946205735206604,0.13673391938209534,-0.08765968680381775,-0.028312087059020996,-0.10114783025880593,0.039933944835176066,0.15906731555978157,0.981260404704593,0.3089877211041798,-0.11630756932622505,-2.918026113620686
1782905540059383040,2.7051150798797607,-0.566504180431366,-0.42270585894584656,0.26360464096069336,-0.11565152555704117,-0.2981550097465515,-0.9474852681159973,0.12738552689552307,-0.09465199708938599,-0.043649375438690186,-0.10237189549703045,0.04261115322320727,0.1563382906348677,0.9814593829835851,0.30275915038712337,-0.1214607206480834,-2.9151819897080298
1782905540069303296,2.7150352001190186,-0.502737283706665,-0.6066044569015503,0.33530738949775696,-0.12146175652742386,-0.2929355502128601,-0.9483858942985535,0.09742915630340576,-0.09660604596138,-0.09826022386550903,-0.10317086199237736,0.04568144052567571,0.15401384134923268,0.9816051216748418,0.2972956487766569,-0.12737865986103306,-2.913052584678445
1782905540079223040,2.7249550819396973,-0.7829532623291016,-0.4931735098361969,0.25429749488830566,-0.12769728899002075,-0.28664180636405945,-0.9494892954826355,0.15505628287792206,-0.12909916043281555,-0.106403648853302,-0.1042217999959283,0.04898498125772921,0.15118146850207678,0.9817751437453952,0.29071971147782727,-0.1336883103771761,-2.910472335075866
1782905540089142272,2.7348742485046387,-0.7074916362762451,-0.4967215657234192,0.14361153542995453,-0.13250482082366943,-0.2790682315826416,-0.9510853886604309,0.11980950832366943,-0.0563199520111084,-0.03576153516769409,-0.10443408846377658,0.05176429913617223,0.1475729318980154,0.9821589388516628,0.28282365640065166,-0.13842855207942392,-2.909988568701974
1782905540099062272,2.7447941303253174,-0.5158231854438782,-0.5848690271377563,0.35247737169265747,-0.13836531341075897,-0.2730769217014313,-0.9519895315170288,0.16543440520763397,-0.07761582732200623,-0.1544100046157837,-0.10517911732211492,0.05491606618153636,0.14487741890199216,0.9823095904409034,0.2765900625672564,-0.14433265341620774,-2.9081358854903776
1782905540108982272,2.754714250564575,-0.3109220564365387,-0.6486053466796875,0.2872684895992279,-0.14493682980537415,-0.26893553137779236,-0.952190637588501,0.16443756222724915,-0.07360902428627014,-0.13495230674743652,-0.10623075271042057,0.05829073330526579,0.14320221591371998,0.982247612264959,0.27228767600384307,-0.15105460529625533,-2.9053968924917104
1782905540118902272,2.764634132385254,-0.38833189010620117,-0.6625145077705383,0.15809427201747894,-0.15198232233524323,-0.26541316509246826,-0.952080488204956,0.11751271784305573,-0.10093510150909424,-0.12232136726379395,-0.10682436499474116,0.06194295552862498,0.14185497299738323,0.9821551874691662,0.2686324278289698,-0.15829623759180578,-2.90347938860461
1782905540128822272,2.7745542526245117,-0.3401600420475006,-0.7290616631507874,0.18167220056056976,-0.15856721997261047,-0.26161280274391174,-0.9520583748817444,0.04572845995426178,-0.09599217772483826,-0.09083408117294312,-0.10667242415264412,0.06548598822943433,0.14029395764338506,0.982165996629623,0.2646928330049059,-0.16503709482461243,-2.9032023864336347
1782905540138741248,2.784473180770874,-0.35518959164619446,-0.6011188626289368,0.13498538732528687,-0.16517393290996552,-0.2581261098384857,-0.9518868327140808,0.05816406011581421,-0.1017829179763794,-0.1355307698249817,-0.1072073382377213,0.06892734864509378,0.13894466058669924,0.9820641873584579,0.2610820828625063,-0.17181187249892688,-2.9015117355498004
1782905540148661248,2.7943930625915527,-0.4886210560798645,-0.6211729645729065,-0.07258787751197815,-0.17076128721237183,-0.2541128098964691,-0.951980710029602,-0.006255924701690674,-0.042350202798843384,-0.05659472942352295,-0.106685301194836,0.07203054072147891,0.13719054883354803,0.9821449260195001,0.2569302845028045,-0.17748723294632582,-2.902204977041793
1782905540158581248,2.8043131828308105,-0.4870396852493286,-0.5975720286369324,0.08476100116968155,-0.17633125185966492,-0.24960385262966156,-0.9521581530570984,0.08273385465145111,-0.07083070278167725,-0.004979848861694336,-0.10603011671940873,0.07516695708206318,0.1351696627656227,0.9822610134542381,0.25227114242783144,-0.18311656853890484,-2.9032506156090756
1782905540168501248,2.8142330646514893,-0.7273670434951782,-0.5396217703819275,-0.04290708154439926,-0.18157830834388733,-0.2438550591468811,-0.9526615738868713,0.11694207787513733,-0.1050524115562439,0.04326826333999634,-0.10564770043390699,0.07816270144906584,0.1325134526139457,0.9824303542197473,0.2463389342231081,-0.18834200231676781,-2.903957729699897
1782905540178421248,2.824153184890747,-0.864398181438446,-0.44774776697158813,-0.06221766397356987,-0.18602100014686584,-0.2362917959690094,-0.9537097811698914,0.07161059975624084,-0.0949154794216156,0.09267157316207886,-0.1046471219575999,0.0809203872721583,0.12882932842743497,0.9828040466878007,0.23854780007976017,-0.19263135496455214,-2.9062796865630043
1782905540188340224,2.8340721130371094,-0.9856605529785156,-0.35526272654533386,-0.20995034277439117,-0.18914072215557098,-0.22794173657894135,-0.9551274180412292,0.10170786082744598,-0.11374832689762115,0.07208603620529175,-0.10346060142492282,0.08306221643151573,0.1246473630146188,0.9832902459102136,0.229963247519494,-0.19549742629627145,-2.9092771679067253
1782905540198260224,2.843992233276367,-1.2191990613937378,-0.43807852268218994,-0.1194249615073204,-0.1921244114637375,-0.21758857369422913,-0.9569448232650757,0.09785561263561249,-0.05163751542568207,0.14322412014007568,-0.10181656077964035,0.08527661511340477,0.11939630207421742,0.9839237363127409,0.2193431603852727,-0.19813442529775285,-2.9134783852925312
1782905540208180224,2.853912115097046,-1.2525876760482788,-0.3534310460090637,-0.13054080307483673,-0.19599296152591705,-0.2060898393392563,-0.9587041735649109,0.19388726353645325,-0.03530421853065491,0.17356324195861816,-0.10061005615618138,0.08792512336617174,0.11365329738299888,0.9844947085165378,0.2075773221424383,-0.20165659677805717,-2.9168347233746115
1782905540218100224,2.8638322353363037,-1.1252998113632202,-0.227885901927948,-0.20449252426624298,-0.19848400354385376,-0.19513367116451263,-0.960482656955719,0.13476330041885376,0.016727909445762634,0.2242003083229065,-0.0990401253641873,0.08987663177320923,0.10807802111351805,0.9851052774529838,0.19639374050270247,-0.20378180400875495,-2.921046462675829
1782905540228019200,2.873751163482666,-0.977573812007904,-0.08090566098690033,-0.3082250952720642,-0.19962391257286072,-0.18553143739700317,-0.9621477723121643,0.11423574388027191,0.05699141323566437,0.2629290819168091,-0.09731724691152988,0.09108067633714682,0.10310388841803561,0.9856993981669185,0.18661266464674944,-0.20457490587920654,-2.9255620687378414
1782905540237939456,2.883671283721924,-0.774786651134491,-0.06672406196594238,-0.3896128833293915,-0.19968025386333466,-0.17785851657390594,-0.9635840058326721,0.11902229487895966,0.09810082614421844,0.3217535614967346,-0.09501451508216686,0.09169106584534463,0.09899869985566132,0.9862881403908119,0.17880984746836173,-0.20433446892221882,-2.9311336693668313
1782905540247859200,2.8935911655426025,-0.33535778522491455,0.09414041042327881,-0.2655392289161682,-0.19884513318538666,-0.17299914360046387,-0.9646407961845398,0.17997002601623535,0.17627979815006256,0.34908604621887207,-0.09323353556248037,0.09165864356612616,0.09632384780953603,0.986725857653946,0.1738739172567779,-0.20328648273264646,-2.9353979189567463
1782905540257779456,2.9035112857818604,0.14218750596046448,0.1792433261871338,-0.42368173599243164,-0.19703786075115204,-0.17297878861427307,-0.9650152325630188,0.16285817325115204,0.26146450638771057,0.3294256329536438,-0.09163331247773421,0.09090003156807813,0.09607060323828931,0.9869706265038483,0.1738532466861927,-0.20141257964145248,-2.938825983341364
1782905540267699200,2.913431167602539,0.6962484121322632,0.3525199592113495,-0.4082430899143219,-0.19349168241024017,-0.17764614522457123,-0.964884877204895,0.12925218045711517,0.31773707270622253,0.385600209236145,-0.08975043794887036,0.08909115575178086,0.09808327360385315,0.9871106014415933,0.17859402561871857,-0.19790842932005417,-2.942469192118161
1782905540277619456,2.923351287841797,1.0912140607833862,0.4089459478855133,-0.17433097958564758,-0.18914572894573212,-0.1874135583639145,-0.9638983607292175,0.16331259906291962,0.172597274184227,0.33978337049484253,-0.08906840377712294,0.08655210580463017,0.1027596733591539,0.9869225173498393,0.18852838131236777,-0.1937678940574071,-2.943206381800426
1782905540287538176,2.933270215988159,0.9204438924789429,0.4338979125022888,-0.3429419994354248,-0.1838863044977188,-0.19768869876861572,-0.9628629088401794,0.1762874275445938,0.05207407474517822,0.40602391958236694,-0.08828644215340593,0.08354785045964509,0.10764894483211065,0.9867304476444633,0.19899952366553034,-0.1887063678462104,-2.9442264739881785
1782905540297458176,2.943190097808838,0.8205750584602356,0.7158518433570862,-0.15124954283237457,-0.1773783266544342,-0.20683829486370087,-0.9621615409851074,0.1957956850528717,-0.05990059673786163,0.4201998710632324,-0.08766679950049504,0.07994756049340662,0.11192681891491166,0.9866079684233724,0.20834225605994325,-0.18230707399444634,-2.9452321020808157
1782905540307378176,2.9531102180480957,0.5791476964950562,0.9118293523788452,-0.1527305543422699,-0.16898971796035767,-0.21387846767902374,-0.9621322751045227,0.13685472309589386,-0.10252778232097626,0.3991592526435852,-0.08773769400481439,0.07540729270380693,0.11509826925210216,0.9865943081990368,0.21554358934246687,-0.1738674033903752,-2.9453417553901424
1782905540317298176,2.9630300998687744,0.2801567614078522,0.9571790099143982,-0.176016166806221,-0.1596749871969223,-0.21819016337394714,-0.9627549052238464,0.1179269552230835,-0.05880261957645416,0.45732277631759644,-0.08747411984580282,0.0705525469026479,0.11681138704720126,0.9867754079368707,0.21995956688015483,-0.1643560873116577,-2.9465724640624
1782905540327217408,2.972949266433716,0.5500683784484863,1.3095943927764893,-0.011872800998389721,-0.14853820204734802,-0.22205115854740143,-0.9636543393135071,0.12189635634422302,-0.015818104147911072,0.4497230648994446,-0.08784979795575898,0.06472401199690199,0.1182524157156825,0.9869698920431172,0.22391765198801217,-0.1529368993179907,-2.946813648125868
1782905540337137152,2.9828691482543945,0.7768123149871826,1.157561182975769,-0.2712276577949524,-0.13590267300605774,-0.2287362515926361,-0.9639554619789124,0.05693845450878143,0.0475991815328598,0.38151228427886963,-0.08823589314725945,0.05802310089571647,0.12106021521722699,0.9870116973272003,0.23077932494699782,-0.14006127200736604,-2.9470126750240633
1782905540347057408,2.9927892684936523,1.2025985717773438,1.0448232889175415,-0.3042866289615631,-0.12515060603618622,-0.23829039931297302,-0.963096559047699,0.07807725667953491,0.2782531976699829,0.41950225830078125,-0.08772099613495843,0.052264655078818896,0.12537990427248732,0.9868399969502917,0.24060515560633158,-0.12922195963825078,-2.9486344459372464
1782905540356977152,3.002709150314331,1.6841305494308472,0.9765418767929077,-0.3925397992134094,-0.11430835723876953,-0.25273337960243225,-0.9607598185539246,0.09448719024658203,0.33922019600868225,0.34157341718673706,-0.08700196170628398,0.046285807441508314,0.1322032936783615,0.9863116621490513,0.2555043200793076,-0.1184203605325493,-2.9504005128689204
1782905540366897408,3.012629270553589,1.7429521083831787,0.9523812532424927,-0.374987930059433,-0.10435067117214203,-0.2696893513202667,-0.9572766423225403,0.06789743155241013,0.2470605969429016,0.35429513454437256,-0.08613349929193308,0.04067324070157069,0.14038290870812092,0.985504589337107,0.27307040787163256,-0.10857913626883774,-2.9523028127550917
1782905540376816384,3.022548198699951,1.316981315612793,1.3085565567016602,-0.5002688765525818,-0.09218057990074158,-0.285021036863327,-0.9540784955024719,0.07567057013511658,0.037660807371139526,0.4994123578071594,-0.08516275289056503,0.034033525532573855,0.14765662278988217,0.9847773962999865,0.28902836984270885,-0.09631843406039794,-2.9550357936012617
1782905540386736128,3.03246808052063,0.7609843611717224,1.5887442827224731,-0.35849782824516296,-0.07728978991508484,-0.2951154112815857,-0.9523304104804993,0.03358861804008484,-0.1622973084449768,0.5895374417304993,-0.08429731378862587,0.026228784856983142,0.15214089477311193,0.9844080203061134,0.2995762976668531,-0.08098109879282822,-2.958516375660294
1782905540396656384,3.0423882007598877,0.1451784372329712,1.5714917182922363,-0.4664011299610138,-0.060855817049741745,-0.2997945547103882,-0.9520608186721802,0.09498973190784454,-0.3936563730239868,0.5323525667190552,-0.08365823355224696,0.017840541332652202,0.1537898041659064,0.9843941415063427,0.30447728923916856,-0.06383325044378904,-2.9622342124151944
1782905540406576128,3.0523080825805664,-0.37600985169410706,1.7632458209991455,-0.540635347366333,-0.0435781255364418,-0.29882821440696716,-0.9533113837242126,0.1988973468542099,-0.40846240520477295,0.5040774345397949,-0.0823701044307292,0.00936978449642671,0.15250082792312306,0.9848202550891889,0.3034645403210402,-0.04568057092014465,-2.9677155528488033
1782905540416496384,3.062228202819824,-0.614622950553894,1.743022084236145,-0.4784204661846161,-0.025254812091588974,-0.29399266839027405,-0.9554739594459534,0.23140105605125427,-0.29394373297691345,0.41343599557876587,-0.08114529971397016,0.0005276244117179,0.1492070157922186,0.9854707648755415,0.29840144883501046,-0.026425559136614978,-2.9733075964079854
1782905540426415104,3.0721471309661865,-0.5772007703781128,1.5866689682006836,-0.3453240990638733,-0.008382120169699192,-0.28847628831863403,-0.9574503302574158,0.21382646262645721,-0.13226956129074097,0.27463477849960327,-0.08036566843964273,-0.007621403571723369,0.1456596675654438,0.9860357574510371,0.29263508102536495,-0.00875440284373665,-2.9776543990015876
1782905540436335360,3.0820672512054443,-0.22143498063087463,1.6154457330703735,-0.3927353024482727,0.008407886140048504,-0.28442248702049255,-0.9586621522903442,0.13424652814865112,0.06912100315093994,0.239698588848114,-0.07966272572364022,-0.015802321756555264,0.14289577755682162,0.9863999952245842,0.28840399615028545,0.008770211929598929,-2.9816938326959836
1782905540446255104,3.091987133026123,0.25637686252593994,1.477912425994873,-0.3173040449619293,0.02398875169456005,-0.28441813588142395,-0.9584001302719116,0.01101490668952465,0.14589887857437134,0.1484789252281189,-0.07903631735168004,-0.023560804864783676,0.14228426111324352,0.9863839731524983,0.28839945608567324,0.02502477143278361,-2.9853136106925855
1782905540456175360,3.101907253265381,0.626981794834137,1.5282334089279175,-0.48992082476615906,0.03928282484412193,-0.2885867655277252,-0.9566475749015808,0.0010614171624183655,0.18227878212928772,0.1363350749015808,-0.07807552590686509,-0.03131124034418407,0.14386044517744356,0.9860162493035198,0.2927504648604558,0.041039948874950084,-2.989608141472569
1782905540466095104,3.1118271350860596,1.0236393213272095,1.4831039905548096,-0.3064679801464081,0.05496719107031822,-0.29650554060935974,-0.9534479975700378,-0.002507466822862625,0.18737468123435974,0.18278759717941284,-0.07713975564043399,-0.039433014509541224,0.14738059355589184,0.9852784079815634,0.3010315633692255,0.0575872140185388,-2.9940629433167785
1782905540476014080,3.121746063232422,1.1519277095794678,1.3162295818328857,-0.43538495898246765,0.06924190372228622,-0.3065156936645508,-0.9493438005447388,-0.005048178136348724,0.16137412190437317,0.17006224393844604,-0.0761166277541567,-0.04693213090897587,0.15207058612606214,0.9843160923708586,0.31153034888897746,0.07280766838787102,-2.9986793666826945
1782905540485934336,3.1316661834716797,1.2085626125335693,1.1826356649398804,-0.4030739963054657,0.08226248621940613,-0.31742310523986816,-0.9447091817855835,0.07470468431711197,0.13288331031799316,0.1843637228012085,-0.07463416218894053,-0.05377428708680201,0.1573331747128523,0.9832519387232264,0.32301080771453505,0.086857955677848,-3.004232302677531
1782905540495854080,3.1415860652923584,0.938665509223938,1.3491545915603638,-0.2877175807952881,0.09571142494678497,-0.3275100588798523,-0.9399874806404114,0.10268335789442062,0.017771899700164795,0.19775420427322388,-0.07354379301178342,-0.06087032383225488,0.16217600237787694,0.9821329549422086,0.3336670874789563,0.10147230506647709,-3.0092103069788334
1782905540505774336,3.151506185531616,0.15038929879665375,1.01839280128479,-0.018564026802778244,0.10721918940544128,-0.3329482078552246,-0.9368295073509216,0.007801569998264313,-0.10876321792602539,0.16558927297592163,-0.07361695479679078,-0.06697920664989222,0.16461781220265537,0.9813232872882813,0.3394284387791076,0.11395316810725074,-3.0113849289133414
1782905540515694080,3.161426067352295,-1.1568981409072876,0.5599791407585144,-0.07664170861244202,0.11517945677042007,-0.3278305232524872,-0.9376891255378723,-0.06883851438760757,-0.2874038517475128,0.18144828081130981,-0.0741969359600822,-0.07089500914483836,0.16164575229128483,0.9814985394689609,0.3340062759652746,0.12222107376876741,-3.0113167025402663
1782905540525613312,3.1713452339172363,-1.5944665670394897,0.8601850867271423,0.19654302299022675,0.12071195989847183,-0.31462550163269043,-0.9415091276168823,-0.18125882744789124,-0.43525242805480957,0.08073031902313232,-0.07551229027118174,-0.07331513563249233,0.15450026864005384,0.9823707977723919,0.32006208356250304,0.12751547409003922,-3.008769206686887
1782905540535533312,3.181265115737915,-1.5636193752288818,1.5793049335479736,-0.15112493932247162,0.13168199360370636,-0.3000807464122772,-0.9447811245918274,-0.09435899555683136,-0.22765973210334778,-0.11016577482223511,-0.07744372013304676,-0.07851255439982563,0.1464418300819539,0.9830529516103108,0.30477730957548277,0.13848614839897533,-3.005661674744494
1782905540545453312,3.191185235977173,-1.4139955043792725,1.2149409055709839,0.06800878047943115,0.14564546942710876,-0.2859436571598053,-0.9471133351325989,0.020599037408828735,0.1081635057926178,-0.12496918439865112,-0.07858705708483261,-0.08511154838862409,0.1385617965114107,0.9835551301112851,0.2899910656591884,0.15258304110581108,-3.0044520003457724
1782905540555373312,3.2011051177978516,-1.5314744710922241,0.9419691562652588,0.14969006180763245,0.15599070489406586,-0.2724896967411041,-0.949429452419281,0.06608571112155914,0.3390332758426666,-0.2031431794166565,-0.08071279404532045,-0.09001804629432505,0.13108024328899384,0.9839716230218328,0.27597970112016584,0.16284452396588778,-3.0005677464988123
1782905540565293312,3.2110252380371094,-1.2762795686721802,1.0279574394226074,0.073166623711586,0.1641172617673874,-0.25956442952156067,-0.951678454875946,-0.1040739119052887,0.5386629104614258,-0.24558717012405396,-0.08280558213670355,-0.0937886666049783,0.12395348380856852,0.9843691426354486,0.2625711359661572,0.17077069024544714,-2.9963503446631394
1782905540575212288,3.2209441661834717,-1.1378180980682373,0.9794679880142212,-0.5124470591545105,0.17454035580158234,-0.24737262725830078,-0.9530700445175171,-0.37761956453323364,0.6483125686645508,-0.2177215814590454,-0.0827041677487089,-0.09847779350338705,0.11733335563518711,0.9847309689695387,0.24996766142797164,0.18112775549262292,-2.996830907803146
1782905540585132288,3.2308642864227295,-0.18194550275802612,0.8138816356658936,0.011501331813633442,0.18344132602214813,-0.24052900075912476,-0.9531500935554504,-0.28938308358192444,0.5154771208763123,-0.22095268964767456,-0.08204833053384834,-0.10259791633111015,0.11357210568895663,0.984806184174103,0.24291081396247824,0.1901331925085544,-2.998624264001367
1782905540595052288,3.240784168243408,0.25072336196899414,0.5620949268341064,-0.09080240875482559,0.19064737856388092,-0.24156169593334198,-0.9514733552932739,-0.025043725967407227,0.22953778505325317,-0.22619998455047607,-0.0825816503643742,-0.10638607117857879,0.113777542350025,0.9843358449113273,0.24397489122133995,0.1977519676607392,-2.998514812547892
1782905540604972288,3.250704288482666,-0.24730347096920013,0.3677022159099579,-0.3152730464935303,0.19558487832546234,-0.24148298799991608,-0.9504906535148621,0.0015281587839126587,0.12836958467960358,-0.10436469316482544,-0.08180868280890578,-0.1088138498223525,0.1136406963482635,0.9841507551684885,0.24389377837562792,0.20293986023330965,-3.000677381045992
1782905540614892032,3.2606239318847656,-0.8439876437187195,0.42707687616348267,-0.04327935725450516,0.19943922758102417,-0.23589548468589783,-0.9510927200317383,0.10561449825763702,-0.04016652703285217,-0.08464336395263672,-0.08126989929108261,-0.11044520944017588,0.11070457768481465,0.9843483528161646,0.23813995042647973,0.20669989309369147,-3.001657938200254
1782905540624811008,3.270542860031128,-1.7800052165985107,0.6272467970848083,0.10964500904083252,0.20434269309043884,-0.22439932823181152,-0.9528321027755737,0.19566644728183746,-0.3736231327056885,-0.15202629566192627,-0.08256823346134144,-0.11252418169052414,0.1045096325693362,0.9846818926319164,0.22632660421235765,0.21125828258636187,-2.9983764465713785
1782905540634731008,3.2804629802703857,-4.208661079406738,0.8194540739059448,-0.06996363401412964,0.21129794418811798,-0.19602231681346893,-0.9575638175010681,0.06708341836929321,-0.4396435618400574,-0.13841396570205688,-0.08493480180154274,-0.11489871504975159,0.0895342524568775,0.9856815428162896,0.197299887081797,0.217181648538014,-2.9912588879164472
1782905540644651008,3.2903828620910645,-5.412013530731201,1.0609766244888306,-0.5975998044013977,0.2208913266658783,-0.14820179343223572,-0.9639726281166077,0.0016275793313980103,-0.1547004133462906,-0.02496469020843506,-0.08640411639170521,-0.11754966528350641,0.06477465705451184,0.9871781286284206,0.14874974436671953,0.22525798007234168,-2.983840321516576
1782905540654571008,3.3003029823303223,-4.83730411529541,0.8361254334449768,-0.7527390122413635,0.2315722554922104,-0.09672568738460541,-0.967997133731842,-0.011830434203147888,0.2187349647283554,-0.22099822759628296,-0.08636093811589109,-0.12052515650928543,0.038407363277817845,0.9882005541849531,0.09687715037625443,0.2348151382390444,-2.978686838324537
1782905540664491008,3.310222864151001,-3.4318008422851562,0.5778225660324097,-0.8921088576316833,0.23900194466114044,-0.05545930191874504,-0.9694340229034424,0.27238112688064575,0.42823150753974915,-0.6060817241668701,-0.08491508171495817,-0.12237424237948842,0.017536585520590942,0.9886892142662376,0.05548777260336229,0.24171729586014531,-2.976980816625321
1782905540674409984,3.3201420307159424,-3.228978157043457,0.604328989982605,-0.8371649384498596,0.24512074887752533,-0.022549817338585854,-0.9692302942276001,0.466717004776001,0.4069187045097351,-0.4981616735458374,-0.08261764661618623,-0.12403137530926589,0.0010393350672517347,0.9888323994564948,0.02255172855882983,0.24770854732256625,-2.977686071005079
1782905540684329984,3.330061912536621,-3.5209591388702393,0.49594148993492126,-0.8237796425819397,0.2504299581050873,0.0123441806063056,-0.9680560231208801,0.5487490892410278,0.2544099688529968,-0.08220642805099487,-0.08082567385804702,-0.12530042652364035,-0.016486145938123767,0.9886835890518149,-0.012344494574618057,0.2531440501281112,-2.9768829567361164
1782905540694249984,3.339982032775879,-3.2944817543029785,0.22245509922504425,-1.1293619871139526,0.25380685925483704,0.047672171145677567,-0.9660794138908386,0.41217824816703796,0.06441889703273773,-0.14726287126541138,-0.07810674937811854,-0.12570181483945778,-0.03404913891243232,0.9884022684737955,-0.0476902473923162,0.25691265360928967,-2.977712747724402
1782905540704169984,3.3499019145965576,-3.335538864135742,0.22426459193229675,-1.3171871900558472,0.25414180755615234,0.08234657347202301,-0.9636549949645996,0.28865906596183777,0.200429305434227,-0.20791476964950562,-0.07393378824721718,-0.12478355788367125,-0.051005461294293085,0.988110016614994,-0.08243992202927766,0.25785586242559166,-2.981530080477532
1782905540714089984,3.3598220348358154,-3.152716875076294,0.468455970287323,-0.8543629050254822,0.2567363381385803,0.11621072888374329,-0.9594693779945374,0.3527759611606598,0.4413454234600067,-0.05188310146331787,-0.0706417873816376,-0.12516871157057655,-0.0678092627336147,0.9872914597928931,-0.11647390117285109,0.26145636754997253,-2.9834031230674563
1782905540724008960,3.3697409629821777,-3.574207305908203,0.5021932125091553,-1.1651196479797363,0.2600368559360504,0.15016426146030426,-0.9538508653640747,0.3805575966835022,0.34782156348228455,-0.016363918781280518,-0.06773075553925943,-0.12603025470312537,-0.08479934326635498,0.9860719923333334,-0.1507344206278976,0.26615027349696485,-2.9842173537836336
1782905540733928960,3.3796608448028564,-3.835850477218628,0.6037121415138245,-1.2357640266418457,0.2631972134113312,0.1884588748216629,-0.9461556077003479,0.25995033979415894,0.3063683807849884,0.16228115558624268,-0.06380098859224646,-0.12694907819106785,-0.10395247958006243,0.9843816406444683,-0.1895926617341689,0.2713159572632297,-2.986192127080543
1782905540743848960,3.3895809650421143,-3.642838954925537,0.6615279912948608,-1.272502064704895,0.26658204197883606,0.22664302587509155,-0.9367854595184326,0.20651674270629883,0.22764164209365845,0.09738421440124512,-0.05975631959372053,-0.12820614296614125,-0.12316845681537235,0.9822534215259164,-0.22862962495058536,0.2772424045346736,-2.9880360771320023
1782905540753768960,3.399500846862793,-3.958604335784912,0.8336725831031799,-1.494494915008545,0.2700450122356415,0.2649696171283722,-0.9256709814071655,0.10071304440498352,0.1896660029888153,-0.009097695350646973,-0.05501310271865906,-0.12981755152689795,-0.14251984817324317,0.9796984489849876,-0.2681724117132454,0.28385150777491075,-2.9908595435608563
1782905540763688960,3.409420967102051,-4.3918137550354,1.0338358879089355,-1.5532505512237549,0.27423912286758423,0.3074411153793335,-0.9111931324005127,0.05939429998397827,0.1796194314956665,0.1762688159942627,-0.04964965399829242,-0.13210127945863767,-0.16417276747667045,0.9762845451784988,-0.3125027229147128,0.2923437754450147,-2.9935917332962605
1782905540773607936,3.419339895248413,-4.3975443840026855,1.1663668155670166,-1.6369696855545044,0.27916091680526733,0.35143807530403137,-0.893622100353241,0.14405682682991028,0.14180228114128113,0.16037625074386597,-0.0439155692883376,-0.1351510090474226,-0.18687735676255726,0.9720507439922252,-0.35910672579474345,0.30278701279387177,-2.995929637242332
1782905540783528192,3.429260015487671,-3.9558796882629395,1.240689754486084,-1.5095751285552979,0.2840409576892853,0.39279982447624207,-0.8746593594551086,0.23846575617790222,0.20987656712532043,0.04824334383010864,-0.03792110269328302,-0.13863322059100375,-0.20844938287733805,0.9674149220611072,-0.4036741666311398,0.3140009290601849,-2.998473542034332
1782905540793447936,3.4391798973083496,-3.3370189666748047,1.1523369550704956,-1.4311652183532715,0.28826043009757996,0.42824605107307434,-0.8564527034759521,0.36676886677742004,0.23709818720817566,-0.14048027992248535,-0.03224475964163914,-0.14207676740883296,-0.2271295572733185,0.9629053363536588,-0.4425509611784404,0.3246650639489238,-3.0009923744042246
1782905540803368192,3.4491000175476074,-2.767376661300659,1.0664647817611694,-1.4791971445083618,0.2911686897277832,0.45802003145217896,-0.8399038314819336,0.3803248405456543,0.32020872831344604,-0.2428750991821289,-0.02618111395418802,-0.14521212977887815,-0.2428199271361977,0.9587838796708236,-0.4757665869938029,0.3337043298401983,-3.0053643355066986
1782905540813287936,3.459019899368286,-2.4749109745025635,0.9872413873672485,-1.4456971883773804,0.2928147614002228,0.48394423723220825,-0.8246560096740723,0.3354048430919647,0.34956711530685425,-0.32605504989624023,-0.019764036789168226,-0.14800595480333087,-0.25644927862533323,0.9549541925062097,-0.5051563149940652,0.3411888333947352,-3.0113427759686915
1782905540823206912,3.4689388275146484,-2.436739683151245,0.9273226857185364,-1.5267949104309082,0.2933667302131653,0.5078734159469604,-0.8099386096000671,0.3284594416618347,0.32159435749053955,-0.31286412477493286,-0.013514367159121209,-0.15038502216813818,-0.26910043099210035,0.9512027384693974,-0.5327143274355531,0.34750941390834345,-3.0174719790025715
1782905540833126912,3.4788589477539062,-1.9931801557540894,1.0673288106918335,-1.4537273645401,0.29368284344673157,0.5303220748901367,-0.7953042984008789,0.25143739581108093,0.4316682815551758,-0.1918935775756836,-0.0066951762408415,-0.15300514855734498,-0.2809577874464235,0.9474214112631943,-0.5589803922764932,0.35373857184152524,-3.0249533721984116
1782905540843046912,3.488778829574585,-1.6103025674819946,0.9410487413406372,-1.5366359949111938,0.2940313220024109,0.5482689142227173,-0.7829091548919678,0.2606409192085266,0.4180244207382202,-0.2569925785064697,0.00020213304692220536,-0.15577126998527444,-0.29031143925610964,0.9441686470999516,-0.5802928731342062,0.35926374567492136,-3.033691825317147
