time,seconds_elapsed,rotationRateX,rotationRateY,rotationRateZ,gravityX,gravityY,gravityZ,accelerationX,accelerationY,accelerationZ,quaternionW,quaternionX,quaternionY,quaternionZ,pitch,roll,yaw
1784115034760560896,0.17515301704406738,-0.417583167552948,0.15498694777488708,-0.12659233808517456,0.06559747457504272,0.5862712264060974,-0.8074547052383423,0.011016882956027985,-0.05077928304672241,0.058858513832092285,0.6197857421517299,-0.22719627294254438,-0.2113161204995461,0.7208280888895391,-0.6264483433126589,0.08106179769880661,1.7475201259468705
1784115034770481152,0.1850731372833252,-0.43810907006263733,0.2041642963886261,-0.14973486959934235,0.0672583356499672,0.5898250937461853,-0.8047252297401428,0.014727137982845306,-0.020061910152435303,0.010810434818267822,0.6198353546382688,-0.22940308858785197,-0.2121594030947194,0.7198380248122616,-0.6308422386228325,0.08338545277066117,1.747038150873813
1784115034780400896,0.1949930191040039,-0.3724499046802521,0.24965828657150269,-0.20911458134651184,0.06924550235271454,0.5930444598197937,-0.8021866083145142,0.01742442697286606,0.0223730206489563,-0.02839505672454834,0.6201066290857906,-0.23167359814929359,-0.21268297362508154,0.7187218278845953,-0.6348347387739299,0.08610749152156426,1.7461505492657872
1784115034790321152,0.20491313934326172,-0.24363426864147186,0.2648000121116638,-0.25208500027656555,0.07155560702085495,0.5955485105514526,-0.8001261353492737,0.02875567227602005,0.04976093769073486,-0.034010887145996094,0.6206465369516524,-0.23385526865182077,-0.2127173196326828,0.7175381252936361,-0.637948266457692,0.08919313267539589,1.744828141618013
1784115034800240896,0.21483302116394043,-0.13474135100841522,0.22541478276252747,-0.29228782653808594,0.07380043715238571,0.5975051522254944,-0.7984617352485657,0.058798424899578094,0.021070897579193115,-0.041671931743621826,0.6213755904201423,-0.23583503358380514,-0.21248759012906393,0.7163262278709025,-0.6403861601958444,0.09216640755872643,1.7431014998209344
1784115034810161152,0.22475314140319824,-0.06096472963690758,0.13831663131713867,-0.27553433179855347,0.07617372274398804,0.5984930992126465,-0.797498345375061,0.09220702201128006,-0.023221492767333984,-0.030870795249938965,0.62211607793732,-0.23745377482931085,-0.21181721439053208,0.7153466255838256,-0.6416187879633686,0.09522694665105295,1.7416493222365477
1784115034820080896,0.23467302322387695,-0.11736088991165161,0.055522672832012177,-0.23238502442836761,0.07903021574020386,0.5988589525222778,-0.7969455718994141,0.10415153205394745,-0.03159826993942261,-0.0045375823974609375,0.6226055319484393,-0.23892650194562978,-0.21081118054454168,0.7147273933950341,-0.6420755888744156,0.09884323395758783,1.741242005985647
1784115034830001152,0.24459314346313477,-0.20767821371555328,-0.020245473831892014,-0.11573665589094162,0.08254793286323547,0.5994459390640259,-0.7961472272872925,0.07327483594417572,-0.03500807285308838,0.03763282299041748,0.622542154050648,-0.24060451298906285,-0.2098472131332439,0.714503227230541,-0.6428086955253899,0.10331508012472584,1.7425644993792495
1784115034839920896,0.2545130252838135,-0.33181852102279663,-0.05211019515991211,-0.07849688082933426,0.0861782357096672,0.6009132862091064,-0.7946550250053406,0.04536779224872589,-0.06680989265441895,0.06705492734909058,0.6219611589839098,-0.24256355983529143,-0.20936909443864696,0.7144872098649705,-0.6446432305069026,0.10802518600438436,1.7451496418456773
1784115034849841152,0.2644331455230713,-0.4825098216533661,-0.03357600420713425,-0.10892965644598007,0.08906242251396179,0.6035277247428894,-0.7923523187637329,-0.037655577063560486,-0.0985533595085144,0.09656679630279541,0.6212926226943893,-0.2446959048437069,-0.2096371863990245,0.714263069361943,-0.6479180910249764,0.11193272830702623,1.7474164507543417
1784115034859760896,0.27435302734375,-0.5705512762069702,0.023964256048202515,-0.2274128794670105,0.0896156057715416,0.6075193285942078,-0.789233386516571,-0.11096265912055969,-0.07286661863327026,0.10409849882125854,0.6210291205495506,-0.24659665391050026,-0.21112415141972588,0.71339999076867,-0.652933791192273,0.11306341691761458,1.747335788004127
1784115034869681152,0.2842731475830078,-0.4822552502155304,0.07631218433380127,-0.315018892288208,0.08896231651306152,0.611739456653595,-0.7860410809516907,-0.13043570518493652,0.01379460096359253,0.058700382709503174,0.6213557518257115,-0.2482857668107837,-0.21291697810917284,0.7119954981843747,-0.6582575986127635,0.11269813856138129,1.7450735677644382
1784115034879600896,0.2941930294036865,-0.22486844658851624,0.1337973177433014,-0.2966231107711792,0.08796335011720657,0.6148757934570312,-0.7837028503417969,-0.08500316739082336,0.11663049459457397,0.03091055154800415,0.6220925986383211,-0.24948676021672708,-0.21425434479894245,0.7105295547707415,-0.6622284957431674,0.1117728844263157,1.741787755640753
1784115034889521152,0.30411314964294434,0.2000337690114975,0.19426143169403076,-0.30951499938964844,0.08712327480316162,0.6156386137008667,-0.7831977009773254,-0.01699388027191162,0.1170731782913208,0.01290351152420044,0.6233097583408181,-0.2498481719104203,-0.21442256436534307,0.7092840152894161,-0.6631960896157043,0.11078499348432866,1.7378296742652768
1784115034899440896,0.31403303146362305,0.6748932003974915,0.23626427352428436,-0.04480157047510147,0.08732655644416809,0.6127463579177856,-0.7854400277137756,0.05300852656364441,0.057129740715026855,-0.016058385372161865,0.6248138614124846,-0.2490955222134856,-0.21267676464207205,0.708750867573346,-0.6595310947708917,0.11072694385826162,1.7344462541676025
1784115034909360128,0.32395219802856445,0.567639172077179,0.17654500901699066,0.1303035020828247,0.08921884745359421,0.6083965301513672,-0.788602352142334,0.08671499043703079,-0.07722282409667969,0.013318538665771484,0.6255248989510798,-0.2481516723954861,-0.21004660358555058,0.709238846027605,-0.6540385942399057,0.11265638803285463,1.7343171643382165
1784115034919280128,0.33387207984924316,0.46620360016822815,0.14068502187728882,0.07987894117832184,0.09125995635986328,0.6047097444534302,-0.7912002205848694,0.004031196236610413,-0.18080532550811768,0.06727743148803711,0.625860752207158,-0.24745737544053178,-0.20776128093186244,0.7098580469213481,-0.6494013885796123,0.11483622417210478,1.73509513547025
1784115034929200128,0.343792200088501,0.3701934516429901,0.15439017117023468,0.05382417514920235,0.09300059080123901,0.6013551354408264,-0.7935507893562317,-0.07917612046003342,-0.2413698434829712,0.026003241539001465,0.6262722081276882,-0.24681347049021127,-0.20568840059879417,0.7103227557920755,-0.6451961087573915,0.11666333990578247,1.7354359963637411
1784115034939120128,0.3537120819091797,0.15823513269424438,0.21144413948059082,-0.032961055636405945,0.09445877373218536,0.5990803837776184,-0.7950975894927979,-0.15123672783374786,-0.19710290431976318,0.07173949480056763,0.6267449211488679,-0.24654864106385896,-0.20411998194048195,0.7104502665147258,-0.6423521140450773,0.11824725244142927,1.7352096598266606
1784115034949040128,0.3636322021484375,0.09921175986528397,0.36414384841918945,-0.048842813819646835,0.09621847420930862,0.597984790802002,-0.795711100101471,-0.19416463375091553,-0.09969371557235718,0.09965097904205322,0.6273962256889709,-0.24697586442633976,-0.20284811722317725,0.7100911753179107,-0.640984439113747,0.12033711462940933,1.7342833459992189
1784115034958960128,0.3735520839691162,0.2564021944999695,0.33391591906547546,0.013779285363852978,0.09869137406349182,0.5964727401733398,-0.7965427041053772,-0.10957089811563492,-0.026099205017089844,0.0639682412147522,0.6281032483282707,-0.24752737998272853,-0.20114381462758898,0.7097589356062306,-0.6390992885526232,0.12327143668979465,1.733549379371985
1784115034968880128,0.383472204208374,0.41352489590644836,0.17355823516845703,0.048395950347185135,0.10039755702018738,0.5935986042022705,-0.7984741926193237,0.004125155508518219,0.03782534599304199,0.09112250804901123,0.6287266902644559,-0.2471440843793715,-0.1992052095980565,0.7098871571794119,-0.6355231473059141,0.12508035804595788,1.7330961653793477
1784115034978800128,0.39339208602905273,0.6116797924041748,0.12764614820480347,0.16048094630241394,0.10169529169797897,0.5893490314483643,-0.8014523386955261,0.0010116174817085266,0.06177401542663574,0.16197174787521362,0.6292194830908107,-0.24595947380567393,-0.19692072874137712,0.7104991782638436,-0.630252811607696,0.12621425951733797,1.7331796969697775
1784115034988720128,0.40331220626831055,0.6395016312599182,0.16714033484458923,0.23878523707389832,0.10375193506479263,0.5840024948120117,-0.8050941228866577,-0.09323862940073013,0.027005136013031006,0.18546521663665771,0.6294428269099849,-0.24454359010722646,-0.19403957987294154,0.7115818880604784,-0.6236507128243765,0.12816295513505338,1.7345083513976056
1784115034998640128,0.41323208808898926,0.5035262107849121,0.29537099599838257,0.1256650686264038,0.10631349682807922,0.5792884230613708,-0.8081598877906799,-0.21407106518745422,-0.00401681661605835,0.17223459482192993,0.6297267871877711,-0.24363548575141297,-0.19121141398566802,0.7124072947139777,-0.6178554168426232,0.13079901689403112,1.7356458429834916
1784115035008560128,0.42315220832824707,0.3844745457172394,0.4575933814048767,-0.008468828164041042,0.1092594563961029,0.5758557915687561,-0.810217559337616,-0.2763889729976654,-0.0056195855140686035,0.13176602125167847,0.6304627756687213,-0.243562222781002,-0.18859654692265287,0.7124784326980559,-0.6136505157582536,0.13404336993067623,1.7353145176343785
1784115035018480128,0.4330720901489258,0.38889965415000916,0.5393846035003662,-0.08917885273694992,0.11245060712099075,0.573054850101471,-0.8117653727531433,-0.21335697174072266,0.05373036861419678,0.05572289228439331,0.6316296802781659,-0.2439730590859623,-0.18599588793227667,0.7119877317301521,-0.6102286178967518,0.1376499803338928,1.7336828645271551
1784115035028400128,0.4429922103881836,0.6990647912025452,0.592295229434967,-0.10777164250612259,0.11577193439006805,0.5691869258880615,-0.8140166401863098,-0.10145919770002365,0.14692330360412598,-0.059594810009002686,0.6332071098428813,-0.2440830237506718,-0.18279810475172917,0.7113769019857362,-0.6055166073299644,0.14127558741011337,1.7311345203692652
1784115035038320128,0.4529120922088623,1.203417420387268,0.5395742654800415,-0.08114882558584213,0.11918418109416962,0.5618537664413452,-0.8186058402061462,-0.01128929853439331,0.20046007633209229,-0.13186413049697876,0.6352867945081115,-0.24287524976579686,-0.1780693761212169,0.7111355118495618,-0.5966250440901537,0.14457824609826947,1.7278709089611357
1784115035048240128,0.4628322124481201,1.5241085290908813,0.46632179617881775,-0.07480111718177795,0.12195033580064774,0.5510223507881165,-0.8255316615104675,0.03869418799877167,0.21367180347442627,-0.13963252305984497,0.6377130063284537,-0.24001195189736868,-0.1721291507325194,0.7113985996651183,-0.5835888743053091,0.1466626994927053,1.7240484222364811
1784115035058160128,0.47275209426879883,1.8271757364273071,0.40923187136650085,-0.054161082953214645,0.12430089712142944,0.5378481149673462,-0.8338277339935303,0.05585962533950806,0.2029813528060913,-0.11789345741271973,0.6404096308853656,-0.23608098420819046,-0.16538409786165723,0.7118913805131021,-0.5678824815501067,0.14798286523346132,1.7196742163339547
1784115035068080128,0.48267221450805664,2.11529541015625,0.2434016466140747,0.0053738499991595745,0.12581823766231537,0.5219228863716125,-0.8436623811721802,0.08782006800174713,0.16867464780807495,-0.08543002605438232,0.6430878612159626,-0.23070487056950623,-0.1579368822135054,0.7129299383694758,-0.5491036597022072,0.1480422995145662,1.715484386919405
1784115035078000128,0.49259209632873535,2.0147316455841064,0.30038610100746155,-0.05369186773896217,0.12676839530467987,0.5051894187927246,-0.8536471128463745,-0.0027602165937423706,0.11437845230102539,-0.03865635395050049,0.6457940689809555,-0.2248319002945302,-0.15042293414565208,0.7139842686181109,-0.5296014539264847,0.1474247028581747,1.7110525493111628
1784115035087920128,0.5025122165679932,2.088189125061035,0.4385761320590973,-0.14086951315402985,0.12828375399112701,0.48885390162467957,-0.8628818988800049,-0.12440800666809082,0.026603251695632935,0.015927553176879883,0.6487006141417522,-0.21943913576667284,-0.14284792263996027,0.7145827111346398,-0.5107755029475994,0.14758794817357157,1.7059721731053825
1784115035097839104,0.5124311447143555,2.131530523300171,0.6548601984977722,-0.2742840051651001,0.1307511031627655,0.4716227054595947,-0.8720528483390808,-0.152159184217453,0.038112372159957886,-0.0063498616218566895,0.6408016723396462,-0.21206178453216046,-0.13785275080669052,0.7248445382867305,-0.4911301085699177,0.14882622471936974,1.7310866742586277
1784115035107759104,0.5223510265350342,2.2985451221466064,0.5487281680107117,-0.2593404948711395,0.13362431526184082,0.45372575521469116,-0.8810661435127258,-0.042834535241127014,0.17858320474624634,-0.01271742582321167,0.6445322670953095,-0.20694176567566377,-0.12900406302956416,0.7246455944900584,-0.47094177671533316,0.15051505120755865,1.7238632661840927
1784115035117679104,0.532271146774292,2.8590762615203857,0.48913705348968506,-0.28874844312667847,0.13537272810935974,0.43260201811790466,-0.8913639783859253,0.02984943985939026,0.27960196137428284,-0.1255580186843872,0.648476844810852,-0.20019107667179437,-0.11933797599786415,0.7246790489143669,-0.44737683323630933,0.15071970408855082,1.7160207201269535
1784115035127599104,0.5421910285949707,3.637542724609375,0.5334659218788147,-0.3652556538581848,0.1363600641489029,0.4055890738964081,-0.9038271307945251,0.05439004302024841,0.39867112040519714,-0.27473121881484985,0.6532757753173936,-0.1910768804299622,-0.10759216169681601,0.7246684379321733,-0.41762320914934115,0.14974033530797895,1.7061125574828109
1784115035137519104,0.5521111488342285,4.437733173370361,0.25204968452453613,-0.2678561508655548,0.1352844536304474,0.3732832670211792,-0.9178004860877991,0.12451168894767761,0.5279923677444458,-0.3167271018028259,0.6586367654620905,-0.1793148392007234,-0.09458300233466346,0.7246364364377554,-0.38254559691719825,0.1463468937873167,1.694536881612087
1784115035147439104,0.5620310306549072,4.509731769561768,0.2740055024623871,-0.24912939965724945,0.13539674878120422,0.3329835832118988,-0.9331611394882202,0.20073910057544708,0.4417203962802887,-0.2511497735977173,0.6635609120403977,-0.16510650194474216,-0.07848109827842498,0.7254430498264518,-0.33946596074029023,0.14408918876746807,1.6845763218715408
1784115035157359104,0.571951150894165,3.557455539703369,0.16756483912467957,-0.0976480022072792,0.13658756017684937,0.29601407051086426,-0.9453673958778381,0.13965757191181183,0.11015963554382324,-0.005072057247161865,0.6674328695844314,-0.152539487108831,-0.06362394626008991,0.7260971689145493,-0.30051699331191284,0.14348799548807467,1.6767024401067026
1784115035167279104,0.5818710327148438,2.1182126998901367,0.31990301609039307,-0.3130205571651459,0.1381342113018036,0.2702781856060028,-0.9528214335441589,0.04661920666694641,-0.4750358760356903,0.34697121381759644,0.6702397146323924,-0.14412347629485736,-0.0530821972405293,0.7260781259271013,-0.27368197379969106,0.1439708366400673,1.6705919364133472
1784115035177199104,0.5917911529541016,0.9763792753219604,0.34717243909835815,-0.44281262159347534,0.1397113800048828,0.2573091387748718,-0.9561761021614075,0.0064373016357421875,-1.0283052921295166,0.44996577501296997,0.6728645903641066,-0.1402724403970984,-0.047282016276837945,0.7248044126680431,-0.26023655012641583,0.14508798789114952,1.6641044456306484
1784115035187119104,0.6017110347747803,-0.4765206575393677,0.0746338963508606,-0.3690769672393799,0.14012670516967773,0.25616714358329773,-0.9564219117164612,0.10206079483032227,-1.0494105815887451,0.4134836792945862,0.6745066147763293,-0.14012758652168697,-0.04640362215586211,0.7233615119229615,-0.25905495644332466,0.14547636994604543,1.6596493233314515
1784115035197039104,0.6116311550140381,-1.27836012840271,-0.09871391952037811,-0.4553481936454773,0.13873904943466187,0.26534396409988403,-0.9541195034980774,0.09133294224739075,-0.7674344778060913,0.32626616954803467,0.6753725474730216,-0.14295018849806693,-0.0500547881576855,0.721756005656801,-0.26856064650898326,0.1443985042817619,1.6567108741420775
1784115035206959104,0.6215510368347168,-1.2199585437774658,-0.11912064999341965,-0.4140194058418274,0.13650669157505035,0.2777104377746582,-0.9509168267250061,0.03396448493003845,-0.3534703254699707,0.09482252597808838,0.6759600924497784,-0.14660742181367722,-0.05520724117591306,0.7200947667033829,-0.28140996059392553,0.14257864401877623,1.6542316432917772
1784115035216879104,0.6314711570739746,-0.7132075428962708,-0.14302624762058258,-0.33366331458091736,0.134247824549675,0.28709250688552856,-0.9484489560127258,0.03706260025501251,0.10057228803634644,-0.06244581937789917,0.6765437790399418,-0.14920226826686475,-0.059280755204044216,0.7186884027578694,-0.29119019082709685,0.14061052704137586,1.6518417380648347
1784115035226799104,0.6413910388946533,0.06999029219150543,0.038500700145959854,-0.32003194093704224,0.13286180794239044,0.2900293469429016,-0.9477503299713135,0.044124871492385864,0.3705388605594635,-0.10065048933029175,0.6774815105688151,-0.14982720123565382,-0.060635274466906086,0.7175611685240985,-0.29425751001074474,0.13927885638228354,1.6489144709496792
1784115035236719104,0.6513111591339111,0.5450343489646912,0.11511532217264175,-0.2690020501613617,0.13293026387691498,0.28697553277015686,-0.9486699104309082,0.09077884256839752,0.42437395453453064,-0.1399226188659668,0.6788195738803741,-0.14885260751628648,-0.05922792993904063,0.716616353728786,-0.2910680702620216,0.1392163640529978,1.6453924387877426
1784115035246639104,0.6612310409545898,0.8491832613945007,0.09801444411277771,-0.29605376720428467,0.13346132636070251,0.28017836809158325,-0.9506251215934753,0.14907041192054749,0.22732895612716675,-0.12736254930496216,0.6803862853777078,-0.1467030869634704,-0.05626394068992753,0.7158123081855018,-0.2839799260059376,0.13948157967315863,1.641502909603136
1784115035256559104,0.6711511611938477,0.26642557978630066,0.061140574514865875,-0.380201131105423,0.13344936072826385,0.2749331593513489,-0.9521570205688477,0.10632722079753876,0.001937568187713623,-0.05695241689682007,0.6819160871041776,-0.14490794123713355,-0.05406631559144427,0.714890931495167,-0.2785201722570415,0.13924774740428106,1.637551199522854
1784115035266479104,0.6810710430145264,-0.13263152539730072,0.008164329454302788,-0.4989653527736664,0.13285861909389496,0.27448999881744385,-0.9523674845695496,-0.03584323823451996,-0.12814292311668396,0.03648918867111206,0.6835874139082468,-0.14465247341511464,-0.05377652368988712,0.7133667412789775,-0.27805927746853654,0.13860897203518185,1.6328510233130038
1784115035276398080,0.6909902095794678,-0.30702996253967285,0.14134261012077332,-0.6660813689231873,0.1324135661125183,0.27708157896995544,-0.9516787528991699,-0.1943032294511795,-0.12574490904808044,-0.05552339553833008,0.6855335118054154,-0.14558156238288072,-0.05446676484127278,0.7112547466838954,-0.28075541932023157,0.1382492678397363,1.6271875629676795
1784115035286318080,0.7009100914001465,-0.22517044842243195,0.3008471131324768,-0.6571061015129089,0.13261017203330994,0.28044116497039795,-0.9506667852401733,-0.25645050406455994,0.09680187702178955,-0.13101351261138916,0.6877019004239495,-0.14705444102930076,-0.0551507987225826,0.7088014336964092,-0.2842536895384347,0.13859743606699196,1.6208749736195964
1784115035296238080,0.7108302116394043,0.10454940050840378,0.31683778762817383,-0.725094199180603,0.13364483416080475,0.2816407382488251,-0.9501671195030212,-0.22600628435611725,0.10939627885818481,-0.19952160120010376,0.6901160964804444,-0.1480666547951727,-0.05470563656797162,0.7062742147583896,-0.28550362443051863,0.13973734703697735,1.6140543633127742
1784115035306158080,0.720750093460083,0.25837433338165283,0.3257899284362793,-0.6366165280342102,0.1345098912715912,0.27997472882270813,-0.9505373239517212,-0.17522035539150238,0.13164633512496948,-0.17842990159988403,0.6929162593392708,-0.14798391193916205,-0.0532174331704403,0.7036587392904209,-0.2837677981348239,0.14057594454534467,1.6062928031204313
1784115035316078080,0.7306702136993408,0.3258928954601288,0.299101322889328,-0.4723626375198364,0.1353781521320343,0.2770828902721405,-0.9512611627578735,-0.0825674831867218,0.069734126329422,-0.13786542415618896,0.6951863288936787,-0.14739984646118123,-0.05140717694480914,0.7016740256564107,-0.2807567810178736,0.14136511667019788,1.6000937750611672
1784115035325998080,0.7405900955200195,0.13377352058887482,0.17195914685726166,-0.6368871331214905,0.13506744801998138,0.27504006028175354,-0.9518979787826538,-0.11098906397819519,-0.17317238450050354,-0.09366476535797119,0.6973602475527333,-0.14668506744986565,-0.05034390396524476,0.699741029118851,-0.2786313693723221,0.14095184854673867,1.5940013189308975
1784115035335918080,0.7505102157592773,-0.04722767695784569,0.340025395154953,-0.5205211043357849,0.13463839888572693,0.2747625708580017,-0.9520388841629028,-0.22869357466697693,-0.1596655249595642,-0.008501887321472168,0.6995896448158517,-0.14658506474196983,-0.049933695596014245,0.697562830074688,-0.27834275636762795,0.14048945616564681,1.5876062296649587
1784115035345838080,0.760430097579956,0.011633709073066711,0.281460165977478,-0.6015602946281433,0.13543960452079773,0.2747572660446167,-0.9519267678260803,-0.24197646975517273,-0.2394789457321167,-0.04906505346298218,0.7016249455793899,-0.14701957203289637,-0.04921243923470748,0.6954752775789469,-0.27833724561368034,0.14133085867659137,1.5818221163578818
1784115035355758080,0.7703502178192139,-0.2261170595884323,0.22132305800914764,-0.5263145565986633,0.13475355505943298,0.27506816387176514,-0.9519343376159668,-0.289904922246933,-0.09319865703582764,-0.013657093048095703,0.7038443443331978,-0.1470442009291864,-0.049100254424648396,0.6932318037554726,-0.278660611291897,0.14062329272094498,1.5753569299220191
1784115035365678080,0.7802700996398926,0.08585027605295181,0.533968985080719,-0.39555275440216064,0.13583537936210632,0.2762257754802704,-0.9514452815055847,-0.3313004672527313,-0.0038411319255828857,-0.09272891283035278,0.7054378346541095,-0.1479832580414271,-0.048768110101883685,0.6914333358996051,-0.2798648634680102,0.14180911627024365,1.5707528401567363
1784115035375598080,0.7901902198791504,0.259615957736969,0.6475685238838196,-0.3665429353713989,0.13911202549934387,0.27336376905441284,-0.9517983198165894,-0.38401558995246887,-0.15487930178642273,-0.17094331979751587,0.7072593359867728,-0.1482142783326558,-0.04618825850338976,0.6896979666126638,-0.27688825929388833,0.14512943885682483,1.5659117733429566
1784115035385518080,0.8001101016998291,-0.09485545009374619,0.6759103536605835,-0.2548236846923828,0.1424899846315384,0.2725031077861786,-0.9515454173088074,-0.2703586220741272,-0.03873848915100098,-0.06964904069900513,0.7085977842581919,-0.14919516813649858,-0.044363301232186174,0.6882309090185982,-0.2759936550444374,0.14864138493464407,1.5623173033542983
1784115035395438080,0.8100302219390869,0.011341560631990433,0.9410128593444824,-0.2981399893760681,0.14761817455291748,0.272017240524292,-0.9509024620056152,-0.304646372795105,-0.2008655071258545,-0.13704919815063477,0.7099202383168373,-0.15094040165654618,-0.04202097304966884,0.686632752963854,-0.27548870305616874,0.15401073258630119,1.5588403047125885
1784115035405358080,0.8199501037597656,0.0025884155184030533,1.1714465618133545,-0.29647424817085266,0.15500779449939728,0.27166810631752014,-0.9498257637023926,-0.28817126154899597,-0.24144047498703003,-0.033328473567962646,0.7112509676862522,-0.15354347291764472,-0.03887810443119619,0.6848613194196953,-0.2751259031667816,0.1617699468804743,1.555439439685481
1784115035415278080,0.8298702239990234,-0.2029421031475067,1.25623619556427,-0.2477213740348816,0.16370156407356262,0.2716207504272461,-0.948379635810852,-0.2755484879016876,-0.2089376151561737,0.14361584186553955,0.7125653049438052,-0.15671989262028244,-0.03534181927910175,0.682964562979349,-0.27507668160773047,0.17092753366232724,1.5520956537908233
1784115035425198080,0.8397901058197021,-0.3480337858200073,1.555003046989441,-0.08033888787031174,0.17530806362628937,0.2743028700351715,-0.9455289840698242,-0.3197172284126282,-0.15121018886566162,0.24359416961669922,0.713192004950067,-0.16194147234009262,-0.03178803491997765,0.6812646805610667,-0.2778646783419529,0.1833256555531278,1.5507181055848884
1784115035435118080,0.8497099876403809,0.0038824458606541157,1.9511170387268066,-0.2092854231595993,0.19090422987937927,0.27578336000442505,-0.9420717358589172,-0.3634506165981293,-0.27593597769737244,0.18975239992141724,0.7137741099754814,-0.16814223000228806,-0.0263122408908948,0.6793838263833261,-0.2794045747476588,0.19993560177992462,1.5496428614419517
1784115035445037056,0.8596291542053223,-0.2165207713842392,1.910202980041504,-0.16549986600875854,0.20817527174949646,0.2766427993774414,-0.9381533861160278,-0.30561792850494385,-0.2279367744922638,0.1484500765800476,0.7147392066932172,-0.17472612813044883,-0.01985127850469947,0.6769229260081454,-0.2802987998853073,0.2183608778271339,1.5473884668729534
1784115035454957056,0.869549036026001,-0.4029654860496521,1.9670166969299316,0.12961407005786896,0.22555047273635864,0.27973029017448425,-0.9332084059715271,-0.16239434480667114,-0.11862799525260925,0.1997489333152771,0.7146499402183182,-0.1821833374037058,-0.014318718378975167,0.6751885675676661,-0.28351317516445046,0.2371456955253242,1.5480261602051755
1784115035464877056,0.8794691562652588,0.051032647490501404,2.1310341358184814,0.261242151260376,0.2448793202638626,0.2809889316558838,-0.9279435873031616,-0.169256791472435,-0.11398151516914368,0.1252855658531189,0.713936692137847,-0.18966073367825398,-0.007550098052340043,0.6739927311556598,-0.28482440593908076,0.25801260276222954,1.5504500392543448
1784115035474797056,0.8893890380859375,0.567389726638794,2.0358777046203613,0.4196277856826782,0.2647131085395813,0.27702388167381287,-0.9236800074577332,-0.1485174298286438,-0.08645686507225037,0.09547871351242065,0.7131839381795176,-0.19534219443632658,0.0011927694809416003,0.6732078344257033,-0.2806953665728929,0.27910475799537654,1.552826851521451
1784115035484717056,0.8993091583251953,0.9701355695724487,2.1975789070129395,0.42357566952705383,0.28487908840179443,0.26878622174263,-0.9201075434684753,-0.15153253078460693,0.007413119077682495,0.14451855421066284,0.7124377402361722,-0.19953221818056863,0.011537841240925075,0.6726710755327866,-0.2721326567860418,0.3002543799184161,1.5548061976052032
1784115035494637056,0.909229040145874,1.546159029006958,2.3281819820404053,0.41727036237716675,0.3064740002155304,0.25600698590278625,-0.9168064594268799,-0.2244274914264679,0.051747530698776245,0.21832013130187988,0.7121320323358789,-0.20251912867988278,0.024140612047895558,0.6717671443615746,-0.2588892515456745,0.3226061720157137,1.554833908614854
1784115035504557056,0.9191491603851318,1.8025338649749756,2.441953182220459,0.46671420335769653,0.32897138595581055,0.23899966478347778,-0.9135956168174744,-0.24233198165893555,0.010161101818084717,0.27385568618774414,0.712035673834339,-0.204227410648259,0.03864378538149848,0.6706736317702545,-0.2413355331712546,0.34563014626444294,1.5533126930202743
1784115035514477056,0.9290690422058105,1.7113593816757202,2.5551540851593018,0.4505104720592499,0.35255131125450134,0.22133824229240417,-0.9092397689819336,-0.24224552512168884,-0.08053013682365417,0.3808431625366211,0.7117318060890689,-0.20611404583099505,0.05382484403864561,0.6693711559952343,-0.2231865419760089,0.36989549363776386,1.5513954305742073
1784115035524397056,0.9389891624450684,1.4447606801986694,2.4796135425567627,0.2803223431110382,0.3758523166179657,0.20567426085472107,-0.9035668969154358,-0.2277810275554657,-0.18000897765159607,0.5272851586341858,0.7113576832914732,-0.20868453902616044,0.06831778513815304,0.6676478094310302,-0.2071526489832921,0.3941932079091003,1.5489328589167384
1784115035534317056,0.9489090442657471,1.2225699424743652,2.451979637145996,-0.10618116706609726,0.3980412781238556,0.19338293373584747,-0.8967531323432922,-0.2321477234363556,-0.18132849037647247,0.5710390210151672,0.7115163553693565,-0.21207897428678452,0.08152264757984237,0.6649218579306581,-0.19460900669007344,0.4177440448758628,1.5444939894483005
1784115035544237056,0.9588291645050049,1.1712387800216675,2.1438724994659424,-0.3740829527378082,0.41789302229881287,0.18399545550346375,-0.8896690607070923,-0.26345881819725037,0.017801985144615173,0.6332604289054871,0.7126838099846446,-0.2155702318965223,0.0932466344222986,0.6609963572303866,-0.18504977303472725,0.4391293585319451,1.5369861715253625
1784115035554157056,0.9687490463256836,1.6004167795181274,1.761172890663147,-0.23816561698913574,0.4344804584980011,0.17343775928020477,-0.8838247060775757,-0.3668840229511261,0.32839328050613403,0.6012319326400757,0.7142130498183332,-0.21731273454845487,0.10422493037503654,0.6571240700986346,-0.1743192664426691,0.4568979992860529,1.5282120156114885
1784115035564077056,0.9786691665649414,2.942701578140259,2.3052151203155518,-0.5147681832313538,0.45092764496803284,0.15559488534927368,-0.8788939118385315,-0.6092222929000854,0.6039876341819763,0.509768545627594,0.7164952092238329,-0.21599179499488722,0.11790079245071577,0.6527491856315186,-0.15622963939739046,0.47404304620207216,1.51556381768106
1784115035573997056,0.9885890483856201,4.4714837074279785,2.679338216781616,-0.9331046938896179,0.4722196161746979,0.1262105405330658,-0.8723986744880676,-0.627325177192688,0.7625070810317993,0.2681201696395874,0.7214911054443476,-0.21122857975641915,0.13850320065905258,0.6447090999452241,-0.1265480302070623,0.496130543541623,1.4906045017845073
1784115035583917056,0.9985091686248779,3.865067720413208,2.010598659515381,-0.4446885287761688,0.4916560649871826,0.0924813449382782,-0.865864634513855,-0.23459124565124512,0.6078665852546692,0.3340500593185425,0.726354506841341,-0.2037629616623974,0.15983849322841762,0.636664369250503,-0.09261368314977196,0.5164222806954921,1.463856926193898
1784115035593837056,1.0084290504455566,2.253830671310425,1.8456604480743408,-0.6083623766899109,0.5073186159133911,0.06875842809677124,-0.859011173248291,-0.1715794801712036,-0.10821765661239624,0.518648624420166,0.729392814041237,-0.19903096286656277,0.17573019382982674,0.6304695742310543,-0.06881272124192228,0.5334675238835097,1.4443718484672057
1784115035603756288,1.018348217010498,0.7636768221855164,1.873037576675415,-0.5447953343391418,0.5226681232452393,0.05906300991773605,-0.8504878282546997,-0.21022915840148926,-0.9022331833839417,0.4130183458328247,0.7311299461984085,-0.199881726339382,0.1865566096677168,0.6250543011425684,-0.05909740272661627,0.5510500775312512,1.4313938511405582
1784115035613676032,1.0282680988311768,-0.47560223937034607,1.9909237623214722,-0.260302871465683,0.5387260317802429,0.06010707840323448,-0.8403341174125671,-0.10568159818649292,-1.1468991041183472,0.26747339963912964,0.7306323559388507,-0.20581566492665307,0.19357908540827948,0.6215653134452725,-0.060143330567087,0.570082919145665,1.4274547348767936
1784115035623596288,1.0381882190704346,-0.8618029356002808,2.0249643325805664,-0.12919877469539642,0.5554855465888977,0.06746451556682587,-0.8287848234176636,-0.21477210521697998,-0.6655632853507996,0.15217965841293335,0.7283841529942464,-0.21505765464045998,0.1983879552013301,0.6195554085134153,-0.0675157960994785,0.5904730329359218,1.4302118483523854
1784115035633516032,1.0481081008911133,-0.006855286192148924,1.8640048503875732,-0.33905187249183655,0.5712215304374695,0.07256382703781128,-0.8175820708274841,-0.290139377117157,-0.056862540543079376,0.004960060119628906,0.7265715498264712,-0.22296495939764432,0.2037046704390159,0.617158575281296,-0.07262765611126398,0.6098339775373214,1.4311723719534886
1784115035643436288,1.058028221130371,1.001678228378296,1.751325011253357,-0.628446102142334,0.5854748487472534,0.07147756218910217,-0.8075333833694458,-0.3540447950363159,0.3846229016780853,-0.0804060697555542,0.7267277354895962,-0.22725781483820745,0.2111568249585722,0.612889384201265,-0.07153856546004228,0.6273188737414003,1.4244606619649425
1784115035653356032,1.0679481029510498,1.8997256755828857,1.4609512090682983,-1.0130913257598877,0.59747713804245,0.06437104195356369,-0.799298107624054,-0.36227816343307495,0.6489315629005432,-0.07802122831344604,0.7292147120354626,-0.22749768033178105,0.22044446689035016,0.6065433959656263,-0.06441557783208468,0.6419006402966939,1.4090582776766265
1784115035663276288,1.0778682231903076,2.551316022872925,1.6150486469268799,-0.8582997918128967,0.6088881492614746,0.0528574176132679,-0.7914930582046509,-0.5540481209754944,0.4287404716014862,-0.016108810901641846,0.7329333443756231,-0.22514183849973404,0.2314403002903876,0.5987948155176831,-0.05288206158051352,0.6557331914487116,1.3880143145569124
1784115035673196032,1.0877881050109863,2.6157844066619873,1.5164674520492554,-0.5257799029350281,0.620846152305603,0.03603266552090645,-0.783103883266449,-0.4458125829696655,0.16039372980594635,-0.005119383335113525,0.7360172277851099,-0.22081119327950993,0.24431633583804857,0.591464787029076,-0.03604046734027964,0.6703363440274158,1.3664210883993846
1784115035683116032,1.097707986831665,1.8792411088943481,1.3372637033462524,-0.43278294801712036,0.6315978765487671,0.021707726642489433,-0.7749922275543213,-0.2863067388534546,0.12256414443254471,0.1487410068511963,0.7380836704199338,-0.21734103870044402,0.2554735872975697,0.5854304164823123,-0.02170943116358397,0.6838044697990838,1.3488587968984949
1784115035693036032,1.1076281070709229,1.5846999883651733,1.253929615020752,-0.259466290473938,0.6412124633789062,0.010893628001213074,-0.7672861218452454,-0.21080780029296875,0.05687067657709122,0.16378575563430786,0.7393090683484862,-0.2152025609590944,0.2646597706523763,0.5805732794260733,-0.010893843209498226,0.6961267991998598,1.3353686758400973
1784115035702956032,1.1175479888916016,1.3468375205993652,1.2939332723617554,-0.20301580429077148,0.650818943977356,0.0012143771164119244,-0.7592319846153259,-0.16798514127731323,-0.009911901317536831,0.0927739143371582,0.7398132361109377,-0.21376471984778825,0.27329224638313965,0.5764480430712244,-0.0012143773841571588,0.7086632314109583,1.3242823822617165
1784115035712876288,1.1274683475494385,1.6002693176269531,1.30384361743927,-0.1396421641111374,0.6604446172714233,-0.008372866548597813,-0.7508280873298645,-0.14752042293548584,0.06414372473955154,0.089893639087677,0.740061335222511,-0.21240752228189524,0.2819024704739596,0.572471136910502,0.008372964270627597,0.7214415474246315,1.3136429044003268
1784115035722796544,1.1373884677886963,2.1187078952789307,1.2292290925979614,-0.1454034447669983,0.6698213219642639,-0.021382490172982216,-0.7422143816947937,-0.10608536005020142,0.16409794986248016,0.016887903213500977,0.7406057476573062,-0.2092821827023962,0.29170837149114387,0.567987925583298,0.021384120533773032,0.7341744145190902,1.3002660379701187
1784115035732716288,1.147308349609375,2.358116626739502,1.1059298515319824,-0.1226201057434082,0.6783252358436584,-0.0369008332490921,-0.7338346242904663,-0.07477909326553345,0.3271687924861908,0.05135476589202881,0.7415924328858847,-0.20447455772572168,0.3021139806601187,0.5629901704390702,0.0369092130781488,0.7461102470637377,1.2842334284032297
1784115035742636544,1.1572284698486328,2.839893341064453,1.1239444017410278,-0.10472451895475388,0.6863588094711304,-0.05480418726801872,-0.7251952290534973,-0.05917680263519287,0.4306434392929077,0.056600868701934814,0.7428065966132601,-0.1982120352047991,0.31323214328257143,0.5575267550927508,0.05483165751086723,0.7578918829005811,1.265890907251095
1784115035752555264,1.1671473979949951,3.2394986152648926,1.1059401035308838,-0.07553733885288239,0.6943789124488831,-0.0760442391037941,-0.7155802845954895,-0.11242401599884033,0.4270421862602234,0.006595909595489502,0.7442239164075967,-0.19014578217251213,0.32566000421241054,0.5512901664006973,0.07611772031020825,0.7703624367261744,1.2442473342910183
1784115035762475264,1.1770672798156738,3.3073031902313232,1.1263803243637085,-0.10854732245206833,0.7022934556007385,-0.09864650666713715,-0.7050197124481201,-0.13794714212417603,0.45336759090423584,0.025500059127807617,0.7456747163523614,-0.18113564526266782,0.3386443969530529,0.544498969389744,0.09880720353340783,0.7834609799195347,1.2205864851560133
1784115035772395264,1.1869874000549316,3.0916924476623535,1.1092119216918945,-0.16255809366703033,0.7102705240249634,-0.11988556385040283,-0.6936448812484741,-0.09863728284835815,0.39172089099884033,0.05407273769378662,0.7469505832774666,-0.17253281183923624,0.35129756335716594,0.5374824285213994,0.12017461636497462,0.7972399522613518,1.1968144769669111
1784115035782315264,1.1969072818756104,2.829984664916992,0.8351438045501709,-0.30619731545448303,0.7172878384590149,-0.1384381502866745,-0.6828858852386475,-0.011507809162139893,0.2278851866722107,0.12038588523864746,0.7482858626982182,-0.16458908494960306,0.36258446390146265,0.5305764002026586,0.13888420344252247,0.8099629911250235,1.1739410101776668
1784115035792235264,1.2068274021148682,2.7902393341064453,0.7232961058616638,-0.3518580198287964,0.7226606011390686,-0.15487806499004364,-0.6736278533935547,0.051448285579681396,0.11389297246932983,0.1292400360107422,0.7500550952693966,-0.1567070924888334,0.37232908354658767,0.5236711047260442,0.1555040214171128,0.8205002098124439,1.1512589474557375
1784115035802155264,1.2167472839355469,2.6817851066589355,0.9086712002754211,-0.4418025016784668,0.7287533283233643,-0.17016243934631348,-0.6632974147796631,-0.015053927898406982,0.17680002748966217,0.15226531028747559,0.7515984735204582,-0.14939632283202828,0.3821413722468388,0.516477095867252,0.1709945067224482,0.8323847446537143,1.1283983939290576
1784115035812075264,1.2266674041748047,3.117398738861084,0.8762618899345398,-0.48452121019363403,0.7352824807167053,-0.1853044182062149,-0.6519371271133423,-0.22937726974487305,0.4298570454120636,0.14150011539459229,0.7531722470513645,-0.14190459831453917,0.39229391744932335,0.5086258193869652,0.18638163845375355,0.8454068783542109,1.103895181572691
1784115035821995264,1.2365872859954834,4.189967155456543,0.9999611377716064,-0.7021704912185669,0.7422219514846802,-0.20431146025657654,-0.6382503509521484,-0.3069497346878052,0.6310540437698364,-0.03827857971191406,0.7552702496543701,-0.13174334338339166,0.4043742426292917,0.4986904181149109,0.20576028315004122,0.8605722211105739,1.07243622439402
1784115035831915264,1.2465074062347412,5.168796539306641,0.8828467130661011,-0.9147882461547852,0.7501214146614075,-0.2275969237089157,-0.6209006309509277,-0.30621272325515747,0.6982848048210144,-0.17020654678344727,0.7582006202836993,-0.11815707664902399,0.41903293769990374,0.4853681275975736,0.22960912793366484,0.8793720065985072,1.0304722619057327
1784115035841835264,1.25642728805542,5.912526607513428,0.5270030498504639,-1.0074529647827148,0.7566788196563721,-0.2540012300014496,-0.6024289727210999,-0.06916356086730957,0.642581582069397,-0.15724509954452515,0.76205425142373,-0.10093705619432414,0.43427782181668295,0.46956144517405596,0.2568149137359571,0.8984080659643773,0.9801330749063997
1784115035851755264,1.2663474082946777,6.1403374671936035,0.3855231702327728,-1.0201176404953003,0.7620889544487,-0.28214696049690247,-0.5827637314796448,0.12537753582000732,0.3837094306945801,-0.24320977926254272,0.7660933676212129,-0.08116441931404847,0.4494779930237867,0.4521978835110408,0.2860312447013582,0.917958125661153,0.9243785595891765
1784115035861675264,1.2762672901153564,5.924561977386475,0.272188663482666,-0.9394739270210266,0.7668594121932983,-0.30886146426200867,-0.5626111626625061,0.23008882999420166,0.14501261711120605,-0.2372850775718689,0.7696879026251436,-0.061152863044385664,0.4636321247891127,0.43461042804410277,0.31399574656194484,0.9378375735438248,0.8680049289237199
1784115035871595264,1.2861874103546143,5.501877784729004,0.007346091791987419,-0.9401258826255798,0.7706974744796753,-0.3331778645515442,-0.5431555509567261,0.24477499723434448,-0.002957969903945923,-0.14651119709014893,0.7727484276849462,-0.04174876296256157,0.4761084488335702,0.4176574223543005,0.33967202381098077,0.956883892332081,0.8136028636559121
1784115035881515264,1.296107292175293,4.729691028594971,-0.23859545588493347,-0.9864283800125122,0.7732582092285156,-0.3530193865299225,-0.5267343521118164,0.23669052124023438,-0.05245238542556763,-0.14317220449447632,0.7758640055512016,-0.02407794986347189,0.4858529395741464,0.40174896247582054,0.360796324985482,0.9728076293804117,0.7633021180576299
1784115035891435264,1.3060274124145508,3.967182159423828,-0.11353261768817902,-1.084931492805481,0.775968074798584,-0.3674394190311432,-0.5127004981040955,0.21115344762802124,-0.09403210878372192,-0.19813019037246704,0.7787268560960676,-0.009473607341072703,0.49351799712543376,0.3872139812444721,0.376254359864225,0.986919391340698,0.7187987432508582
1784115035901355264,1.3159472942352295,3.3145875930786133,-0.004704901948571205,-1.1050233840942383,0.779723048210144,-0.3771359622478485,-0.4998002350330353,0.0802011489868164,-0.1096804141998291,-0.20688006281852722,0.7810284582080946,0.001945725702165036,0.5000960858552865,0.3740247635945179,0.38670196966585013,1.000776070387594,0.6799170615870958
1784115035911274496,1.325866460800171,2.6834511756896973,-0.019074253737926483,-1.1539480686187744,0.7839317917823792,-0.3832457363605499,-0.4884399175643921,0.027057528495788574,-0.029962241649627686,-0.2545715272426605,0.7829853084096042,0.010866120225770177,0.5056302730360784,0.3621516951064739,0.3933078023126892,1.013590185410013,0.6461326981244776
1784115035921194240,1.3357863426208496,1.9604167938232422,-0.16743135452270508,-1.3507229089736938,0.7881861925125122,-0.38457581400871277,-0.4804830849170685,0.04244124889373779,0.10331058502197266,-0.20585724711418152,0.7852711677256272,0.016822699905643553,0.5093873302974281,0.3515547333891518,0.39474825471894914,1.0233434478754924,0.6181953585263108
1784115035931114496,1.3457064628601074,1.6556487083435059,-0.08395829051733017,-1.4817888736724854,0.7929122447967529,-0.381850004196167,-0.47484809160232544,0.18889927864074707,0.12336611747741699,-0.13062065839767456,0.7879236297166394,0.02041872964115504,0.5120146749128457,0.3414679527332159,0.3917971545235089,1.0312111455666009,0.5938979057143354
1784115035941034240,1.3556263446807861,1.358796238899231,0.023284006863832474,-1.4930545091629028,0.7984067797660828,-0.3772200345993042,-0.4693099558353424,0.2974947690963745,0.0135420560836792,-0.1451919674873352,0.7902996115591026,0.022607239836838974,0.5146201840887821,0.33178550517147465,0.3867927186741792,1.0393896939362035,0.5717780954256595
1784115035950954496,1.365546464920044,1.3209000825881958,-0.010328547097742558,-1.4311842918395996,0.8037437796592712,-0.371843546628952,-0.4644657075405121,0.28660351037979126,0.011812418699264526,-0.1080746054649353,0.7924995307894507,0.024080636597927182,0.5169016078187977,0.322765249095412,0.38099417252425327,1.0468019791327687,0.551870951141494
1784115035960874240,1.3754663467407227,1.4239915609359741,-0.0716037005186081,-1.4899101257324219,0.8089559078216553,-0.3663913905620575,-0.45972558856010437,0.26289767026901245,0.009854555130004883,-0.21954992413520813,0.7947137360752656,0.02572739846916268,0.5191101113629887,0.31351686404676893,0.37512773268299887,1.0540156516561847,0.5315236403321895
1784115035970794496,1.3853864669799805,1.3364944458007812,-0.17846302688121796,-1.3761518001556396,0.8134893178939819,-0.3611336648464203,-0.4558701813220978,0.29226934909820557,-0.06896582245826721,-0.3357253074645996,0.7971091684073681,0.02773618216688656,0.5208604595931181,0.304223654347384,0.3694833266736531,1.060012181467978,0.511073527530895
1784115035980714240,1.3953063488006592,1.1742697954177856,-0.24838292598724365,-1.35531747341156,0.8172653317451477,-0.3558935225009918,-0.45322954654693604,0.3993178606033325,-0.2214227318763733,-0.3840354382991791,0.7995038321964497,0.02953051739123949,0.5220279456214343,0.29564892550235977,0.36387002043308453,1.0644524696969302,0.4925497855318636
1784115035990634496,1.405226469039917,0.9634487628936768,-0.4331724941730499,-1.458870768547058,0.8206526041030884,-0.3493749499320984,-0.45217958092689514,0.43267375230789185,-0.3078516125679016,-0.38314753770828247,0.8022607495749452,0.03072753015043116,0.5224615045865116,0.2871713530843316,0.3569039190256081,1.0671856702629157,0.4751756592068124
1784115036000554240,1.4151463508605957,0.2559743821620941,-0.5184450149536133,-1.4626729488372803,0.823438286781311,-0.34011077880859375,-0.45417413115501404,0.38670575618743896,-0.21730804443359375,-0.29013437032699585,0.8055446801126711,0.0300707890647468,0.5215445195598555,0.27961567114392766,0.34703468720706004,1.0667576090200075,0.4619436600292034
1784115036010474496,1.4250664710998535,-0.1345837563276291,-0.5320569276809692,-1.3116307258605957,0.8256475329399109,-0.32887279987335205,-0.4584198296070099,0.31468749046325684,-0.08805835247039795,-0.2053070068359375,0.8088229841016702,0.027333668374285126,0.5196565690151439,0.27388917086720044,0.3351097448783213,1.063950753998509,0.45456457586888216
1784115036020394240,1.4349863529205322,-0.25630155205726624,-0.5295810103416443,-1.2207812070846558,0.8272110223770142,-0.3176100552082062,-0.4635145366191864,0.24712979793548584,-0.15066692233085632,-0.2581803798675537,0.8119434508847173,0.024010891449415536,0.5173646697145419,0.2692675985023274,0.32320797097786996,1.060053683658414,0.4499668818837399
1784115036030314496,1.44490647315979,-0.417671263217926,-0.5497859120368958,-1.1005957126617432,0.8283036947250366,-0.306446373462677,-0.4690453112125397,0.2075086236000061,-0.2137104868888855,-0.28489136695861816,0.8149140260757034,0.020349870138873155,0.5148429102479916,0.26540092797713516,0.31145752456519454,1.0555459748740843,0.4471616000259796
1784115036040234240,1.4548263549804688,-0.24392469227313995,-0.7217543721199036,-0.925460159778595,0.8283069729804993,-0.29656198620796204,-0.47535085678100586,0.21684372425079346,-0.23548144102096558,-0.32321783900260925,0.8179113541480878,0.017258429229661153,0.5118854472698612,0.26209991649463443,0.30109067929640265,1.0498022883715386,0.4449851414167609
1784115036050153216,1.464745283126831,-0.015981540083885193,-0.8782289028167725,-0.7562852501869202,0.8268238306045532,-0.2890126407146454,-0.4825287163257599,0.2004435658454895,-0.22432351112365723,-0.37449637055397034,0.8210759247577701,0.015598892968205382,0.5084213913962071,0.25903405031303844,0.2931953195576378,1.0425280495066058,0.4420202738020968
1784115036060073472,1.4746654033660889,0.09026067703962326,-0.9310222268104553,-0.6183758974075317,0.8242982029914856,-0.28370288014411926,-0.48994389176368713,0.14259010553359985,-0.22983166575431824,-0.4087377190589905,0.8242814714102022,0.01532766165701742,0.5047703612560459,0.2559919025673233,0.2876534422299209,1.0345216433822764,0.4378183826864246
1784115036069993216,1.4845852851867676,-0.27907609939575195,-1.0383481979370117,-0.5202897787094116,0.8209473490715027,-0.27885767817497253,-0.49828091263771057,0.07381278276443481,-0.31881383061408997,-0.3248544931411743,0.8274802897599918,0.014943085234265652,0.5006358434350694,0.25380469589658555,0.28260439138081517,1.0252760306663544,0.43543706405616883
1784115036079913472,1.4945054054260254,-1.0173330307006836,-1.0324687957763672,-0.5195975303649902,0.8170678019523621,-0.27154868841171265,-0.5085877776145935,0.01719123125076294,-0.5133023858070374,-0.3172941207885742,0.8307718577855023,0.012402693176095237,0.4955323101373243,0.2532035299255811,0.27500180812506614,1.014029325188491,0.43825762774159793
1784115036089833216,1.504425287246704,-1.8069387674331665,-1.0872305631637573,-0.4359465539455414,0.8129009008407593,-0.26033642888069153,-0.5209770798683167,0.019969582557678223,-0.6992735862731934,-0.27067941427230835,0.8340384689437822,0.006634243780987951,0.4893541104570839,0.2546928545229086,0.2633706208528821,1.0008546098178912,0.44814580332351905
1784115036099753472,1.514345407485962,-2.30025053024292,-1.1422898769378662,-0.37689828872680664,0.8078106641769409,-0.24645037949085236,-0.5354477167129517,0.09737122058868408,-0.7795658111572266,-0.32342374324798584,0.8373423269023523,-0.0013545040375671025,0.4819484365499727,0.2580346015443164,0.2490159470102362,0.9854489111630101,0.4636622643996847
1784115036109673216,1.5242652893066406,-2.7356531620025635,-1.1339988708496094,-0.26503780484199524,0.8023005723953247,-0.23027628660202026,-0.5507146716117859,0.10376632213592529,-0.6409090161323547,-0.2887781262397766,0.8404285805300987,-0.011138771798887396,0.4738339257393668,0.2627491969530191,0.23236158601108153,0.9692431165738881,0.4832823174453873
1784115036119593472,1.5341854095458984,-2.856466054916382,-1.26144278049469,-0.18350352346897125,0.7959532737731934,-0.21304477751255035,-0.5666307210922241,0.12454843521118164,-0.40557706356048584,-0.24266493320465088,0.8433252235743669,-0.021757194290735967,0.46498524255290014,0.26854784139090143,0.2146902348732677,0.9521353827226926,0.505560832573906
1784115036129513216,1.5441052913665771,-2.908674716949463,-1.3778612613677979,-0.1312941163778305,0.7884598970413208,-0.19556115567684174,-0.58316969871521,0.17432397603988647,-0.31005406379699707,-0.20281052589416504,0.8462467382247939,-0.032267187940090654,0.45538332926889763,0.27468415169492927,0.19682962797386827,0.9339642017078543,0.5282479580214728
1784115036139433472,1.554025411605835,-3.231748580932617,-1.5865297317504883,-0.1136382594704628,0.7798328995704651,-0.1768348664045334,-0.6004915833473206,0.2380351424217224,-0.3620445132255554,-0.17741674184799194,0.8491828993947771,-0.04324186742730131,0.44484193872315275,0.2813081997668706,0.17776969778758694,0.9146013202922405,0.5521297117795458
1784115036149353216,1.5639452934265137,-3.716292381286621,-1.566449522972107,-0.09531278163194656,0.7699321508407593,-0.1551963835954666,-0.6189656853675842,0.23932993412017822,-0.5038917660713196,-0.129966139793396,0.8520511287448136,-0.05573691275206992,0.43290939707283965,0.2889493612846521,0.1558262476531405,0.8936682636186664,0.5791209948357853
1784115036159273472,1.5738654136657715,-4.371486663818359,-1.573386788368225,-0.1823797971010208,0.7599545121192932,-0.1294068992137909,-0.6369638442993164,0.1359958052635193,-0.6094542145729065,-0.1362752914428711,0.8543897134787917,-0.07056643108596514,0.4201647854313788,0.29748966133773924,0.1297708207181054,0.8732159757899329,0.609498989022556
1784115036169193216,1.5837852954864502,-5.000654220581055,-1.5461444854736328,-0.3018742501735687,0.7496016621589661,-0.09745848178863525,-0.6546748876571655,0.09472817182540894,-0.6147912740707397,-0.06372416019439697,0.8562540765484589,-0.08858403218795796,0.4059746441336451,0.3068656683549362,0.09761342614096663,0.8528938221085971,0.6438678181671215
1784115036179113472,1.593705415725708,-4.827144145965576,-1.5061614513397217,-0.3778040409088135,0.7392202019691467,-0.06277292221784592,-0.6705318689346313,0.152213454246521,-0.5592973828315735,0.020507454872131348,0.8575097266704264,-0.10767044239227672,0.3913325039732505,0.3161375815480528,0.06281421827592787,0.8340833409836339,0.6785821411695075
1784115036189033216,1.6036252975463867,-4.201906204223633,-1.5751030445098877,-0.385309636592865,0.7283508777618408,-0.02989177405834198,-0.684552013874054,0.2109953761100769,-0.4240419268608093,-0.011019885540008545,0.8586049902137676,-0.12491744529580218,0.3769875710070094,0.3241502859719455,0.029896227372765566,0.8163874434167439,0.7090456338236827
1784115036198952448,1.6135444641113281,-3.6782984733581543,-1.6946629285812378,-0.4751683175563812,0.7163379192352295,-0.0003796210221480578,-0.697753369808197,0.2887279987335205,-0.31363099813461304,-0.003738880157470703,0.8599134542044578,-0.1393811217380891,0.3628997265983406,0.33079526811694576,0.00037962103906234094,0.7985398134421896,0.7343076645604323
1784115036208872192,1.6234643459320068,-3.1308505535125732,-1.7823855876922607,-0.5182292461395264,0.7031973004341125,0.026518743485212326,-0.7105000615119934,0.3284189701080322,-0.26936236023902893,-0.019144654273986816,0.8615524432701701,-0.15153861265613694,0.3489785227368514,0.3361212293043775,-0.026521853015344068,0.7802324702795163,0.7548515262207806
1784115036218792448,1.6333844661712646,-2.5465266704559326,-1.882816195487976,-0.27519094944000244,0.6884362101554871,0.048570990562438965,-0.7236687541007996,0.36139893531799316,-0.28366315364837646,-0.06627875566482544,0.8634867159685078,-0.16049531349021962,0.3352713471537164,0.3409181162481747,-0.04859010807995301,0.7604529791135003,0.7714819074945068
1784115036228712448,1.6433043479919434,-1.9050378799438477,-1.8771026134490967,-0.27383166551589966,0.6707704067230225,0.06422051787376404,-0.738879382610321,0.33179301023483276,-0.31585320830345154,-0.08373713493347168,0.8659927284612117,-0.16532945430836826,0.3212887847975932,0.3456822979314083,-0.06426474558421519,0.737119493780297,0.7844159944099821
1784115036238632448,1.6532244682312012,-1.5013606548309326,-1.8367973566055298,-0.37713366746902466,0.6536771059036255,0.07698178291320801,-0.7528479695320129,0.23455220460891724,-0.285813570022583,0.0024512410163879395,0.8687072198874292,-0.16828645007426865,0.30863520946000206,0.3489581265542179,-0.0770580177319074,0.7150069622209515,0.7927366819113606
1784115036248552448,1.6631443500518799,-1.0817127227783203,-1.8660154342651367,-0.13969476521015167,0.6379711627960205,0.087528757750988,-0.7650696039199829,0.21140927076339722,-0.11194281280040741,0.05039370059967041,0.8711594297346695,-0.17028014641166933,0.29743883561828555,0.35159086001000445,-0.08764090930905788,0.6950568981947374,0.7989578900183459
1784115036258472448,1.6730644702911377,-0.2565877437591553,-1.890434741973877,-0.011317345313727856,0.6225786209106445,0.09251148253679276,-0.7770698070526123,0.26182079315185547,-0.050748176872730255,-0.0026543140411376953,0.8735953713084521,-0.16952311572980736,0.2876230458544267,0.35407061005056717,-0.09264395264148605,0.6754646270345295,0.802694476491296
1784115036268392448,1.6829843521118164,0.6465298533439636,-1.9897056818008423,0.07606282830238342,0.6068081855773926,0.09013593196868896,-0.7897210717201233,0.2538638710975647,-0.050646185874938965,0.01854187250137329,0.8765821475302193,-0.16472038612379275,0.27929673116342607,0.35561814272093084,-0.09025842975244418,0.6551627425134169,0.8014894448361666
1784115036278312448,1.6929044723510742,0.9966210126876831,-2.0844027996063232,0.36747220158576965,0.5903469324111938,0.08173815906047821,-0.8030002117156982,0.26191747188568115,-0.037380851805210114,0.08090853691101074,0.8797674399270858,-0.15680216235047648,0.2718693869514201,0.3570845454459442,-0.08182945288058993,0.6339463917643052,0.7979951225151474
1784115036288232448,1.702824354171753,0.8553909659385681,-2.1446685791015625,0.546741783618927,0.5732132792472839,0.07086645811796188,-0.8163359761238098,0.2798445224761963,-0.15832984447479248,0.18906241655349731,0.8825453631215021,-0.14790548698127837,0.26449191136599876,0.35955757821269546,-0.07092591154891612,0.6121863154806466,0.7961782547217581
1784115036298152448,1.7127444744110107,0.18993987143039703,-2.112494707107544,0.5142639875411987,0.5557166337966919,0.06303619593381882,-0.8289785385131836,0.2442711591720581,-0.4304678440093994,0.3001241683959961,0.8847945667788576,-0.14072945628049563,0.25633171082951395,0.36280552810098005,-0.0630780143628406,0.5905573337326984,0.7974636498438632
1784115036308072448,1.7226643562316895,-0.7768765687942505,-1.9644100666046143,0.5670731067657471,0.5385682582855225,0.062086790800094604,-0.8402913212776184,0.21774888038635254,-0.6061694622039795,0.3344166874885559,0.886261431438128,-0.13730309813614014,0.24698625956010342,0.366996303123666,-0.06212674996129203,0.5699729710062668,0.8034015563698882
1784115036317992448,1.7325844764709473,-1.466043472290039,-1.7728099822998047,0.6850077509880066,0.5227900147438049,0.06748927384614944,-0.8497857451438904,0.22357839345932007,-0.5864559412002563,0.3177880644798279,0.8866121686206692,-0.1376456812640844,0.23698269029020874,0.3725744635166992,-0.0675406132174969,0.5515226172445883,0.814753081506824
1784115036327912448,1.742504358291626,-1.7782450914382935,-1.677804708480835,0.7331790328025818,0.507795512676239,0.07605016976594925,-0.8581143021583557,0.25392329692840576,-0.44235265254974365,0.2336178421974182,0.8862343810855088,-0.13984929830079157,0.22668267020204733,0.37900634246831116,-0.07612367229609404,0.5343367353943353,0.8290871250333844
1784115036337831168,1.7524232864379883,-2.08321475982666,-1.6984703540802002,0.8130280375480652,0.4929763972759247,0.08675045520067215,-0.8657070398330688,0.3295333981513977,-0.27579158544540405,0.21252405643463135,0.8853654755788812,-0.1431551017094461,0.21599330158374147,0.38598121870999175,-0.08685963279933652,0.5176528880191225,0.845239974618673
1784115036347751424,1.762343406677246,-2.132646322250366,-1.79494309425354,0.9744063019752502,0.4778658449649811,0.09886887669563293,-0.8728511929512024,0.4100583493709564,-0.23345139622688293,0.2633693814277649,0.8840071455625754,-0.1471075968942546,0.2047773617458344,0.393645701724043,-0.09903066458373828,0.5009040206853589,0.8632257340332173
1784115036357671168,1.7722632884979248,-2.06427264213562,-1.7959342002868652,1.0813082456588745,0.4627736508846283,0.11040348559617996,-0.879574716091156,0.4007364809513092,-0.30977481603622437,0.20673835277557373,0.8822341719328907,-0.15075123600418416,0.19361487799738164,0.40180872745226476,-0.11062901084122331,0.48433511649989475,0.882098017346627
1784115036367591424,1.7821834087371826,-2.4121103286743164,-1.7283668518066406,1.155240774154663,0.44826385378837585,0.12307354807853699,-0.8853883147239685,0.33234527707099915,-0.3466911017894745,0.243161141872406,0.8799607168536423,-0.1549982954348577,0.18243183906363078,0.4103211152238675,-0.12338638931271996,0.46866748263232344,0.902133621632722
1784115036377511168,1.7921032905578613,-3.1725728511810303,-1.7186400890350342,1.0599931478500366,0.4343169927597046,0.14090335369110107,-0.889671266078949,0.3297973573207855,-0.3879278898239136,0.33910369873046875,0.8770139583176902,-0.16172961027375074,0.17031703125544778,0.41914453271999447,-0.1413738051885987,0.4541444909775124,0.9243769647464218
1784115036387431424,1.8020234107971191,-4.211790084838867,-1.7279608249664307,1.0640486478805542,0.4206724464893341,0.16830426454544067,-0.8914641737937927,0.4092683494091034,-0.4479673504829407,0.3661193251609802,0.8731392076584702,-0.17292812418473724,0.15608897909121103,0.4282056998447416,-0.16910914568305124,0.44090724457128655,0.949892707658121
1784115036397351168,1.8119432926177979,-5.030068397521973,-1.7613191604614258,1.1425739526748657,0.40708959102630615,0.20432497560977936,-0.8902412056922913,0.49090540409088135,-0.37587952613830566,0.31275707483291626,0.8678959878642727,-0.1881524322179755,0.13956381810291096,0.43803799077700306,-0.20577408281596013,0.42889153617993936,0.9797888788202662
1784115036407271424,1.8218634128570557,-5.476305961608887,-1.5594220161437988,0.9911077618598938,0.3949982821941376,0.2461213916540146,-0.8850991725921631,0.44524216651916504,-0.21146871149539948,0.33982640504837036,0.8614386501912379,-0.20628933585604356,0.12204552267892134,0.4477420558086284,-0.24867650025629748,0.4197524995067995,1.0118953680057867
1784115036417191168,1.8317832946777344,-5.5273871421813965,-1.5466781854629517,0.9292746782302856,0.3840145468711853,0.29046759009361267,-0.8764481544494629,0.3457827866077423,-0.011063933372497559,0.34884506464004517,0.8542611081790286,-0.22567485438746895,0.10414785999569734,0.4565763939791435,-0.2947154639746124,0.41295472766612884,1.0438452554330926
1784115036427111424,1.8417034149169922,-5.389626502990723,-1.5672380924224854,0.9568740725517273,0.37340283393859863,0.3338563144207001,-0.8655115365982056,0.273783415555954,0.13332200050354004,0.31424206495285034,0.8464731216328393,-0.24456473864578288,0.08621082123641434,0.4650149868335924,-0.34039166198984827,0.4072995784305151,1.0756491158549697
1784115036437031168,1.851623296737671,-5.201755523681641,-1.4691822528839111,0.8217318058013916,0.36374014616012573,0.3754703402519226,-0.8524758815765381,0.16749459505081177,0.1445797085762024,0.2602975368499756,0.8383123027502657,-0.2627354266615014,0.06879065082871257,0.47272658712428767,-0.384904193697157,0.4032984487010945,1.1065377698613383
1784115036446951424,1.8615434169769287,-4.978360176086426,-1.4081655740737915,0.7231652736663818,0.3546467125415802,0.41551417112350464,-0.8375999927520752,0.0821208655834198,0.15080052614212036,0.2668297290802002,0.8300784093439546,-0.28020613258933313,0.0518124967302308,0.479343244008968,-0.42850802098448554,0.40052161074811865,1.135651059197561
1784115036456871168,1.8714632987976074,-4.326061725616455,-1.4075478315353394,0.7760947346687317,0.34632402658462524,0.45130348205566406,-0.8224261999130249,0.09735575318336487,0.17249107360839844,0.1545184850692749,0.8218981006380026,-0.2957929807306143,0.03596385401771981,0.48548615078857893,-0.46822548513321693,0.3985630453694148,1.1633460183370987
1784115036466790400,1.8813824653625488,-3.3610126972198486,-1.5521588325500488,0.7439197897911072,0.33797597885131836,0.4797353148460388,-0.809707522392273,0.16310742497444153,0.15335184335708618,0.02735888957977295,0.8145019959376215,-0.3076824219742622,0.021858044150961674,0.4913656168723762,-0.5003530177321753,0.39542007315896105,1.1879324667648699
1784115036476710400,1.8913023471832275,-2.5793240070343018,-1.7256346940994263,0.6247057318687439,0.3283144533634186,0.5007978081703186,-0.800881564617157,0.2770627439022064,0.0865282416343689,-0.013373255729675293,0.8083748945444064,-0.31539664396137956,0.009175413143796739,0.49696169732456735,-0.524520240729247,0.38904701130163266,1.2080890119940397
1784115036486630400,1.9012224674224854,-2.1089189052581787,-1.8022056818008423,0.5275576114654541,0.31725671887397766,0.5172907710075378,-0.7948323488235474,0.33212682604789734,0.029401123523712158,0.03193867206573486,0.8033394109845802,-0.3202757252542137,-0.002699426534330286,0.5020577788964429,-0.5436822084033376,0.37977274856160576,1.2241930500140852
1784115036496550400,1.911142349243164,-1.6540651321411133,-1.8749265670776367,0.6447683572769165,0.3058464229106903,0.5301732420921326,-0.7908061146736145,0.2704932987689972,0.08823496103286743,0.0904582142829895,0.7987942318578136,-0.3231217573459997,-0.013757421039757406,0.5072779988433311,-0.5588049020030345,0.3690344040822621,1.2385888125662865
1784115036506470400,1.9210624694824219,-1.2992603778839111,-1.86541748046875,0.6576484441757202,0.2947537302970886,0.5395163297653198,-0.7886966466903687,0.13104277849197388,0.17801296710968018,0.04374730587005615,0.7945948399650076,-0.3241732364774062,-0.02373578246831717,0.5128035788332965,-0.5698625808369345,0.3576502524819021,1.252008313597583
1784115036516390400,1.9309823513031006,-1.1942071914672852,-1.856285572052002,0.6829805374145508,0.28388512134552,0.5469889640808105,-0.7875356078147888,0.04770362377166748,0.16921281814575195,0.04130452871322632,0.7906617901468876,-0.32425495341342125,-0.033028933454060036,0.5182874478111626,-0.5787631835226431,0.34597400500724196,1.264435633413435
1784115036526310400,1.9409024715423584,-1.3315403461456299,-1.7897661924362183,0.7042360305786133,0.27358898520469666,0.5547057390213013,-0.7857802510261536,0.07338061928749084,0.06377875804901123,0.10075217485427856,0.7865129030397694,-0.32454638436663424,-0.042184302125597976,0.523724793482213,-0.5880092996615037,0.3350479907426398,1.277234453473036
1784115036536230400,1.950822353363037,-1.3468447923660278,-1.7154048681259155,0.7473981976509094,0.2641070485115051,0.5631343126296997,-0.7830244302749634,0.08907285332679749,-0.029000401496887207,0.13278639316558838,0.7820378991321031,-0.3253611594438197,-0.05126300603270659,0.5290832574351564,-0.5981738082611029,0.32530817017528485,1.2907317751664054
1784115036546150400,1.960742473602295,-1.1089651584625244,-1.6395822763442993,0.7774767279624939,0.2555277943611145,0.5706508755683899,-0.7804250121116638,0.0553547739982605,-0.003542661666870117,0.07662862539291382,0.7775555380802649,-0.3259196347475661,-0.05969828534111743,0.5344342764244303,-0.6072982084022107,0.31642033413698767,1.3042379902445593
1784115036556070400,1.9706623554229736,-0.5622745752334595,-1.6475460529327393,0.8107464909553528,0.24748308956623077,0.5751969218254089,-0.7796798348426819,0.035948917269706726,0.08550864458084106,0.0008407235145568848,0.7735358661676053,-0.3250861749354813,-0.06692582343626187,0.5398909120118317,-0.612844856181906,0.30735749418512365,1.3166388245306557
1784115036565990400,1.9805824756622314,0.2238575518131256,-1.7620905637741089,0.8679735660552979,0.23911800980567932,0.5744446516036987,-0.7828383445739746,0.06305180490016937,0.11578667163848877,-0.08939981460571289,0.7704100140586755,-0.3214348308895801,-0.0725291040304351,0.5457907279655838,-0.6119255253225534,0.29644929740948134,1.3270033079289427
1784115036575910400,1.9905023574829102,1.1751116514205933,-1.8145984411239624,1.015667200088501,0.2305518090724945,0.5666959881782532,-0.7910130023956299,0.089714914560318,0.09619158506393433,-0.16658282279968262,0.768299620291555,-0.3142160566490727,-0.0759063357150667,0.5524692560202321,-0.6024902198397228,0.28360731263212885,1.3354888758571366
1784115036585830400,2.000422477722168,2.149437665939331,-1.8415610790252686,1.161439299583435,0.22221510112285614,0.5508912205696106,-0.8044496774673462,0.08265550434589386,0.0718657374382019,-0.1839383840560913,0.7671316402960061,-0.30318002447392495,-0.07653121887216302,0.5601195932152069,-0.5834317673493981,0.2695116439206354,1.3427267230646325
1784115036595750400,2.0103423595428467,3.204118013381958,-1.8463529348373413,1.2872610092163086,0.21409189701080322,0.5262943506240845,-0.8229088187217712,0.029545187950134277,0.05692708492279053,-0.13425976037979126,0.7669581357482088,-0.288200918732776,-0.07406631762900667,0.5685329258239377,-0.5542366311810656,0.2545223993180303,1.3485544118721946
1784115036605669376,2.020261287689209,3.676616907119751,-1.9056648015975952,1.3516125679016113,0.20557737350463867,0.49389827251434326,-0.8448683023452759,-0.03210020065307617,0.061750560998916626,-0.08980882167816162,0.767393203059313,-0.2697978184998183,-0.0691012879747011,0.5775307779132112,-0.516567313925741,0.23868627816094728,1.353647630254216
1784115036615589376,2.030181407928467,3.2948787212371826,-1.8842298984527588,1.2628145217895508,0.19611774384975433,0.4608738422393799,-0.8655247688293457,-0.10535846650600433,0.04117083549499512,0.002487659454345703,0.7675423268442078,-0.2512463089698921,-0.06413196283779878,0.5862090813321892,-0.4789795837295071,0.22282564821639037,1.359105384340567
1784115036625509376,2.0401012897491455,2.8729262351989746,-1.824195384979248,1.3749042749404907,0.18604311347007751,0.43094053864479065,-0.8829938769340515,-0.1268542855978012,-0.10260191559791565,0.1279585361480713,0.7668598244883524,-0.2342399924623047,-0.06028830076243598,0.5944938292388939,-0.4455347885511961,0.2076585163673293,1.3661104899303145
1784115036635429376,2.0500214099884033,2.389030694961548,-1.6037412881851196,1.3941706418991089,0.1767909824848175,0.4049190282821655,-0.8970983624458313,-0.188555508852005,-0.13914147019386292,0.14438235759735107,0.765170218788608,-0.21947042898292768,-0.05730215102059827,0.6025476335270867,-0.41689026710421884,0.19457645337429938,1.3753869017592628
1784115036645349376,2.059941291809082,2.1010868549346924,-1.4514743089675903,1.3330230712890625,0.16848024725914001,0.3824577033519745,-0.908482551574707,-0.264458030462265,-0.026027649641036987,0.14006519317626953,0.7630125516133933,-0.206754055680728,-0.05487709002759404,0.6099615787011975,-0.3924547762012316,0.18336913609944416,1.3853144394499193
1784115036655269376,2.06986141204834,2.190722942352295,-1.33445143699646,1.3210501670837402,0.16082404553890228,0.36091554164886475,-0.9186270236968994,-0.23942206799983978,0.055435776710510254,0.09651398658752441,0.7607457003453622,-0.19481592450834567,-0.05228043881567345,0.6169112775762106,-0.3692494141574009,0.17331359704680402,1.3951849089335426
1784115036665189376,2.0797812938690186,2.5541679859161377,-1.3608462810516357,1.3760391473770142,0.15320998430252075,0.3370512127876282,-0.9289366006851196,-0.17609816789627075,0.15493792295455933,0.07531416416168213,0.7584862356316154,-0.1820827549488269,-0.04876044283722977,0.6238323738814838,-0.3437830787132396,0.16345897115385954,1.4050244764922792
1784115036675109376,2.0897014141082764,3.090907573699951,-1.4181554317474365,1.4408074617385864,0.1449091136455536,0.3088234066963196,-0.9400156736373901,-0.1666681468486786,0.2811424136161804,0.04102885723114014,0.7562137646433849,-0.16751036699044658,-0.04395956689134375,0.6309901142730767,-0.3139557093964323,0.15295205553617758,1.4149985844573985
1784115036685029376,2.099621295928955,3.790853261947632,-1.474705457687378,1.4723988771438599,0.13544537127017975,0.2744559645652771,-0.952012836933136,-0.21415020525455475,0.3585091233253479,-0.044080913066864014,0.7540280285323328,-0.15030871619297864,-0.037428134123731686,0.6383165884398001,-0.2780238990508082,0.1413241827614087,1.424771997800936
1784115036694949376,2.109541416168213,4.491532325744629,-1.4172953367233276,1.4288808107376099,0.1252870261669159,0.2330200970172882,-0.9643675684928894,-0.2722596824169159,0.3499724268913269,-0.1529725193977356,0.7520497151997968,-0.1303773938910391,-0.0285998644173798,0.6454495441006517,-0.23518212701894115,0.129192646387123,1.4338161041540787
1784115036704869376,2.1194612979888916,4.9441070556640625,-1.4321362972259521,1.30716073513031,0.11437167972326279,0.1856856644153595,-0.9759302735328674,-0.2756876051425934,0.2819046378135681,-0.2096623182296753,0.750292547886924,-0.10824374892369598,-0.017836532097324102,0.6519402616270358,-0.18676961481066665,0.11666033770930757,1.4416843972287534
1784115036714788864,2.129380941390991,5.1495680809021,-1.3809194564819336,1.2865608930587769,0.10264359414577484,0.13495692610740662,-0.9855206608772278,-0.25069963932037354,0.21529331803321838,-0.24153012037277222,0.7484283549097093,-0.08487339836306317,-0.006015808972396581,0.657734937447666,-0.13536999598569333,0.10377747964793903,1.44902175178378
1784115036724708864,2.13930082321167,5.390198707580566,-1.3922722339630127,1.3399780988693237,0.09005532413721085,0.08174986392259598,-0.9925759434700012,-0.26566872000694275,0.17989258468151093,-0.24744480848312378,0.7460250693371924,-0.06057755092791631,0.006510747196014117,0.6631248850573603,-0.08184119750441417,0.0904811713204924,1.4569791201603683
1784115036734628864,2.1492209434509277,5.524476051330566,-1.3379085063934326,1.250648856163025,0.07676535844802856,0.02654547058045864,-0.9966957569122314,-0.38163596391677856,0.2876635193824768,-0.22049784660339355,0.7430944324224016,-0.035559394019648284,0.01968894865024894,0.6679509655853989,-0.026548589494589128,0.07686809663229827,1.4654102141208203
1784115036744547840,2.15913987159729,5.5891265869140625,-1.2670351266860962,1.0336918830871582,0.06366447359323502,-0.029361853376030922,-0.9975393414497375,-0.5353289246559143,0.5356637239456177,-0.16719454526901245,0.7400926556272153,-0.010525902823930282,0.03345952639559559,0.6715896136953204,0.029366074602266947,0.06373507600033393,1.4728846276488194
1784115036754467840,2.1690597534179688,5.526542663574219,-1.1500869989395142,0.8104824423789978,0.05094657465815544,-0.08491750061511993,-0.9950846433639526,-0.6250280141830444,0.7692589163780212,-0.11126905679702759,0.7372347192947911,0.014172600228400311,0.047505906922662156,0.673815485107728,0.08501988634984464,0.05115356563184279,1.4787910647118696
1784115036764387840,2.1789798736572266,5.412875652313232,-1.0011135339736938,0.48611047863960266,0.03956688567996025,-0.1389235556125641,-0.9895123839378357,-0.6195687055587769,0.9105757474899292,-0.009373724460601807,0.7345967839167791,0.0378785428558542,0.06171738942994909,0.6746287103436185,0.13937434844607202,0.03996495701136015,1.4829500187138869
1784115036774307840,2.1888997554779053,5.042285442352295,-1.097861647605896,0.19342145323753357,0.02857595682144165,-0.190463587641716,-0.9812782406806946,-0.5356712937355042,0.8499484658241272,0.10820090770721436,0.7326184715141142,0.06071067184595778,0.07533313865928463,0.6737278542681291,0.19163435641740403,0.029112927195906458,1.4842970490195526
1784115036784227840,2.198819875717163,3.967010021209717,-0.7612473964691162,0.2316436767578125,0.018242033198475838,-0.23408131301403046,-0.9720458388328552,-0.3640824854373932,0.6271018981933594,0.301239013671875,0.7307038069138527,0.08051461819451315,0.08657056065902022,0.6723800309887501,0.23627351562657148,0.018764435954391853,1.4854804315048482
1784115036794147840,2.208739757537842,2.4656925201416016,-0.2393462061882019,0.2296883463859558,0.012497369199991226,-0.2648804187774658,-0.9642002582550049,-0.3929142355918884,0.2767212688922882,0.40578967332839966,0.7286961207868712,0.09399427817243185,0.09520996192088224,0.6716413671041083,0.2680799208408168,0.012960656990998702,1.4876065001095322
1784115036804067840,2.2186598777770996,0.6769692301750183,-0.1258430927991867,-0.2048705667257309,0.010679285041987896,-0.27985721826553345,-0.9599822163581848,-0.5144177079200745,0.14811286330223083,0.5203460454940796,0.7278543822595288,0.10027113699978757,0.09977263688666951,0.6709837999020922,0.28364538223338376,0.01112400206991359,1.4879417469914538
1784115036813987840,2.2285797595977783,-0.6578482985496521,0.002211707178503275,-0.7583472728729248,0.010942880064249039,-0.2791927754878998,-0.960172712802887,-0.6629051566123962,0.4433468282222748,0.508604109287262,0.7295068307565622,0.10016945407256628,0.09939679024898955,0.669257889433937,0.2829533518566537,0.011396289553852744,1.4830804250848184
1784115036823907840,2.238499879837036,-1.2480391263961792,0.13089165091514587,-1.2758359909057617,0.013843726366758347,-0.26907262206077576,-0.963020384311676,-0.743503749370575,0.9252616167068481,0.4189377427101135,0.7332578999963796,0.09580987207836214,0.09648976263031289,0.666215456940593,0.2724300245541338,0.01437432967027719,1.4730883143203413
1784115036833827840,2.248419761657715,-1.079355239868164,0.029122836887836456,-1.3998072147369385,0.0180702805519104,-0.2577380836009979,-0.9660457968711853,-0.7650032639503479,1.1273822784423828,0.22103548049926758,0.7382436327092792,0.0906967972711315,0.0935477325568825,0.661830182337169,0.26068047027443203,0.018703225556592155,1.4592963852474787
1784115036843747840,2.2583398818969727,-0.8310316801071167,0.033629171550273895,-1.6645996570587158,0.02193414606153965,-0.2480570524930954,-0.968497097492218,-0.5110088586807251,0.9813944697380066,0.12808877229690552,0.7435705042145581,0.08638171147695299,0.09104757421437015,0.6567734868113342,0.250674104359889,0.022643740675979653,1.4441362262252846
1784115036853667840,2.2682597637176514,-1.1205610036849976,-0.1311700940132141,-2.065035343170166,0.02623409405350685,-0.2387344390153885,-0.9707304835319519,-0.45573848485946655,0.5843307375907898,0.060925185680389404,0.7501011986195402,0.08221242507370496,0.08874617826436255,0.6501641024612947,0.2410623941342724,0.027018530095704284,1.4250250155089073
1784115036863587840,2.278179883956909,-1.4483587741851807,-0.15700168907642365,-1.568843960762024,0.02920655347406864,-0.22567756474018097,-0.9737641215324402,-0.2844861149787903,0.39591988921165466,0.12893080711364746,0.7567703186545616,0.07700498140034774,0.08478301819437334,0.6435686900121704,0.22763848330146996,0.029984468109718165,1.4060416943114633
1784115036873507840,2.288099765777588,-0.9639533162117004,-0.009817447513341904,-0.5911107659339905,0.030301613733172417,-0.2124186009168625,-0.9767088294029236,-0.12902598083019257,0.2777567505836487,0.08716720342636108,0.7606203365873969,0.0719235368334976,0.08045239669640881,0.6401648839487333,0.21404938945244822,0.03101425489672942,1.3959032788097634
1784115036883426816,2.2980189323425293,1.0654345750808716,0.21654725074768066,-1.0887898206710815,0.03406320884823799,-0.21242064237594604,-0.9765844345092773,-0.3201807737350464,0.030871570110321045,-0.41947269439697266,0.7634285408789705,0.07107095300947291,0.08158860214248458,0.6367645511782588,0.21405147625638893,0.03486580658501167,1.3866176182521868
1784115036893346816,2.307938814163208,0.024619348347187042,-0.6966899037361145,-0.9524133801460266,0.03346145898103714,-0.2184956669807434,-0.9752640724182129,-0.48750197887420654,0.07399491965770721,-0.7127394676208496,0.7661576767787849,0.07402678505878384,0.0829940135801381,0.6329569882760637,0.22027261687521726,0.03429669974489248,1.3771684566706348
1784115036903266816,2.317858934402466,0.41576525568962097,-0.8046619296073914,-1.6532199382781982,0.028330814093351364,-0.2195998728275299,-0.975178599357605,-0.44428539276123047,0.68311607837677,-0.26490318775177,0.7706699258195506,0.07668352083518118,0.08081055911060699,0.6274211194399628,0.22140430954189852,0.029043754887456898,1.3633598435598127
1784115036913186816,2.3277788162231445,1.4424182176589966,-1.0292152166366577,-1.1946558952331543,0.021551761776208878,-0.2283460795879364,-0.9733414649963379,-0.537176787853241,0.7379438877105713,-0.3653731346130371,0.7752411557192351,0.08292488533989363,0.08032892806663876,0.6210247930753595,0.2303785409129753,0.022138419612930366,1.348228156154934
1784115036923106816,2.3376989364624023,1.0637632608413696,-1.116620421409607,-1.164878010749817,0.014640973880887032,-0.24138621985912323,-0.9703186750411987,-0.4322130084037781,0.4838026165962219,-0.17366325855255127,0.7785346503693681,0.09080440617162079,0.0812109765557218,0.615664751803182,0.243794063481631,0.015087685648994755,1.3363628115195663
1784115036933026816,2.347618818283081,0.6067644953727722,-0.7793525457382202,-1.4508171081542969,0.007681433577090502,-0.2482457458972931,-0.9686666131019592,-0.6726594567298889,0.2646489441394806,0.11801964044570923,0.7829278569811902,0.09634820417147079,0.07989809800708889,0.609391014974072,0.2508688982983145,0.007929737800805095,1.3217980171263426
1784115036942946816,2.357538938522339,1.1065466403961182,-0.40092986822128296,-1.390907883644104,0.005013228394091129,-0.2566140294075012,-0.966500997543335,-0.6006553173065186,0.15860682725906372,0.014169454574584961,0.7869746762330356,0.101156536304884,0.08072713831465768,0.6032590837143987,0.25951727752533527,0.005186940804326273,1.307347644400612
1784115036952866816,2.3674588203430176,1.9071751832962036,-0.9108599424362183,-0.6778958439826965,0.0023289190139621496,-0.271339476108551,-0.962480902671814,-0.6201267838478088,0.443611204624176,-0.10564959049224854,0.7898140481257405,0.10849297033609802,0.08359923089917448,0.597857974198516,0.27478444787056905,0.0024196994635520288,1.295547218944568
1784115036962786816,2.3773789405822754,1.5327954292297363,-0.6804339289665222,-1.2747783660888672,-0.00373570853844285,-0.28758466243743896,-0.9577479362487793,-0.3253353238105774,0.522814154624939,-0.1963505744934082,0.7920279644970777,0.11747686206031416,0.08558747957460558,0.5929297934510376,0.29170399614485293,-0.003900493588113856,1.2858106207131894
1784115036972706816,2.387298822402954,2.1691336631774902,-0.7634075284004211,-0.9800202250480652,-0.008606190793216228,-0.3052208721637726,-0.9522426724433899,-0.3677365779876709,0.16793757677078247,0.09002959728240967,0.7945900110450782,0.1268175322309823,0.08829476910015602,0.5871525454079333,0.3101703746554744,-0.009037566086476689,1.2741801728651487
1784115036982626816,2.397218942642212,0.03446592018008232,-0.6534871459007263,-0.07613455504179001,-0.014939837157726288,-0.31598612666130066,-0.9486461877822876,-0.357115238904953,-0.24167683720588684,0.1834026575088501,0.7962169380968986,0.13358479157752418,0.08849867549276458,0.5834052056983461,0.32149585153592325,-0.015747285144722036,1.2672549814053338
1784115036992546816,2.4071388244628906,-0.6656568050384521,-0.031653087586164474,-0.1416945457458496,-0.016696276143193245,-0.31272637844085693,-0.9496964812278748,-0.3920561671257019,-0.35281622409820557,0.40057843923568726,0.7972114216644679,0.13285890815097134,0.08660402939198425,0.5824965796774609,0.31806202854548515,-0.01757883327863431,1.2648458270433331
1784115037002466816,2.4170589447021484,-1.731648325920105,0.5817573666572571,-0.12466710805892944,-0.012282591313123703,-0.30097392201423645,-0.9535532593727112,-0.1058051735162735,-0.37805742025375366,0.24910080432891846,0.7980970520194635,0.12662381836514788,0.08479252401531759,0.5829389750565211,0.30571377041239045,-0.01288015259470693,1.2636762679186482
1784115037012385792,2.4269778728485107,-1.8185458183288574,0.8004903197288513,-0.3015066385269165,-0.005161175038665533,-0.2838878929615021,-0.9588435888290405,0.05598820373415947,-0.037584275007247925,0.14509236812591553,0.7993872854350583,0.11738946246703702,0.08244949527463351,0.5834396407324947,0.28784640596107847,-0.0053826561491397435,1.261751078651887
1784115037022305792,2.4368977546691895,-0.8330443501472473,1.7632359266281128,-0.36772269010543823,0.008429124020040035,-0.27115651965141296,-0.9624983668327332,0.3002561926841736,0.25936147570610046,-0.010295212268829346,0.8008168347401318,0.1081438479537177,0.08399837017301086,0.5830451589850495,0.274594357657099,0.00875732223570355,1.2574161329565483
1784115037032225792,2.4468178749084473,-0.46570315957069397,1.3376051187515259,-0.16039404273033142,0.024365918710827827,-0.2652641236782074,-0.9638678431510925,0.931276798248291,0.20462572574615479,-0.16966181993484497,0.8007776913315686,0.10092102635067379,0.08877510376457266,0.5836857318311237,0.26847786183310846,0.025273932113657707,1.2563043012708444
1784115037042145792,2.456737756729126,0.5194113254547119,0.7376111149787903,-0.1382139027118683,0.03438061475753784,-0.26526251435279846,-0.963563084602356,1.2491581439971924,0.18368899822235107,-0.14483535289764404,0.8009810570576962,0.09799373553899626,0.09282078460335663,0.5832758924913284,0.2684761691156328,0.03566557879976521,1.2539901811569443
1784115037052065792,2.466657876968384,0.8448611497879028,0.5184662342071533,-0.24120068550109863,0.041485294699668884,-0.2729658782482147,-0.961128830909729,1.398364543914795,0.07786703109741211,-0.2709115743637085,0.8007965565856061,0.09913962201527407,0.09801494526692854,0.5824854152234099,0.27647465679649114,0.043136319188042796,1.2517339221788488
1784115037061985792,2.4765777587890625,1.0100418329238892,-0.11059553921222687,-0.24110934138298035,0.04421601444482803,-0.2817210853099823,-0.9584770202636719,1.1411477327346802,-0.0234089195728302,-0.07425308227539062,0.801016435547473,0.1021057656080629,0.10166566440335971,0.581043192958849,0.2855873680439781,0.04609885261418191,1.2484886788914928
1784115037071905792,2.4864978790283203,0.7850948572158813,-0.4995194375514984,-0.21042488515377045,0.04256593808531761,-0.28962939977645874,-0.956191897392273,0.7525085210800171,0.11450427770614624,-0.03836071491241455,0.8011717641318082,0.10600252065775308,0.10328366692965017,0.5798445858593774,0.2938396226582753,0.04448673524090034,1.2463865475211746
1784115037081825792,2.496417760848999,0.9365571141242981,-0.10423815250396729,-0.40506628155708313,0.04157054051756859,-0.297242671251297,-0.9538965821266174,0.1676579713821411,0.3298812210559845,0.07813364267349243,0.8015609693621858,0.10963593296706825,0.10503178152999161,0.5783150246199434,0.30180351002882044,0.043552155400417576,1.2433785670650377
1784115037091745792,2.506337881088257,1.8610965013504028,-0.5320323705673218,-0.4655507206916809,0.04101229086518288,-0.31053492426872253,-0.9496768116950989,-0.22034883499145508,0.36372706294059753,-0.06507843732833862,0.8022783763962561,0.11567727936841139,0.10853735797403215,0.5754892388722765,0.31575572450890677,0.04315870792748797,1.2376378206583376
1784115037101665792,2.5162577629089355,0.5463793277740479,-0.07131348550319672,-0.32481783628463745,0.038483452051877975,-0.3221936821937561,-0.945891261100769,-0.3072670102119446,0.3358808159828186,-0.04637253284454346,0.8025979930204808,0.12155138326353669,0.11081352319361154,0.5733952528810786,0.32804583585224345,0.040662431457098726,1.2339511646215275
1784115037111585792,2.5261778831481934,0.5688074231147766,-0.1156868115067482,-0.9464446306228638,0.040378548204898834,-0.3259601891040802,-0.9445208311080933,-0.32886120676994324,0.3812427818775177,0.17645442485809326,0.8041347927512523,0.12294769711479007,0.112354179703442,0.5706380258550383,0.33202719809166054,0.04272428516157963,1.2271598284836476
1784115037121505792,2.536097764968872,0.6915519833564758,0.11713392287492752,-0.7874706983566284,0.043816421180963516,-0.3324361741542816,-0.9421073794364929,-0.21624073386192322,-0.16275730729103088,-0.3535011410713196,0.8063498854546853,0.12524564485937442,0.11515135822301095,0.566439451147724,0.3388854808126044,0.04647545396795036,1.2168157863355336
1784115037131425792,2.54601788520813,0.4218589961528778,-0.10552765429019928,-0.38729771971702576,0.04511839896440506,-0.336670458316803,-0.9405409693717957,0.18924133479595184,-0.18940681219100952,-0.11846476793289185,0.807346608884566,0.12694828157731378,0.11667752496717534,0.5643243340828391,0.3433786943062042,0.047933943804951286,1.211777693407728
1784115037141345792,2.5559377670288086,0.40100404620170593,0.6626994609832764,-0.7508663535118103,0.048457011580467224,-0.3403451144695282,-0.9390512108802795,0.07559694349765778,-0.1471579372882843,-0.11411041021347046,0.8086657657427501,0.12789951561136112,0.11881126578664006,0.5617698939096194,0.34728388751167333,0.051556369500839826,1.2052578440173962
1784115037151265024,2.56585693359375,0.6488527059555054,0.6800515651702881,-0.4468313753604889,0.0577053502202034,-0.34388458728790283,-0.9372371435165405,0.3042178750038147,0.016476750373840332,0.0510067343711853,0.809523889317185,0.12702819399279475,0.12347167412475321,0.5597229430526793,0.3510506531941429,0.06149201192777627,1.1989830588182535
1784115037161184768,2.5757768154144287,0.7770522236824036,0.10181088745594025,-0.5359569787979126,0.06393671780824661,-0.35028594732284546,-0.9344580769538879,0.4347052574157715,-0.04540497064590454,-0.23273247480392456,0.8102189322566355,0.1282867773893451,0.12772421092325925,0.5574714285391231,0.3578763768214584,0.06831470706018852,1.1929611037641659
1784115037171105024,2.5856969356536865,0.9073665142059326,0.009701468050479889,-0.13732971251010895,0.06483986228704453,-0.3575989305973053,-0.9316216111183167,0.5645394325256348,-0.1913054883480072,-0.09158700704574585,0.810436355767778,0.1313755870045287,0.13011401947259052,0.5558810652155195,0.36569555595690784,0.06948687075871983,1.1895507897283697
1784115037181024768,2.5956168174743652,0.8315761685371399,-0.17441998422145844,-0.2051606923341751,0.06505536288022995,-0.36513790488243103,-0.9286776185035706,0.43167924880981445,-0.21391788125038147,-0.06035131216049194,0.8104355484125407,0.13472642289875,0.13232528974035124,0.5545566850681561,0.3737809403523977,0.06993735797903378,1.1869512922354717
1784115037190945024,2.605536937713623,0.473833829164505,-0.31338992714881897,-0.2024034857749939,0.06265026330947876,-0.3709922730922699,-0.9265202283859253,0.32895129919052124,-0.264093816280365,-0.03746902942657471,0.8106614093809281,0.138118273405742,0.13290310334262886,0.5532525370137075,0.38007731344150464,0.06751610845468185,1.1847362362503708
1784115037200864768,2.6154568195343018,0.16367091238498688,-0.05107494816184044,-0.20844513177871704,0.06171020120382309,-0.3739483058452606,-0.9253942370414734,0.10934083163738251,-0.2006518840789795,0.07901978492736816,0.811170301557869,0.1398528773250625,0.13320677078077095,0.5519963320552075,0.38326254389093695,0.06658672380757594,1.1821053050869268
1784115037210785024,2.6253769397735596,-0.059217825531959534,0.06515787541866302,0.021691670641303062,0.06131869554519653,-0.37332385778427124,-0.9256723523139954,0.08342617750167847,-0.12936168909072876,0.09513646364212036,0.8114624284558641,0.1397481935955563,0.1327940783803034,0.5516926941801007,0.3825893519413888,0.06614569551279724,1.1813672787579117
1784115037220704768,2.6352968215942383,-0.14900363981723785,0.14985385537147522,-0.4737662672996521,0.06308259814977646,-0.3724832236766815,-0.9258924126625061,0.10903652012348175,-0.1681050956249237,-0.04647386074066162,0.8119526640788206,0.13898793744123766,0.1331770799461852,0.5510707459145596,0.3816833790648169,0.06802654088527002,1.1794245215975117
1784115037230625024,2.645216941833496,-0.08016711473464966,-0.22638171911239624,-0.07184470444917679,0.06327013671398163,-0.37098366022109985,-0.9264815449714661,0.07288402318954468,-0.07760944962501526,0.021269142627716064,0.8129793877973891,0.13849846733177862,0.13257985113658424,0.5498228252295749,0.3800680401176316,0.06818490422368047,1.176171896558779
1784115037240544768,2.655136823654175,-0.3397049307823181,0.024422014132142067,0.0008297648746520281,0.06305807083845139,-0.3689841628074646,-0.927294135093689,0.19142800569534302,0.021755188703536987,-0.0006233453750610352,0.8132833480629352,0.13771792166021724,0.13185870736696573,0.5497429336734135,0.3779158298100073,0.06789770540236172,1.1758214002059548
1784115037250465024,2.6650569438934326,-0.2615770697593689,-0.021828990429639816,0.07352237403392792,0.06243486329913139,-0.3657779395580292,-0.9286056160926819,0.133503258228302,-0.04035001993179321,0.051774561405181885,0.813376406043529,0.13645266299673478,0.13068228962508327,0.5502014919808157,0.37446852377492457,0.06713403144757957,1.1767551720607778
1784115037260384768,2.6749768257141113,-0.4439101219177246,0.34627896547317505,-0.23784561455249786,0.06464386731386185,-0.3629898130893707,-0.9295480251312256,0.17449186742305756,-0.10606533288955688,0.02451878786087036,0.8136003136889295,0.13461971099692346,0.13078040035600627,0.5502986083899211,0.371474572760728,0.0694315483958291,1.1763353898983957
1784115037270305024,2.684896945953369,-0.2998344302177429,0.10332546383142471,0.27492406964302063,0.06634350121021271,-0.3588331937789917,-0.9310409426689148,0.2886064648628235,0.0369032621383667,0.02787327766418457,0.8139150651756335,0.1323311427715255,0.13026121114481,0.5505114777386508,0.36701754673835457,0.07113709553646445,1.1761787449279109
1784115037280223744,2.6948158740997314,-0.15419866144657135,-0.08537494391202927,0.17613676190376282,0.06647247076034546,-0.35681673884391785,-0.9318064451217651,0.34919220209121704,0.02365630865097046,-0.12217915058135986,0.8133667968709782,0.13125132700125014,0.1298840774156847,0.5516680230910727,0.3648580877667709,0.07121656735630343,1.1788179288798348
1784115037290143744,2.70473575592041,-0.03384469449520111,0.013271625153720379,0.36899563670158386,0.06467872858047485,-0.3563041388988495,-0.9321287274360657,0.16496604681015015,0.06747055053710938,-0.06271374225616455,0.8126703888146847,0.1313581796649612,0.12915360309152002,0.5528391644064647,0.36430944534810944,0.0692771471375959,1.1819634387781717
1784115037300063744,2.714655876159668,-0.06172213330864906,0.07513126730918884,0.18899844586849213,0.06438139826059341,-0.3559323251247406,-0.9322913885116577,0.1268264800310135,0.1622830331325531,-0.013723015785217285,0.8119570534595619,0.13110708406100902,0.1290939448213532,0.5539596800503532,0.363911536983889,0.06894770515081582,1.1847398561798357
1784115037309983744,2.7245757579803467,0.3560341000556946,0.07065536081790924,0.094174325466156,0.06428433209657669,-0.3574925661087036,-0.9317008852958679,0.17302033305168152,0.1427556276321411,-0.0935523509979248,0.8113057243212967,0.13168740162195852,0.12964557134408702,0.5546470457016037,0.3655816335438875,0.06888757111347081,1.186593935123065
1784115037319903744,2.7344958782196045,0.23318646848201752,-0.05183646082878113,0.06932596862316132,0.06317143142223358,-0.36038729548454285,-0.9306612610816956,0.1697387397289276,0.11536166071891785,-0.15138524770736694,0.8109366339269481,0.1332232003355158,0.1300805451237796,0.5547184331701733,0.36868306007623836,0.06777404375933012,1.1872355012490439
1784115037329823744,2.744415760040283,0.6330864429473877,-0.0365380123257637,-0.004251446574926376,0.06202490255236626,-0.36429694294929504,-0.9292150735855103,0.12799280881881714,0.08730411529541016,-0.036956191062927246,0.810547586536061,0.13522533857400354,0.13079206733894694,0.5546352749427703,0.3728777458816445,0.06665090975921685,1.1876079190450248
1784115037339743744,2.754335880279541,0.4160124957561493,0.09707864373922348,0.3024749457836151,0.06102987006306648,-0.3698468804359436,-0.9270861148834229,0.04320293292403221,-0.036906659603118896,-0.08837103843688965,0.809801763223894,0.13784821814129652,0.1321166685723794,0.554765072023836,0.3788442163747376,0.06573492801827158,1.1886540162072299
1784115037349663744,2.7642557621002197,0.11034923046827316,-0.03607766330242157,0.04390342906117439,0.06049837917089462,-0.37204793095588684,-0.9262398481369019,0.14294704794883728,-0.04950660467147827,0.05653470754623413,0.809126127547034,0.13883774710986158,0.13268064538489996,0.5553690479349723,0.381214377168801,0.06522345753526418,1.1904654184610326
1784115037359583744,2.7741758823394775,0.012574737891554832,-0.26801207661628723,-0.07417234033346176,0.059364721179008484,-0.3719100058078766,-0.9263685941696167,0.16852529346942902,-0.09500890970230103,0.0096968412399292,0.809353509433431,0.13914967126027714,0.13211006679090503,0.5550957089483709,0.38106578124101276,0.06399575462977213,1.1899861060585488
1784115037369503744,2.7840957641601562,-0.21502220630645752,-0.07382340729236603,0.23368588089942932,0.05735577642917633,-0.37138286232948303,-0.9267065525054932,0.20836077630519867,-0.11395341157913208,-0.018666982650756836,0.8092728105511308,0.13945903066585372,0.131140725212175,0.5553655039195162,0.38049797297037563,0.06181321023850939,1.190972030836926
1784115037379423744,2.794015884399414,-0.4016514718532562,-0.0665292739868164,0.13355422019958496,0.05592783913016319,-0.36811307072639465,-0.9280974268913269,0.2224687784910202,0.015848666429519653,0.047451674938201904,0.8089419700346042,0.13830202103121247,0.12970670659923558,0.5564725501340709,0.37697876022459076,0.060187958115554954,1.1936357925922048
1784115037389343744,2.8039357662200928,-0.41895031929016113,-0.2814646363258362,-0.009484823793172836,0.054614100605249405,-0.36484554409980774,-0.9294648766517639,0.1536988765001297,-0.01398441195487976,-0.05260598659515381,0.8092371189438884,0.13726357058944022,0.12816496977726977,0.5566575278068503,0.3734669056791469,0.058691165702364295,1.193997834201824
1784115037399263744,2.8138558864593506,-0.5647802352905273,-0.07788727432489395,0.10572538524866104,0.05194244906306267,-0.3596175014972687,-0.9316529631614685,0.16316068172454834,-0.016038626432418823,0.047680795192718506,0.8095706156411553,0.13573649384042824,0.12549553976222513,0.5571550779257639,0.36785794587415566,0.05569534256492385,1.1951756397141475
1784115037409183744,2.8237757682800293,-0.5063884258270264,0.062101099640131,0.1094614714384079,0.05142725631594658,-0.35522282123565674,-0.9333659410476685,0.11184177547693253,-0.07768425345420837,0.014496922492980957,0.809595171818182,0.13390951182602123,0.12403739988267351,0.5578875698665398,0.3631524390505581,0.055043050726753334,1.196630170810033
1784115037419102976,2.8336949348449707,-0.48676010966300964,-0.029495928436517715,0.14034642279148102,0.05201861634850502,-0.35043445229530334,-0.9351415634155273,0.11889507621526718,-0.03684884309768677,0.11070919036865234,0.8098061995398501,0.13163792586335038,0.12288479902534119,0.5583768071922887,0.35803493944681164,0.05556919101697827,1.1972561195712135
1784115037429022720,2.8436148166656494,-0.6378758549690247,-0.05913238599896431,0.2189650535583496,0.05079823359847069,-0.3451956510543823,-0.93715500831604,0.206892192363739,-0.040165066719055176,0.02293992042541504,0.8095976818293172,0.1295941572559245,0.12094566830979565,0.5595793648504984,0.35244725093202556,0.054151735342309375,1.1999214710565813
1784115037438942976,2.8535349369049072,-0.4089801013469696,0.04126293212175369,0.06825438141822815,0.050036247819662094,-0.34026509523391724,-0.9389973282814026,0.1260806918144226,0.008004993200302124,0.014696240425109863,0.8095389036796224,0.1275985219969812,0.11924738944584626,0.560486721369198,0.3471987969789783,0.05323653835789046,1.2018126186122857
1784115037448862720,2.863454818725586,-0.6148865818977356,-0.08884279429912567,-0.015253930352628231,0.04921477660536766,-0.3355003893375397,-0.9407536387443542,0.14786775410175323,0.006276756525039673,-0.05680495500564575,0.8097727833338924,0.12576191736446482,0.11750370497758891,0.5609322446337016,0.34213635655203783,0.052266555467675856,1.2025927662369615
1784115037458782976,2.8733749389648438,-0.5636194348335266,0.11847284436225891,0.033483780920505524,0.04922810569405556,-0.3294587731361389,-0.9428857564926147,0.14538249373435974,0.06860977411270142,-0.032883286476135254,0.8101967677974196,0.12316533058584235,0.1157040735576267,0.561270072959635,0.3357302874136737,0.0521626806109121,1.2028562497061288
1784115037468702720,2.8832948207855225,-0.4279089868068695,0.08000294864177704,0.1342412829399109,0.04963766410946846,-0.32460057735443115,-0.9445478320121765,0.14114299416542053,0.05455052852630615,-0.09175282716751099,0.810152041088339,0.12088965991619137,0.11450668734673279,0.5620744996204327,0.3305894190384561,0.05250347604822989,1.2043302912622151
1784115037478622976,2.8932149410247803,-0.42014721035957336,-0.18809828162193298,-0.022414105013012886,0.04898704215884209,-0.3212544023990631,-0.9457250237464905,0.11222206056118011,0.05524793267250061,-0.14669740200042725,0.8103356155002251,0.11963501320804758,0.11324723836743077,0.5623332767213229,0.32705380979380616,0.0517521466828403,1.204768504274968
1784115037488542720,2.903134822845459,-0.4468099772930145,0.03882446512579918,0.17647649347782135,0.04809356480836868,-0.31663379073143005,-0.9473278522491455,0.11990569531917572,0.044142335653305054,-0.08807253837585449,0.8104857195564192,0.11788394205529715,0.11153228126025821,0.5628293113492207,0.322178558423253,0.05072405742090755,1.2057177849858702
1784115037498462976,2.913054943084717,-0.5498319268226624,-0.0884794294834137,-0.11345359683036804,0.04756474494934082,-0.3121737837791443,-0.9488335847854614,0.16132807731628418,-0.0656948983669281,-0.16170108318328857,0.8105706250749687,0.116091022535776,0.11002769408875433,0.5633755620123465,0.3174802971606615,0.050087773124747284,1.2067528964145082
1784115037508382720,2.9229748249053955,-0.5538391470909119,-0.1313311755657196,0.06088121980428696,0.04640979319810867,-0.3065483272075653,-0.9507229924201965,0.10840587317943573,-0.035584211349487305,-0.11160910129547119,0.8111354519772155,0.11406277177537667,0.107834017220608,0.5634011501172143,0.311564653550088,0.04877654477450068,1.2065006850227826
1784115037518302976,2.9328949451446533,-0.7226782441139221,-0.13948337733745575,0.17543229460716248,0.044565919786691666,-0.3008142113685608,-0.9526408910751343,0.24904370307922363,-0.02210751175880432,-0.12737613916397095,0.811052119923656,0.11206579442359822,0.1054552229270062,0.5643713439907136,0.3055462948635498,0.04674736260474705,1.2086727922647478
1784115037528222720,2.942814826965332,-0.4924427568912506,-0.2613587975502014,0.0037085420917719603,0.04261963441967964,-0.294685423374176,-0.9546434283256531,0.11930663883686066,0.06591039896011353,-0.10497266054153442,0.8112541618776331,0.10998733425054902,0.10286432863491522,0.5649677649376009,0.2991263089226704,0.04461493098839631,1.2099048768277048
1784115037538142976,2.95273494720459,-0.5115125775337219,-0.09095457196235657,-0.07421048730611801,0.0407961905002594,-0.28941836953163147,-0.9563329219818115,0.0685635358095169,0.03165167570114136,-0.10927987098693848,0.8117333689891124,0.10830447850690991,0.10051704386476121,0.5650268889888591,0.2936191609473896,0.04263313663171343,1.2098678010045056
1784115037548061952,2.962653875350952,-0.3391422927379608,-0.07100190222263336,0.09424915909767151,0.040286462754011154,-0.2851833403110504,-0.9576259255409241,0.13648660480976105,0.08683434128761292,-0.11547893285751343,0.8120591714652723,0.10666931809478199,0.09903878850303116,0.5651308745442597,0.2891977170816487,0.04204430945419231,1.2098461784336927
1784115037557981696,2.972573757171631,-0.1906130015850067,-0.14111147820949554,0.14979231357574463,0.03803391382098198,-0.28262898325920105,-0.9584749937057495,0.18695692718029022,0.09862324595451355,-0.1471463441848755,0.811811887203273,0.10616406675969697,0.09742538192651509,0.565861208232366,0.2865337399454802,0.03966088725253029,1.2117443051748
1784115037567901952,2.9824938774108887,-0.5079585909843445,-0.2406836450099945,-0.03101481683552265,0.03583797439932823,-0.2786857485771179,-0.9597134590148926,0.09586063772439957,0.03651350736618042,-0.05704069137573242,0.8121522294108686,0.10514486423741956,0.09533013005837572,0.5659200808944609,0.2824253628611066,0.037325027648094526,1.2118641038333622
1784115037577821696,2.9924137592315674,-0.20600061118602753,-0.20703034102916718,-0.01806759275496006,0.0339101180434227,-0.27471497654914856,-0.9609275460243225,0.1868235170841217,-0.09308284521102905,-0.09641492366790771,0.8124724427338164,0.10403511911304923,0.09334297653746908,0.5659967308063477,0.2782932586943143,0.035274304989281705,1.2119872497135722
1784115037587741952,3.002333879470825,-0.5788065195083618,-0.286971777677536,0.0838538110256195,0.031202342361211777,-0.27030548453330994,-0.9622688293457031,0.16522404551506042,-0.15604031085968018,-0.1058616042137146,0.8127383951602738,0.10295259637087754,0.0909193865274661,0.5662072393130703,0.273710314446062,0.032414447191030336,1.2125053404884445
1784115037597661696,3.012253761291504,-0.6193581819534302,-0.3187704384326935,-0.04814017564058304,0.027795182541012764,-0.2637990415096283,-0.964177131652832,0.1350771188735962,-0.0810038149356842,-0.006739616394042969,0.8132243525675149,0.10120572722929903,0.08757196847236334,0.5663519997624104,0.26695864995218427,0.028819899160518938,1.2127786531120996
1784115037607581952,3.0221738815307617,-0.5148503184318542,-0.28363117575645447,0.22845523059368134,0.0247485488653183,-0.2576078176498413,-0.9659325480461121,0.1100933626294136,-0.1035524308681488,-0.062357187271118164,0.8134507507850156,0.09945598616831644,0.08451167762754092,0.5668016098568608,0.26054562807253084,0.02561580035646154,1.2137758485778627
1784115037617501696,3.0320937633514404,-0.8334874510765076,-0.23991908133029938,0.19355477392673492,0.021316932514309883,-0.2511212229728699,-0.9677208662033081,0.16200216114521027,-0.11173275113105774,-0.05849367380142212,0.8131909771743238,0.09762679784082218,0.08129306834350734,0.5679621223142001,0.25383842944047713,0.022024414371373115,1.2165410517628532
1784115037627421952,3.0420138835906982,-0.6787353754043579,-0.31368058919906616,-0.021696150302886963,0.0186908096075058,-0.24300266802310944,-0.9698455333709717,0.1031353622674942,-0.05001184344291687,0.04459834098815918,0.8135792244928731,0.09497148292150492,0.07783090749499191,0.5683411765541821,0.24546011097081652,0.01926955985865971,1.2171528565614513
1784115037637341696,3.051933765411377,-0.8247719407081604,-0.28390270471572876,0.1141602173447609,0.016272850334644318,-0.23545479774475098,-0.9717490673065186,0.15102452039718628,-0.03892874717712402,-0.06558918952941895,0.8139755059373509,0.09250746598528198,0.0746179505442227,0.5686109585018304,0.23768648941857295,0.01674437372166869,1.2175187054362184
1784115037647261952,3.0618538856506348,-0.5422946214675903,-0.36047282814979553,0.10398045182228088,0.012726749293506145,-0.22858521342277527,-0.9734407067298889,0.20104888081550598,0.05442139506340027,-0.07068771123886108,0.8140396229122377,0.09061967213103748,0.07118788790744407,0.5692625610681177,0.23062416362478935,0.013073240387115891,1.2190054693035008
1784115037657181696,3.0717737674713135,-0.5777685046195984,-0.3151117265224457,0.15445373952388763,0.009214784018695354,-0.22293195128440857,-0.9747904539108276,0.11439666897058487,0.030488088726997375,-0.12799274921417236,0.8141342929945415,0.0892482963884093,0.06811396361160586,0.5697197992052137,0.2248210762107216,0.009452810774212585,1.220097645603468
1784115037667101952,3.0816938877105713,-0.3981315493583679,-0.4847564399242401,0.1748047173023224,0.0048816329799592495,-0.21833209693431854,-0.9758623242378235,0.21666072309017181,0.05213336646556854,-0.1664106249809265,0.8138466016655458,0.08852001374937302,0.06506186924810306,0.5706005064907477,0.22010500483788023,0.005002337101705632,1.22239583668008
1784115037677021696,3.09161376953125,-0.6079097986221313,-0.4486892521381378,0.010674639604985714,0.0001280737778870389,-0.21308636665344238,-0.9770333766937256,0.12294931709766388,0.009320497512817383,-0.14628815650939941,0.8140438953039986,0.08770136375350315,0.06157750778884246,0.570832142971036,0.21473278813888338,0.00013108434722415696,1.2230882007232025
1784115037686940928,3.1015329360961914,-0.6811173558235168,-0.3560388386249542,0.1850835233926773,-0.004006970673799515,-0.2067715972661972,-0.9783810377120972,0.08027039468288422,-0.0667727142572403,-0.07623016834259033,0.8142206094033412,0.08625555618845597,0.05804706013745129,0.5711701387740524,0.20827409098635435,-0.004095488453766345,1.223882734383033
1784115037696860672,3.11145281791687,-0.7350636720657349,-0.40855398774147034,0.10320384055376053,-0.0078012715093791485,-0.19982637465000153,-0.979800283908844,0.15510961413383484,-0.07284817099571228,-0.0832337737083435,0.8140977944785834,0.08442280295942416,0.05452209611658238,0.5719657740775973,0.20118072505360207,-0.007961935447446514,1.2257093437175253
1784115037706780928,3.121372938156128,-0.8538051843643188,-0.4479447901248932,-0.0662769004702568,-0.012280259281396866,-0.19185204803943634,-0.9813470244407654,0.14339902997016907,-0.03155188262462616,-0.09979921579360962,0.8145743971288171,0.0824194985126253,0.05033401367707764,0.5719632997916151,0.1930488984508266,-0.01251302313061528,1.2255627266458018
1784115037716701440,3.131293535232544,-0.3625850975513458,-0.5391777753829956,0.2650381922721863,-0.01729419082403183,-0.18612471222877502,-0.9823738932609558,0.20912769436836243,-0.05722242593765259,-0.18242096900939941,0.8146937111290024,0.08148366780737654,0.046620339700176754,0.5722421900124377,0.18721645514845373,-0.017602669857090632,1.2263245937143232
1784115037726621440,3.1412134170532227,-0.6019062995910645,-0.6654757261276245,0.19482997059822083,-0.023978430777788162,-0.18157340586185455,-0.983085036277771,0.20275039970874786,-0.09044502675533295,-0.1691213846206665,0.8142465841606592,0.0814839920686509,0.04263630920501229,0.5731884702246498,0.18258621797394828,-0.0243861697226357,1.2289760531089364
1784115037736541440,3.1511335372924805,-0.6584808826446533,-0.5506513714790344,0.18601250648498535,-0.029886195436120033,-0.17515794932842255,-0.9840866327285767,0.07111544907093048,0.009569570422172546,-0.06904447078704834,0.8141913580350066,0.08051961338058893,0.038383233296438335,0.5737036253495318,0.176066192945205,-0.030360143486142965,1.2303330546075764
1784115037746461440,3.161053419113159,-0.4080073833465576,-0.5444145798683167,0.18110176920890808,-0.03557823970913887,-0.16951212286949158,-0.9848856925964355,0.16260765492916107,-0.006131798028945923,-0.11338090896606445,0.8672245104389839,0.08285010938945135,0.026325127438540655,0.4902699113941101,0.17033461080676182,-0.036108531503713785,1.032159723462341
1784115037756381440,3.170973539352417,-0.3692474663257599,-0.6519200205802917,0.17466890811920166,-0.04165425896644592,-0.16593815386295319,-0.985256016254425,0.19077840447425842,-0.00575372576713562,-0.16415798664093018,0.8927411933672296,0.08390055018692999,0.018239562409511672,0.442313416405715,0.1667092856070031,-0.04225243818787162,0.9235412189420641
1784115037766301440,3.1808934211730957,-0.14866815507411957,-0.697467565536499,0.210069939494133,-0.04872102662920952,-0.16296449303627014,-0.9854282736778259,0.19546480476856232,0.04283203184604645,-0.11384540796279907,0.9064382043066255,0.08455071108904862,0.011706917568031766,0.41362290666628954,0.16369456667806595,-0.04940124896664559,0.8602421879011584
1784115037776221440,3.1908135414123535,0.0037948940880596638,-0.6909060478210449,0.1556525081396103,-0.055499617010354996,-0.1622522622346878,-0.985187292098999,0.1659579873085022,0.034322574734687805,-0.14025521278381348,0.9152985284212705,0.0858090067959195,0.006570369370748039,0.39347452120923193,0.16297273271475352,-0.05627459791086249,0.8166015638501561
1784115037786141440,3.2007334232330322,-0.03296738117933273,-0.5944769978523254,0.11430306732654572,-0.06201145425438881,-0.16179504990577698,-0.9848740696907043,0.08651706576347351,0.04297485947608948,-0.10078877210617065,0.921451923994899,0.0869405222419036,0.0020759194340102586,0.37863342654725046,0.1625093973895357,-0.06288083408488186,0.7848735701091242
1784115037796061440,3.21065354347229,-0.1532868593931198,-0.5478945970535278,0.23927348852157593,-0.06797489523887634,-0.1609700620174408,-0.984615683555603,0.11002811044454575,-0.031550079584121704,-0.09802591800689697,0.9257908444720826,0.0876847017070915,-0.0018836712212788717,0.3677216176833998,0.16167344651819032,-0.06892761158250187,0.7617621055962477
1784115037805980416,3.2205724716186523,-0.22463181614875793,-0.549375593662262,0.12439221888780594,-0.07367737591266632,-0.15898092091083527,-0.984528660774231,0.13097412884235382,-0.07373087108135223,-0.06440627574920654,0.9291145354021163,0.08776640582845406,-0.005720199363682414,0.35918035142391613,0.15965835931229203,-0.0746959447382661,0.7437527758441095
1784115037815900672,3.23049259185791,-0.28838977217674255,-0.5657804012298584,0.21582704782485962,-0.07984241843223572,-0.1558666080236435,-0.9845460057258606,0.15671619772911072,-0.090547576546669,-0.060711562633514404,0.931858417291872,0.08735053155107753,-0.009843473539566546,0.3520125587995949,0.15650471886300638,-0.08091859236227991,0.7287130507369107
1784115037825820416,3.240412473678589,-0.22412829101085663,-0.6946033239364624,0.1823885142803192,-0.08587871491909027,-0.15359072387218475,-0.9843956232070923,0.20903240144252777,-0.08052487671375275,-0.09949719905853271,0.9314851606114921,0.08736838745678469,-0.012998278790514033,0.3528925424893932,0.15420109377317245,-0.08701972150158369,0.7310090949783205
1784115037835740672,3.2503325939178467,-0.163333922624588,-0.6582647562026978,0.10012932121753693,-0.09249337762594223,-0.1508040875196457,-0.984227180480957,0.12479623407125473,0.04467920958995819,-0.02848339080810547,0.933539716905019,0.08713948874021728,-0.017121038808002385,0.34729972023563127,0.1513816078781973,-0.09370045298321754,0.7194300261358749
1784115037845660416,3.2602524757385254,0.12546519935131073,-0.5840454697608948,0.16248008608818054,-0.09898287802934647,-0.1507442146539688,-0.983604907989502,0.14840608835220337,0.028429776430130005,-0.06706953048706055,0.9351521308935389,0.08815691544659576,-0.020637717218747503,0.3424805900154564,0.1513210518187648,-0.10029510911242236,0.7097285654573301
1784115037855580672,3.270172595977783,0.37080466747283936,-0.5726255774497986,0.14983752369880676,-0.10474083572626114,-0.15339632332324982,-0.982598066329956,0.21011802554130554,0.016936972737312317,-0.013938188552856445,0.9363822859912815,0.09032474618809352,-0.02328978838871635,0.33835989971818364,0.15400436462705946,-0.1061948022736694,0.701698093812908
1784115037865500416,3.280092477798462,0.20335687696933746,-0.7178175449371338,0.1972636580467224,-0.11140681058168411,-0.1559234857559204,-0.9814664721488953,0.19989252090454102,-0.02641904354095459,-0.020044147968292236,0.9375011255685182,0.09257443341923091,-0.026396020035726643,0.3344023459117977,0.15656230844293256,-0.11302678623482172,0.6941295199637885
1784115037875420672,3.2900125980377197,-0.004632546100765467,-0.6029365062713623,0.10324608534574509,-0.11843991279602051,-0.15692490339279175,-0.980482816696167,0.1554577350616455,-0.11732131242752075,0.014113187789916992,0.9383935428227579,0.09415807554685468,-0.029880551507525,0.33114778605030937,0.15757620380117912,-0.1202150672839018,0.6879930591832117
1784115037885340416,3.2999324798583984,-0.1567411869764328,-0.5275688767433167,0.12571100890636444,-0.12431636452674866,-0.15632015466690063,-0.9798517227172852,0.035769619047641754,-0.13059084117412567,0.09940439462661743,0.9392751880360394,0.09476624298145529,-0.0330678652012365,0.32815858458772046,0.15696389750686826,-0.1261983821617649,0.6821723657771229
1784115037895260416,3.309852361679077,-0.33894720673561096,-0.40510496497154236,0.2334742248058319,-0.12901410460472107,-0.15359841287136078,-0.9796748757362366,0.09286604821681976,-0.11249962449073792,0.13476520776748657,0.9399256725605328,0.09418198389877304,-0.03594869116847686,0.3261553471182411,0.15420887802235772,-0.13093728397635382,0.6781319721615641
1784115037905180416,3.319772481918335,-0.5550954341888428,-0.3181105852127075,0.31736424565315247,-0.1333242952823639,-0.14911575615406036,-0.9797903299331665,0.13613192737102509,-0.11499860882759094,0.13434666395187378,0.9404093369591303,0.09270669665920132,-0.03886249634725206,0.3248469967477563,0.1496739703260298,-0.13524365550339437,0.6753538185288895
1784115037915100416,3.3296923637390137,-0.6462727189064026,-0.3137744069099426,0.19390727579593658,-0.13695921003818512,-0.14279627799987793,-0.9802302718162537,0.15212644636631012,-0.12475132942199707,0.19684404134750366,0.9408886947198375,0.09024313969413267,-0.041725706549246275,0.32379588866523423,0.14328607091692258,-0.1388227456670666,0.6728654891966489
1784115037925020416,3.3396124839782715,-0.788081705570221,-0.2406810224056244,0.21310792863368988,-0.139693483710289,-0.13575170934200287,-0.9808451533317566,0.113295778632164,-0.13161277770996094,0.2253825068473816,0.9414502423467602,0.08727266446001411,-0.044282144953616764,0.3226360105422371,0.13617215985374545,-0.14147014218205828,0.6699784875234104
1784115037934940416,3.34953236579895,-0.6476894021034241,-0.12644712626934052,0.2821701169013977,-0.14190791547298431,-0.12811698019504547,-0.9815539717674255,0.12249873578548431,-0.035426706075668335,0.31407350301742554,0.9418417115900832,0.08395746584698464,-0.046627923283575,0.32204201580307873,0.12847008476889601,-0.14357989402044857,0.6681826781174357
1784115037944859392,3.3594515323638916,-0.4722060561180115,0.035113465040922165,0.2433903068304062,-0.1423940807580948,-0.12255551666021347,-0.9821934700012207,0.12794402241706848,0.018841534852981567,0.321808397769928,0.9421735501914138,0.08135325441400072,-0.04780061365390354,0.3215675739143431,0.12286440099019116,-0.1439725173458933,0.6666847211430567
1784115037954779392,3.3693714141845703,-0.42799970507621765,0.173243910074234,0.0011339979246258736,-0.1411844938993454,-0.11786449700593948,-0.9829419851303101,0.0967661589384079,0.10034740716218948,0.39431893825531006,0.942758416118153,0.07885151372697118,-0.04807761734870788,0.3204334969917258,0.11813911488893834,-0.1426588931541663,0.6637294915513853
1784115037964699392,3.379291534423828,-0.11783326417207718,0.23956581950187683,0.23624813556671143,-0.13950933516025543,-0.115205317735672,-0.9834962487220764,0.12603582441806793,0.0885176882147789,0.4182954430580139,0.94329360341257,0.0772455221534836,-0.047801703404475857,0.31928879085436823,0.11546169113951615,-0.14091031180239977,0.6609134288611178
1784115037974619392,3.389211416244507,-0.30896806716918945,0.4356660842895508,0.2159692347049713,-0.13601934909820557,-0.1124773845076561,-0.9843005537986755,0.19775640964508057,0.1000567302107811,0.5305346846580505,0.9435705547224864,0.07535861142734046,-0.04659188967980132,0.3191000566346705,0.11271590632761343,-0.13731915121887517,0.6599781562513558
1784115037984539392,3.3991315364837646,-0.2573993504047394,0.473152220249176,0.16770680248737335,-0.13172459602355957,-0.1089838370680809,-0.9852771759033203,0.08068394660949707,0.067769855260849,0.5907611846923828,0.9440092460189788,0.07295953477845592,-0.04514762746048827,0.31856725231633426,0.10920074308640827,-0.1329048285139605,0.658198012717244
1784115037994459392,3.4090514183044434,-0.19987906515598297,0.5992267727851868,0.2560710310935974,-0.12686848640441895,-0.10686385631561279,-0.9861462712287903,0.03462912142276764,-0.08768568933010101,0.5124372243881226,0.9442623085276761,0.0711503682478763,-0.04317963956152066,0.31849921572322737,0.10706830716406801,-0.1279479749556566,0.6574971429083462
1784115038004379392,3.418971538543701,-0.36102476716041565,0.7979815006256104,0.16787607967853546,-0.120123490691185,-0.10379238426685333,-0.9873183369636536,0.022451981902122498,-0.06130771338939667,0.5206282734870911,0.9444321413695028,0.06860204522472098,-0.04043011754517628,0.31891532193956695,0.10397965108729505,-0.12107136999721507,0.6576216596319816
1784115038014299392,3.42889142036438,-0.6571884751319885,0.9116790890693665,-0.009941322728991508,-0.11183402687311172,-0.09894895553588867,-0.9887882471084595,-0.005979076027870178,-0.04349183291196823,0.5231358408927917,0.9449790031733271,0.06492292606597015,-0.03729445668117237,0.3184473896254218,0.09911114124154727,-0.11262349687822219,0.655665354278789
1784115038024219392,3.4388115406036377,-0.6251070499420166,1.1168370246887207,0.00639074482023716,-0.10195213556289673,-0.0922737866640091,-0.9905005097389221,0.015434809029102325,0.015033803880214691,0.5591956377029419,0.9456415704274953,0.06011592905426801,-0.033701749101500186,0.3178241504525417,0.092405231267839,-0.10256871126211924,0.6532120146413125
1784115038034139392,3.4487314224243164,-0.45893222093582153,1.121374249458313,-0.0836600512266159,-0.09048071503639221,-0.08718384802341461,-0.992074728012085,0.06664648652076721,0.02472963184118271,0.46717238426208496,0.946323137113309,0.05581590862708696,-0.02910726635419474,0.31703286894988847,0.08729467844307004,-0.09095190468710664,0.6505024321814964
1784115038044059392,3.458651542663574,-0.3838205337524414,1.0619782209396362,-0.1476079374551773,-0.07950575649738312,-0.08300608396530151,-0.9933724403381348,0.11203749477863312,0.130171000957489,0.47037744522094727,0.9470002055915906,0.052039054791672555,-0.024611210287069904,0.31603293894868073,0.08310170048535523,-0.07986595255712789,0.6475192477328606
1784115038053979392,3.468571424484253,-0.10295291990041733,1.089636206626892,-0.10275311768054962,-0.06889316439628601,-0.08070192486047745,-0.9943545460700989,0.12030002474784851,0.19608889520168304,0.4479373097419739,0.9476508096452444,0.0492233295344465,-0.019994974258035335,0.31485739775249294,0.08078978203868652,-0.06917376452439442,0.6443481515988662
1784115038063898624,3.4784905910491943,0.2986612617969513,1.2552381753921509,-0.015417847782373428,-0.05724881589412689,-0.08139504492282867,-0.9950363636016846,0.10821317136287689,0.21390238404273987,0.37617045640945435,0.948073406052711,0.04769427232792715,-0.014389605415584903,0.31412590073334784,0.08148519169755718,-0.05747103738125688,0.6422378500650289
1784115038073818368,3.488410472869873,0.7331765294075012,1.3240265846252441,-0.10634801536798477,-0.04436289519071579,-0.08684796839952469,-0.9952332973480225,0.07184398174285889,0.19301863014698029,0.33461934328079224,0.9484383303753957,0.0482467354769372,-0.007456008208028384,0.31317941168164415,0.08695751833577477,-0.044545884842980735,0.6398037781530674
1784115038083738624,3.498330593109131,0.5518497228622437,1.3609546422958374,-0.17865145206451416,-0.030790500342845917,-0.09344671666622162,-0.9951480627059937,0.11652963608503342,0.19627569615840912,0.39572179317474365,0.9487792496347437,0.049254144292189835,-2.5480494709053982e-05,0.31207678010754897,0.09358325421651403,-0.030930754659951577,0.6370032605967699
