time,seconds_elapsed,rotationRateX,rotationRateY,rotationRateZ,gravityX,gravityY,gravityZ,accelerationX,accelerationY,accelerationZ,quaternionW,quaternionX,quaternionY,quaternionZ,pitch,roll,yaw
1784286976526362880,0.16923093795776367,-0.4364807605743408,0.44298791885375977,-0.6444223523139954,0.1033976748585701,0.7725756764411926,-0.6264470219612122,0.018260642886161804,-0.10666686296463013,0.12812548875808716,0.8437612782351326,-0.38056068723154146,0.20481712802559915,-0.31826178943723676,-0.8828878747842879,0.16357932283731538,-0.6439531441836006
1784286976536282112,0.17915010452270508,-0.6974279284477234,0.5106813907623291,-0.5866736173629761,0.10281139612197876,0.7773767709732056,-0.6205763816833496,0.013399563729763031,-0.11046093702316284,0.11537313461303711,0.8410497479630714,-0.38309151565674604,0.20725035121763094,-0.320816703170662,-0.8904847984891683,0.16417959231391474,-0.6503403503784193
1784286976546201856,0.1890699863433838,-0.8166821599006653,0.5481717586517334,-0.6478965282440186,0.10238748788833618,0.7832160592079163,-0.6132612228393555,0.009840898215770721,-0.06306231021881104,0.09131914377212524,0.8379144205277157,-0.3862766444794543,0.2101421874875839,-0.3233108358243145,-0.8998216515600974,0.16542993505146464,-0.6564673349051693
1784286976556121088,0.1989891529083252,-0.757885754108429,0.5618692636489868,-0.665825605392456,0.1015254333615303,0.7892220616340637,-0.605657696723938,0.0169895738363266,0.00965183973312378,0.04625523090362549,0.8345872219835485,-0.38960645806304434,0.21302105421984913,-0.32602624700492605,-0.9095411717123426,0.16608428749871296,-0.6634798763971149
1784286976566041088,0.2089090347290039,-0.5785077214241028,0.6155900359153748,-0.6656416058540344,0.10082962363958359,0.7946239709854126,-0.5986704230308533,-0.012496508657932281,0.05783885717391968,0.019065260887145996,0.8313700078989498,-0.3924924263720806,0.21590390024543302,-0.3288756810113168,-0.9183879061356619,0.16685666637569957,-0.67073909590935
1784286976575959808,0.2188279628753662,-0.2404089868068695,0.6220694780349731,-0.690891683101654,0.09980424493551254,0.7986944913864136,-0.5934022068977356,-0.006283141672611237,0.09728634357452393,-0.022945940494537354,0.8284604558285121,-0.39445924293484425,0.21840510154720366,-0.3321962152996311,-0.9251224713218819,0.1666303461747356,-0.6794683284974946
1784286976585880064,0.22874808311462402,0.1781749576330185,0.6135028600692749,-0.6947231888771057,0.09852331131696701,0.800801694393158,-0.5907706022262573,0.033236317336559296,0.12269073724746704,-0.06560146808624268,0.8261572619573118,-0.39508589294713414,0.22027675422094886,-0.335930963466437,-0.9286326169235949,0.16525004257416856,-0.6894937999558068
1784286976595799296,0.23866724967956543,0.7106592059135437,0.525188148021698,-0.8065338134765625,0.09688138961791992,0.8005861043930054,-0.5913341045379639,0.06779144704341888,0.09827864170074463,-0.08984875679016113,0.8245841168607283,-0.39413004828882864,0.2213469393052828,-0.3401884095020483,-0.9282726585069305,0.16239257048563535,-0.7011400249302909
1784286976605718016,0.24858617782592773,1.334546446800232,0.39496323466300964,-0.9416998624801636,0.09487851709127426,0.7973493933677673,-0.5960134863853455,0.08911193907260895,0.11532455682754517,-0.09716278314590454,0.8239817504644912,-0.39113907651683505,0.22136728750047685,-0.3450520686246749,-0.922890476307953,0.15786395257085925,-0.7145293417332903
1784286976615638016,0.25850605964660645,2.140758514404297,0.2968299686908722,-1.0574852228164673,0.09181949496269226,0.7891372442245483,-0.6073150634765625,0.07534053176641464,0.16017305850982666,-0.106475830078125,0.824928519325542,-0.38496481634348717,0.21941865975984703,-0.3509280776052203,-0.9094030911593919,0.15005279637351865,-0.7309652625558395
1784286976625557248,0.26842522621154785,3.46389102935791,0.34075719118118286,-1.3749572038650513,0.08629585802555084,0.7740630507469177,-0.6271995902061462,0.06389639526605606,0.20257568359375,-0.10337591171264648,0.8275205492390207,-0.3746200322774114,0.21461603511938038,-0.35890032351067813,-0.8852338782488225,0.13673065749189092,-0.7535561726726919
1784286976635476992,0.27834510803222656,5.234365940093994,0.2992981970310211,-1.6946479082107544,0.0776621475815773,0.747697114944458,-0.6594827771186829,0.1707509458065033,0.4383838176727295,-0.06070148944854736,0.8322693074827948,-0.3576612267907341,0.20575967760141076,-0.3702285313938663,-0.8445873045196708,0.11722231452272709,-0.78439358526202
1784286976645397248,0.2882652282714844,7.0319623947143555,0.19961582124233246,-1.943373203277588,0.06695108860731125,0.7083261609077454,-0.7027031183242798,0.23175495862960815,0.5725271105766296,0.19603502750396729,0.8389429157167183,-0.3338984007185893,0.1927701016885192,-0.3840915867649805,-0.7871240933549705,0.09498976310698898,-0.8192225820610208
1784286976655316224,0.2981841564178467,7.390322685241699,0.01921740174293518,-2.0476441383361816,0.05498785525560379,0.6575204133987427,-0.7514274716377258,0.2789812684059143,0.29401761293411255,0.5583885312080383,0.8464416820549665,-0.3052419825655293,0.1763905016092227,-0.3990615745048817,-0.7175229849543571,0.07304765692722134,-0.8537059433897749
1784286976665236224,0.3081042766571045,6.76206111907959,-0.08436544984579086,-2.1357784271240234,0.04295435920357704,0.6061882972717285,-0.7941603660583496,0.28808507323265076,-0.2695183753967285,0.8940596580505371,0.8521538822385002,-0.2780173096890825,0.16008183916829194,-0.4134173543809512,-0.6512591069881375,0.05403511456174902,-0.8851358199907012
1784286976675155200,0.3180232048034668,5.920558452606201,-0.08524791151285172,-2.166238784790039,0.03738025575876236,0.5662384033203125,-0.8233934640884399,0.27910229563713074,-0.64031982421875,0.9383836984634399,0.8429780194102409,-0.2525863763994706,0.15653563034931947,-0.4484246929758403,-0.6019349646140568,0.045366655785195505,-0.9636802106241503
1784286976685074944,0.3279430866241455,4.8549652099609375,-0.024162447080016136,-2.260300874710083,0.027036193758249283,0.5242395401000977,-0.8511415719985962,0.24852225184440613,-0.5327997207641602,0.8824678659439087,0.8443026193005385,-0.2323685716873583,0.142947746409449,-0.46122011837477905,-0.5518218594430511,0.0317539481991433,-0.9909641527488456
1784286976694995200,0.3378632068634033,3.857081890106201,0.18406574428081512,-2.241673469543457,0.017685385420918465,0.48851245641708374,-0.8723776936531067,0.218352809548378,-0.37809985876083374,0.6637900471687317,0.8409737888812613,-0.214894607500439,0.13278352077724528,-0.47848928903514854,-0.5103841199817287,0.02026984787761809,-1.0292942145587183
1784286976704914176,0.3477821350097656,3.1306726932525635,0.3003814220428467,-2.432304859161377,0.010179802775382996,0.4593355655670166,-0.8882045149803162,0.2770363688468933,-0.4883730411529541,0.44115251302719116,0.8369024581304046,-0.20092828255456527,0.12460165570275439,-0.493656388622908,-0.4772470249999735,0.01146060108712552,-1.0630746524201191
1784286976714834176,0.35770225524902344,3.1095736026763916,-0.0030739791691303253,-2.680921792984009,0.001196230761706829,0.43251481652259827,-0.9016260504722595,0.4310394823551178,-0.45821061730384827,0.12551826238632202,0.8328733418016369,-0.18911365508591896,0.11585769907149782,-0.5070848722903892,-0.44728011631103887,0.001326747421494747,-1.0934835700472902
1784286976724753152,0.36762118339538574,3.78839373588562,-0.7061322927474976,-2.7241597175598145,-0.011180266737937927,0.4022822082042694,-0.915447473526001,0.5328477621078491,-0.11860603094100952,-0.303882360458374,0.8286790734810879,-0.17707775572113418,0.10449754411559853,-0.5205908612474948,-0.4140082810511063,-0.012212291008077223,-1.1243845239385328
1784286976734672896,0.37754106521606445,3.1672792434692383,-0.49101442098617554,-2.7744271755218506,-0.02265685610473156,0.3682565689086914,-0.929448127746582,0.6131109595298767,-0.1026163101196289,-0.49482250213623047,0.8243911046404427,-0.16361417274065546,0.09222987513445237,-0.5339507891772897,-0.37713310680875994,-0.024371850090634407,-1.1541520501592675
1784286976744593152,0.38746118545532227,3.8186779022216797,-1.4020943641662598,-2.440108299255371,-0.041293635964393616,0.33440953493118286,-0.9415227770805359,0.4409518241882324,-0.5026682019233704,-0.11469060182571411,0.82024528200095,-0.1528893800852078,0.07657321241864928,-0.545856316472022,-0.34097861770157156,-0.04383026158518239,-1.1819074362959194
1784286976754512128,0.39738011360168457,2.2781596183776855,-0.5746791362762451,-2.6625046730041504,-0.054647769778966904,0.3043196499347687,-0.9510011672973633,0.1105559766292572,-0.7936232089996338,0.2716035842895508,0.8160961846429955,-0.14287820520550346,0.06391593886136458,-0.5563160534479875,-0.3092241135615912,-0.057400288471975265,-1.2055969938269402
1784286976764432128,0.4073002338409424,1.7302836179733276,-0.7843223810195923,-3.2383902072906494,-0.06844636052846909,0.28398096561431885,-0.9563837647438049,0.3132278621196747,-0.9381862878799438,0.35482126474380493,0.8083061076010923,-0.13727059727413904,0.05445091075527036,-0.5699413120238773,-0.2879434771433533,-0.07144606773965977,-1.238651080900096
1784286976774351104,0.4172191619873047,2.4400250911712646,-1.2825191020965576,-3.069032907485962,-0.08537188917398453,0.2618712782859802,-0.9613194465637207,0.41339007019996643,-0.13783258199691772,0.1766819953918457,0.7999884372841766,-0.13221892653379907,0.0431095344940735,-0.5836764570816606,-0.26496062305712953,-0.08857462897903519,-1.2724526111630319
1784286976784271360,0.4271392822265625,3.9417519569396973,-0.8844795823097229,-3.060900926589966,-0.1014612540602684,0.22859634459018707,-0.9682196378707886,0.1042536199092865,0.47217878699302673,0.11954110860824585,0.7925358096414336,-0.12280546476257521,0.028442660202858145,-0.596654668745383,-0.23063560933413596,-0.10441049140311529,-1.3027405704684323
1784286976794190080,0.4370582103729248,5.27593469619751,-0.5788425803184509,-3.2644565105438232,-0.11274948716163635,0.18004834651947021,-0.9771745800971985,-0.11398085206747055,0.18662035465240479,0.2847917675971985,0.7850619348051038,-0.10628376379454287,0.010792423976059503,-0.6101352015254872,-0.18103560434166055,-0.11487516814134892,-1.331780467148356
1784286976804110080,0.4469780921936035,5.812576770782471,-0.4317018687725067,-3.4949193000793457,-0.1210777759552002,0.12181040644645691,-0.9851408004760742,0.034819841384887695,-0.2188105285167694,0.5366849899291992,0.7767242331668972,-0.08571448691308307,-0.009089888723491485,-0.6239149720577867,-0.12211366471786893,-0.12229074317649813,-1.3609418980766148
1784286976814030080,0.45689821243286133,6.089658260345459,-0.3318077623844147,-3.6452572345733643,-0.12637940049171448,0.05901402607560158,-0.9902250170707703,0.16359560191631317,-0.3995596766471863,0.5619565844535828,0.7669230922560389,-0.06324869170951139,-0.02978411144077601,-0.637919615521091,-0.05904833466324341,-0.1269406969598389,-1.3914084440865238
1784286976823949056,0.46681714057922363,5.344232082366943,-0.43951505422592163,-3.810946464538574,-0.12987655401229858,-0.00281008193269372,-0.991526186466217,0.2502226233482361,-0.4604009687900543,0.6090341210365295,0.7557323256760975,-0.04142992897010542,-0.0502042470943193,-0.6516376485910036,0.0028100856036446667,-0.130244989265731,-1.4229538713047383
1784286976833869312,0.47673726081848145,4.881681442260742,-0.16806654632091522,-3.939666748046875,-0.13060350716114044,-0.05726282671093941,-0.9897795915603638,0.17241260409355164,-0.6413150429725647,0.828723132610321,0.742883704923313,-0.022308560695414134,-0.06791552320309982,-0.6655927440703437,0.05729416716622391,-0.13119418441262135,-1.457390469723822
1784286976843788032,0.48665618896484375,4.675143241882324,0.07275032252073288,-3.9512109756469727,-0.12676051259040833,-0.10891905426979065,-0.9859352707862854,0.18541531264781952,-0.46566590666770935,0.7470742464065552,0.7290607600061648,-0.003373141465056432,-0.08379124631801539,-0.6792923653633157,0.10913557321599851,-0.1278673325369183,-1.4931558945174785
1784286976853708032,0.49657607078552246,4.863476753234863,0.278168261051178,-4.001124858856201,-0.1187920942902565,-0.16090644896030426,-0.9797946214675903,0.029375597834587097,-0.37894949316978455,0.4401828646659851,0.7142594733197134,0.016491846457336496,-0.09914986113746413,-0.6926259882822474,0.16160900794981078,-0.1206529432016504,-1.5302626884911552
1784286976863628032,0.5064961910247803,4.63362979888916,0.39737242460250854,-3.909397840499878,-0.10728950798511505,-0.21174395084381104,-0.9714182615280151,-0.03310660272836685,-0.49373090267181396,0.42692363262176514,0.6988847135467054,0.036687756240355585,-0.11377553212799195,-0.705173290522438,0.21335903403863832,-0.11000042361934641,-1.5679627957340754
1784286976873547008,0.5164151191711426,3.4835102558135986,0.5107868909835815,-3.947658061981201,-0.0931883156299591,-0.2548642158508301,-0.9624760746955872,-0.1399507224559784,-0.6485476493835449,0.5941289067268372,0.6831309446293711,0.054654596864072404,-0.1255979430693061,-0.7173355111358668,0.2577072858161228,-0.09652058119885201,-1.6071182301166438
1784286976883467264,0.5263352394104004,2.6832330226898193,0.7342016100883484,-3.975395917892456,-0.07594472169876099,-0.2871490716934204,-0.9548705816268921,-0.1270124316215515,-0.5170501470565796,0.5197967290878296,0.6671072577691246,0.0696442242965828,-0.13309544375889462,-0.729659585387636,0.291249228888189,-0.07936697934743803,-1.6486575816554845
1784286976893386240,0.5362541675567627,2.4678571224212646,0.8070506453514099,-3.9484810829162598,-0.05621369555592537,-0.31375792622566223,-0.9478375315666199,-0.04598966985940933,-0.11086365580558777,0.4564434885978699,0.6514376905702154,0.08353966765358353,-0.13821128346419378,-0.7413147863431637,0.31914822592055136,-0.059237924159291785,-1.6901448951752764
1784286976903306240,0.5461742877960205,2.8389394283294678,0.9063000082969666,-3.8137006759643555,-0.0349615179002285,-0.3402685225009918,-0.9396781325340271,-0.031429462134838104,0.03927364945411682,0.3869590163230896,0.635513980542146,0.09792537010851053,-0.14342783445120316,-0.752303876565082,0.34720243755138347,-0.03718868840970446,-1.7321856285011827
1784286976913226240,0.5560941696166992,3.1245861053466797,0.916775643825531,-3.639787435531616,-0.012834124267101288,-0.36886876821517944,-0.9293928742408752,-0.005918928422033787,-0.017605841159820557,0.42762285470962524,0.6196908044159234,0.11340597368788279,-0.14980870042723077,-0.7620234542509179,0.3777916659177169,-0.01380827115257843,-1.7734556389561904
1784286976923144960,0.5660130977630615,3.3369905948638916,0.8700183033943176,-3.522174119949341,0.009626919403672218,-0.398490846157074,-0.9171217679977417,-0.07179123163223267,-0.20874792337417603,0.4596633315086365,0.6037335417747047,0.12936178323036265,-0.1571770741758361,-0.7707572440870952,0.409870799480222,0.010496497007894328,-1.8148259238485658
1784286976933065216,0.5759332180023193,3.2566068172454834,0.8527363538742065,-3.1976232528686523,0.03166515752673149,-0.4280295968055725,-0.9032098650932312,-0.07149059325456619,-0.33754962682724,0.4689904451370239,0.5880057187652861,0.14519203535901626,-0.16527054833890048,-0.7783664276660262,0.4423114204094943,0.035044118998671756,-1.8555309413158176
1784286976942984192,0.5858521461486816,3.191941261291504,1.0098756551742554,-3.470306396484375,0.0548364482820034,-0.4553874731063843,-0.8886029720306396,-0.1422998309135437,-0.4997059106826782,0.16164374351501465,0.5721257874804918,0.16075991666312006,-0.17278532218000278,-0.7854766638645465,0.47280737585020016,0.06163269758127374,-1.8974042061911802
1784286976952904192,0.5957722663879395,3.032054901123047,1.0373139381408691,-3.6071207523345947,0.08089885115623474,-0.4799281656742096,-0.873569905757904,-0.10424482077360153,-0.23865395784378052,-0.05758243799209595,0.5552815050734659,0.17646928705062873,-0.17909118395651538,-0.7927467232685801,0.5005728249657178,0.09234381053139026,-1.943156425230854
1784286976962823168,0.6056911945343018,2.974630355834961,0.9986110925674438,-3.717168092727661,0.10747645050287247,-0.5026224255561829,-0.857799232006073,-0.18056604266166687,0.18072301149368286,-0.147297203540802,0.5379329394977189,0.1918003662529514,-0.18523768663035398,-0.7997048275852237,0.5266295348679839,0.12464371883172332,-1.9909470594272407
1784286976972742912,0.6156110763549805,2.8479459285736084,1.1497111320495605,-4.030654430389404,0.1366765797138214,-0.5224876403808594,-0.8416211605072021,-0.4462011158466339,0.16601181030273438,-0.03655266761779785,0.5195009538067971,0.20726505523380584,-0.1903433797742672,-0.8068019774127283,0.549765875990833,0.16099134654198802,-2.0429342310346277
1784286976982663168,0.6255311965942383,2.7550852298736572,1.161858320236206,-3.8828701972961426,0.16754736006259918,-0.539546012878418,-0.8251169919967651,-0.374883770942688,-0.016942083835601807,-0.04074299335479736,0.5007725625271384,0.2227199213744549,-0.19451824613433452,-0.8135019214692062,0.5698977784442297,0.20033509675397515,-2.096866812362958
1784286976992582144,0.6354501247406006,2.826676368713379,1.1954090595245361,-3.8061635494232178,0.19832992553710938,-0.5551338791847229,-0.8077695369720459,-0.3058738708496094,0.0073128342628479,-0.0256044864654541,0.4824641902661105,0.23803201994864048,-0.1986353227388041,-0.8192149546210419,0.5885239476443147,0.240765176675463,-2.1503935954157116
1784286977002502144,0.6453702449798584,2.8840672969818115,1.0312409400939941,-3.8362531661987305,0.22885820269584656,-0.5696656703948975,-0.7893699407577515,-0.34053730964660645,0.09792494773864746,0.028002142906188965,0.46370376741091723,0.25306717074330753,-0.2031551942410417,-0.8244172099346323,0.6060990187335605,0.2821883807987456,-2.2056374113082695
1784286977012421120,0.6552891731262207,2.8133559226989746,0.7962418794631958,-3.645719528198242,0.2575356960296631,-0.5828311443328857,-0.7707030773162842,-0.3282601833343506,0.12514376640319824,0.13738703727722168,0.4448432769070615,0.2670129029703954,-0.2082128285337754,-0.8291356975429649,0.622208468567684,0.3224915361641485,-2.26123989154423
1784286977022341376,0.6652092933654785,2.7872087955474854,0.6837923526763916,-3.6256814002990723,0.28450334072113037,-0.5941630005836487,-0.7523484826087952,-0.36424577236175537,-0.16920369863510132,0.12049728631973267,0.4262060952212424,0.2798161006737941,-0.21337457702147597,-0.8333802829029962,0.6362246321880566,0.36153267615344875,-2.3163315181119932
1784286977032261120,0.6751291751861572,2.3489043712615967,0.4176982343196869,-3.593111753463745,0.3101632595062256,-0.6029900908470154,-0.7349841594696045,-0.3349893093109131,-0.3995276093482971,0.04792666435241699,0.4072665732232705,0.29128801390328507,-0.21830988019051395,-0.8376312675847952,0.6472440032826968,0.39932680925080655,-2.3720199751485658
1784286977042180096,0.6850481033325195,1.5565022230148315,0.28229114413261414,-3.598020315170288,0.33442598581314087,-0.6052392721176147,-0.7223882079124451,-0.28547579050064087,-0.15115416049957275,0.03101247549057007,0.38904088860412345,0.30029446821283123,-0.2205201303507388,-0.8425208012118899,0.6500663785937004,0.43356665447714154,-2.42458111279701
1784286977052100096,0.6949682235717773,1.502501130104065,0.08096317201852798,-3.378866195678711,0.3565234839916229,-0.6039743423461914,-0.712815523147583,-0.2121906280517578,0.017685890197753906,-0.158247709274292,0.37240857115788856,0.30766069057399076,-0.2212173963279587,-0.8471833134621183,0.6484783315907651,0.4637774905797759,-2.47167468159906
1784286977062019072,0.7048871517181396,2.204693078994751,-0.015614500269293785,-3.225374937057495,0.37662792205810547,-0.6047734022140503,-0.7017126083374023,-0.28907299041748047,0.1943119764328003,-0.19954776763916016,0.3556972175768045,0.3147748893964598,-0.22374197299834703,-0.851079182899718,0.6494812749957802,0.49259553086327024,-2.5187181072879086
1784286977071939328,0.7148072719573975,3.2028257846832275,-0.18046481907367706,-3.026521682739258,0.3947567641735077,-0.6118835806846619,-0.6853944063186646,-0.2561154365539551,0.11116647720336914,-0.14726239442825317,0.3381102331017669,0.32264833543786114,-0.23065306280518572,-0.8534510128417967,0.6584398348692015,0.5225521574252179,-2.5693976070698783
1784286977081859072,0.7247271537780762,3.9523487091064453,-0.4133329391479492,-3.0438435077667236,0.41144245862960815,-0.6237621903419495,-0.6645569205284119,-0.10802140831947327,0.03400999307632446,-0.08497005701065063,0.3191302985609703,0.3308403053280425,-0.24138400151740882,-0.8546545515692222,0.6735468870207539,0.5543619686591762,-2.6254148810387408
1784286977091778048,0.7346460819244385,4.308008193969727,-0.5638107657432556,-2.972569227218628,0.42720237374305725,-0.6381032466888428,-0.6405640840530396,-0.19612330198287964,0.017863988876342773,-0.05436694622039795,0.29879659609059894,0.33885634623562505,-0.2547436824713849,-0.8549868945153255,0.6920322944048276,0.5881751509464035,-2.6866982007920033
1784286977101698048,0.7445662021636963,4.617807388305664,-0.7527018785476685,-3.027757406234741,0.4423041343688965,-0.6529748439788818,-0.6148096323013306,-0.18856576085090637,0.07330870628356934,-0.011899352073669434,0.27768708448109813,0.3463589656758826,-0.26950074456892487,-0.8545727969660528,0.7115056150968841,0.6236386123708322,-2.7516315749677664
1784286977111617024,0.7544851303100586,4.8960065841674805,-0.9297003746032715,-2.795295238494873,0.45645496249198914,-0.6685277223587036,-0.5871283411979675,-0.003253638744354248,0.07753956317901611,-0.04788142442703247,0.2558240895074717,0.35316472411579447,-0.2858505016977563,-0.8532984940218136,0.7322272821982692,0.660830456029594,-2.8205374565648604
1784286977121537280,0.7644052505493164,4.924553871154785,-0.9902052879333496,-2.5752289295196533,0.46904250979423523,-0.6841292381286621,-0.5585395097732544,0.01020553708076477,0.012803614139556885,0.034430623054504395,0.23437202395269344,0.35901177850407834,-0.30305243791507175,-0.8510814713373227,0.7534091947126623,0.6985226302449908,-2.89032774440734
1784286977131456256,0.7743241786956787,5.266826152801514,-1.0893840789794922,-2.4158482551574707,0.48050829768180847,-0.6998626589775085,-0.5284921526908875,-0.00832509994506836,-0.02175593376159668,-0.005657017230987549,0.21320308454155193,0.3641465405565837,-0.32117164953751504,-0.8478150800248091,0.7752052098589393,0.7378781344885773,-2.961977207001653
1784286977141376000,0.7842440605163574,5.601515769958496,-1.233458161354065,-2.278852939605713,0.4911709427833557,-0.7162043452262878,-0.4957845211029053,-0.06531345844268799,0.05520892143249512,-0.04138585925102234,0.19153746063708035,0.36863549576609245,-0.34090411171310453,-0.8433300282978965,0.7983482991951084,0.7807236548550609,-3.038644221220461
1784286977151296256,0.7941641807556152,5.770352363586426,-1.365323781967163,-2.100107192993164,0.5006199479103088,-0.7326382398605347,-0.4611082077026367,-0.05404102802276611,0.012453973293304443,-0.048764199018478394,0.16971423440645234,0.3721226521362958,-0.36189864499727703,-0.8377058722260065,0.8221901799862107,0.8264591898646684,-3.119552292273329
1784286977161214976,0.8040831089019775,5.753888130187988,-1.4561017751693726,-2.0661911964416504,0.5096876621246338,-0.7476724982261658,-0.42568090558052063,-0.14880210161209106,0.0047067999839782715,-0.03193008899688721,0.1477966999032918,0.37468943836735824,-0.38310229688915143,-0.8312619783652275,0.8445501717285911,0.8749692359338952,3.079249541934729
1784286977171135232,0.8140032291412354,5.6006340980529785,-1.5474884510040283,-2.064307928085327,0.5190961956977844,-0.7602066993713379,-0.39067256450653076,-0.15508246421813965,0.10566574335098267,-0.07177555561065674,0.1257819417416719,0.3764547342678829,-0.40366514742894144,-0.8243271812386804,0.8636312444490125,0.9256323248710763,2.992425174825108
1784286977181054208,0.8239221572875977,5.359382629394531,-1.6035722494125366,-2.063788890838623,0.5287781953811646,-0.7700045704841614,-0.35705268383026123,-0.10975658893585205,0.05508452653884888,-0.09147942066192627,0.10393653520687146,0.37737612115243163,-0.42315590355689814,-0.8171435467284376,0.8788483059219372,0.9768811613749393,2.9050566001902314
1784286977190974208,0.8338422775268555,4.872867584228516,-1.5875450372695923,-2.0603549480438232,0.5394332408905029,-0.7762367725372314,-0.32629504799842834,-0.033436477184295654,-0.1004418134689331,-0.06381121277809143,0.08247733527188685,0.377777464274573,-0.4406094246421499,-0.810151312507094,0.8886744762390979,1.0267926915805294,2.820004007102563
1784286977200894208,0.8437621593475342,4.655183792114258,-1.5767589807510376,-1.846083164215088,0.5495980381965637,-0.7804114818572998,-0.2981612980365753,0.10469889640808105,-0.1290733814239502,-0.07111668586730957,0.06228639413885996,0.37751111555203476,-0.4565136478795812,-0.8032441574002344,0.8953235918920819,1.0737233608459142,2.7396378977972864
1784286977210812928,0.8536810874938965,4.955183982849121,-1.639494776725769,-1.7522732019424438,0.5591695308685303,-0.7838890552520752,-0.2699027955532074,0.06502175331115723,0.012603044509887695,-0.1367897391319275,0.042583863151110596,0.37665247241197947,-0.47242091606105674,-0.7956997640350608,0.9009048578865242,1.1210963760875836,2.659067392606891
1784286977220733184,0.8636012077331543,5.0784502029418945,-1.6435108184814453,-1.6814658641815186,0.5684119462966919,-0.787031352519989,-0.2397703230381012,0.038857460021972656,0.14733701944351196,-0.1336122453212738,0.022535784037661415,0.37513358642630995,-0.4892745936746327,-0.7870053781731731,0.9059819826854483,1.171618052033031,2.574076636397026
1784286977230652160,0.8735201358795166,5.233346462249756,-1.6481252908706665,-1.5292613506317139,0.5773619413375854,-0.7893352508544922,-0.2088133990764618,0.053604185581207275,0.08288389444351196,-0.0800354927778244,0.0025714123203448226,0.3730014999021712,-0.5064219435301145,-0.7774316963941259,0.9097254769777222,1.2237648189539971,2.487017216911833
1784286977240572160,0.8834402561187744,5.164851665496826,-1.589930772781372,-1.234559416770935,0.5852442383766174,-0.7912222743034363,-0.17735999822616577,0.13803762197494507,0.01085728406906128,0.04975074529647827,-0.016611113134156922,0.37013584031345576,-0.5237551563166025,-0.7670750197306372,0.9128051124232933,1.2765410154310208,2.3996897031469677
1784286977250492160,0.8933601379394531,5.085850238800049,-1.6406482458114624,-1.237635850906372,0.5924359560012817,-0.792352557182312,-0.14559240639209747,0.11996638774871826,-0.02074253559112549,0.11690586805343628,-0.03509275151348216,0.3666984863036327,-0.5410508454378772,-0.7560190159004428,0.9146556159299513,1.3298196362876937,2.3123657799755226
1784286977260411136,0.9032790660858154,5.143913269042969,-1.7247953414916992,-1.202396273612976,0.5998639464378357,-0.7916577458381653,-0.11593684554100037,0.1364489197731018,-0.20701473951339722,0.15258842706680298,-0.053409087439476845,0.36261325524027416,-0.5572640360864541,-0.7450610067864097,0.9135175322516217,1.3798783803636627,2.2279314029296415
1784286977270331136,0.9131991863250732,4.1196160316467285,-1.4309766292572021,-0.9895043969154358,0.6068843603134155,-0.790057897567749,-0.08659996837377548,0.19061613082885742,0.016498446464538574,0.2798067331314087,-0.0704786885376218,0.3585458576679849,-0.5728393178044783,-0.7337115153862153,0.9109034797103336,1.4290572041279126,2.1465495077047003
1784286977280250112,0.9231181144714355,3.6252901554107666,-1.4322714805603027,-1.079079031944275,0.6141449213027954,-0.7863001823425293,-0.06751299649477005,0.13925772905349731,-0.1689457893371582,0.38036394119262695,-0.08488373441625718,0.3549400648579996,-0.5833189963678217,-0.7256385064676143,0.9047976889462662,1.461305893388456,2.087205393755825
1784286977290170112,0.9330382347106934,2.574246883392334,-1.3367431163787842,-0.7753780484199524,0.6206925511360168,-0.7824259996414185,-0.05050180107355118,0.41409748792648315,-0.13238418102264404,0.19813060760498047,-0.097951193357453,0.35133203289999554,-0.5927182320389462,-0.7180922645656679,0.8985519577805798,1.4896115282078206,2.0338730188375203
1784286977300089088,0.9429571628570557,1.8699389696121216,-1.2837251424789429,-0.8027945160865784,0.626083493232727,-0.7786462903022766,-0.041588447988033295,0.30015552043914795,-0.12049311399459839,0.17885655164718628,-0.10828334112132024,0.3479208081015868,-0.5984621019621804,-0.7134907538422955,0.8925054980736689,1.5044674119315173,1.9984564386758146
1784286977310009344,0.9528772830963135,0.699582040309906,-1.0241189002990723,-0.8849846124649048,0.6322731971740723,-0.7737704515457153,-0.03885962814092636,0.22675085067749023,-0.11950957775115967,0.16913914680480957,-0.11704683836062507,0.34564025078306687,-0.6009184668976811,-0.7111469152357086,0.8847717694380794,1.509413355774669,1.9771650022707121
1784286977319929088,0.9627971649169922,0.3040645718574524,-1.0052930116653442,-0.7163764238357544,0.6381227374076843,-0.7688446044921875,-0.040956445038318634,0.3739011883735657,-0.2493438720703125,0.06407350301742554,-0.12373811438048431,0.34430933651787216,-0.6008101681433433,-0.7107510999004438,0.8770322771140301,1.5067015311507677,1.9681220845261673
1784286977329848064,0.9727160930633545,-0.5234946012496948,-0.7949188351631165,-0.33118736743927,0.6417944431304932,-0.7653952240943909,-0.0476471409201622,0.4576166272163391,-0.44162076711654663,0.17923897504806519,-0.1279621261015299,0.34290522075116414,-0.5988258843514259,-0.7123547884509956,0.8716552057596323,1.4966917717455255,1.9698725718506518
1784286977339768064,0.9826362133026123,-0.7879822254180908,-0.6902291178703308,-0.10585436969995499,0.6431191563606262,-0.7636361718177795,-0.05707385763525963,0.463570237159729,-0.6183522939682007,0.19418936967849731,-0.12970160366606756,0.3415139233166028,-0.595677186624187,-0.7153421426205888,0.8689263566865649,1.482282825408097,1.979667607339765
1784286977349687040,0.9925551414489746,-0.6004953980445862,-0.6902477741241455,0.295500248670578,0.6420207619667053,-0.7637920379638672,-0.06656522303819656,0.4569629430770874,-0.7054919004440308,0.15575283765792847,-0.13011431116973562,0.33937076938522737,-0.5929121949669773,-0.7185769344835728,0.8691678300729513,1.4674846675351898,1.9905531647371408
1784286977359607296,1.0024752616882324,-0.6151180267333984,-0.6247449517250061,0.5131995677947998,0.6384714841842651,-0.7659739851951599,-0.07508589327335358,0.4118366837501526,-0.7281056046485901,0.16201519966125488,-0.12963645874561444,0.33619314252728283,-0.591127078630456,-0.7216212925071802,0.8725550370955559,1.4537314544914965,1.9999954012442316
1784286977369527040,1.0123951435089111,-0.7504074573516846,-0.7594508528709412,0.4403272867202759,0.6345581412315369,-0.7682810425758362,-0.08414458483457565,0.40935665369033813,-0.6913289427757263,0.13437652587890625,-0.12896909008202453,0.3328788966973395,-0.5891683513968033,-0.7248719569110144,0.8761514277202523,1.4389620196324968,2.010530622298284
1784286977379446016,1.0223140716552734,-0.8444803953170776,-0.8017889857292175,0.8687471151351929,0.6288033127784729,-0.7718362808227539,-0.09420908987522125,0.4745903015136719,-0.6368093490600586,0.040589749813079834,-0.12751911910794167,0.32874512483966145,-0.5872155466211921,-0.728590083349638,0.8817241401506569,1.422079654553735,2.023021515001771
1784286977389366272,1.0322341918945312,-0.9614194631576538,-0.7727755904197693,1.3134175539016724,0.6197513937950134,-0.777677595615387,-0.10547824949026108,0.5151667594909668,-0.5256212949752808,0.042367883026599884,-0.12417490136686765,0.32359092129784145,-0.5852775337729903,-0.7330209235629309,0.890963165946437,1.4022171860305064,2.039634444827924
1784286977399284992,1.0421531200408936,-1.5093581676483154,-0.8407652974128723,1.3944690227508545,0.6080968976020813,-0.7847822904586792,-0.11972875148057938,0.5702936053276062,-0.4346543550491333,0.13192051649093628,-0.11951453403338262,0.31737002169245543,-0.5825906735562031,-0.7386343547645285,0.9023448097517823,1.376392057379391,2.062494668485495
1784286977409205248,1.0520732402801514,-2.016758680343628,-0.8409103751182556,1.3980995416641235,0.5963355302810669,-0.790861964225769,-0.1375543177127838,0.5432212948799133,-0.3781138062477112,0.14812864363193512,-0.1141957875331955,0.3114062656710186,-0.5781426983072113,-0.7454773312691215,0.9122162017723431,1.3440955219439168,2.0933074985701237
1784286977419124224,1.0619921684265137,-2.473766326904297,-0.6567450761795044,1.6722259521484375,0.5834071040153503,-0.7965416312217712,-0.15861156582832336,0.5319646000862122,-0.44230419397354126,0.16495919227600098,-0.107247095126624,0.3056991323979766,-0.5720509209738773,-0.7535276219288596,0.9215532537289968,1.3053412796318753,2.133463622566498
1784286977429044224,1.0719122886657715,-2.919257164001465,-0.5868597626686096,1.835301160812378,0.5685024261474609,-0.8020501136779785,-0.18308672308921814,0.5059910416603088,-0.6104713678359985,0.23855243623256683,-0.09820301209626306,0.2999806931467037,-0.564329889130569,-0.7628234481871256,0.9307199247791791,1.2592340809532807,2.1841237447068655
1784286977438964224,1.0818321704864502,-3.3635706901550293,-0.5509420037269592,1.8663064241409302,0.5529590845108032,-0.8063663244247437,-0.20978465676307678,0.5599406957626343,-0.5513607263565063,0.2874976396560669,-0.08814728908017981,0.29444321862126277,-0.5553475175713684,-0.7727369365955826,0.9379821205060487,1.2081863845192249,2.2416100512427697
1784286977448882944,1.0917510986328125,-3.417644739151001,-0.44173210859298706,2.0054514408111572,0.5368135571479797,-0.8096303939819336,-0.23733896017074585,0.687261700630188,-0.46943753957748413,0.30411142110824585,-0.07703986082893369,0.28919289013388244,-0.5456170756640972,-0.7827734739614903,0.9435221135620842,1.1545101189906641,2.3038212301275687
1784286977458803200,1.1016712188720703,-3.194089651107788,-0.5087037086486816,2.0502591133117676,0.5206272602081299,-0.8127586841583252,-0.26147791743278503,0.7266261577606201,-0.4519355297088623,0.29201072454452515,-0.06580096332427908,0.28425024477079824,-0.537087370688827,-0.7914602056190447,0.9488717131896097,1.105361267982571,2.3621693606122216
1784286977468722176,1.1115901470184326,-2.9546074867248535,-0.5400035977363586,2.114671468734741,0.5061280727386475,-0.8161433339118958,-0.278827041387558,0.6692565083503723,-0.410709023475647,0.24528825283050537,-0.055178168961671895,0.280506158670825,-0.5309451700994312,-0.79772737212056,0.9547050826970592,1.067260729351338,2.4103130803205133
1784286977478642176,1.1215102672576904,-2.7730214595794678,-0.5666143894195557,2.115602970123291,0.48816564679145813,-0.8185458183288574,-0.3027825951576233,0.6254971623420715,-0.39718306064605713,0.2434411346912384,-0.04440640083340182,0.2740650506275296,-0.5229694568682488,-0.805865710076308,0.9588749658300353,1.0156232096467226,2.468242898594214
1784286977488562176,1.1314301490783691,-2.883037805557251,-0.6274842619895935,2.1415481567382812,0.46959081292152405,-0.8199694156646729,-0.32731443643569946,0.6308425664901733,-0.42925238609313965,0.3068828582763672,-0.0337572524946229,0.26711409288324023,-0.5147745616710113,-0.8139519308261042,0.9613575950904653,0.9620728260054077,2.5272230022607984
1784286977498481152,1.1413490772247314,-2.975022554397583,-0.6532588601112366,2.2741990089416504,0.44998806715011597,-0.8202559947967529,-0.3531157970428467,0.6482326984405518,-0.5516617298126221,0.4180724620819092,-0.022712895117983477,0.2596657291947346,-0.5059800482930371,-0.8222177407128402,0.9618584712091096,0.9054405654750076,2.58924093030118
1784286977508401152,1.1512691974639893,-3.32204532623291,-0.6731737852096558,2.3722217082977295,0.42879223823547363,-0.819225549697876,-0.38079744577407837,0.6222941875457764,-0.5565525889396667,0.5503988265991211,-0.010891709147458907,0.251543853787467,-0.49631337723302893,-0.8308309500007931,0.9600592438975676,0.8446117274896389,2.6557442249566896
1784286977518320128,1.1611881256103516,-3.745666265487671,-0.6514658331871033,2.334688425064087,0.4074068069458008,-0.8151922225952148,-0.4116809368133545,0.5458859801292419,-0.5178918242454529,0.6034839153289795,0.0015321577217594592,0.24334711964941305,-0.4847078560589107,-0.8401416575798116,0.9530609868591443,0.7801800396010734,2.726957873192509
1784286977528240128,1.1711082458496094,-4.028009414672852,-0.6446350812911987,2.4217700958251953,0.38580265641212463,-0.8082637786865234,-0.44482117891311646,0.520233690738678,-0.4934787154197693,0.5672730207443237,0.014529257148456248,0.23505160223023147,-0.47152958291766645,-0.8498231802247002,0.9411974956174727,0.7144641024713722,2.8004954266444844
1784286977538160128,1.181028127670288,-4.270660400390625,-0.6248965859413147,2.427217960357666,0.36365652084350586,-0.7984265685081482,-0.4798634648323059,0.48868417739868164,-0.3916826844215393,0.5985768437385559,0.02813312771130939,0.2264463131467895,-0.45693580317610144,-0.8597326949472496,0.9246774253347155,0.6484956109830424,2.875085882177292
1784286977548079360,1.1909472942352295,-4.013172626495361,-0.6193820238113403,2.4576408863067627,0.3418276309967041,-0.7866515517234802,-0.5141333937644958,0.4713742733001709,-0.2878113389015198,0.5495643019676208,0.041736116495727935,0.2178884805839083,-0.4421062356699461,-0.8690941583334076,0.9053665772420734,0.5867520082019732,2.945794137930044
1784286977557999104,1.2008671760559082,-3.651623010635376,-0.5937155485153198,2.583449363708496,0.3192790746688843,-0.7751318216323853,-0.5451894998550415,0.4294391870498657,-0.20207154750823975,0.488655686378479,0.055402393032051224,0.20905139947799312,-0.4286056110410882,-0.8772259236458967,0.8869236813807536,0.5297859594231162,3.011436892032005
1784286977567918080,1.2107861042022705,-3.1635327339172363,-0.6448842287063599,2.689896821975708,0.29609355330467224,-0.7645324468612671,-0.5725545883178711,0.33705464005470276,-0.2539306879043579,0.4066457748413086,0.0690600578384251,0.20002743380480995,-0.416787377035912,-0.8840294183106795,0.8703156171283389,0.47726905921994967,3.0722902275969717
1784286977577838080,1.2207062244415283,-2.787637710571289,-0.6448488235473633,2.81895112991333,0.27153638005256653,-0.7557419538497925,-0.5959212779998779,0.26320788264274597,-0.41627037525177,0.45558619499206543,0.08270693392699155,0.19049997011676625,-0.4071229795828649,-0.889449426670533,0.8567863361359828,0.4275492758776951,3.1293967031479424
1784286977587757056,1.2306251525878906,-3.0377097129821777,-0.5208490490913391,2.6842591762542725,0.24771952629089355,-0.7457398772239685,-0.6184715628623962,0.14862750470638275,-0.5369749069213867,0.5827202200889587,0.09634075804655265,0.18128579210104975,-0.3973659447673219,-0.8944015729390711,0.8416446773218466,0.3809675354736078,-3.099161012743479
1784286977597677824,1.2405459880828857,-3.114205837249756,-0.5260502099990845,2.782639741897583,0.22477395832538605,-0.7331863045692444,-0.6418057084083557,0.11597007513046265,-0.4211716055870056,0.543218731880188,0.1100637838056585,0.17227524896966914,-0.38654672970404486,-0.8993269445572355,0.8229957503067507,0.3368718419297443,-3.0461845845507045
1784286977607598080,1.2504661083221436,-2.9713797569274902,-0.4686657190322876,2.8110930919647217,0.20136630535125732,-0.7198153138160706,-0.6643173694610596,-0.021892443299293518,-0.16676610708236694,0.5116074085235596,0.12425538330380945,0.1630823264462281,-0.37582639552682595,-0.9037252048541822,0.8035361879991503,0.2943145610800629,-2.994113627177741
1784286977617517056,1.2603850364685059,-2.6617488861083984,-0.3215734660625458,2.6274538040161133,0.1796640157699585,-0.7067602276802063,-0.684259295463562,-0.1263498216867447,-0.015316188335418701,0.4059237241744995,0.13791393717661213,0.1546513391135226,-0.3659963296018281,-0.9072537275414003,0.7849081700969134,0.2567711559105367,-2.946648118775625
1784286977627437056,1.2703051567077637,-2.9372053146362305,-0.34836867451667786,2.570761203765869,0.15949082374572754,-0.6928801536560059,-0.7031925320625305,-0.13385607302188873,0.01879262924194336,0.2890995144844055,0.15105259671286592,0.1466995235157248,-0.35620638625270595,-0.9103731848347943,0.765475825884394,0.22303619213110867,-2.902846425120554
1784286977637356032,1.280224084854126,-4.073453426361084,-0.44043204188346863,2.489999294281006,0.13974788784980774,-0.6727948784828186,-0.7265105247497559,-0.24935176968574524,0.025288164615631104,0.17635488510131836,0.16422617563210004,0.13801713586779976,-0.3430685015501079,-0.9144862248580908,0.7379800811252891,0.1900338375298734,-2.859889694299307
1784286977647276032,1.2901439666748047,-5.744767189025879,-0.4562869071960449,2.2859137058258057,0.1208994910120964,-0.6404759287834167,-0.7584022283554077,-0.315357506275177,-0.001751244068145752,0.12180554866790771,0.1776214416048725,0.12799801728492796,-0.3231337106068326,-0.9206800527336677,0.69511779522738,0.15808327039860479,-2.8177990111440163
1784286977657196032,1.3000640869140625,-7.171543598175049,-0.456918329000473,1.9642146825790405,0.10457111150026321,-0.5935215950012207,-0.7979955673217773,-0.2781550884246826,0.0756993293762207,0.046683311462402344,0.19053634408370163,0.11691600176350458,-0.295521321200915,-0.9288130536203797,0.6354274854610386,0.13029976475078328,-2.7798312553755005
1784286977667115008,1.3099830150604248,-7.738523483276367,-0.585315465927124,1.9263404607772827,0.08960616588592529,-0.5351720452308655,-0.8399771451950073,-0.2365788370370865,0.26298582553863525,0.0505942702293396,0.2029029927012834,0.10466958161050742,-0.26278454649758537,-0.937453376598939,0.5647114214555021,0.10627499070904639,-2.7461448402263007
1784286977677035008,1.3199031352996826,-7.564350605010986,-0.7295717000961304,1.8521957397460938,0.07470615208148956,-0.47180595993995667,-0.878531813621521,-0.36660677194595337,0.41502800583839417,0.1085885763168335,0.21461991691678184,0.09148812694221231,-0.2288318693298002,-0.9450947828971483,0.4913379231244063,0.08483114719108657,-2.716272265709133
1784286977686953984,1.329822063446045,-6.546061038970947,-0.8149829506874084,1.7283490896224976,0.05986357852816582,-0.41128963232040405,-0.9095367789268494,-0.5280032157897949,0.48703426122665405,0.13307803869247437,0.22526356420206134,0.07832632750450447,-0.19772858685929418,-0.9508020960555353,0.4238684642232776,0.06572286354230483,-2.6904782908162024
1784286977696873984,1.3397419452667236,-5.217540740966797,-0.8350034952163696,1.4154516458511353,0.046541910618543625,-0.35917070508003235,-0.9321106672286987,-0.6584956645965576,0.64109206199646,0.18635261058807373,0.2340198123867463,0.06649860985237858,-0.17182145547954106,-0.9546151579230069,0.3673791643797923,0.04989031211559671,-2.6700538906807467
1784286977706793984,1.3496620655059814,-3.514479160308838,-0.9581440091133118,1.1991353034973145,0.03392230346798897,-0.3201638162136078,-0.9467546939849854,-0.7040425539016724,0.8947793245315552,0.12818169593811035,0.2408236477490622,0.056277438610535836,-0.15315192578327677,-0.9567556463946587,0.32590239984934943,0.035814767110063296,-2.6543092979950424
1784286977716712960,1.3595809936523438,-1.6213687658309937,-1.1063718795776367,0.8832280039787292,0.020831845700740814,-0.2976974844932556,-0.9544329643249512,-0.8157689571380615,1.284742832183838,0.017451763153076172,0.24571143461918202,0.047632522229430214,-0.14322944682601083,-0.9575188094605592,0.3022798802699956,0.02182294673005502,-2.642531242131639
1784286977726632960,1.3695011138916016,0.3147270679473877,-1.2649223804473877,0.3118264973163605,0.007548102643340826,-0.29325634241104126,-0.9560040235519409,-0.9395396709442139,1.4782387018203735,-0.05467706918716431,0.24776769566060952,0.040841431801464094,-0.1425831539779111,-0.9573991200777063,0.2976311671699884,0.007895307503820293,-2.6363029592740617
1784286977736551936,1.3794200420379639,1.8693788051605225,-1.267109990119934,-0.3043919503688812,-0.004768132232129574,-0.3061855435371399,-0.9519599080085754,-0.9598619937896729,1.2861812114715576,0.09119635820388794,0.24674916769849184,0.03636847336821816,-0.15065648623515274,-0.9566059080233669,0.311183543468291,-0.00500871123662376,-2.6359275647046507
1784286977746472192,1.3893401622772217,2.3436403274536133,-0.9221860766410828,-0.6462133526802063,-0.014429830014705658,-0.33024391531944275,-0.9437853097915649,-0.9459735751152039,1.0437144041061401,0.38184988498687744,0.2428378577645908,0.03416449562040612,-0.16413445673799062,-0.95546983188969,0.33656197067961546,-0.01528812239926537,-2.6412237667006053
1784286977756391168,1.399259090423584,3.1684813499450684,-0.6056254506111145,-0.5559747815132141,-0.02008659765124321,-0.3587885797023773,-0.9332026839256287,-0.8454071879386902,0.9390650987625122,0.39136308431625366,0.23893397109235767,0.03443535483222336,-0.17947939208036537,-0.9536833592738712,0.36696972875761996,-0.02152104431677606,-2.646628817591441
1784286977766310912,1.4091789722442627,2.6724705696105957,-0.5307212471961975,-0.9673569798469543,-0.02264113537967205,-0.38752481341362,-0.9215812087059021,-0.9069395661354065,1.1179783344268799,0.6015586256980896,0.23454343845497327,0.03608656734288906,-0.19469761279720718,-0.951724763170649,0.397945079182503,-0.024562764641030375,-2.653388265358424
1784286977776231168,1.4190990924835205,2.2079832553863525,-0.5174667239189148,-1.2939856052398682,-0.023267097771167755,-0.4096304178237915,-0.9119548201560974,-0.8578211665153503,0.8791433572769165,0.6668986678123474,0.22782467834480155,0.037239857816181915,-0.2064843742040141,-0.9508276594213925,0.42204890211215784,-0.025507900489521278,-2.665782054927216
1784286977786149888,1.4290180206298828,2.0560150146484375,-0.4490109384059906,-1.3952327966690063,-0.02218141220510006,-0.42966383695602417,-0.9027164578437805,-0.7119036912918091,0.8263160586357117,0.5210636258125305,0.221087596994243,0.03885037252919168,-0.21710002361010455,-0.9499887320467696,0.4441204507013787,-0.024566905845030382,-2.6787328277794047
1784286977796070144,1.4389381408691406,0.75899338722229,-0.31783053278923035,-1.4659141302108765,-0.018294868990778923,-0.4416636824607849,-0.8969941735267639,-0.6759647727012634,0.8343638777732849,0.6489930748939514,0.21343663595881093,0.04052876071641462,-0.22329429859162728,-0.9502325962971342,0.457452178695187,-0.020392922957628207,-2.694948868418136
1784286977805989120,1.448857069015503,0.7124059796333313,-0.48480063676834106,-1.2354211807250977,-0.017055291682481766,-0.4484591484069824,-0.8936405777931213,-0.5152933597564697,0.4079013168811798,0.2896062135696411,0.20576381253861226,0.040164097473842586,-0.227082702338371,-0.9510423302284418,0.46504067852743697,-0.01908286339531682,-2.7109296511532532
1784286977815908864,1.4587769508361816,-0.44927310943603516,-0.424210786819458,-1.5087746381759644,-0.01449769176542759,-0.451111376285553,-0.892349898815155,-0.8077526688575745,0.20611625909805298,0.35147160291671753,0.1992372822196191,0.04020137335058131,-0.22849266353052033,-0.9520921375725394,0.4680102159150178,-0.016245215200902077,-2.7251484764479406
1784286977825829120,1.4686970710754395,-1.0113825798034668,0.06112296134233475,-1.2986587285995483,-0.010800137184560299,-0.44363293051719666,-0.8961434960365295,-0.8456604480743408,-0.25142017006874084,0.28693634271621704,0.19222599992571487,0.03953749338591873,-0.22442154561580202,-0.9545265563284093,0.4596482785255407,-0.012051210776803899,-2.7413219658224395
1784286977835747840,1.4786159992218018,-2.782212972640991,0.6672259569168091,-1.2917033433914185,-0.004024464171379805,-0.4283030033111572,-0.9036262035369873,-0.7020912766456604,-0.17449542880058289,0.2673195004463196,0.18744206267957458,0.040149080747990624,-0.21581228758245494,-0.9574333352105601,0.4426139796149728,-0.004453652872598489,-2.7539299523159033
1784286977845668096,1.4885361194610596,-3.2491018772125244,0.16512244939804077,-1.0632312297821045,0.004524786025285721,-0.3990577757358551,-0.9169146418571472,-0.2888418138027191,-0.1562705934047699,-0.04327517747879028,0.18291955844337116,0.040349874663517214,-0.19978633019832587,-0.9617680521489542,0.4104890320681108,0.004934755414391368,-2.766727537555557
1784286977855587072,1.4984550476074219,-1.6868659257888794,0.0301505159586668,-0.8907992839813232,0.008054659701883793,-0.37617406249046326,-0.9265139698982239,-0.3309153914451599,0.42372047901153564,-0.38473474979400635,0.17932048061754952,0.03904874468861924,-0.18766512710615504,-0.9649357727240184,0.38566359002153505,0.00869329211855051,-2.7758087394679465
1784286977865507072,1.5083751678466797,-2.3986897468566895,0.45856520533561707,-1.0184589624404907,0.01345900073647499,-0.3573773205280304,-0.93386310338974,-0.2065284550189972,0.895493745803833,0.01975482702255249,0.17515337966038885,0.03910245280337595,-0.17759347338714015,-0.9676016444370676,0.3654582586806416,0.014411179969425316,-2.786098020052903
1784286977875427072,1.5182950496673584,-0.7000330090522766,0.3168807923793793,-1.296178936958313,0.019967880100011826,-0.3418594002723694,-0.9395389556884766,0.4541684687137604,0.3219466805458069,-0.43640708923339844,0.17011036760023035,0.03996927154238682,-0.16921281856462392,-0.9699650020452699,0.34889479492888936,0.021249649959103858,-2.7981133478053595
1784286977885346048,1.5282139778137207,-0.07552656531333923,0.2898220121860504,-0.5269969701766968,0.0255734845995903,-0.34008920192718506,-0.9400454163551331,1.1351168155670166,0.30395638942718506,-0.5549802184104919,0.1662991490673556,0.04194858249258434,-0.16798101317918243,-0.9707560783826727,0.34701175658327965,0.027197811876904364,-2.8070358556179715
1784286977895266048,1.5381340980529785,0.298634797334671,-0.2172558456659317,-0.9829333424568176,0.027495983988046646,-0.3404260277748108,-0.9398691654205322,1.1525272130966187,-0.01936095952987671,-0.4042165279388428,0.16278081197910668,0.04233371231626066,-0.168146553176206,-0.9713068468002457,0.347369951808768,0.029246776556074595,-2.814631597846654
1784286977905185024,1.5480530261993408,0.9269846677780151,-0.11429344117641449,-0.7141445279121399,0.027843186631798744,-0.3461677134037018,-0.9377593994140625,1.1396372318267822,-0.029290050268173218,-0.3807525634765625,0.15812192061042682,0.042207142276328644,-0.1712859064750246,-0.9715334361861107,0.35348317403123114,0.02968246402016717,-2.8242138328633124
1784286977915105024,1.5579731464385986,1.498347520828247,-0.3150012493133545,-0.36983218789100647,0.028279975056648254,-0.35565200448036194,-0.9341905117034912,1.0255377292633057,0.04814162850379944,-0.03559708595275879,0.15508326050271165,0.042714759504305935,-0.17629575723062416,-0.971104798190421,0.3636115854693718,0.030262928090237912,-2.8304353962561466
1784286977925024000,1.567892074584961,2.2604947090148926,-0.48562225699424744,-0.5910545587539673,0.02507072500884533,-0.37455853819847107,-0.9268642663955688,0.4932093024253845,0.09350690245628357,-0.07702672481536865,0.1523399912196774,0.04222929598038552,-0.18650618351238746,-0.9696517923498272,0.383920599440462,0.02704237698215952,-2.83518047937217
1784286977934944000,1.5778119564056396,2.6483163833618164,-0.48461106419563293,-0.633803129196167,0.022961845621466637,-0.3950667679309845,-0.9183654189109802,-0.046063654124736786,0.2525191605091095,0.059905946254730225,0.14775725730850142,0.042017500727007794,-0.19761536211679276,-0.9681686440049145,0.40614053865833627,0.024997743405757878,-2.843846926941762
1784286977944864000,1.5877320766448975,2.835383176803589,-0.5565845370292664,-0.6961663961410522,0.020245591178536415,-0.4214382767677307,-0.9066310524940491,0.011355359107255936,0.010244429111480713,0.010512888431549072,0.14388163779609522,0.04205784171149922,-0.21193302023502456,-0.9657192116609197,0.4350307426411787,0.02232686255773738,-2.850725054110484
1784286977954782976,1.5976510047912598,2.3741402626037598,-0.2582196593284607,-0.5573437809944153,0.019918465986847878,-0.44396719336509705,-0.8958216309547424,0.07430455088615417,-0.25355783104896545,0.27413278818130493,0.13934728174480923,0.04275651703068092,-0.22418980688939888,-0.9635834642546515,0.4600212973364342,0.022231193394762802,-2.859562444526395
1784286977964702976,1.6075711250305176,1.4970062971115112,-0.30441898107528687,-0.7957093715667725,0.019838325679302216,-0.4610165059566498,-0.8871697783470154,0.06292533874511719,-0.3838016092777252,0.3680199980735779,0.13557561839619192,0.043231190714298554,-0.23355122280221297,-0.9618753018069971,0.4791403464476379,0.02235763789734033,-2.8670002800028955
1784286977974621952,1.6174900531768799,0.839740514755249,-0.022999562323093414,-0.37619438767433167,0.02176273800432682,-0.471477746963501,-0.8816093802452087,0.24682247638702393,-0.3491246700286865,0.36044543981552124,0.13232060896898357,0.044269369654417655,-0.23923947103126406,-0.960882930648491,0.4909657119884432,0.024680226356107986,-2.87408299097654
1784286977984541952,1.6274099349975586,0.10240115970373154,0.08808032423257828,-0.7297932505607605,0.024540256708860397,-0.4757397174835205,-0.8792437314987183,0.0898091122508049,-0.3704516887664795,0.39979732036590576,0.12950532904203116,0.045329643266154795,-0.24150231112601786,-0.9606509444099286,0.49580481259842407,0.027903398058317645,-2.8806514823445415
1784286977994461952,1.6373300552368164,-0.3797316551208496,0.3195441663265228,-0.025088317692279816,0.02767806127667427,-0.47313806414604187,-0.8805533647537231,0.38508743047714233,-0.38196444511413574,0.4051963686943054,0.1281244062474534,0.046382120169035305,-0.2399416688357761,-0.9611767190667159,0.4928493565933184,0.0314222292976853,-2.884460433729478
1784286978004380928,1.6472489833831787,-0.7303678393363953,0.14168433845043182,-0.17159247398376465,0.029002435505390167,-0.46944913268089294,-0.8824830651283264,0.39441370964050293,-0.33705416321754456,0.2690034508705139,0.12823390809275872,0.046794522392240905,-0.2378418367260449,-0.9616639565176317,0.48866678678085257,0.032852754721140055,-2.884656322309975
1784286978014301184,1.6571691036224365,-1.2006639242172241,0.12318549305200577,-0.06928527355194092,0.03223974630236626,-0.46178585290908813,-0.886405348777771,0.36827296018600464,-0.36340945959091187,0.2828744649887085,0.12870357224686177,0.04795794606513145,-0.23344670485511493,-0.9626204084434573,0.48000751659183205,0.03635530937574327,-2.8846644165955793
1784286978024219904,1.6670880317687988,-1.3291207551956177,0.0684255063533783,-0.2344185709953308,0.03350016474723816,-0.44726401567459106,-0.8937743902206421,0.5169606804847717,-0.26298683881759644,0.2007354497909546,0.12855246400221765,0.04742357376771691,-0.22553006111815493,-0.964552526845662,0.4637039807130649,0.03746414232266672,-2.885446909251868
1784286978034140160,1.6770081520080566,-1.095918893814087,0.20993362367153168,-0.01336608175188303,0.03473612293601036,-0.438360333442688,-0.8981278538703918,0.44615986943244934,-0.02420985698699951,-0.031407058238983154,0.1286042406883965,0.04737232916617304,-0.2206625005986267,-0.9656733271495722,0.45377358980377636,0.03865687773294669,-2.8857247936237576
1784286978044059904,1.6869280338287354,-1.0217608213424683,0.12844817340373993,-0.02217332273721695,0.035286758095026016,-0.4273228049278259,-0.9034102559089661,0.3536597788333893,0.0021061301231384277,0.025495827198028564,0.12907278684312767,0.04690383661916137,-0.21469724785396638,-0.9669774259027689,0.4415295198962946,0.03903966089834697,-2.884962523090704
1784286978053978880,1.6968469619750977,-0.738434910774231,0.10053850710391998,-0.2001345306634903,0.036450352519750595,-0.4211379587650299,-0.9062638282775879,0.1750669777393341,-0.1722916066646576,-0.1397719383239746,0.1287365924685567,0.04694578444053449,-0.21133898060227746,-0.9677596584314703,0.43469960154922105,0.04019879628656946,-2.8859733263550207
1784286978063899136,1.7067670822143555,-1.4818005561828613,0.1268872171640396,-0.08572473376989365,0.03764596953988075,-0.40941205620765686,-0.9115725755691528,0.26492056250572205,-0.13157305121421814,0.11349213123321533,0.1288347324732451,0.04667876785972351,-0.20502392696583696,-0.9691170136601915,0.42180952824164136,0.041274378085491774,-2.8860994512614413
1784286978073817856,1.7166860103607178,-1.5251544713974,0.04911838471889496,0.04436802119016647,0.03945903852581978,-0.3952532410621643,-0.9177243113517761,0.3475038409233093,-0.046030908823013306,0.027618110179901123,0.12867448371985418,0.04649408920789923,-0.19742380522852357,-0.9707239389422077,0.40634351642215566,0.04297014913710407,-2.8868726271054426
1784286978083738112,1.7266061305999756,-0.907142698764801,0.38443049788475037,-0.1539517194032669,0.04166886582970619,-0.38520529866218567,-0.9218896627426147,0.11735823005437851,-0.010149925947189331,-0.11274778842926025,0.12922578091972417,0.0469689053920274,-0.19196114995324665,-0.9717229239318464,0.39543026553190386,0.04516866234684057,-2.886221873384014
1784286978093657088,1.736525058746338,-0.981340229511261,0.3130098581314087,-0.03093605488538742,0.04477158933877945,-0.37559735774993896,-0.9257009029388428,0.23524244129657745,0.031038641929626465,0.008266210556030273,0.12899342129154304,0.04777503909217335,-0.1867273539947267,-0.9727337927524797,0.38504122750304376,0.048327412944431526,-2.8873351908554024
1784286978103576832,1.7464449405670166,-0.41634401679039,0.19048452377319336,-0.1496008187532425,0.046773992478847504,-0.3706236481666565,-0.927604615688324,0.2771853804588318,-0.020550668239593506,-0.12323766946792603,0.12893944708976224,0.04840715617388839,-0.18399575224831152,-0.9732302292412889,0.3796803902321306,0.05038182283385381,-2.887837788988286
1784286978113497088,1.7563650608062744,-0.4325517416000366,0.40315523743629456,-0.07394866645336151,0.05029364675283432,-0.3658563792705536,-0.9293113946914673,0.17289666831493378,0.009365290403366089,0.08087694644927979,0.1289266310719941,0.04983023869739111,-0.18127672081560908,-0.9736702305668244,0.3745528142273932,0.054066517361589204,-2.888546123857749
1784286978123416064,1.7662839889526367,-0.15321244299411774,0.2693178653717041,-0.09109340608119965,0.05334584787487984,-0.36410871148109436,-0.9298274517059326,0.29304391145706177,-0.05840715765953064,-0.03458905220031738,0.12904909390780414,0.05126643015754814,-0.18016113492328012,-0.9737864486976576,0.37267565003171277,0.0573089489786307,-2.8888891453716328
1784286978133336064,1.7762041091918945,-0.6486008763313293,0.17577646672725677,0.07695525884628296,0.05548623576760292,-0.3596261441707611,-0.931445300579071,0.2888893783092499,-0.1291739046573639,0.15182799100875854,0.12911526554372535,0.05202711162175022,-0.17768099999922898,-0.9741929828486857,0.3678672130630879,0.05949972891214384,-2.889129605671679
1784286978143255040,1.7861230373382568,-0.7419676184654236,0.05571294203400612,-0.07443376630544662,0.057082630693912506,-0.3528508245944977,-0.9339367747306824,0.2914433479309082,-0.20209604501724243,0.13002747297286987,0.12954131195654617,0.05240684224817133,-0.17402628567809938,-0.9747755437943381,0.3606161687198029,0.06104450557840783,-2.8884849812442255
1784286978153175040,1.7960431575775146,-0.6023197174072266,0.2371423840522766,0.20163217186927795,0.05801645666360855,-0.34713202714920044,-0.936020016670227,0.26850634813308716,-0.09651726484298706,0.01426708698272705,0.13023004705093538,0.05257472590755937,-0.17095584699036914,-0.9752179578814382,0.35451124255708977,0.06190287969817666,-2.8871770400915207
1784286978163095040,1.8059630393981934,-1.0103669166564941,0.20089171826839447,0.10048149526119232,0.05980181694030762,-0.33999761939048767,-0.93852299451828,0.18131756782531738,0.06392034888267517,0.08056706190109253,0.13116487531375357,0.05310560069788733,-0.16708773437624433,-0.9757341897002113,0.34691435528413833,0.0636330502754998,-2.88549435347411
1784286978173014016,1.8158819675445557,-0.6626929640769958,0.22273682057857513,0.16379201412200928,0.061134450137615204,-0.33256205916404724,-0.9410977959632874,0.2811812162399292,-0.009326368570327759,-0.044589459896087646,0.13237210514345468,0.053425063173635365,-0.1630854563588707,-0.976230766098474,0.33901896465428494,0.06486963846673129,-2.8831527385396982
1784286978182934016,1.8258020877838135,-0.44136345386505127,0.36044350266456604,0.08212248980998993,0.06351080536842346,-0.3279367685317993,-0.9425624012947083,0.18752679228782654,-0.028462767601013184,-0.05374497175216675,0.13350165629924995,0.05446175429036928,-0.16047655787316636,-0.9764519817629868,0.33411874364244654,0.06727931022950871,-2.881184782837444
1784286978192852992,1.8357210159301758,-0.40109938383102417,0.2866568863391876,0.15786652266979218,0.0660552829504013,-0.32407429814338684,-0.9437227249145508,0.2106170952320099,0.003990679979324341,-0.03660869598388672,0.13450491908854392,0.055614886616364705,-0.15825810244737598,-0.9766114140348316,0.3300330448825895,0.06988040194611489,-2.8795043231083888
1784286978202772992,1.8456411361694336,-0.15972432494163513,0.2876996397972107,0.2325984239578247,0.06869027018547058,-0.3212341368198395,-0.9445053339004517,0.16232779622077942,-0.07671508193016052,-0.07171475887298584,0.1356651883232141,0.056912528640986046,-0.15655128545966931,-0.9766512795477541,0.32703239362074976,0.07259837181587823,-2.8775251790045355
1784286978212692992,1.8555610179901123,0.17220726609230042,0.32156386971473694,0.061671409755945206,0.07084803283214569,-0.3221752941608429,-0.9440252184867859,0.2339920699596405,-0.1025530993938446,-0.1586206555366516,0.13691294781225707,0.05827225159461264,-0.15681748451778346,-0.9763542542552991,0.3280263983474706,0.07490845013009358,-2.875355078041738
1784286978222611968,1.8654799461364746,0.02446781098842621,0.31622105836868286,0.26590558886528015,0.07311268150806427,-0.322604775428772,-0.9437057971954346,0.26544931530952454,-0.03596147894859314,-0.050694167613983154,0.13775872418300555,0.059582486431257964,-0.1568343625591443,-0.9761533238312434,0.32848011936497234,0.07731956761418826,-2.8740167789397653
1784286978232531968,1.8754000663757324,-0.009513059630990028,0.2532612681388855,0.22386333346366882,0.0748777836561203,-0.32382139563560486,-0.9431505799293518,0.1686677634716034,-0.02716127038002014,-0.1301679015159607,0.13930580528771974,0.06081633321014556,-0.15724527623985401,-0.97579164581522,0.32976573018765204,0.07922494659456412,-2.871174611930148
1784286978242450944,1.8853189945220947,-0.15666276216506958,0.3604413568973541,0.07567498087882996,0.07714606076478958,-0.32255351543426514,-0.9434022307395935,0.19485712051391602,-0.028123974800109863,-0.028262197971343994,0.14023359723423306,0.062007761685150445,-0.15637752554841694,-0.9757232132443268,0.32842594655653107,0.08159275555666792,-2.869629886587794
1784286978252371200,1.8952391147613525,-0.19740699231624603,0.22624363005161285,0.20295730233192444,0.07906612008810043,-0.3213307857513428,-0.9436604976654053,0.22365301847457886,-0.14818215370178223,-0.09840798377990723,0.14136556774957124,0.0630583640465958,-0.15554228928043062,-0.9756260474349232,0.32713446121501344,0.08359137026656616,-2.8676049347857626
1784286978262289920,1.9051580429077148,-0.5139699578285217,0.22094835340976715,0.2643921971321106,0.0806390643119812,-0.31850215792655945,-0.9444859623908997,0.1658208966255188,-0.18865421414375305,-0.04999035596847534,0.142563012265513,0.0638128487323541,-0.15389912622087845,-0.9756633279497678,0.32414894896543467,0.08517223364173668,-2.865342759787008
1784286978272210176,1.9150781631469727,-0.6153247952461243,0.2270137071609497,0.20500530302524567,0.08222322165966034,-0.31331175565719604,-0.9460840821266174,0.25318020582199097,-0.13724976778030396,-0.03917592763900757,0.14413380199175918,0.06443487554605361,-0.15101690917046387,-0.9758419282020554,0.31867837274893673,0.08669117602687483,-2.8622490409777392
1784286978282129920,1.9249980449676514,-0.6870839595794678,0.020280763506889343,0.1595611274242401,0.0829792395234108,-0.30807363986968994,-0.9477367997169495,0.2797527015209198,-0.06004461646080017,-0.09187495708465576,0.14571510196591872,0.06462949191563756,-0.14817090047844175,-0.9760305452433488,0.3131675188438851,0.08733244444676111,-2.85899092651372
1784286978292048896,1.9349169731140137,-0.7857306599617004,0.06846267729997635,0.17243696749210358,0.08317071944475174,-0.3003349006175995,-0.9502007961273193,0.23328131437301636,0.026241272687911987,-0.055200815200805664,0.1467741986540906,0.06424868832266387,-0.14412389339328688,-0.9765028838703042,0.3050437382857577,0.08730711236293115,-2.8566431785332895
1784286978301969152,1.9448370933532715,-0.32328370213508606,-0.03775233030319214,0.09867829829454422,0.08327019214630127,-0.29576611518859863,-0.9516241550445557,0.20737922191619873,0.09071850776672363,-0.18550658226013184,0.14748776911031777,0.0640271054895796,-0.14173378711099124,-0.9767596836162147,0.30025742882345274,0.08728092427986435,-2.8550738716306507
1784286978311887872,1.9547560214996338,-0.32608747482299805,-0.05212141573429108,0.0777575671672821,0.08254282176494598,-0.2929067611694336,-0.952571451663971,0.20976978540420532,0.03405669331550598,-0.10344356298446655,0.1478939899534172,0.06348478934250841,-0.14029956972469662,-0.9769406880123934,0.2972655172886292,0.08643672178435728,-2.8540552855282817
1784286978321808128,1.9646761417388916,-0.17407236993312836,-0.10173237323760986,0.0002230971003882587,0.08175339549779892,-0.29108673334121704,-0.953197181224823,0.14828811585903168,-0.16991180181503296,-0.1196940541267395,0.14831887461682855,0.06299911082103202,-0.13940053480173684,-0.9770364383335274,0.2953625488101485,0.08555817321680839,-2.853019046234977
1784286978331727872,1.9745960235595703,-0.4103482961654663,-0.08191286772489548,0.20777203142642975,0.08109903335571289,-0.28784245252609253,-0.9542377591133118,0.2011427879333496,-0.11944514513015747,-0.019028842449188232,0.14873027788343063,0.06246123914137682,-0.1377669120717437,-0.977240080480161,0.2919731763769967,0.08478454482778108,-2.851995703952461
1784286978341646848,1.9845149517059326,-0.511152982711792,-0.11572462320327759,0.008774773217737675,0.0797748789191246,-0.28426289558410645,-0.9554216861724854,0.1835612952709198,-0.09067606925964355,-0.07445502281188965,0.1494320059812227,0.06159940347196037,-0.13599513592714604,-0.9774358787253351,0.28823751900804323,0.08330380790699102,-2.850274985932764
1784286978351567104,1.9944350719451904,-0.45231544971466064,-0.06902183592319489,0.06642395257949829,0.07933727651834488,-0.2796764075756073,-0.956810712814331,0.15485462546348572,-0.1357899010181427,-0.032096147537231445,0.14962464523111071,0.0610275828629054,-0.13367978592747942,-0.9777616425707216,0.2834570372339349,0.08272921460859729,-2.849704029619518
1784286978361486080,2.0043540000915527,-0.47234001755714417,-0.09716425836086273,0.13806939125061035,0.07846760004758835,-0.2753940224647522,-0.9581236839294434,0.16370463371276855,-0.020183980464935303,-0.06194162368774414,0.1501918308938727,0.06031491092268983,-0.1315305133372053,-0.9780103851121528,0.2789995575937917,0.08171478808286746,-2.8483160008531523
1784286978371406080,2.0142741203308105,-0.21240857243537903,-0.09391413629055023,0.15351545810699463,0.07742875069379807,-0.2723119258880615,-0.9590886235237122,0.12426192313432693,-0.016216516494750977,-0.09002941846847534,0.1509670481598731,0.05964309219678401,-0.1299937933177149,-0.9781376600522831,0.27579495186384984,0.08055688161042307,-2.846512133819582
1784286978381326080,2.0241940021514893,-0.31137216091156006,-0.07494177669286728,0.0776318684220314,0.07646136730909348,-0.2706599533557892,-0.9596337080001831,0.16111797094345093,-0.08403059840202332,-0.056998372077941895,0.1514889904929844,0.059090753050057766,-0.12919531872930765,-0.9781962433604942,0.27407850100477155,0.07950968779268984,-2.8452727963893953
1784286978391245056,2.0341131687164307,-0.3138578534126282,-0.12645795941352844,0.04606135934591293,0.07559789717197418,-0.2672891616821289,-0.960646390914917,0.2023104429244995,-0.061873435974121094,-0.026032686233520508,0.15173236458627237,0.05841068551030513,-0.12753431067545026,-0.9784173880700127,0.2705787320955973,0.07853297343087333,-2.8445804157752206
1784286978401165056,2.0440330505371094,-0.12112247943878174,-0.20771925151348114,0.10512042045593262,0.0740407332777977,-0.26559725403785706,-0.9612367153167725,0.2169748842716217,-0.07453638315200806,-0.06470316648483276,0.15220466401586405,0.057552265563432604,-0.12676500641667923,-0.9784948034768902,0.26882336585956323,0.0768747397128402,-2.8433669175916125
1784286978411084032,2.0539519786834717,-0.3551225960254669,-0.04094846546649933,0.0984167754650116,0.07306976616382599,-0.2633563280105591,-0.9619273543357849,0.12427216023206711,-0.06609618663787842,0.017774522304534912,0.15242139674840988,0.05690829703548175,-0.1256891476641282,-0.9786375918777649,0.26649971195325867,0.07581623236767868,-2.8427457645588703
1784286978421004032,2.0638720989227295,-0.3018198311328888,-0.22911784052848816,0.08218660205602646,0.07146476209163666,-0.2608307898044586,-0.9627357125282288,0.20108771324157715,-0.102145254611969,-0.045915961265563965,0.15315568765897755,0.055989392069481156,-0.12448823972004389,-0.9787293682011099,0.26388267209726324,0.07409502752860335,-2.8409796773490488
1784286978430924032,2.073791980743408,-0.4702695608139038,-0.1829729825258255,0.02310624159872532,0.06977636367082596,-0.2573328912258148,-0.963800311088562,0.18387049436569214,-0.01012316346168518,0.02453029155731201,0.15315195433438947,0.0548539590243425,-0.12284496828345869,-0.9790018498081277,0.2602611174722055,0.07227102382707645,-2.840696569728621
1784286978440843008,2.0837111473083496,-0.40694499015808105,-0.2953203022480011,0.05037258565425873,0.06792659312486649,-0.25350266695022583,-0.9649468064308167,0.24704532325267792,0.00940781831741333,-0.00879281759262085,0.15335315465066562,0.05363679339888491,-0.12103587362390815,-0.9792630641831294,0.25629948982606,0.0702782022165483,-2.839974181320735
1784286978450763008,2.0936310291290283,-0.225782111287117,-0.13283656537532806,0.24398784339427948,0.06589512526988983,-0.2508019506931305,-0.9657930731773376,0.17697900533676147,0.0017175078392028809,-0.047314226627349854,0.15416841311987514,0.05249800453862997,-0.11978078788314757,-0.9793510573845287,0.2535085948762272,0.06812345342984848,-2.838002150233826
1784286978460681984,2.1035499572753906,-0.2451285719871521,-0.1469646394252777,0.15385545790195465,0.064438596367836,-0.24878324568271637,-0.9664132595062256,0.1720268577337265,0.01266874372959137,0.006421804428100586,0.15487240804637406,0.05168837957434351,-0.11883470423750118,-0.97939837199782,0.2514237936343006,0.06657954315929522,-2.8363468240372547
1784286978470601984,2.1134700775146484,-0.07329609990119934,-0.24885371327400208,0.19490835070610046,0.062451910227537155,-0.24752533435821533,-0.9668665528297424,0.27582019567489624,-0.060381755232810974,-0.03397262096405029,0.15564226435612918,0.05068483273582371,-0.11831213125097265,-0.9793920828636141,0.2501252706262959,0.06450246350955217,-2.8345059575119604
1784286978480520960,2.1233890056610107,-0.16922615468502045,-0.25717058777809143,0.15086282789707184,0.0599406361579895,-0.24683499336242676,-0.9672019481658936,0.2217060923576355,-0.10509371757507324,-0.029120683670043945,0.15633907316500636,0.049457966634850796,-0.11812254028713355,-0.9793667327380242,0.24941282761014022,0.0618940813198326,-2.832759529014767
1784286978490440960,2.1333091259002686,-0.30077487230300903,-0.24922239780426025,0.16186274588108063,0.057625021785497665,-0.24486613273620605,-0.9678429365158081,0.20647409558296204,-0.09011006355285645,0.0069512128829956055,0.15707331303991134,0.04822570951399256,-0.11727240514301543,-0.9794127962700558,0.247381619247053,0.05946943810543442,-2.8309466304341355
1784286978500360960,2.1432290077209473,-0.30748268961906433,-0.16850878298282623,0.18585537374019623,0.05548873543739319,-0.24221250414848328,-0.9686352014541626,0.1653669774532318,-0.057012349367141724,-0.0346912145614624,0.15778810827274325,0.04702215731157449,-0.1160660525706741,-0.9795001413741723,0.24464561175635496,0.057222942703185335,-2.8291927414752105
1784286978510279936,2.1531479358673096,-0.07701221108436584,-0.29271170496940613,0.18018470704555511,0.05329818278551102,-0.2402818650007248,-0.969238817691803,0.17388993501663208,-0.009351909160614014,-0.06855714321136475,0.15849420659770344,0.0458507041255696,-0.11523146523578272,-0.9795402678221988,0.24265621009855864,0.05493440338971045,-2.8274635266254777
1784286978520199936,2.1630680561065674,-0.10412578284740448,-0.2755936086177826,0.09313253313302994,0.050515808165073395,-0.2395361363887787,-0.9695723652839661,0.1944487988948822,0.022571414709091187,-0.033540427684783936,0.15903448845124638,0.04446480060785747,-0.11505082170151215,-0.9795378011435109,0.24188804498201077,0.05205405536586147,-2.8260160870100064
1784286978530118912,2.1729869842529297,-0.0048250299878418446,-0.24658994376659393,0.019777091220021248,0.04807164892554283,-0.23955246806144714,-0.969692587852478,0.13875696063041687,0.0035600364208221436,-0.04198038578033447,0.1589759971424824,0.04324178531117936,-0.11525559060376823,-0.9795778845732073,0.24190487052832646,0.049533559791659174,-2.8258392275131317
1784286978540039168,2.1829071044921875,-0.009744953364133835,-0.2801784873008728,0.07777515053749084,0.045664943754673004,-0.2402370721101761,-0.9696395397186279,0.1502121388912201,-0.058072254061698914,-0.03341221809387207,0.15909331077677094,0.04211480692952989,-0.1157867241768118,-0.9795453803796269,0.24261006557136738,0.04705998928563643,-2.825311422826795
1784286978549958912,2.192826986312866,0.01453082449734211,-0.2678472697734833,0.11771351099014282,0.043343283236026764,-0.24017664790153503,-0.969761073589325,0.16516807675361633,-0.07957127690315247,-0.02627164125442505,0.15936046828844933,0.04098508992591017,-0.11592966145101463,-0.9795329528954153,0.2425478271143478,0.044665079494391066,-2.824482452139121
1784286978559878144,2.2027461528778076,-0.07192030549049377,-0.32146766781806946,0.0790528655052185,0.04065154120326042,-0.24037396907806396,-0.969828724861145,0.15920807421207428,-0.09461747109889984,-0.012409985065460205,0.15971530765664602,0.03970359358768224,-0.11622929545284,-0.979492389276491,0.24275109229065037,0.04189168173117928,-2.823429651936282
1784286978569797888,2.2126660346984863,-0.16076630353927612,-0.29478704929351807,0.08739468455314636,0.03820185735821724,-0.23917898535728455,-0.9702237248420715,0.13538211584091187,-0.062258392572402954,0.022912323474884033,0.15989435366024238,0.03840403430023318,-0.11581572211666645,-0.9795639662377087,0.24152021392606515,0.03935394778416043,-2.822762523000125
1784286978579716864,2.2225849628448486,-0.15079668164253235,-0.2746015191078186,-0.0035626196768134832,0.035890787839889526,-0.23809467256069183,-0.9705785512924194,0.14271332323551178,-0.07457315921783447,-0.010561525821685791,0.1600079642536667,0.037175355925142956,-0.11545001284903499,-0.9796359714909973,0.2404036390972614,0.036961915039067816,-2.8222486484156795
1784286978589637120,2.2325050830841064,-0.13806676864624023,-0.2919573485851288,0.07687629759311676,0.033295612782239914,-0.23679287731647491,-0.970989465713501,0.2142934948205948,-0.061028167605400085,0.0076563358306884766,0.1600819350425515,0.03578250433037117,-0.11499948978011693,-0.9797287326444392,0.23906350979001198,0.03427696603447958,-2.8217839884854903
1784286978599557888,2.2424259185791016,-0.09007441252470016,-0.2739570438861847,0.034819554537534714,0.031024709343910217,-0.23647628724575043,-0.9711418151855469,0.14236091077327728,-0.13328994810581207,0.003658294677734375,0.16002519173926183,0.034619250531346055,-0.11502432850465975,-0.979776978413544,0.23873766399036414,0.03193576898244209,-2.8216259984076046
1784286978609476864,2.252344846725464,-0.10231296718120575,-0.1976979374885559,0.12038825452327728,0.028825370594859123,-0.2356322705745697,-0.9714146852493286,0.18005219101905823,-0.1592956930398941,0.03371638059616089,0.16047951014683498,0.033507133327691604,-0.11476027496696387,-0.9797722162946276,0.23786911064862068,0.02966489499171259,-2.8204356701307205
1784286978619396608,2.2622647285461426,-0.25894638895988464,-0.18969856202602386,0.1435350626707077,0.02697197161614895,-0.23406818509101868,-0.9718459844589233,0.199361652135849,-0.14483806490898132,0.06007230281829834,0.160751510837946,0.032484773853793905,-0.11411289546106287,-0.9798376883352411,0.2362600163754514,0.027746216628717624,-2.819664365099402
1784286978629315840,2.272183895111084,-0.26127558946609497,-0.19010202586650848,0.0829465389251709,0.025165380910038948,-0.23198634386062622,-0.9723934531211853,0.2073480486869812,-0.14945286512374878,0.014675557613372803,0.1614120875445083,0.03148670226157653,-0.1131894726028079,-0.9798688743344338,0.2341192475214041,0.025874058006534407,-2.818111460373678
1784286978639235840,2.2821037769317627,-0.3122642934322357,-0.19721709191799164,0.13182443380355835,0.023646023124456406,-0.22960151731967926,-0.9729974269866943,0.2484334409236908,-0.07243095338344574,0.010427236557006836,0.16179677828555175,0.030573239705025745,-0.11210066101344127,-0.9799595193202987,0.23166824859088628,0.02429746328924664,-2.817161181623186
1784286978649155840,2.2920238971710205,-0.40753406286239624,-0.18118725717067719,0.08605801314115524,0.021932240575551987,-0.2262304723262787,-0.9738268852233887,0.21579968929290771,-0.06484618782997131,0.024714946746826172,0.16224721235495448,0.029486361047993646,-0.11053109879558833,-0.9800966226787742,0.22820607487321073,0.022517897408383978,-2.8160648388193144
1784286978659074816,2.301942825317383,-0.495360791683197,-0.2126942127943039,0.07306461036205292,0.020266210660338402,-0.222184956073761,-0.9747939109802246,0.16183218359947205,-0.149122416973114,-0.00840616226196289,0.1626360796639384,0.028358312186276633,-0.10862256139898686,-0.9802788099691907,0.22405487453374412,0.020787256651645537,-2.8151104865130976
1784286978668994816,2.3118629455566406,-0.7268317937850952,-0.16198095679283142,0.14232410490512848,0.018996668979525566,-0.2166152149438858,-0.9760721921920776,0.12457327544689178,-0.2124314159154892,0.013975024223327637,0.16304481693996972,0.027299063812191174,-0.10591813489954931,-0.9805368435214843,0.21834601856824326,0.019459904209623527,-2.8141785396005283
1784286978678913792,2.321781873703003,-0.8501102924346924,-0.21091262996196747,0.16021259129047394,0.01737310364842415,-0.2090941071510315,-0.9777411818504333,0.16464897990226746,-0.1484040468931198,-0.021389007568359375,0.1638081043311936,0.025934365612649737,-0.10225857566950905,-0.9808350627485971,0.21064850254336678,0.017766741989542267,-2.812507770813798
1784286978688833792,2.3317017555236816,-0.8005701899528503,-0.24297575652599335,0.12257920205593109,0.015370385721325874,-0.20170530676841736,-0.9793256521224976,0.13535593450069427,-0.06529298424720764,-0.06550467014312744,0.16435523328458418,0.024367862675965142,-0.0987085834505508,-0.9811474014576026,0.20309870753773224,0.015693578499821354,-2.811247254175921
1784286978698753792,2.3416218757629395,-0.6621958613395691,-0.22334223985671997,0.14446967840194702,0.013498294167220592,-0.19476622343063354,-0.9807568192481995,0.13159753382205963,-0.020626842975616455,-0.09251588582992554,0.16512080489848224,0.022924042684597825,-0.09537339029409289,-0.9813835436850075,0.1960191044751984,0.013762272375213156,-2.8095622540506433
1784286978708672768,2.3515408039093018,-0.5732044577598572,-0.2648891508579254,0.14772219955921173,0.011567557230591774,-0.18915827572345734,-0.9818784594535828,0.15595869719982147,0.00510677695274353,-0.09606337547302246,0.16554978761583838,0.02152997046595936,-0.09272120523318163,-0.9815969932353446,0.19030487690660364,0.011780502404886829,-2.808554642283203
1784286978718592768,2.3614609241485596,-0.4205441474914551,-0.26392772793769836,0.13493221998214722,0.009239391423761845,-0.18443596363067627,-0.982801079750061,0.17024974524974823,0.03782953321933746,-0.10260230302810669,0.16613308604169538,0.020027996293610593,-0.09054461474093657,-0.9817333617286909,0.18549794988443544,0.009400802968902102,-2.8071949094210242
1784286978728511744,2.371379852294922,-0.3130080997943878,-0.2767889201641083,0.1141829863190651,0.007355754263699055,-0.18145085871219635,-0.9833725094795227,0.15806478261947632,0.02257634699344635,-0.1044113039970398,0.1664314634150261,0.018867468280676186,-0.089206315922201,-0.9818283247497139,0.18246159791529223,0.007479990466981111,-2.8064457577266158
1784286978738431744,2.3812997341156006,-0.200304314494133,-0.34502166509628296,0.07560902833938599,0.005034108180552721,-0.17925702035427094,-0.9837893843650818,0.16421636939048767,-0.058566465973854065,-0.08428007364273071,0.1668743491474971,0.017570508805136737,-0.08829824490870776,-0.9818592254662825,0.18023119375239285,0.0051170139914251175,-2.805357272142083
1784286978748351744,2.3912198543548584,-0.24259957671165466,-0.30284467339515686,0.16466593742370605,0.002677756827324629,-0.17757509648799896,-0.9841036200523376,0.15589158236980438,-0.04346372187137604,-0.06382423639297485,0.1672548006979697,0.016294262347370685,-0.0876509613460944,-0.981874610050162,0.17852183411724443,0.0027210043675524776,-2.804390528259393
1784286978758270720,2.4011387825012207,-0.06871353089809418,-0.3219919204711914,0.14650116860866547,0.00038133494672365487,-0.17647242546081543,-0.9843055009841919,0.07489027827978134,-0.04276585578918457,-0.0942009687423706,0.1678605293494028,0.01511720540940119,-0.08728524320834183,-0.9818226455245243,0.17740146643645247,0.0003874152214459454,-2.8029649656664937
1784286978768190976,2.4110589027404785,-0.03154192864894867,-0.31135550141334534,0.18632900714874268,-0.0016241357661783695,-0.1767636090517044,-0.9842519760131836,0.10262206196784973,-0.03865997493267059,-0.0847635269165039,0.16848558569860642,0.014205707529757422,-0.08759109979676039,-0.9817018836953113,0.17769730541178583,-0.0016501204524131214,-2.8015054943080577
1784286978778109696,2.420977830886841,-0.009301204234361649,-0.28474941849708557,0.18554078042507172,-0.0033569857478141785,-0.17714691162109375,-0.9841787219047546,0.11456304043531418,-0.11746978759765625,-0.07336217164993286,0.16927885645535287,0.01345251062264118,-0.08791860793046638,-0.9815467879115641,0.17808674765795476,-0.0034109381087145544,-2.799725418353137
1784286978788029952,2.4308979511260986,-0.06436498463153839,-0.3642708659172058,0.288194477558136,-0.0049703773111104965,-0.1774509996175766,-0.9841170907020569,0.16965848207473755,-0.1857844740152359,-0.055769383907318115,0.1701970093618988,0.012763278168786467,-0.08819612156248365,-0.9813722785143593,0.17839573843030582,-0.0050505527332148316,-2.7977018557385027
1784286978797948928,2.440816879272461,-0.19195064902305603,-0.39227065443992615,0.1841488927602768,-0.006496058776974678,-0.17731501162052155,-0.984132707118988,0.18487130105495453,-0.11092351377010345,-0.06791502237319946,0.1710442577176606,0.01207307969844535,-0.08824900152952576,-0.9812289622688023,0.17825756038736085,-0.006600699877116168,-2.7958382758447655
1784286978807868672,2.4507367610931396,-0.15783661603927612,-0.3919103443622589,0.19578637182712555,-0.007985071279108524,-0.17695119976997375,-0.9841872453689575,0.14252181351184845,-0.08932992815971375,-0.08963477611541748,0.17167654414661276,0.011361810399776228,-0.08818895904867594,-0.9811323914223841,0.1778879019115449,-0.008113187765952276,-2.794420555546994
1784286978817788928,2.4606568813323975,-0.20785091817378998,-0.4078553318977356,0.20158825814723969,-0.009970705956220627,-0.1762567013502121,-0.9842937588691711,0.13257507979869843,-0.0714392215013504,-0.06105536222457886,0.1723645418817851,0.01038089914629867,-0.08800777139605337,-0.9810389489039766,0.1771823110918301,-0.010129460562141882,-2.7928512830955423
1784286978827707648,2.4705758094787598,-0.13751283288002014,-0.4181647002696991,0.18128086626529694,-0.012241566553711891,-0.17536039650440216,-0.9844282269477844,0.14448949694633484,-0.08007173240184784,-0.09880846738815308,0.1729756506174945,0.009234155604029909,-0.08775323445616591,-0.9809656822371953,0.17627181980719422,-0.012434563747991968,-2.791418306403044
1784286978837627904,2.4804959297180176,-0.2596527338027954,-0.44793233275413513,0.1465059071779251,-0.015318275429308414,-0.17414222657680511,-0.9846013784408569,0.15881192684173584,-0.06442894041538239,-0.06878912448883057,0.17355822871291054,0.0076579700921971024,-0.08741096616579895,-0.9809067987488326,0.17503462073312295,-0.015556589698642535,-2.7899796107445343
1784286978847546880,2.49041485786438,-0.31970861554145813,-0.45476120710372925,0.16040708124637604,-0.019065991044044495,-0.17183822393417358,-0.9849406480789185,0.177925243973732,-0.032843172550201416,-0.06959426403045654,0.17396001194678676,0.005637814548452809,-0.08659031722762879,-0.9809221429964311,0.17269535044950718,-0.01935508481771487,-2.788880233229447
1784286978857466624,2.5003347396850586,-0.2203812301158905,-0.5012049078941345,0.17530186474323273,-0.023208925500512123,-0.1692505031824112,-0.9852997660636902,0.17192108929157257,-0.007034286856651306,-0.08405143022537231,0.17465444175751768,0.00342262727273982,-0.08566449809920576,-0.9808903021847011,0.17006915316192514,-0.023550838352724736,-2.7871644398048065
1784286978867386880,2.5102548599243164,-0.1984540969133377,-0.5089778900146484,0.22744975984096527,-0.027988068759441376,-0.16745620965957642,-0.9854821562767029,0.15053141117095947,-0.007440030574798584,-0.07720094919204712,0.175373819536276,0.0009652563177609723,-0.085193823841215,-0.9808084329939272,0.16824886959262242,-0.02839274961307625,-2.7853272200445955
1784286978877305856,2.5201737880706787,-0.1336863934993744,-0.5231393575668335,0.17692101001739502,-0.032797086983919144,-0.16575482487678528,-0.985621452331543,0.11789534986019135,-0.02475115656852722,-0.10966968536376953,0.1761174930438523,-0.0014968246448859672,-0.08477631590126346,-0.9807105821774097,0.16652337637223863,-0.03326326788300301,-2.7834412670482194
1784286978887225856,2.5300939083099365,-0.11050891876220703,-0.573903501033783,0.20850342512130737,-0.03797964006662369,-0.16493813693523407,-0.9855723977088928,0.16305594146251678,-0.02332480251789093,-0.12587779760360718,0.1767766575112257,-0.004071796543551565,-0.084836425399136,-0.980579609077209,0.16569529252387408,-0.03851655904929409,-2.781670128600942
1784286978897144832,2.540012836456299,-0.1383019983768463,-0.5301104784011841,0.20279383659362793,-0.04330183193087578,-0.16363480687141418,-0.9855701923370361,0.14780928194522858,-0.06796309351921082,-0.11623644828796387,0.17762541268562573,-0.006742912367523658,-0.08467252528685043,-0.9804256272238331,0.16437400130246718,-0.04390758014201685,-2.779519996206851
1784286978907064832,2.5499329566955566,-0.24557679891586304,-0.5779158473014832,0.21670407056808472,-0.0489574633538723,-0.1618775576353073,-0.9855956435203552,0.1271282434463501,-0.1142149567604065,-0.1275482177734375,0.1783214792726973,-0.009632895964535506,-0.08431709983971308,-0.9803056769582614,0.16259301040425894,-0.049632177056325166,-2.7776749170477535
1784286978916984832,2.5598528385162354,-0.29258084297180176,-0.5964179635047913,0.26289311051368713,-0.05467363819479942,-0.15915946662425995,-0.9857378005981445,0.14590594172477722,-0.10260505974292755,-0.12864208221435547,0.17918526349958178,-0.012625642987976398,-0.08349659339364916,-0.9801844682315668,0.15983921139530907,-0.055407912409625226,-2.7755315456989824
1784286978926903808,2.5697717666625977,-0.3486217260360718,-0.6605788469314575,0.17149899899959564,-0.06096916273236275,-0.155802920460701,-0.9859047532081604,0.18004876375198364,-0.07320097088813782,-0.11358249187469482,0.18004528096178662,-0.01596372109229871,-0.08241829156481535,-0.9800695182996267,0.15644025307550788,-0.06176217047836624,-2.7733884276328586
1784286978936823808,2.5796918869018555,-0.3484589755535126,-0.5585780739784241,0.20961499214172363,-0.06698323041200638,-0.1523676961660385,-0.9860513806343079,0.13705158233642578,-0.07193650305271149,-0.11511439085006714,0.18060202001943232,-0.019196857923157975,-0.08127600080411546,-0.9800044334498659,0.1529635045910777,-0.06782656927706926,-2.7719086371016606
1784286978946742784,2.5896108150482178,-0.4452752470970154,-0.583688497543335,0.24765345454216003,-0.07275304943323135,-0.14858604967594147,-0.9862196445465088,0.12988194823265076,-0.10432837903499603,-0.07560896873474121,0.18149852075827178,-0.022314366935954233,-0.07995154051289237,-0.9798816941355477,0.14913829968824197,-0.07363624216447572,-2.7697905053509495
1784286978956662784,2.5995309352874756,-0.525115430355072,-0.5448226928710938,0.19073055684566498,-0.07838544994592667,-0.14379078149795532,-0.9864988327026367,0.15821942687034607,-0.04030650854110718,-0.08320331573486328,0.1822789038007737,-0.025468258753809685,-0.07811501348369831,-0.9798080479197594,0.14429095089916616,-0.07929163515574947,-2.767993906685136
1784286978966582784,2.6094508171081543,-0.4418866038322449,-0.5734250545501709,0.16097186505794525,-0.08411774039268494,-0.13886809349060059,-0.9867318868637085,0.14042267203330994,-0.047930002212524414,-0.1350942850112915,0.18294783203203252,-0.028694428658909258,-0.07622779097015958,-0.9797428086476601,0.13931834138812457,-0.08504321224666835,-2.7664465272179766
1784286978976501760,2.6193697452545166,-0.6355839967727661,-0.6126403212547302,0.20373138785362244,-0.0900239646434784,-0.13357730209827423,-0.9869410991668701,0.1707887351512909,-0.054670363664627075,-0.12267798185348511,0.18348815168612526,-0.03205238036506337,-0.07417601319540817,-0.979695159828912,0.13397775622619174,-0.09096340902968691,-2.765193561489415
1784286978986421760,2.6292898654937744,-0.45260992646217346,-0.6761873364448547,0.2062177062034607,-0.09647703170776367,-0.12808474898338318,-0.9870595335960388,0.17490720748901367,-0.05547846853733063,-0.22140604257583618,0.18424808629633085,-0.03568482231453899,-0.07208909885051103,-0.9795827593461472,0.12843758747304732,-0.09743237198744302,-2.7634896231119197
1784286978996340736,2.6392087936401367,-0.4037952423095703,-0.6863718628883362,0.16496999561786652,-0.10340769588947296,-0.12361034750938416,-0.9869282245635986,0.15583689510822296,0.012480586767196655,-0.20019030570983887,0.1848381076553918,-0.03947476847360534,-0.0705523036140671,-0.9794381228134992,0.12392731732611989,-0.10439640066881344,-2.7620600894317815
1784286979006260992,2.6491289138793945,-0.33853182196617126,-0.6974295377731323,0.1324560046195984,-0.11032974720001221,-0.11987031996250153,-0.9866399765014648,0.1482783555984497,-0.016116008162498474,-0.19753360748291016,0.18517553767006717,-0.04321313824420369,-0.06937314184838975,-0.9793008497181096,0.12015926083451864,-0.11136107493611504,-2.761121102703749
1784286979016180736,2.6590487957000732,-0.24615968763828278,-0.7727577686309814,0.15260274708271027,-0.11769738048315048,-0.11732053756713867,-0.9860949516296387,0.19435754418373108,-0.010700702667236328,-0.21210145950317383,0.18554851943721917,-0.04706108895808843,-0.06883158044022966,-0.9790910638465379,0.11759135610278876,-0.11879505148540802,-2.7600119195079214
1784286979026099968,2.6689679622650146,-0.17794467508792877,-0.7183570861816406,0.15237024426460266,-0.12501387298107147,-0.11490623652935028,-0.9854785799980164,0.17790085077285767,0.019233636558055878,-0.16256213188171387,0.18600330047343852,-0.05086761358418993,-0.06836067326256122,-0.978847321740533,0.11516060979245872,-0.12618202329758196,-2.7587414934145427
1784286979036019712,2.6788878440856934,-0.05607922747731209,-0.7579562664031982,0.09188386797904968,-0.13222169876098633,-0.11362755298614502,-0.9846858382225037,0.14789247512817383,-0.02403724193572998,-0.14400678873062134,0.18633960462082985,-0.05452566185707814,-0.06843999335211572,-0.9785808355586492,0.11387349458199934,-0.13347963597900145,-2.757642151499702
1784286979045938688,2.6888067722320557,-0.11586346477270126,-0.7410798072814941,0.07623753696680069,-0.13935868442058563,-0.1128162294626236,-0.9837945103645325,0.17610184848308563,-0.002738580107688904,-0.10162419080734253,0.18644962355257913,-0.058123226950482026,-0.06873449992079142,-0.9783321213055176,0.11305692322584499,-0.14071803007107997,-2.756974892105117
1784286979055858944,2.6987268924713135,-0.11150247603654861,-0.7486000657081604,0.09392375499010086,-0.14665086567401886,-0.11164966225624084,-0.9828671813011169,0.20550401508808136,-0.05607493966817856,-0.09130579233169556,0.18664720863195672,-0.06182657331069412,-0.06887590330329472,-0.9780574355951042,0.11188293923909547,-0.14811451433533682,-2.7561483788026204
1784286979065778688,2.708646774291992,-0.08003642410039902,-0.7523000240325928,0.07031137496232986,-0.1540415734052658,-0.11065585911273956,-0.9818484783172607,0.1376231163740158,-0.04644863307476044,-0.07007718086242676,0.18672202251280237,-0.06557378286245025,-0.06910737532216324,-0.9777827673441006,0.1108829411303127,-0.15562078855232406,-2.7555527433780926
1784286979075697920,2.7185659408569336,-0.11822422593832016,-0.7215701937675476,0.06916331499814987,-0.16125142574310303,-0.1097213625907898,-0.9807952046394348,0.11750447750091553,-0.046879589557647705,-0.043588340282440186,0.18670375956509982,-0.06923512299832715,-0.06934625776552525,-0.9775169076303346,0.10994271650497972,-0.1629510933633667,-2.755156179369045
1784286979085617664,2.7284858226776123,-0.2230776697397232,-0.6642853021621704,0.07967987656593323,-0.16806654632091522,-0.1080823540687561,-0.9798325300216675,0.13249832391738892,-0.1237749382853508,-0.0005903840065002441,0.1868047163839199,-0.07276018515593669,-0.06920750075408427,-0.977251346065844,0.10829390165398166,-0.16987271541419666,-2.7546139421754994
1784286979095536640,2.7384047508239746,-0.43716293573379517,-0.619173526763916,0.09578753262758255,-0.1742793321609497,-0.10491174459457397,-0.9790915250778198,0.1231013685464859,-0.17777258157730103,0.0572776198387146,0.1868167493633384,-0.0761369623890802,-0.06824511222037877,-0.97705944881898,0.10510515470511562,-0.17615606461510577,-2.7544570053565334
1784286979105456896,2.7483248710632324,-0.7347086071968079,-0.5704919695854187,0.12466391921043396,-0.17991924285888672,-0.09904404729604721,-0.9786824584007263,0.12274456024169922,-0.2006080597639084,0.10647481679916382,0.186843204112475,-0.07948033519686165,-0.06589118844997513,-0.9769498060908013,0.09920669805330991,-0.18180819650018362,-2.754602801770664
1784286979115375872,2.7582437992095947,-1.04094660282135,-0.47729992866516113,0.11214880645275116,-0.1848939210176468,-0.09008292853832245,-0.9786211252212524,0.10228283703327179,-0.17273445427417755,0.14863455295562744,0.18691039175601312,-0.08277954738464333,-0.06194340131728017,-0.9769212171283945,0.09020521400561363,-0.1867320191679527,-2.7550575170500773
1784286979125295872,2.7681639194488525,-1.2015844583511353,-0.4165199398994446,0.07616204023361206,-0.18916960060596466,-0.07923330366611481,-0.9787425398826599,0.11015959084033966,-0.1714380830526352,0.1758403182029724,0.18683515905573878,-0.08591760766795366,-0.05698155659323584,-0.9769666775822163,0.07931644269890249,-0.19092401597302128,-2.7560768731686287
1784286979135215872,2.7780838012695312,-1.4941238164901733,-0.2840263843536377,0.09081481397151947,-0.19252808392047882,-0.06572815775871277,-0.9790877103805542,0.10907776653766632,-0.10838988423347473,0.2746504545211792,0.18647171936926704,-0.08886289149445334,-0.050591813969590435,-0.977124393014549,0.06577557731163637,-0.194162984019251,-2.758044832240921
1784286979145134592,2.7880027294158936,-1.341590166091919,-0.1977836638689041,0.030192481353878975,-0.1946030855178833,-0.05225495249032974,-0.9794892072677612,0.1440354734659195,-0.035834040492773056,0.23301398754119873,0.18606964303804743,-0.09116658366181825,-0.044091518088207514,-0.9773038522312516,0.052278763924301586,-0.19612422168798418,-2.760170316375192
1784286979155054848,2.7979228496551514,-1.4049657583236694,-0.041220031678676605,0.040345050394535065,-0.19561238586902618,-0.03842349722981453,-0.9799282550811768,0.14202353358268738,0.08151431381702423,0.31495028734207153,0.18549669810692823,-0.09297738759310978,-0.037296996559625956,-0.9775250021971034,0.03843295729839412,-0.19702926375098406,-2.7627300262119947
1784286979164973824,2.8078417778015137,-1.0441169738769531,0.01470794714987278,0.010720578953623772,-0.1954660415649414,-0.026566823944449425,-0.9803505539894104,0.1133127212524414,0.08584721386432648,0.2501564621925354,0.18507911996434306,-0.09401998953460147,-0.03138403054820635,-0.9777121817406426,0.02656995023394618,-0.1968030034757321,-2.76480059416241
1784286979174893824,2.8177618980407715,-0.8158918619155884,0.08603958040475845,-0.025998154655098915,-0.19475838541984558,-0.01780354604125023,-0.9806896448135376,0.07743355631828308,0.15467488765716553,0.2972332239151001,0.1846105083015038,-0.09449488743638332,-0.02694228550989986,-0.977887439822936,0.017804487452299504,-0.1960425882109097,-2.7666637050739595
1784286979184813824,2.82768177986145,-0.5780092477798462,0.2468303143978119,0.11843066662549973,-0.19293364882469177,-0.010821541771292686,-0.9811521172523499,0.07493743300437927,0.11131592094898224,0.39376503229141235,0.18452123300376097,-0.09423639540830468,-0.023311719441598246,-0.9780225308628493,0.010821753166897404,-0.1941626101763457,-2.7675873235060746
1784286979194732800,2.8376009464263916,-0.7076542973518372,0.3949853479862213,0.04227094724774361,-0.1893424391746521,-0.005111733451485634,-0.9818978309631348,0.0203055739402771,0.06115726754069328,0.5182900428771973,0.18465420729041315,-0.092975829896385,-0.020164064180913314,-0.978187960413469,0.005111755557881836,-0.19049494238348877,-2.767951917766937
1784286979204652800,2.8475208282470703,-0.752498209476471,0.5160718560218811,0.09580101817846298,-0.18375708162784576,0.002111822832375765,-0.9829694032669067,0.06032875180244446,0.049203481525182724,0.584516704082489,0.18467127665296829,-0.09086810947299913,-0.01607100950829023,-0.9784586535028208,-0.0021118244887352164,-0.1848076813884388,-2.768703196536322
1784286979214571776,2.8574397563934326,-0.7853542566299438,0.6830860376358032,-0.007989891804754734,-0.17706303298473358,0.009227290749549866,-0.9841562509536743,0.044570982456207275,0.10594604909420013,0.5717722773551941,0.18460162141636366,-0.0882028443179301,-0.01192178269011026,-0.9787749903281168,-0.009227421619558022,-0.17800919095105966,-2.769586207645832
1784286979224491776,2.8673598766326904,-0.6043440103530884,0.8421350717544556,-0.09679565578699112,-0.16930341720581055,0.01605137623846531,-0.9854332804679871,-0.0010457038879394531,0.11055079847574234,0.5001732707023621,0.1841212584301965,-0.08498692742985056,-0.007784189050642653,-0.9791914880685588,-0.016052066081142628,-0.17014497834808182,-2.77123410694501
1784286979234411776,2.877279758453369,-0.39608368277549744,0.9692625403404236,-0.16177836060523987,-0.16025517880916595,0.020509930327534676,-0.9868625402450562,-0.023704782128334045,0.032850053161382675,0.46014440059661865,0.1832798221638978,-0.08091315419757152,-0.004669508317672368,-0.9797141487745994,-0.020511368504857703,-0.1609833243610958,-2.7733729918898633
1784286979244331008,2.8871989250183105,-0.1628062129020691,1.1002362966537476,-0.18074193596839905,-0.15000872313976288,0.023200765252113342,-0.9884124398231506,-0.02607770264148712,0.00969718024134636,0.48317867517471313,0.18232734645239765,-0.07608167702524431,-0.002317063008406636,-0.9802872465771679,-0.023202847843138297,-0.1506179473320972,-2.775558465309021
1784286979254250752,2.8971188068389893,0.051224056631326675,1.2088731527328491,-0.2940504848957062,-0.13871045410633087,0.02315034158527851,-0.9900623559951782,-0.02651171386241913,0.028546439483761787,0.4862323999404907,0.18103031207525996,-0.07047954318539534,-0.001206753694040389,-0.9809480455740626,-0.02315241039840151,-0.13919671448071066,-2.77822060460261
1784286979264169728,2.9070377349853516,0.28066736459732056,1.3086879253387451,-0.24076518416404724,-0.12638401985168457,0.021340342238545418,-0.9917517900466919,0.028407350182533264,0.04666807875037193,0.5126716494560242,0.17986616435741443,-0.06421283310487699,-0.0008960388038854059,-0.9815926691920975,-0.02134196184398566,-0.12675194270880824,-2.7804898981953863
1784286979274089728,2.9169578552246094,0.8827764987945557,1.292628526687622,-0.2658745050430298,-0.11364743858575821,0.015345893800258636,-0.9934026002883911,0.057800278067588806,0.12065569311380386,0.5097753405570984,0.17879714736697516,-0.057373883994769885,-0.0026321713532359153,-0.9822081359041678,-0.015346495727826677,-0.11390698528813391,-2.782339133681707
1784286979284009728,2.926877737045288,1.2483494281768799,1.3262463808059692,-0.28970739245414734,-0.10081946104764938,0.0044293999671936035,-0.9948948621749878,0.10001075267791748,0.1524462103843689,0.5604466795921326,0.17768147195636486,-0.050063493553945994,-0.0067976405965564455,-0.9827902887562988,-0.004429414606343958,-0.10099203786645387,-2.7840948899863203
1784286979293928960,2.9367969036102295,1.1432515382766724,1.4588251113891602,-0.2291976362466812,-0.0870840921998024,-0.007934791967272758,-0.99616938829422,0.1077444925904274,0.08807395398616791,0.6014397740364075,0.17674536120036743,-0.042193755887768414,-0.011619182551850014,-0.9832831837903796,0.007934875641692332,-0.08719729289064067,-2.785544545179183
1784286979303848704,2.946716785430908,1.218437671661377,1.5507653951644897,-0.18719612061977386,-0.07210884988307953,-0.019616562873125076,-0.9972038269042969,0.10735666006803513,-0.07121900469064713,0.5815239548683167,0.17608612670627213,-0.03378558549490903,-0.016019137049813115,-0.9836643518770745,0.019617820675425696,-0.0721853992713246,-2.786615833394292
1784286979313767936,2.9566359519958496,1.2389723062515259,1.5331671237945557,-0.1829310804605484,-0.056598614901304245,-0.03166826441884041,-0.9978946447372437,0.11384959518909454,-0.11010114848613739,0.5225528478622437,0.1754417266660963,-0.025093696108975768,-0.020566605290408997,-0.9839549812753051,0.03167356032904616,-0.056657325518169356,-2.7877983920739324
1784286979323687680,2.9665558338165283,1.2032654285430908,1.594954490661621,-0.15152335166931152,-0.041175808757543564,-0.04436425492167473,-0.9981665015220642,0.15962979197502136,-0.23992224037647247,0.4697851538658142,0.17503344756555467,-0.016392904243090242,-0.025456269644939102,-0.9840968140418712,0.04437882038259934,-0.04122806631082726,-2.7886349741852996
1784286979333607936,2.976475954055786,1.0277434587478638,1.5300549268722534,-0.17641592025756836,-0.025637151673436165,-0.05513161048293114,-0.9981499314308167,0.18521356582641602,-0.19648581743240356,0.5100517868995667,0.17438835492361515,-0.007816208658069703,-0.0293930614964333,-0.9842071488681658,0.05515957793892336,-0.025679025275681288,-2.790151158061918
1784286979343526912,2.9863948822021484,0.9767882823944092,1.4759958982467651,-0.0960124209523201,-0.010632233694195747,-0.06548447906970978,-0.9977969527244568,0.2285124808549881,-0.12210707366466522,0.4734897017478943,0.1741300245169801,0.00046999787357264325,-0.033185957163449874,-0.9841632610807167,0.06553137362258099,-0.010655305656154867,-2.7910040581347126
1784286979353446656,2.996314764022827,0.883818507194519,1.4724464416503906,-0.0908111035823822,0.003857571864500642,-0.07413917779922485,-0.997240424156189,0.2060881108045578,0.020184099674224854,0.504503607749939,0.1736753292867072,0.008347714345674105,-0.03619522345307223,-0.984102113597241,0.07420726354230525,0.0038682273124274013,-2.7923715990330806
1784286979363365888,3.0062339305877686,1.1661123037338257,1.6017727851867676,-0.1547674536705017,0.019284581765532494,-0.08448665589094162,-0.9962379932403564,0.13379159569740295,0.09356563538312912,0.37270283699035645,0.17345565809332436,0.01684594888317993,-0.03996529336938438,-0.9838862231661994,0.08458748850985646,0.01935498723362241,-2.7934051051877957
1784286979373285888,3.0161538124084473,1.24045729637146,1.534260630607605,-0.16798774898052216,0.03495073691010475,-0.0963878408074379,-0.9947300553321838,0.16184186935424805,0.2457866370677948,0.41343122720718384,0.17275680292203816,0.025582462446812743,-0.04450306648303077,-0.9836260217719872,0.09653771516849442,0.03512145363252212,-2.7955706144992956
1784286979383205888,3.026073932647705,1.3846871852874756,1.5914586782455444,-0.11731071770191193,0.050442107021808624,-0.10942813754081726,-0.992713987827301,0.15419352054595947,0.18393680453300476,0.3787155747413635,0.1723934103253166,0.034354261924770944,-0.04962647204748246,-0.983177319971243,0.10964771712369133,0.050768664608551936,-2.7972222159383806
1784286979393124864,3.0359928607940674,1.4416303634643555,1.5263514518737793,-0.14481309056282043,0.06585237383842468,-0.12338367849588394,-0.9901716709136963,0.16403654217720032,0.17540088295936584,0.3254530429840088,0.17177445140151104,0.04316374911482115,-0.05523636823915883,-0.9826390068324465,0.1236988988595309,0.06640822282512589,-2.7995854494102774
1784286979403044608,3.045912742614746,1.4353408813476562,1.5169702768325806,-0.16472315788269043,0.08111204206943512,-0.13761070370674133,-0.9871596097946167,0.1295050084590912,0.17645959556102753,0.2809829115867615,0.17120783247052612,0.05193832268995868,-0.06101309573056487,-0.9819712779398949,0.1380487693943445,0.08198292905649883,-2.802031530830831
1784286979412963840,3.0558319091796875,0.9781025648117065,1.5164074897766113,-0.024433346465229988,0.09610762447118759,-0.14938805997371674,-0.9840968251228333,0.11319718509912491,0.039067015051841736,0.31275588274002075,0.17077534073320916,0.06038969316757143,-0.06561005685735227,-0.9812666787256464,0.14994936516509746,0.09735202598474431,-2.8042915280390024
1784286979422883840,3.065751791000366,0.5917814373970032,1.5183920860290527,-0.10960523784160614,0.1111903265118599,-0.15718013048171997,-0.9812905192375183,0.1130070686340332,-0.16738957166671753,0.2517678141593933,0.17086123988647198,0.06858264696526857,-0.06819935059608137,-0.9805364850551055,0.15783464294979965,0.11282906173943684,-2.805483621013783
1784286979432803840,3.075671911239624,-0.383024662733078,1.3989918231964111,0.02724519371986389,0.12542693316936493,-0.1586340069770813,-0.9793382287025452,0.18290741741657257,-0.1849939227104187,0.24168258905410767,0.17099044526169782,0.07580578650126656,-0.0677080111726165,-0.9800160705189378,0.15930698842663749,0.1273797138816578,-2.8062974428271703
1784286979442722816,3.0855908393859863,-1.339677095413208,1.4880982637405396,0.052528444677591324,0.13939125835895538,-0.15007339417934418,-0.9787992835044861,0.11126488447189331,-0.06055893003940582,0.11690658330917358,0.17203920182682883,0.08205956265717315,-0.06218183945978615,-0.979694958958357,0.15064250570020538,0.14145927201759073,-2.8046204932999483
1784286979452642816,3.095510959625244,-2.342993974685669,1.3823214769363403,-0.10249868780374527,0.15339221060276031,-0.13258714973926544,-0.9792300462722778,0.07031689584255219,0.21731920540332794,-0.06323516368865967,0.1732239468671689,0.08752377250839938,-0.05219739076143372,-0.9795960961294279,0.1329787186723122,0.15538302810899784,-2.801914638006743
1784286979462561792,3.1054298877716064,-2.911440372467041,1.2978929281234741,-0.06472308188676834,0.16650284826755524,-0.10586230456829071,-0.9803417921066284,0.05728256702423096,0.4318663477897644,-0.19466125965118408,0.17411694715009285,0.09168054982148509,-0.03773318704348852,-0.9797215228988747,0.1060610398196417,0.16823622896908014,-2.798774879444838
1784286979472481792,3.115349769592285,-3.3577961921691895,1.2726798057556152,-0.2930886745452881,0.1794154793024063,-0.075785331428051,-0.9808499813079834,-0.09445454180240631,0.5957743525505066,-0.3239595890045166,0.17501063951567541,0.0954313201334461,-0.021630442538495148,-0.9796919637973194,0.07585806678808552,0.18091827656053627,-2.794929205404047
1784286979482401792,3.125269889831543,-3.4291951656341553,1.0704809427261353,-0.104070283472538,0.19095399975776672,-0.041143644601106644,-0.9807363152503967,-0.13666324317455292,0.7852842807769775,-0.3756173849105835,0.17565568022592873,0.09808252363550475,-0.0034128716728420603,-0.9795474652969729,0.04115526124933642,0.19229879784744852,-2.7906877076043406
1784286979492320768,3.1351888179779053,-2.441912889480591,0.9391714930534363,-0.020930957049131393,0.2005292773246765,-0.012341303750872612,-0.9796099662780762,-0.162306010723114,0.6534698605537415,-0.6018872261047363,0.17680555433654385,0.10027773998642821,0.011806317409495106,-0.9790529306149193,0.012341616793640115,0.2019137301509233,-2.785517309065004
1784286979502241024,3.145108938217163,-1.6199300289154053,0.8301619291305542,-0.24706849455833435,0.2095917910337448,0.007029820699244738,-0.9777637124061584,-0.2244691103696823,0.44102925062179565,-0.6654247641563416,0.17704507913452658,0.10307043776809131,0.022240342985022463,-0.9785381526263607,-0.007029878556194207,0.21116276319276456,-2.7828640726856406
1784286979512159744,3.1550278663635254,-1.1972005367279053,0.821854293346405,-0.06902118772268295,0.21815931797027588,0.021100692451000214,-0.9756850004196167,-0.12108291685581207,-0.1826912760734558,-0.4865952134132385,0.1771517719239568,0.10609944637430795,0.030006567999750763,-0.9779876045155099,-0.021102259388198107,0.21997774353215535,-2.7808700508505475
1784286979522079744,3.164947748184204,-2.052746295928955,0.6763128042221069,-0.1336907297372818,0.2250846028327942,0.036165714263916016,-0.9736678004264832,-0.12210303544998169,-0.5400872230529785,-0.09455424547195435,0.1773422282244278,0.10822103507948799,0.03813545669938856,-0.9774372733756346,-0.0361736031489307,0.22718109253928329,-2.7784985784308387
1784286979531999744,3.174867868423462,-4.1303935050964355,0.9472585916519165,-0.45438235998153687,0.2327713817358017,0.06566216796636581,-0.9703122973442078,-0.2205490916967392,-0.3621557056903839,0.06732767820358276,0.17733157008476969,0.10946287613144196,0.0534951361424865,-0.9765805414506158,-0.06570944640597784,0.23544405378362476,-2.7745645319143866
1784286979541918720,3.184786796569824,-5.645480632781982,0.9091343283653259,-0.5122233033180237,0.24153979122638702,0.11465196311473846,-0.9635940194129944,-0.17705616354942322,0.39343518018722534,0.14868319034576416,0.17745539019449919,0.10955230384900498,0.07874819109798124,-0.9748367090021879,-0.11490464352499566,0.2456049347802107,-2.7672666267279062
1784286979551838976,3.194706916809082,-5.529751300811768,0.7837086319923401,-0.7066675424575806,0.249705508351326,0.17099735140800476,-0.9531038999557495,-0.126048281788826,1.0341875553131104,-0.07835972309112549,0.17716958570988503,0.10878421740605022,0.10776843882033683,-0.9721949387879455,-0.17184184160601143,0.2562329301723843,-2.7588847843932576
1784286979561757696,3.2046258449554443,-3.964813709259033,1.096105694770813,-0.6636433601379395,0.2568506598472595,0.21677695214748383,-0.9418256282806396,0.19732719659805298,1.12596595287323,-0.48360466957092285,0.1759396640740339,0.10859921829737743,0.13150438763716646,-0.9695143233883661,-0.2185117011098631,0.26624131702408416,-2.753179623036174
1784286979571677696,3.214545726776123,-3.279160737991333,1.1637847423553467,-1.1137619018554688,0.2652471661567688,0.2526664435863495,-0.9304856657981873,0.1454431414604187,0.5426368713378906,-0.5577192902565002,0.17264056588238028,0.11029421339575657,0.15030749629054568,-0.9671804991004613,-0.25543513378497085,0.2776975486464671,-2.7524276531010825
1784286979581597696,3.224465847015381,-3.358659267425537,0.8735482096672058,-1.3676446676254272,0.27172166109085083,0.28598928451538086,-0.9189001321792603,0.36012953519821167,0.17894601821899414,-0.29194581508636475,0.16769558394352738,0.11166126014111508,0.16757593856859113,-0.9650534705676341,-0.2900386716387832,0.2875100816379169,-2.7552175817923854
1784286979591516672,3.234384775161743,-3.6283185482025146,0.9319838881492615,-1.2683385610580444,0.2750609517097473,0.32155004143714905,-0.9060612916946411,0.4534394145011902,0.36686548590660095,-0.11435496807098389,0.1623326280251015,0.11153211669932694,0.1858223643448521,-0.9626415234377753,-0.3273660136567972,0.29473681963274506,-2.75844654353304
1784286979601437184,3.24430513381958,-2.9538848400115967,0.8369753360748291,-1.1563419103622437,0.2794729173183441,0.3540278971195221,-0.8925015926361084,0.6024850606918335,0.6164768934249878,-0.2548677921295166,0.1578756133095905,0.11221219095533914,0.2028733969775824,-0.959857305427697,-0.36187443098409894,0.3034626693830141,-2.759625150770929
1784286979611355904,3.2542240619659424,-2.1752915382385254,0.8435685634613037,-1.4156572818756104,0.28177347779273987,0.3807300627231598,-0.8807089924812317,0.576090931892395,0.6648479700088501,-0.1741310954093933,0.1521423404670531,0.11268724937694233,0.21667275825100665,-0.9577093613973617,-0.39058568381480074,0.3096479309610869,-2.7647770600780492
1784286979621275904,3.264143943786621,-2.078829288482666,0.7178878784179688,-1.2199211120605469,0.2833944857120514,0.4020950496196747,-0.8706360459327698,0.671653151512146,0.4576919376850128,0.041565001010894775,0.14619613242963206,0.1134061754398783,0.2276422999723318,-0.9560045384574152,-0.4138038822500162,0.3146866117612116,-2.7715152150908904
1784286979631195904,3.274064064025879,-1.8769617080688477,0.5891166925430298,-1.1855372190475464,0.28418150544166565,0.42250919342041016,-0.860654890537262,0.5825940370559692,0.33037474751472473,0.14832890033721924,0.14095922124131197,0.11372528788561007,0.23819970714634056,-0.9541792483412012,-0.4362119568974812,0.31892084340164883,-2.776999814599005
1784286979641114880,3.283982992172241,-1.538187026977539,0.6710374355316162,-1.1499686241149902,0.2844739854335785,0.4404946267604828,-0.8514922261238098,0.475612074136734,0.7162283658981323,0.2193816900253296,0.13551992115347047,0.11411563924466654,0.2474500055737637,-0.9525651623284359,-0.45614955602963014,0.32243027542094216,-2.7834927502323032
1784286979651035136,3.293903112411499,-1.3657629489898682,0.6605743169784546,-1.8757132291793823,0.28277525305747986,0.45743128657341003,-0.8430864810943604,0.19282594323158264,0.9430050849914551,0.26305413246154785,0.12832742004367867,0.11411211635935355,0.2558030183571481,-0.9513545248277505,-0.47510440464947473,0.32361370007460694,-2.7944284334650726
1784286979660954112,3.3038220405578613,-0.8880528211593628,0.842410147190094,-1.965994954109192,0.2801074981689453,0.4719052314758301,-0.8359696865081787,0.1978435218334198,0.7014346122741699,0.08442854881286621,0.11873436502863223,0.11453083682852955,0.2624840043151966,-0.950729799153836,-0.49145052334958617,0.32331181959070004,-2.811351406975065
1784286979670874112,3.313742160797119,-0.7157078981399536,0.8603184819221497,-1.9347732067108154,0.27829504013061523,0.48393163084983826,-0.8296758532524109,0.3154549300670624,0.45977866649627686,0.14216065406799316,0.10881783171915911,0.11575418103390628,0.26788624132644495,-0.9502613328926983,-0.5051419146237246,0.32363297494936555,-2.8293479047446763
1784286979680794112,3.323662042617798,-1.2920774221420288,0.7252479791641235,-1.9728126525878906,0.27530795335769653,0.49724459648132324,-0.8227717876434326,0.4128634035587311,0.26470306515693665,0.2896144390106201,0.09910746070077454,0.11637562089093434,0.2739905709253306,-0.9495070662191359,-0.5204200042996515,0.3228994510103274,-2.846918914878645
1784286979690712832,3.33358097076416,-1.7390296459197998,0.7371891140937805,-2.0434658527374268,0.2711024582386017,0.5152061581611633,-0.8130596876144409,0.2923435866832733,0.15065687894821167,0.3269604444503784,0.08952504690774123,0.11629746666515399,0.2827455583773227,-0.9479003868612785,-0.5412481920460883,0.32184192541586926,-2.8632534266157106
1784286979700633088,3.343501091003418,-2.4379403591156006,0.8212853074073792,-1.9776248931884766,0.2665883004665375,0.537302553653717,-0.8001479506492615,0.21035566926002502,0.25278234481811523,0.3670119643211365,0.07994810666768708,0.11613618502084126,0.29400411422910083,-0.9453477586104866,-0.5672354646731175,0.321606946167512,-2.8783675914201456
1784286979710552064,3.3534200191497803,-2.860106945037842,0.9804405570030212,-1.7291419506072998,0.263865202665329,0.5631997585296631,-0.7830588817596436,0.3334095776081085,0.14628815650939941,0.36858439445495605,0.07163340012551049,0.11669933101375325,0.3079802278986508,-0.9414872074269164,-0.5982529981916903,0.3250175008496097,-2.888680161068438
1784286979720472064,3.363340139389038,-2.9138169288635254,1.1945005655288696,-1.5042041540145874,0.26315662264823914,0.5899473428726196,-0.7633549571037292,0.35000255703926086,0.06396806240081787,0.25291794538497925,0.06402719680245687,0.11838237736575624,0.32296770955933585,-0.9367913570948068,-0.630993613866228,0.331978408769801,-2.895855359166336
1784286979730392064,3.373260021209717,-2.778641939163208,1.4285638332366943,-1.6136313676834106,0.2635206878185272,0.6152247190475464,-0.743004322052002,0.3786301910877228,0.03643238544464111,0.17208147048950195,0.05638020689516496,0.12098207586840899,0.3374332144105847,-0.9318387693664182,-0.6626709770773367,0.340828315853208,-2.902470195984395
1784286979740310784,3.383178949356079,-2.7874319553375244,1.6356853246688843,-1.3024723529815674,0.2657413184642792,0.6396163702011108,-0.7212991118431091,0.4869594871997833,0.03616487979888916,0.30999845266342163,0.04859099896624445,0.12497156172670641,0.3517563919558746,-0.9264385324007444,-0.6939990883685089,0.35298984599863925,-2.9079739431246194
1784286979750231040,3.393099069595337,-3.2167606353759766,1.9259742498397827,-1.1963976621627808,0.26999345421791077,0.6636667251586914,-0.6976029872894287,0.47732096910476685,0.04574483633041382,0.533952534198761,0.04163755268133418,0.13010020797816294,0.36643202752668697,-0.9203628299588781,-0.7257100228493474,0.3692757882580768,-2.9095938323676522
1784286979760150016,3.403017997741699,-4.300932884216309,2.2870266437530518,-0.9544545412063599,0.27729299664497375,0.6922562718391418,-0.6662505865097046,0.38379403948783875,-0.045619308948516846,0.8546203374862671,0.03527027828028142,0.13713184576581905,0.3847980879502342,-0.9120752610740828,-0.7646109278014565,0.3943927929158268,-2.903965924468256
1784286979770070016,3.412938117980957,-4.721484184265137,2.565864324569702,-0.6910499930381775,0.2872387766838074,0.7237626314163208,-0.6274245381355286,0.3487628102302551,-0.3058396577835083,0.7629988789558411,0.03001527188113167,0.14577586446832314,0.40624761939413173,-0.9015604967649009,-0.8092395076467517,0.42932649526154426,-2.8888358945338215
1784286979779990016,3.4228579998016357,-4.925244331359863,2.621774911880493,-0.6188692450523376,0.29832011461257935,0.7548044323921204,-0.5841878056526184,0.43286579847335815,-0.41811925172805786,0.6561024785041809,0.025231334957081908,0.15550708726391174,0.42862995028555656,-0.8896388781486128,-0.8553559257694724,0.47213751135695636,-2.8664622393294303
1784286979789909248,3.432777166366577,-4.781230449676514,2.6756203174591064,-0.3606644868850708,0.30912405252456665,0.783576250076294,-0.5389347672462463,0.5086249709129333,-0.3639289140701294,0.5975132584571838,0.02127391797843339,0.16531689720417045,0.45078035570083314,-0.8769349653023079,-0.9004011975059419,0.5207690367028966,-2.8369571658006647
1784286979799828992,3.442697048187256,-4.462302207946777,2.952101945877075,-0.12504717707633972,0.32162976264953613,0.8080899119377136,-0.493502676486969,0.3819529712200165,-0.1886136531829834,0.6030303239822388,0.017785008607195583,0.176434166499252,0.4712957151952907,-0.8639646668610602,-0.9409022787301551,0.5775893969603778,-2.800524592603874
1784286979809747968,3.452615976333618,-3.762349843978882,3.1539528369903564,0.028165914118289948,0.33569470047950745,0.8274105787277222,-0.4502231478691101,0.42503219842910767,-0.16197478771209717,0.5600253939628601,0.014034003738938199,0.18907780786244183,0.4890173911880066,-0.8514192396273051,-0.9744811120543068,0.6406910502437246,-2.7606064904403063
1784286979819667968,3.462536096572876,-3.472829818725586,3.250854253768921,0.40544235706329346,0.35124674439430237,0.8420929908752441,-0.40927377343177795,0.5618849992752075,-0.23708206415176392,0.6691156625747681,0.010552332157167896,0.20289634774500534,0.5041787275779566,-0.8393601332660658,-1.0011522485718007,0.7092466054098618,-2.7167379044128115
1784286979829587968,3.4724559783935547,-3.0704050064086914,3.3976030349731445,0.4731178879737854,0.3677716553211212,0.8531839847564697,-0.36989355087280273,0.4934954047203064,-0.3692209720611572,0.6690573692321777,0.007387081228386899,0.21757800017171844,0.5174099396559364,-0.8275822220708918,-1.0220593393495114,0.7825217063126081,-2.6691168331225255
