time,seconds_elapsed,rotationRateX,rotationRateY,rotationRateZ,gravityX,gravityY,gravityZ,accelerationX,accelerationY,accelerationZ,quaternionW,quaternionX,quaternionY,quaternionZ,pitch,roll,yaw
1782477458402262016,0.1772921085357666,0.1519162952899933,0.5157790184020996,-0.3377125859260559,0.0704699233174324,0.7718466520309448,-0.6318914294242859,0.0127667635679245,-0.029064059257507324,-0.05879771709442139,-0.5334269793701387,0.22081933189725642,-0.3678221301378157,0.7289727969579691,-0.881740436914189,0.11106328445304751,-1.825707262184213
1782477458412180992,0.1872110366821289,0.2419082373380661,0.5572900176048279,-0.29962244629859924,0.07182466983795166,0.7690070271492004,-0.635192334651947,0.00912322849035263,-0.04046088457107544,-0.0882573127746582,-0.5319684536767336,0.21806100306279613,-0.36722367539960254,0.7311673000902428,-0.8772863464889873,0.11259720242289138,-1.8307578725783238
1782477458422100992,0.19713115692138672,0.32069385051727295,0.5968573689460754,-0.2961321175098419,0.0736500546336174,0.7642714977264404,-0.6406751871109009,0.007404632866382599,-0.023747265338897705,-0.09379130601882935,-0.5308829746079649,0.21435835749439477,-0.3656677503553972,0.7338260945408436,-0.869910898847544,0.11445452087800155,-1.8357909560416068
1782477458432020992,0.20705103874206543,0.39150872826576233,0.6245449185371399,-0.2996594309806824,0.07567764073610306,0.7582290172576904,-0.6475813388824463,0.010183557868003845,0.009150683879852295,-0.07638710737228394,-0.5299596019274654,0.2100463639942356,-0.36344167999117,0.7368401127887632,-0.8605924889586823,0.11633432133706084,-1.8411145204000796
1782477458441939712,0.21696996688842773,0.33973580598831177,0.6019431948661804,-0.34163698554039,0.07774340361356735,0.7522350549697876,-0.6542923450469971,0.01493847370147705,0.007194936275482178,-0.05087733268737793,-0.5289162089721016,0.2057375049977222,-0.3612836927165714,0.7398607276728356,-0.8514476375101858,0.11826609591989216,-1.846620710002719
1782477458451859968,0.22689008712768555,0.3280336558818817,0.5417365431785583,-0.3615141212940216,0.07939300686120987,0.7474666833877563,-0.6595380306243896,0.018400534987449646,-0.03875696659088135,0.0024793148040771484,-0.5275790292170445,0.20209949161558252,-0.3597037426050907,0.7425830013049229,-0.8442403255721529,0.11980025818316087,-1.8523074051542787
1782477458461778944,0.23680901527404785,0.2490733414888382,0.4589229226112366,-0.3772749900817871,0.08086347579956055,0.7428115010261536,-0.6645992994308472,0.027000881731510162,-0.08784323930740356,0.03184783458709717,-0.5263449009407151,0.19867779690230872,-0.35808865291487174,0.745158246901085,-0.8372600559595139,0.1210773817228617,-1.8577147348277008
1782477458471698944,0.24672913551330566,0.21793080866336823,0.37775564193725586,-0.41170406341552734,0.08209210634231567,0.7385019063949585,-0.6692352890968323,0.02256794273853302,-0.0766366720199585,0.061920225620269775,-0.5251582308721547,0.19557616580326379,-0.35655621210916594,0.7475470023516064,-0.830845806706869,0.12205579477438658,-1.8628855283085726
1782477458481618944,0.2566490173339844,0.3018539249897003,0.30358636379241943,-0.42803725600242615,0.0828360840678215,0.7346513867378235,-0.6733688116073608,0.024555273354053497,-0.035402119159698486,0.06443631649017334,-0.5239348925129789,0.19290443467120205,-0.3551105090084981,0.7497844526125566,-0.8251527241527066,0.12240242278413188,-1.8681490805787093
1782477458491537920,0.2665681838989258,0.5268712639808655,0.23332171142101288,-0.43722161650657654,0.08310400694608688,0.7304537296295166,-0.6778872013092041,0.03498377650976181,0.0189359188079834,0.0643007755279541,-0.5228188607637573,0.19035563054918317,-0.35330035335240995,0.7520664598839184,-0.8189860559176966,0.1219840106651628,-1.873632023344211
1782477458501457920,0.2764880657196045,0.8535258173942566,0.17830346524715424,-0.43824639916419983,0.08303094655275345,0.7251731753349304,-0.6835420727729797,0.03679633140563965,0.0719153881072998,0.07204610109329224,-0.5219021277458334,0.18759022899427824,-0.3507689875901474,0.7545787909647227,-0.8112858347890664,0.12087938153221893,-1.8794322839419895
1782477458511378176,0.2864081859588623,1.3049582242965698,0.1524927169084549,-0.4405701458454132,0.08271805942058563,0.7180505394935608,-0.6910580396652222,0.035522282123565674,0.10506957769393921,0.06952178478240967,-0.5212457498989349,0.18427542492702964,-0.34715063174644206,0.757516961409665,-0.8009972826007564,0.11913091822324069,-1.885719647397035
1782477458521296896,0.2963271141052246,1.85016667842865,0.15778841078281403,-0.46256303787231445,0.0822543129324913,0.708087682723999,-0.7013174295425415,0.036840543150901794,0.11805373430252075,0.064003586769104,-0.5208487092519711,0.1799765619209936,-0.34197913927171,0.761167093402201,-0.7867862921055284,0.1167520368847232,-1.8929016139487953
1782477458531216896,0.3062469959259033,2.4075798988342285,0.18211525678634644,-0.5420111417770386,0.08156302571296692,0.6946011185646057,-0.7147563695907593,0.04825873672962189,0.1392000913619995,0.07442134618759155,-0.520583194977632,0.17445096021352766,-0.3349457627207488,0.7657488498136773,-0.7678653164245041,0.11362155719855255,-1.90152218535743
1782477458541136128,0.3161661624908447,2.8903465270996094,0.17730557918548584,-0.6607745289802551,0.0803617313504219,0.6775578856468201,-0.7310658693313599,0.0668855831027031,0.15052133798599243,0.11470234394073486,-0.5202382074193243,0.16782116734958494,-0.32604161172020313,0.7712879171041535,-0.7444370396798653,0.10948449953266498,-1.911991422853972
1782477458551055872,0.32608604431152344,3.1130459308624268,0.12061391025781631,-0.8712435364723206,0.07810501754283905,0.6580052375793457,-0.7489517331123352,0.07619185000658035,0.1049189567565918,0.2122696042060852,-0.4972704448725866,0.15171982480222573,-0.32016438039974704,0.7919582948813361,-0.7181666520708293,0.10391018042625552,-1.981195385167812
1782477458560976128,0.33600616455078125,3.089287042617798,0.03974116966128349,-1.08794367313385,0.0743163600564003,0.6378183960914612,-0.7665930390357971,0.08591615408658981,-0.02450662851333618,0.4017401337623596,-0.49163371695083796,0.14380558900171692,-0.309876499617238,0.8009949792341907,-0.6916623633625855,0.0966417032857196,-2.0057693618037042
1782477458570894848,0.34592509269714355,2.9549553394317627,-0.07467925548553467,-1.1792187690734863,0.06820665299892426,0.6168772578239441,-0.7840983867645264,0.13044753670692444,-0.2092539668083191,0.6042582988739014,-0.48820678610606266,0.13789446862541688,-0.2982212699546036,0.8085191704339144,-0.664768898087522,0.08676895143138612,-2.0251647163934514
1782477458580814848,0.35584497451782227,2.737421989440918,-0.15707853436470032,-1.244756817817688,0.06058290973305702,0.5959188342094421,-0.8007561564445496,0.16974851489067078,-0.35138148069381714,0.7012993693351746,-0.48382552010072233,0.13264926151893947,-0.28640198850044624,0.8162664017038829,-0.6384093553519807,0.07551326899778019,-2.0465108934278597
1782477458590734080,0.36576414108276367,2.6612303256988525,-0.17810940742492676,-1.3145910501480103,0.052174802869558334,0.5756262540817261,-0.8160467147827148,0.16202808916568756,-0.3463782072067261,0.7424535751342773,-0.479830713392526,0.12843767803996212,-0.2747369983499443,0.8232774897176196,-0.6133698071852165,0.06384914288811548,-2.0659695140250487
1782477458600653824,0.3756840229034424,2.949113607406616,-0.11547823995351791,-1.3053070306777954,0.04398471862077713,0.5538849234580994,-0.8314306139945984,0.16515225172042847,-0.18239450454711914,0.7196142077445984,-0.4756683375365904,0.12391598244495185,-0.262544348038395,0.8303341675925623,-0.5870230640322649,0.05285318496546417,-2.085160081291134
1782477458610574080,0.3856041431427002,3.651073694229126,-0.030238674953579903,-1.3164784908294678,0.03672104328870773,0.5275344252586365,-0.8487396836280823,0.17389599978923798,0.06600195169448853,0.6445160508155823,-0.47049607168385027,0.11760117975866938,-0.24859629989094953,0.8384529872847711,-0.5556956510021414,0.043238413221428636,-2.106534919367976
1782477458620493056,0.3955230712890625,4.672970771789551,0.07300835102796555,-1.3445435762405396,0.030569566413760185,0.49300289154052734,-0.8694904446601868,0.18404531478881836,0.25417423248291016,0.5817096829414368,-0.46531957304267585,0.10885148058378885,-0.23109767069706308,0.8474803074984597,-0.5155378893968264,0.035143549260922696,-2.128080524657423
1782477458630412800,0.4054429531097412,5.698750972747803,0.19436798989772797,-1.389319658279419,0.025794625282287598,0.4484776556491852,-0.8934217691421509,0.1880572885274887,0.3585749566555023,0.5772138833999634,-0.45989277516404,0.09724941742431499,-0.20936012892379416,0.8574436814016151,-0.4650613631307881,0.02886370298490273,-2.1501458291814766
1782477458640333056,0.415363073348999,6.23825740814209,0.27141907811164856,-1.6282308101654053,0.022078214213252068,0.3953927159309387,-0.9182468056678772,0.18296939134597778,0.3527457118034363,0.6182284951210022,-0.45371219719738387,0.08353073476349397,-0.18411741057021916,0.8679105721630799,-0.40649537352859694,0.024039246683948263,-2.1732535331693246
1782477458650251776,0.42528200149536133,6.028738975524902,0.36406004428863525,-1.9728333950042725,0.018930846825242043,0.3394201993942261,-0.9404443502426147,0.1854148507118225,0.22221004962921143,0.7196954488754272,-0.44636868551129344,0.0695120369151986,-0.1579427237820549,0.8780531393900908,-0.3463004388482297,0.020126965815505757,-2.197443105230506
1782477458660172032,0.43520212173461914,5.1266984939575195,0.5249991416931152,-2.2646050453186035,0.01698811538517475,0.2876044809818268,-0.9575985670089722,0.2083536684513092,0.03182297945022583,0.7507047057151794,-0.4369161692485034,0.05648743785394373,-0.13420086821257898,0.8876393271015351,-0.29172470462183486,0.017738470116173955,-2.2241739547770987
1782477458670091008,0.44512104988098145,3.7170164585113525,0.6540687680244446,-2.5184879302978516,0.016788611188530922,0.2461465299129486,-0.9690872430801392,0.22866427898406982,-0.11383756995201111,0.6944748163223267,-0.4279895223104365,0.04586851520947274,-0.11555289973961214,0.8951919264604576,-0.2487024444840251,0.017322416638855444,-2.247481297157814
1782477458680011008,0.45504117012023926,2.2873244285583496,0.7346120476722717,-2.6114113330841064,0.017939236015081406,0.21839891374111176,-0.9756946563720703,0.2548421323299408,-0.16818225383758545,0.6137409806251526,-0.41681364515689445,0.037883068477848995,-0.1035255238511988,0.9022825902255913,-0.22017347679064156,0.01838404470912062,-2.2740589999525858
1782477458689931008,0.46496105194091797,1.3855222463607788,0.8197269439697266,-2.5337653160095215,0.020451072603464127,0.20192460715770721,-0.979187548160553,0.28646421432495117,-0.16747026145458221,0.395111620426178,-0.4047774351169664,0.031907276340980464,-0.09689253735503285,0.9087073394547296,-0.20332261350773848,0.020882721349859582,-2.3013463611124685
1782477458699849728,0.4748799800872803,0.8155921697616577,0.9924907684326172,-2.326934337615967,0.024745900183916092,0.19231979548931122,-0.9810202717781067,0.3015632927417755,-0.12641708552837372,0.2487509846687317,-0.39260508379929693,0.02669067579635566,-0.09368820728021393,0.9145334661467176,-0.1935255222537953,0.02521931004180361,-2.3281380035670676
1782477458709769984,0.4848001003265381,0.6416696310043335,1.199006199836731,-2.143007278442383,0.03149492293596268,0.18669602274894714,-0.9819127321243286,0.24861067533493042,-0.08876511454582214,0.014673352241516113,-0.38124655165649657,0.02130036019222372,-0.09268179848526974,0.9195691355355444,-0.18779795403386032,0.03206408122840771,-2.3525275745925636
1782477458719689728,0.4947199821472168,0.8244906067848206,1.4034935235977173,-2.036811351776123,0.04073623567819595,0.1807158887386322,-0.9826913475990295,0.21219345927238464,-0.0898498147726059,-0.3345998525619507,-0.37064559958455645,0.014796579755598373,-0.09184430982082462,0.9241035818051279,-0.1817142724709779,0.041430020993359906,-2.3749318788777147
1782477458729608960,0.5046391487121582,1.200325846672058,1.5368645191192627,-1.983000636100769,0.05193139612674713,0.17257647216320038,-0.9836261868476868,0.21338842809200287,-0.06257584691047668,-0.49124258756637573,-0.3603474992391551,0.007044357655588078,-0.09020686210754597,0.9284195674017611,-0.17344478393332283,0.05274689182151106,-2.3965419672649597
1782477458739528960,0.5145590305328369,1.7919654846191406,1.643227458000183,-1.961659550666809,0.06463579088449478,0.15957865118980408,-0.9850669503211975,0.19967696070671082,-0.10612711310386658,-0.656549870967865,-0.3498288634981411,-0.0022509797204966946,-0.08637977015858563,0.9328200775399348,-0.16026382108479895,0.06552170929317964,-2.4187477359403675
1782477458749447936,0.5244779586791992,2.245223045349121,1.6648913621902466,-1.9208472967147827,0.07842160016298294,0.14179351925849915,-0.9867849946022034,0.19139957427978516,-0.11467866599559784,-0.6446084380149841,-0.3391427235013732,-0.012789392677471364,-0.0802740851077527,0.9372164454441251,-0.1422730134295855,0.0793051442536626,-2.4415332548036757
1782477458759367936,0.534398078918457,2.730529308319092,1.3918139934539795,-1.975805401802063,0.09172618389129639,0.11984891444444656,-0.9885456562042236,0.1939946413040161,-0.07675810158252716,-0.5732981562614441,-0.3284321947858459,-0.023633919421242888,-0.07189299367150415,0.9414908731441943,-0.12013769880433404,0.09252409116125151,-2.4647372970717836
1782477458769287936,0.5443179607391357,2.9364686012268066,2.408997058868408,-2.131596088409424,0.10288558155298233,0.0947071760892868,-0.9901742935180664,0.16054216027259827,-0.1125599592924118,-0.7105245590209961,-0.3172550402806837,-0.033794700909275624,-0.06140665678765585,0.945746450860173,-0.09484933009052786,0.1035349952135794,-2.4893574159802743
1782477458779206912,0.5542371273040771,3.876508951187134,0.059354931116104126,-1.8382773399353027,0.11256452649831772,0.06293011456727982,-0.9916496276855469,0.3161311447620392,-0.4148741066455841,-0.7531928420066833,-0.3057317327690722,-0.04402775256720947,-0.047294109629196196,0.9499225074427051,-0.06297172641313059,0.11302859149408126,-2.51526996544284
1782477458789126912,0.5641570091247559,2.7112839221954346,-0.690252959728241,-0.5740017294883728,0.10931812971830368,0.031120605766773224,-0.9935195446014404,0.4384723901748657,-0.4946368336677551,0.18584132194519043,-0.2981229637497524,-0.047596060593084334,-0.031222590579522126,0.9528287331388748,-0.031125631094686503,0.10959033838408874,-2.533419651180429
1782477458799046144,0.5740761756896973,0.6362862586975098,-1.0557782649993896,-0.23996655642986298,0.10096091032028198,0.017091922461986542,-0.9947435855865479,0.05422097444534302,-0.9225484728813171,0.28224968910217285,-0.2958655497099434,-0.04574269515101344,-0.023147854614972464,0.9538529195111867,-0.017092754415135733,0.10114804720369397,-2.539188753430237
1782477458808965888,0.583996057510376,0.21750742197036743,-0.8687493205070496,-0.9474323391914368,0.09205331653356552,0.013955776579678059,-0.9956562519073486,-0.2870301306247711,-1.515817403793335,-0.05503344535827637,-0.292144181188049,-0.04201912903632648,-0.0201557409375866,0.9552381277796869,-0.013956229434162802,0.0921928223926122,-2.5473481441912207
1782477458818886144,0.5939161777496338,-0.2669239640235901,-1.051607370376587,-0.8301182389259338,0.08266241103410721,0.015538760460913181,-0.9964564442634583,-0.1554315686225891,-0.92825847864151,-0.23668259382247925,-0.287257486842667,-0.037385420109535376,-0.0193417078659997,0.9569280177783055,-0.015539386068438027,0.0827668587684448,-2.557692175059769
1782477458828804864,0.6038351058959961,0.22059614956378937,-1.1301072835922241,-0.9107949733734131,0.07204630970954895,0.01710542105138302,-0.9972546100616455,-0.06528666615486145,0.00044218264520168304,-0.1487720012664795,-0.28254614710086,-0.03215716988656447,-0.018401563251787153,0.9585378768381355,-0.017106256104810244,0.07211935646754766,-2.567675924626353
1782477458838724864,0.6137549877166748,1.4443106651306152,-1.0406486988067627,-1.0561002492904663,0.061397865414619446,0.009689670987427235,-0.9980663657188416,-0.25129348039627075,0.29830899834632874,-0.20365482568740845,-0.2770791324064888,-0.028166362844423372,-0.013171477672799574,0.9603437866428193,-0.009689822361146995,0.061439395114391344,-2.579510000214865
1782477458848644864,0.6236751079559326,2.7710299491882324,-0.8402865529060364,-0.9624243378639221,0.052341800183057785,-0.010639959946274757,-0.9985725283622742,-0.2940257489681244,0.2680862545967102,-0.18447184562683105,-0.27121273773156096,-0.02664215470599793,-0.00198068356112761,0.9621486276415818,0.010640160259793108,0.052368694822337934,-2.5923646120521315
1782477458858563840,0.6335940361022949,4.001782417297363,-0.7857740521430969,-0.9627729654312134,0.04477202892303467,-0.043594833463430405,-0.9980455636978149,-0.24130523204803467,0.1946110725402832,-0.09996163845062256,-0.265316776866411,-0.027382360990979255,0.015080527530778553,0.9636543846138451,0.043608653031516884,0.044829650281865724,-2.605236407881697
1782477458868484096,0.6435141563415527,5.281638145446777,-0.7722781896591187,-0.9905928373336792,0.037965286523103714,-0.08912055939435959,-0.9952970147132874,-0.18744038045406342,0.2552277445793152,-0.025424420833587646,-0.25913540214671366,-0.029928614802951174,0.038154510766141604,0.9646228947659662,0.08923895310989302,0.03812619442796545,-2.618409255587413
1782477458878403072,0.653433084487915,6.278120517730713,-0.8853131532669067,-1.122930884361267,0.03120284341275692,-0.14553043246269226,-0.988861620426178,-0.16152815520763397,0.33493778109550476,0.09393364191055298,-0.2519056418448339,-0.03357027377372754,0.06665008319780563,0.9648700977906846,0.14604908651484008,0.03154384064743373,-2.6331467150675816
1782477458888322816,0.6633529663085938,7.034501552581787,-0.9195418357849121,-1.2878296375274658,0.02458527311682701,-0.2097538262605667,-0.9774450659751892,-0.1281924545764923,0.2923496663570404,0.251828670501709,-0.24347258633519955,-0.03781212136475738,0.09923558140993756,0.9640765743571728,0.21132318081735016,0.02514728573926449,-2.6495150461250208
1782477458898243072,0.6732730865478516,7.8053669929504395,-0.9914335608482361,-1.3419506549835205,0.01888156868517399,-0.28069302439689636,-0.9596118330955505,-0.08769871294498444,0.12874603271484375,0.4010028839111328,-0.23390293345603658,-0.04277151644727111,0.13551631292057129,0.9618187761992704,0.28451609656747273,0.019673717847773605,-2.6672959062571553
1782477458908161792,0.6831920146942139,7.875217437744141,-1.0428446531295776,-1.4697933197021484,0.013718380592763424,-0.35401102900505066,-0.9351406097412109,-0.070572629570961,0.005164623260498047,0.4884243607521057,-0.22341941415132116,-0.04766287153137679,0.1736604060996515,0.9579426296447646,0.361856410375685,0.014668806195345737,-2.6860112394857785
1782477458918082048,0.6931121349334717,8.175067901611328,-1.085703730583191,-1.5439729690551758,0.01012407522648573,-0.4271985590457916,-0.9041011333465576,-0.030723441392183304,-0.008607685565948486,0.5701015591621399,-0.21209759551528679,-0.05264948938599446,0.2125498919967992,0.9523997109783594,0.44139211647242277,0.011197476944558141,-2.705860102173949
1782477458928001792,0.7030320167541504,8.360904693603516,-1.0615880489349365,-1.6948375701904297,0.008297559805214405,-0.4998357594013214,-0.8660804629325867,-0.0050779469311237335,0.03920343518257141,0.46521681547164917,-0.19974562382237632,-0.057704748599001814,0.25224972848739524,0.9450618993020781,0.5234091345196105,0.009580294522323835,-2.7275753609998676
1782477458937921024,0.7129511833190918,8.423185348510742,-1.1402157545089722,-1.8970308303833008,0.008678139187395573,-0.5698787569999695,-0.8216829895973206,0.0051768459379673,0.16126364469528198,0.48168665170669556,-0.18601109035277744,-0.06264930558554556,0.29194789915735725,0.9360776787526893,0.6063582987415113,0.010561027301269692,-2.7525803429450644
1782477458947841024,0.7228710651397705,8.454734802246094,-1.2437244653701782,-2.1340107917785645,0.011387284845113754,-0.6364986300468445,-0.7711937427520752,0.06290775537490845,0.17255514860153198,0.5307304859161377,-0.17064478828551471,-0.06727308040599031,0.33147767543990164,0.9254605195246469,0.6899499811322131,0.01476471596047375,-2.7822163808817733
1782477458957759744,0.7327899932861328,8.253457069396973,-1.3706696033477783,-2.340603828430176,0.016557736322283745,-0.6978897452354431,-0.7160138487815857,0.0906047523021698,0.09576267004013062,0.5613507032394409,-0.15384217780831366,-0.07137999648106495,0.36999727591267395,0.9134219374602154,0.7724468399036234,0.023120762290916044,-2.8172789952830923
1782477458967680000,0.7427101135253906,8.215232849121094,-1.458993673324585,-2.5669310092926025,0.02484772354364395,-0.7535846829414368,-0.6568810939788818,0.14576081931591034,-0.08290213346481323,0.5543267726898193,-0.1355189406226781,-0.0751345226596847,0.407325731129931,0.9000418315521083,0.8534984120368306,0.037808794242767285,-2.8598917562406694
1782477458977599744,0.7526299953460693,7.28717565536499,-1.4708380699157715,-3.099618911743164,0.03792816027998924,-0.800743818283081,-0.5978050231933594,0.26855990290641785,0.07419657707214355,0.5592765808105469,-0.1156815572472024,-0.07901267155364462,0.4414232338863293,0.8862959084262612,0.9285359611666557,0.06336077581318916,-2.9137526107345137
1782477458987518976,0.7625491619110107,6.164389133453369,-1.0949416160583496,-3.5119075775146484,0.05851749703288078,-0.8374490737915039,-0.5433736443519592,0.06915280967950821,-0.2729787826538086,0.5156636238098145,-0.09555774897894087,-0.08495985345134269,0.4702074165581838,0.8732443262116958,0.9925987505160466,0.10727946801900859,-2.981735165290691
1782477458997438976,0.7724690437316895,5.206570625305176,-0.9892104864120483,-3.708545446395874,0.08391815423965454,-0.8644052147865295,-0.49574339389801025,0.11409517377614975,-0.47420257329940796,0.47239744663238525,-0.07470860775597266,-0.09151251913998928,0.4937142463242748,0.8615627828198316,1.0439661524919073,0.1676877678699109,-3.0652046716045676
1782477459007358976,0.7823891639709473,4.236675262451172,-0.8596415519714355,-3.906067371368408,0.11299005150794983,-0.8829438090324402,-0.455679327249527,0.15983712673187256,-0.5141203999519348,0.40419620275497437,-0.05374994316802799,-0.0986909960195575,0.5122698667798568,0.8514403987725916,1.0820960363315653,0.2430573299030919,3.121179039178709
1782477459017277952,0.7923080921173096,3.512089490890503,-0.6363652944564819,-4.073212146759033,0.14524760842323303,-0.8947996497154236,-0.42218080163002014,0.06337054073810577,-0.5188813209533691,0.3195044696331024,-0.03269721777150176,-0.10662997963271809,0.5268203102174395,0.8426275840746915,1.1079822738130254,0.3313565073003989,3.013017719849042
1782477459027197952,0.8022279739379883,2.5942559242248535,-0.37870845198631287,-4.246391296386719,0.18053941428661346,-0.9004600048065186,-0.39569830894470215,-0.03793080151081085,-0.5174323916435242,0.27655771374702454,-0.01179400422807106,-0.1156574323217315,0.5373771502026335,0.8352903511046172,1.120826038282566,0.42804357043325547,2.8987169767813645
1782477459037116928,0.8121471405029297,1.8154829740524292,-0.10630274564027786,-4.200078964233398,0.21762900054454803,-0.9006967544555664,-0.37600913643836975,-0.19088037312030792,-0.5718984007835388,0.29503074288368225,0.008317500050304053,-0.12573610586673833,0.5442296112385273,0.8294186613272587,1.1213706648437192,0.52467527897462,2.787461444721309
1782477459047036928,0.8220670223236084,1.01124107837677,0.17329010367393494,-4.035455226898193,0.25458285212516785,-0.8964098691940308,-0.3628178536891937,-0.2704215347766876,-0.587919294834137,0.236826092004776,0.02670114418040425,-0.1365601812807043,0.5476699601021247,0.8250429549448134,1.1116019424490073,0.6118541091467329,2.6894590897087784
1782477459056956928,0.8319871425628662,0.33747389912605286,0.45607253909111023,-3.8870749473571777,0.29086512327194214,-0.8881634473800659,-0.3557572662830353,-0.35975852608680725,-0.4582110643386841,0.1988358497619629,0.04319067590667659,-0.14810098181489573,0.5478936675411643,0.8222002187447794,1.0933329412016533,0.6853774969212652,2.609060152477845
1782477459066875904,0.8419060707092285,0.19883573055267334,0.6291972994804382,-3.673759937286377,0.32604703307151794,-0.877630352973938,-0.35136643052101135,-0.40850552916526794,-0.370599627494812,0.10698163509368896,0.0579890852980535,-0.160171051543574,0.5464997913300609,0.8199515368744608,1.070895997191499,0.7480390033017088,2.5428340753258962
1782477459076795904,0.8518259525299072,0.743010401725769,0.8064306378364563,-3.373331308364868,0.3591100871562958,-0.8672797083854675,-0.3447694480419159,-0.3758642375469208,-0.23986750841140747,0.04124164581298828,0.0713367882139631,-0.17213472442840613,0.5458799371704939,0.8168818289630879,1.0497116726094466,0.8057690554634633,2.483486901721597
1782477459086715904,0.861746072769165,1.8808823823928833,0.8887580633163452,-3.232062339782715,0.3902339041233063,-0.8595995306968689,-0.32985761761665344,-0.35307878255844116,-0.08450746536254883,-0.04077836871147156,0.08407855175734498,-0.18365812815924554,0.5489452400372419,0.8110854170389823,1.034485425516067,0.869047780909664,2.4187211179488655
1782477459096634880,0.8716650009155273,2.932307243347168,0.8833297491073608,-3.156517744064331,0.42022788524627686,-0.8546105027198792,-0.3050404489040375,-0.3730933964252472,0.0600242018699646,-0.08970442414283752,0.09733801157945829,-0.19447299948619223,0.5564710507976974,0.8019013006779013,1.0248002620866365,0.9429030921538706,2.3414637476481466
1782477459106554880,0.8815851211547852,3.5513131618499756,0.8270347714424133,-3.0784294605255127,0.44907617568969727,-0.8507272005081177,-0.27311864495277405,-0.37078335881233215,0.09152621030807495,-0.08607324957847595,0.11113618158904355,-0.20442267169632206,0.5671437662013096,0.7900683890429935,1.017367315478825,1.0243846391890847,2.254459922609109
1782477459116473856,0.8915040493011475,3.728052854537964,0.7491165995597839,-2.9504292011260986,0.4764955937862396,-0.8462948203086853,-0.23819494247436523,-0.3436068594455719,-0.059558331966400146,-0.07302328944206238,0.12510768461426708,-0.21343341116962786,0.579093005920607,0.7768174835428371,1.0089911074532718,1.1072374554564042,2.16445348577385
1782477459126394112,0.9014241695404053,3.6767337322235107,0.714053213596344,-2.808793783187866,0.5022109150886536,-0.840569257736206,-0.20304594933986664,-0.34585410356521606,-0.21509480476379395,-0.08539092540740967,0.13860268262879621,-0.2217113251861184,0.5910339387548216,0.7630939275648617,0.9983332184087339,1.1865850124839308,2.0776027017470873
1782477459136313856,0.911344051361084,3.3021700382232666,0.5604140162467957,-2.6590309143066406,0.526132345199585,-0.8332096934318542,-0.17013612389564514,-0.38681966066360474,-0.21815133094787598,-0.09005670249462128,0.15151034113590658,-0.22922419867791763,0.6019868822343134,0.7497417156390183,0.984887128593371,1.258038211114664,1.9984122913178077
1782477459146232832,0.9212629795074463,2.8498995304107666,0.33588874340057373,-2.4744293689727783,0.5479281544685364,-0.8243728280067444,-0.14207009971141815,-0.40904271602630615,-0.12814170122146606,0.01357586681842804,0.1637474218947259,-0.2357344941525268,0.611059900471858,0.7377138218289622,0.9690933362094567,1.3170971866165273,1.931138270409364
1782477459156153088,0.9311830997467041,2.532576084136963,0.11142677068710327,-2.3195931911468506,0.5677124857902527,-0.8146553635597229,-0.1184869334101677,-0.4129883646965027,-0.0927695631980896,0.06975036859512329,0.17546942374609373,-0.24117453520361753,0.6185397125271378,0.7269483669857766,0.9521346742260102,1.3650405354539497,1.8741418495448972
1782477459166071808,0.9411020278930664,2.463571786880493,-0.08762960880994797,-2.097977876663208,0.5854304432868958,-0.8047674894332886,-0.09808505326509476,-0.4164698123931885,-0.08779537677764893,0.08926552534103394,0.1868940200224393,-0.2452972361561732,0.6251293778079787,0.7170169127699665,0.9352836797271169,1.4047946482225329,1.8237730521381714
1782477459175992064,0.9510221481323242,2.7651195526123047,-0.16893130540847778,-1.8762775659561157,0.6011112928390503,-0.7953644394874573,-0.07784974575042725,-0.4093540906906128,-0.07827752828598022,0.049422621726989746,0.1980367119241247,-0.24809921169530322,0.6320774532332528,0.7068990799942493,0.9196085917983959,1.44200349523975,1.7743315223826321
1782477459185911808,0.9609420299530029,3.2925450801849365,-0.22269806265830994,-1.636604905128479,0.614693820476532,-0.7868544459342957,-0.054877858608961105,-0.385232150554657,-0.045069992542266846,-0.06475108861923218,0.20897485138337893,-0.24942038846763234,0.640586091584522,0.6955346229413405,0.905695287868373,1.4817556478595726,1.7203601720170443
1782477459195830784,0.9708609580993652,3.73372220993042,-0.3853341341018677,-1.5012683868408203,0.6267707347869873,-0.7786683440208435,-0.028880000114440918,-0.3475196957588196,-0.06390666961669922,-0.18475836515426636,0.22017924940742623,-0.24919864698016622,0.6507380690899403,0.6826134050166685,0.8925405904370167,1.5247514394518151,1.6603627290352556
1782477459205751040,0.980781078338623,3.8854196071624756,-0.5644066333770752,-1.2907953262329102,0.6373612284660339,-0.7705625295639038,-0.0020376169122755527,-0.30772560834884644,-0.07073080539703369,-0.2056039571762085,0.2316886568018114,-0.2472545600966539,0.6616996101485492,0.6688342060922171,0.8797232424850444,1.5675993798654235,1.5973902528581096
1782477459215670784,0.9907009601593018,3.8931565284729004,-0.7052897214889526,-1.1242932081222534,0.6466442346572876,-0.7624198794364929,0.023822013288736343,-0.3274913430213928,-0.05421537160873413,-0.18167424201965332,0.24311448034470542,-0.24398889067366555,0.672592319390608,0.6549690662607759,0.867044570061949,1.607619119422195,1.5352912696514696
1782477459225590016,1.0006201267242432,3.8201823234558105,-0.729897141456604,-0.9555503726005554,0.6545643210411072,-0.7544439435005188,0.04858076944947243,-0.3446124792098999,-0.008983910083770752,-0.17504560947418213,0.25390956242768487,-0.23985033484886173,0.6831999712670941,0.6412796975937213,0.8548065473423817,1.6448789799733958,1.4754849628552422
1782477459235509760,1.0105400085449219,3.5034115314483643,-0.6675980687141418,-1.0440239906311035,0.6624535918235779,-0.7456673383712769,0.07166076451539993,-0.39977359771728516,0.11171048879623413,-0.16213011741638184,0.26427953201781984,-0.23582501971794398,0.6929768692867913,0.6279537076602041,0.8415358094497537,1.6785520847048097,1.4199644418798258
1782477459245428992,1.0204591751098633,3.2880916595458984,-0.5239687561988831,-0.9971998929977417,0.6704349517822266,-0.7361297607421875,0.09289828687906265,-0.4647311568260193,0.10264581441879272,-0.14784526824951172,0.27390498352986514,-0.23244630072876843,0.7017249191244069,0.6152454628704583,0.8273343146697377,1.7084837989818005,1.3701691368411388
1782477459255348992,1.030379056930542,3.1001012325286865,-0.590614914894104,-0.9260501265525818,0.6779937744140625,-0.7263771295547485,0.11269774287939072,-0.42706298828125,-0.007326483726501465,-0.13863766193389893,0.28282954133647964,-0.22925358752037836,0.7097828295409956,0.6030411310311483,0.813035936264458,1.7355126994227192,1.3245058954257452
1782477459265268992,1.0402991771697998,2.8901309967041016,-0.7610905170440674,-0.8503244519233704,0.6849682331085205,-0.71694415807724,0.12965203821659088,-0.3145611882209778,-0.04861980676651001,-0.06434442102909088,0.2916938958560846,-0.2253762620556075,0.7169599449537372,0.5916829066135303,0.7994088802342012,1.7578650373766778,1.2824609846050417
1782477459275187968,1.050218105316162,3.1543784141540527,-0.8149656057357788,-0.8648070693016052,0.6921883821487427,-0.7068877816200256,0.14555148780345917,-0.2497444748878479,-0.01914072036743164,-0.001905187964439392,0.30078050859432737,-0.22126929340095303,0.7237510942624191,0.5803063763334173,0.7850884806985077,1.7780540712868504,1.2417454296866446
1782477459285107968,1.0601379871368408,3.2401795387268066,-0.9207210540771484,-0.7494847774505615,0.6989865899085999,-0.6964277029037476,0.16249823570251465,-0.18136286735534668,-0.0028672218322753906,-0.12154380977153778,0.3101057490785998,-0.21615992464248135,0.7311114870715101,0.5679657351320905,0.7704074251892483,1.7992158913516396,1.1979928004968894
1782477459295027968,1.0700581073760986,2.8160793781280518,-0.826296329498291,-0.7008112668991089,0.7055206298828125,-0.6861953139305115,0.17713423073291779,-0.19581609964370728,0.06558990478515625,-0.10096229612827301,0.31908047356062774,-0.21100065927104633,0.7375946301471746,0.5564355269153308,0.7562456837899755,1.8167806919320644,1.1581549359580399
1782477459304946944,1.079977035522461,2.3005430698394775,-0.6575728058815002,-0.6376330256462097,0.7112552523612976,-0.6769208908081055,0.18945695459842682,-0.2526066303253174,0.055049002170562744,-0.17068864405155182,0.3266005877571795,-0.20675032818881092,0.7429554331389385,0.546446287797431,0.7435713280821368,1.8311215746026641,1.125103032489746
1782477459314866944,1.0898971557617188,1.6069719791412354,-0.4236140847206116,-0.7241266369819641,0.7167356014251709,-0.6683252453804016,0.19907556474208832,-0.3044738173484802,-0.017129957675933838,-0.2268771231174469,0.3325349449340107,-0.2043318111918908,0.7468509181779249,0.5384074580621357,0.7319551317606517,1.8417203075110709,1.1010319031165416
1782477459324785920,1.099816083908081,1.3882135152816772,-0.3710693120956421,-0.6733109354972839,0.7222389578819275,-0.6602346897125244,0.20606182515621185,-0.25280219316482544,-0.06953215599060059,-0.2143014371395111,0.3376544865980428,-0.20310839637494357,0.749518438862056,0.5319386322149051,0.7211312149396907,1.848721957115522,1.083648457924664
1782477459334705920,1.1097359657287598,1.4525201320648193,-0.3829454183578491,-0.5361664295196533,0.7269846200942993,-0.6529016494750977,0.21263234317302704,-0.10956829786300659,-0.08963674306869507,-0.2084973156452179,0.34242972538913985,-0.2014915701741874,0.7521418190642831,0.5257619230639845,0.7114089957956645,1.85534475003947,1.0665583827787621
1782477459344625920,1.1196560859680176,1.6887938976287842,-0.47288089990615845,-0.5198175311088562,0.7311421632766724,-0.6458306908607483,0.21985039114952087,-0.08355897665023804,0.04155200719833374,-0.125657856464386,0.34724268459700947,-0.19906288855708948,0.7551815402305909,0.5191314518036168,0.7021108462069648,1.8628901094224501,1.0471784519275333
1782477459354544896,1.1295750141143799,1.717704176902771,-0.6513688564300537,-0.45653036236763,0.7354421615600586,-0.6384764909744263,0.22687581181526184,-0.0724630355834961,0.14184868335723877,-0.11982011795043945,0.3525890147380521,-0.19595525072524017,0.7583135548205407,0.5120967744494239,0.6925171601372598,1.870022882409927,1.026220377883633
1782477459364464896,1.1394951343536377,1.6802051067352295,-0.7889764308929443,-0.5333181619644165,0.7400791645050049,-0.6310485601425171,0.23250912129878998,-0.016415894031524658,0.08412784337997437,-0.09212829172611237,0.358500043274891,-0.1923855962378845,0.7610797227018028,0.5051961150389027,0.6829041398479058,1.8752000016593693,1.0055153128449024
1782477459374385152,1.1494152545928955,1.66544771194458,-0.8622506856918335,-0.34984341263771057,0.7448734641075134,-0.6236659288406372,0.2370743453502655,0.014785289764404297,-0.08176308870315552,-0.09309245645999908,0.36481342858882826,-0.1883563149099652,0.7635830499985146,0.49837130286789466,0.6734237260351187,1.8789334150962396,0.9848038082905924
1782477459384304128,1.1593341827392578,1.4364752769470215,-0.9004928469657898,-0.14162123203277588,0.7483281493186951,-0.6183452606201172,0.2401128113269806,0.05744272470474243,-0.1798114776611328,-0.10543882846832275,0.3705716441608693,-0.18352597299192247,0.7657510174538422,0.492564990780458,0.6666354151371883,1.8812843197495799,0.9651742560955621
1782477459394224128,1.1692543029785156,1.244348406791687,-0.9102880358695984,-0.03147942200303078,0.7510014176368713,-0.6144643425941467,0.2417236864566803,-0.006418406963348389,-0.15923255681991577,-0.1201111376285553,0.37588355160204906,-0.17842456264496598,0.7674806319940379,0.4876983215471013,0.6617067980767848,1.8821932801192212,0.947326065652546
1782477459404143104,1.179173231124878,1.1904679536819458,-0.7545362114906311,0.014767070300877094,0.7529475688934326,-0.6115869283676147,0.24296395480632782,-0.025210082530975342,-0.11438047885894775,-0.09184086322784424,0.3805459897700603,-0.17338553846284982,0.7690379923004657,0.48342816055974214,0.6580647866576219,1.8829318537836643,0.9308248859632492
1782477459414063104,1.1890933513641357,1.3104928731918335,-0.6198388338088989,0.14515383541584015,0.7541712522506714,-0.6091230511665344,0.2453460991382599,-0.014028489589691162,-0.10744494199752808,-0.05714428424835205,0.3845315564617051,-0.16833923904953327,0.770931221155199,0.4790223249170247,0.6549543406066819,1.885316543833426,0.9137442556966694
1782477459423983104,1.1990132331848145,1.676470160484314,-0.4264432489871979,0.24706169962882996,0.7541775107383728,-0.6070466041564941,0.2504211962223053,0.0757938027381897,-0.07848501205444336,-0.05939638614654541,0.3877922100417698,-0.16256840128362882,0.7738101235730797,0.47371578383555585,0.6523387868827079,1.8913873073959842,0.8929805524723566
1782477459433902080,1.2089321613311768,1.930371642112732,-0.4490095376968384,0.33563390374183655,0.7534452080726624,-0.6046491265296936,0.2583023011684418,0.13386881351470947,-0.05033445358276367,-0.08758696913719177,0.3907066742424988,-0.15600121014853988,0.7776983857104685,0.46711588908524015,0.6493252591726079,1.9010678493541293,0.867807480919039
1782477459443822080,1.2188522815704346,1.7404876947402954,-0.6014670133590698,0.2644205689430237,0.7528187036514282,-0.6021915078163147,0.2657618522644043,0.1397135853767395,0.004993081092834473,-0.051101237535476685,0.39387702957743576,-0.14902242310412223,0.7814558526900626,0.4604127783812894,0.6462433095192321,1.9101611763944497,0.8420927383819754
1782477459453741056,1.2287712097167969,1.2162550687789917,-0.7780322432518005,0.27123215794563293,0.7530897855758667,-0.6002314686775208,0.2694035470485687,0.04576897621154785,0.06106215715408325,-0.008920639753341675,0.3976284582139068,-0.1425180908928552,0.7838305719845177,0.4551812625221421,0.643790491725879,1.9143417476867048,0.8211302740099706
1782477459463661312,1.2386913299560547,0.7311711311340332,-0.815463125705719,0.2727900445461273,0.7536196112632751,-0.5997060537338257,0.26909178495407104,-0.0009339451789855957,-0.010828733444213867,-0.044680774211883545,0.4013805825254128,-0.1367644111653585,0.7847556259523861,0.45204850565954896,0.6431337318906993,1.9137519194402504,0.8062933324472777
1782477459473581056,1.2486112117767334,0.36628052592277527,-0.8121208548545837,0.4279322326183319,0.753770112991333,-0.6007754802703857,0.2662699222564697,0.015456080436706543,-0.14475375413894653,-0.06428930163383484,0.40472145287884764,-0.13155144974856653,0.7847478415103463,0.4506281004556744,0.6444707997727955,1.9103642588259249,0.7959862297908797
1782477459483500288,1.2585303783416748,0.0889926627278328,-0.5258660912513733,0.45703524351119995,0.7528355717658997,-0.6036174893379211,0.262459397315979,0.06910967826843262,-0.29117316007614136,-0.050590693950653076,0.40711499162681386,-0.12673946310164622,0.7843256989408579,0.45058613656323787,0.648030695787555,1.9062481396297775,0.7888325290691881
1782477459493420032,1.2684502601623535,-0.04828104004263878,-0.39683032035827637,0.5023430585861206,0.7511498928070068,-0.607111930847168,0.2592083513736725,0.1287481188774109,-0.37479114532470703,0.02420830726623535,0.408406597881288,-0.12282223707903739,0.7839125410894648,0.45122044530164696,0.6524209478967044,1.9030831922773992,0.784060669673302
1782477459503340288,1.2783703804016113,-0.021345430985093117,-0.5199376940727234,0.6156370639801025,0.7489473819732666,-0.6113361120223999,0.2556280195713043,0.27766382694244385,-0.3991008400917053,0.014787822961807251,0.409567411860396,-0.11856154821507474,0.7834265610036854,0.45215085801197963,0.6577478159358099,1.8997143617802246,0.7792645696905678
1782477459513259264,1.2882893085479736,0.318169504404068,-0.4956347346305847,0.8005470037460327,0.7459246516227722,-0.6163241267204285,0.2524699568748474,0.3794873356819153,-0.33890658617019653,-0.018674850463867188,0.4107646602977049,-0.11317060397016754,0.7832160596639481,0.4528106246261336,0.6640663220173194,1.8971589384841536,0.7718942379014496
1782477459523179008,1.2982091903686523,0.49247661232948303,-0.6003433465957642,0.9427052140235901,0.7419100403785706,-0.6216074824333191,0.2513435184955597,0.32408416271209717,-0.27141308784484863,-0.08078077435493469,0.4117057171135317,-0.10666123999938627,0.7837698276997662,0.4525777639411497,0.6707931853962059,1.8974399257796994,0.7603547362892173
1782477459533098240,1.3081283569335938,0.4942212402820587,-0.7527706623077393,1.0572307109832764,0.7371673583984375,-0.627930223941803,0.24957549571990967,0.2660980224609375,-0.24107307195663452,-0.029055476188659668,0.41294488534491813,-0.09889430949537499,0.7842242426038477,0.45242545985464633,0.6788908961887675,1.8972436086667828,0.7469582679851106
1782477459543017984,1.3180482387542725,0.0930008515715599,-0.7513673305511475,1.020516276359558,0.7325617671012878,-0.6347527503967285,0.2458508312702179,0.1896185278892517,-0.25846630334854126,-0.04040643572807312,0.4144403504763525,-0.09131897356788303,0.7839555238949909,0.45311579667612834,0.6876884748784385,1.8945893148277528,0.7360226561870941
1782477459552938240,1.3279683589935303,-0.27087509632110596,-0.5022592544555664,1.1414461135864258,0.7271362543106079,-0.6428998112678528,0.24073442816734314,0.17384964227676392,-0.31863290071487427,-1.1742115020751953e-05,0.41508464900182884,-0.08460658330770165,0.7830765848541403,0.45534346869222214,0.6982782016176593,1.8905102666380451,0.7295270613408581
1782477459562857216,1.3378872871398926,-0.6089365482330322,-0.5335021615028381,1.0905201435089111,0.7210284471511841,-0.6520907282829285,0.23429767787456512,0.21955370903015137,-0.40548062324523926,0.041703298687934875,0.41502564598150765,-0.07869617332907573,0.7816365830857922,0.45891695923432063,0.7103388539715368,1.8849823360667057,0.7271133433545951
1782477459572776960,1.3478071689605713,-0.8987800478935242,-0.5335996150970459,1.1685925722122192,0.7149561047554016,-0.6617914438247681,0.22554275393486023,0.34075361490249634,-0.3817722797393799,0.1161624938249588,0.4150696824033601,-0.07331593704614718,0.7793562396019249,0.46362231413865235,0.7232058305750503,1.8763790044447668,0.7285787077916884
1782477459582697216,1.357727289199829,-1.1363626718521118,-0.5856301784515381,1.368396520614624,0.7078038454055786,-0.6729503870010376,0.21482938528060913,0.4079188108444214,-0.3593372106552124,0.2062215805053711,0.4147394601119037,-0.0679153012131415,0.7764033760042484,0.4696557920865667,0.7381902630911792,1.8654751408710675,0.7331861116458751
1782477459592616192,1.3676462173461914,-1.229749083518982,-0.6683879494667053,1.4899616241455078,0.6990424990653992,-0.6857767105102539,0.2026081681251526,0.4776390790939331,-0.32266145944595337,0.2515391409397125,0.4139765203014295,-0.06194473626494554,0.7729598511396911,0.47678028566337927,0.7556703404500342,1.8529030936142088,0.73955058471177
1782477459602536192,1.3775663375854492,-1.606419324874878,-0.6823601722717285,1.4681646823883057,0.6902559399604797,-0.6986134052276611,0.18837742507457733,0.45802897214889526,-0.33133959770202637,0.2445906400680542,0.41265448967837914,-0.05754329005953121,0.7686855544355351,0.48531182546208534,0.7734576905685785,1.8372179963268063,0.7524582918811322
1782477459612455168,1.3874852657318115,-2.19742751121521,-0.5015909075737,1.6678361892700195,0.6802184581756592,-0.712823748588562,0.17083628475666046,0.44607841968536377,-0.3916988968849182,0.280442476272583,0.41057279245820405,-0.05393320784791137,0.7632230023264462,0.4959957880001512,0.7935162520081055,1.8168562358023128,0.7727468142412318
1782477459622375168,1.3974053859710693,-2.616295576095581,-0.42682555317878723,1.6872144937515259,0.6686098575592041,-0.7282223105430603,0.15050894021987915,0.4208218455314636,-0.5323672294616699,0.2576330900192261,0.4073593218571219,-0.05119791950163699,0.7567253407572403,0.5087276442312937,0.8157244724433094,1.7922128699974895,0.8006744766596782
1782477459632295168,1.407325267791748,-2.972761631011963,-0.3782398998737335,1.6945453882217407,0.6567783355712891,-0.7432000041007996,0.12765654921531677,0.44478416442871094,-0.5737250447273254,0.25298917293548584,0.40372759041817824,-0.049548051323122747,0.7492484654596725,0.5226622959839214,0.8378405252259062,1.7627704635799344,0.8356575347945595
1782477459642214144,1.4172441959381104,-3.1671228408813477,-0.01853099837899208,1.9063081741333008,0.6433868408203125,-0.7584891319274902,0.1036715880036354,0.4923096299171448,-0.5372415781021118,0.2613338232040405,0.39877518676686285,-0.04852598279911172,0.7412698718109311,0.5377198476204318,0.8609915725688049,1.7305572296593128,0.876445231334477
1782477459652134144,1.4271643161773682,-3.377185583114624,0.053894806653261185,1.89109468460083,0.6286840438842773,-0.7736022472381592,0.07934899628162384,0.5312128663063049,-0.48422563076019287,0.25761091709136963,0.39264433267631993,-0.04791063931216078,0.7330614348836925,0.5533137294152864,0.8845062890343741,1.696346876713806,0.921574164805718
1782477459662054144,1.4370841979980469,-3.944796562194824,-0.021327242255210876,2.029332399368286,0.6131568551063538,-0.7882785201072693,0.05153602361679077,0.576082706451416,-0.45671671628952026,0.3592153787612915,0.38600116607566537,-0.047870284018476546,0.7235167227143929,0.5702939849038987,0.9080062227308529,1.6546495475058287,0.9756886767621124
1782477459671973120,1.4470033645629883,-4.398015975952148,-0.13724765181541443,2.2179815769195557,0.5942279696464539,-0.8040542602539062,0.01974860019981861,0.6396893262863159,-0.5194473266601562,0.4836387634277344,0.3780969175760115,-0.047043672631114086,0.712503468465517,0.5892100553851372,0.9340831221158676,1.6040181464158936,1.039491822425656
1782477459681893120,1.456923246383667,-4.866330146789551,-0.10338585823774338,2.327100992202759,0.5757799744606018,-0.817410945892334,-0.017800282686948776,0.6144055724143982,-0.6297173500061035,0.5509271025657654,0.3705285590905963,-0.047278208806179244,0.6991885508787347,0.6095972153226648,0.9569021023172873,1.539891092883437,1.1174238105314203
1782477459691812096,1.4668421745300293,-5.201470375061035,0.1761949360370636,2.486910820007324,0.5557796359062195,-0.8292548060417175,-0.05869917571544647,0.590964138507843,-0.6334527134895325,0.5503525733947754,0.3617076434677737,-0.048083551464580446,0.6843525295919902,0.631282220701648,0.9777729466763319,1.465570515128938,1.207992666789191
1782477459701732096,1.476762294769287,-5.318042755126953,0.2625812292098999,2.496603488922119,0.5351529717445374,-0.8386991620063782,-0.10097116231918335,0.5966982245445251,-0.5938722491264343,0.5545844435691833,0.3517442648296185,-0.04958508735378472,0.6686222679532835,0.6532699739094103,0.9948901783149037,1.384311408385297,1.3078414833565954
1782477459711652096,1.4866821765899658,-5.459120273590088,0.42415255308151245,2.502506971359253,0.5148244500160217,-0.8451346158981323,-0.14388681948184967,0.6666788458824158,-0.5669595003128052,0.4829370975494385,0.3409908942497373,-0.05187572513168702,0.6522005063430635,0.6750323572903634,1.006816898363922,1.298263256285076,1.414364740681737
1782477459721571328,1.4966013431549072,-5.794515132904053,0.33535531163215637,2.527367353439331,0.49412521719932556,-0.8486186265945435,-0.1889088749885559,0.7135621309280396,-0.49690133333206177,0.4789021611213684,0.3295423637668918,-0.054475343898818585,0.6344903461509759,0.6970338338140011,1.0133685002616415,1.205632579896236,1.5285298057400554
1782477459731491072,1.506521224975586,-5.884055137634277,0.16153164207935333,2.4598822593688965,0.47383564710617065,-0.8481874465942383,-0.23676547408103943,0.6976578831672668,-0.4826383590698242,0.5705820322036743,0.3184346583105495,-0.057086415661329375,0.6151084484380545,0.719014677833269,1.012553935289674,1.1074059603185078,1.6472957243345199
1782477459741411328,1.5164413452148438,-6.0467329025268555,0.13931448757648468,2.515643835067749,0.4531644582748413,-0.8443125486373901,-0.28596946597099304,0.6182925701141357,-0.5339529514312744,0.6393020153045654,0.3072728138473116,-0.05925782293260422,0.594561831730466,0.7406539909599671,1.005280956934616,1.007858203806105,1.7664233087942693
1782477459751330048,1.526360273361206,-5.916416645050049,0.144566148519516,2.4302265644073486,0.43306466937065125,-0.8366669416427612,-0.3353259563446045,0.5237987041473389,-0.5093108415603638,0.7590625286102295,0.29586447239966757,-0.06163916758426057,0.5731820203792694,0.7616608570726353,0.9911692054860389,0.9119179735805987,1.882270933568445
1782477459761250304,1.5362803936004639,-5.246797561645508,0.028095699846744537,2.6710522174835205,0.41217994689941406,-0.8275210857391357,-0.38120391964912415,0.5590571761131287,-0.403817355632782,0.7512600421905518,0.2840688716934545,-0.06286200946986589,0.5526720669619846,0.7809652798779211,0.974677931530683,0.8244212928383114,1.988429496787038
1782477459771169280,1.5461993217468262,-4.599086284637451,-0.2183428406715393,2.6694135665893555,0.390015572309494,-0.818732738494873,-0.4213840365409851,0.6309499740600586,-0.3188557028770447,0.6594364643096924,0.2723681838003709,-0.062026331253105194,0.5342852351167674,0.7978142427938995,0.9592004388541636,0.7467577081509095,2.081615945008595
1782477459781089024,1.5561192035675049,-4.355395793914795,-0.33402585983276367,2.714246988296509,0.36697709560394287,-0.8094964623451233,-0.4583047330379486,0.6384092569351196,-0.23286187648773193,0.6084054708480835,0.2609686217064207,-0.05973852065676873,0.516990268948603,0.8130483892604565,0.9432939567303936,0.6751842249743925,2.1660930483397003
1782477459791009280,1.5660393238067627,-3.9268240928649902,-0.43582814931869507,2.8621015548706055,0.3429047465324402,-0.7998947501182556,-0.4925287663936615,0.60310959815979,-0.2905287742614746,0.6440943479537964,0.24943801975076046,-0.05633533800273079,0.5005616263679297,0.8270700904590796,0.9271198200006076,0.6081795711958708,2.244540534130237
1782477459800928000,1.575958251953125,-3.9275217056274414,-0.36255043745040894,2.873547315597534,0.3182801306247711,-0.7897732257843018,-0.5243625640869141,0.5150481462478638,-0.34638094902038574,0.6078586578369141,0.2374776976881096,-0.05237399878878336,0.48484603126663,0.8401105302659164,0.9104391655675242,0.5455395855701684,2.3184390579234857
1782477459810848256,1.5858783721923828,-4.296452522277832,-0.2225096970796585,2.9070446491241455,0.29437676072120667,-0.7767823338508606,-0.5567330121994019,0.39074286818504333,-0.3725554347038269,0.7079476118087769,0.22501123238304258,-0.04903900703090136,0.46821861777173374,0.8530747539689241,0.889540275837886,0.4863880920958367,2.39039944415882
1782477459820767232,1.5957973003387451,-4.9877095222473145,-0.036557406187057495,2.9404730796813965,0.2714066803455353,-0.7586358189582825,-0.5922921895980835,0.34359878301620483,-0.37829649448394775,0.7951578497886658,0.21168606962278022,-0.046889354714105956,0.4490604449383377,0.8667958704377757,0.8612167148244195,0.4296777459331881,2.4627339566772175
1782477459830686976,1.6057171821594238,-5.222940921783447,-0.005788383074104786,2.829578161239624,0.250222772359848,-0.7351635098457336,-0.6300183534622192,0.3952392339706421,-0.35997503995895386,0.7885266542434692,0.19794995086625342,-0.04593381764861986,0.4276457890428465,0.8808092267099216,0.8259078680157956,0.378062160702186,2.53220769281214
1782477459840607232,1.6156373023986816,-5.427233695983887,-0.3255693316459656,2.9221017360687256,0.22876492142677307,-0.707987904548645,-0.6681464910507202,0.49454742670059204,-0.3114060163497925,0.7548469305038452,0.1845157999798541,-0.044349872911097106,0.4049195576402269,0.8944423278198381,0.78664500132022,0.32987693888842795,2.5968008799506808
1782477459850526208,1.625556230545044,-5.620413303375244,-0.3637286424636841,2.8694770336151123,0.2062639594078064,-0.676785945892334,-0.7066937685012817,0.4249158501625061,-0.14601373672485352,0.7518750429153442,0.17094646262330457,-0.04192604519316105,0.3806511895477343,0.907812927619094,0.7433879387843274,0.2839831253738898,2.65800493070601
1782477459860446208,1.6354763507843018,-5.882087230682373,-0.21862152218818665,2.492400646209717,0.1866060495376587,-0.6410249471664429,-0.7444899082183838,0.1490262746810913,-0.08784162998199463,0.6521131992340088,0.15813014704107836,-0.04035411960568918,0.35514305418829495,0.92045631646245,0.6958328999430493,0.24558990305065545,2.7118649268818453
1782477459870366208,1.6453962326049805,-6.072829246520996,-0.16530141234397888,2.3339121341705322,0.1705182045698166,-0.6000939607620239,-0.7815438508987427,-0.05409364402294159,-0.050281405448913574,0.6645547151565552,0.14622671702125004,-0.03998960071386983,0.3280684593030193,0.932410639136159,0.6436185484449897,0.2148148517409851,2.7586089581281885
1782477459880284928,1.6553151607513428,-5.760858535766602,-0.20093904435634613,2.043710231781006,0.15653233230113983,-0.5570997595787048,-0.8155596256256104,-0.11859898269176483,-0.015730440616607666,0.5929644107818604,0.13502871959673135,-0.03988316023395903,0.3010473753122627,0.9431580360423363,0.590889300035749,0.18962637079217293,2.799321498268124
1782477459890205184,1.6652352809906006,-5.480180740356445,-0.30489227175712585,1.8136166334152222,0.14430315792560577,-0.5141003131866455,-0.8455042839050293,-0.15927202999591827,-0.014815092086791992,0.5021967887878418,0.12531708798515884,-0.039559604335774656,0.27510522656766256,0.9523906205168154,0.5399583714535773,0.1690423512444069,2.8330495024404825
1782477459900124928,1.6751551628112793,-5.022888660430908,-0.17072045803070068,1.8340033292770386,0.1334957480430603,-0.47216665744781494,-0.8713423609733582,-0.2084926813840866,0.03846609592437744,0.5134170055389404,0.11599001438676286,-0.039240403591474425,0.2505773252808946,0.9603216425198559,0.49174707091892916,0.15202489199961566,2.862972494404459
1782477459910044160,1.6850743293762207,-3.859529495239258,-0.01660918816924095,2.04536509513855,0.12414274364709854,-0.43577003479003906,-0.8914555907249451,-0.34800443053245544,0.13480567932128906,0.47652333974838257,0.10599588236182338,-0.03902704348919067,0.22967172541143246,0.966691591838765,0.4508936444251096,0.13836859684185643,2.891386742936586
1782477459919964160,1.6949942111968994,-2.0655148029327393,0.12216908484697342,2.1508665084838867,0.11581837385892868,-0.41255077719688416,-0.9035419225692749,-0.4897502660751343,0.29876595735549927,0.3912585973739624,0.09513847876780278,-0.03845618068700979,0.21621788232001682,0.9709374712342392,0.4252524526357187,0.1274874210759278,2.918685043131655
1782477459929883136,1.7049133777618408,-0.7173663973808289,0.008824153803288937,2.0117106437683105,0.1082245483994484,-0.40338945388793945,-0.9086057543754578,-0.6531769037246704,0.45964860916137695,0.29335612058639526,0.08475469093745822,-0.037270688871399386,0.2104946993591111,0.9732007087007842,0.41521803671375945,0.1185520285345748,2.9428535511793212
1782477459939803136,1.7148332595825195,0.11756891012191772,-0.16216711699962616,1.900679349899292,0.09978169947862625,-0.40383180975914,-0.9093753099441528,-0.7318312525749207,0.5518115758895874,0.2871219515800476,0.07528402392434257,-0.03498678847069814,0.20997206825896697,0.9741765046272495,0.415701536492717,0.10928834215838623,2.96426941872
1782477459949723136,1.7247533798217773,0.28482314944267273,-0.12235338985919952,1.6828693151474,0.09099899232387543,-0.4085114002227783,-0.9082056879997253,-0.8041490316390991,0.6131622791290283,0.3023555278778076,0.06676944698581552,-0.03217796626451328,0.21180586383793493,0.9744971116916695,0.420822570524619,0.09986315719423387,2.9834278734189312
1782477459959642112,1.7346723079681396,-0.1457018107175827,0.06670430302619934,1.1475403308868408,0.08478853851556778,-0.411763072013855,-0.9073379039764404,-0.9364273548126221,0.668721079826355,0.29489588737487793,0.05984890996304087,-0.030409852846069386,0.21308752889165852,0.974724032131467,0.4243879218349958,0.0931769998090645,2.9988572049608817
1782477459969562112,1.7445921897888184,-0.846860408782959,0.2367229163646698,0.6399588584899902,0.08245664834976196,-0.4092676639556885,-0.9086808562278748,-1.0676860809326172,0.680889368057251,0.27786725759506226,0.055272631927522985,-0.030283664142705564,0.21152415550376774,0.9753386828906961,0.4216512853261613,0.09049540000731321,3.008994241258723
1782477459979482112,1.7545123100280762,-1.6442310810089111,0.25021854043006897,0.37623295187950134,0.082573801279068,-0.4001646339893341,-0.9127156138420105,-1.083931803703308,0.5390806198120117,0.19666647911071777,0.052452168968765436,-0.031183993877120286,0.20656654708952843,0.9765278296036448,0.41169647650836744,0.09022483309440806,3.0154182237923806
1782477459989401088,1.7644312381744385,-1.6679636240005493,0.31830307841300964,0.425006628036499,0.08320549875497818,-0.3874625861644745,-0.9181228876113892,-1.0189507007598877,0.5560111999511719,0.13595736026763916,0.04983854306048596,-0.03235891858759265,0.199728491926252,0.9780478413569781,0.39787759047333815,0.09037877761972643,3.021533644333956
1782477459999321344,1.7743513584136963,-1.6566729545593262,0.4206714630126953,0.2713813781738281,0.0841599777340889,-0.37683388590812683,-0.9224496483802795,-1.0621262788772583,0.6734647750854492,0.02773529291152954,0.04734171607759821,-0.033590461490345135,0.1940279973510962,0.9792771188724462,0.38637582815190163,0.09098342184812315,3.0271701240585753
1782477460009240064,1.7842702865600586,-1.0303480625152588,0.5353708863258362,-0.10924771428108215,0.08480712026357651,-0.3723743259906769,-0.9241997003555298,-1.177687406539917,0.7607715129852295,0.15491259098052979,0.04549780557552351,-0.03437935513446068,0.19161994270033197,0.9798111003117083,0.3815660221347261,0.09150649870248867,3.031104041428294
1782477460019160064,1.7941901683807373,-0.10672817379236221,0.3114403784275055,-0.460862398147583,0.08868185430765152,-0.3688790798187256,-0.9252371191978455,-1.286481499671936,0.8065164089202881,0.13786834478378296,0.046476449571185435,-0.03623796505724251,0.18991642904439962,0.9800297787984328,0.3778027722514307,0.09555579941362148,3.0285347837231376
1782477460029080064,1.8041102886199951,0.4397498369216919,0.3018604516983032,-0.4347061812877655,0.09225662797689438,-0.37116989493370056,-0.9239705801010132,-1.2598439455032349,0.8969725370407104,0.16516625881195068,0.04846229124110744,-0.037624178411908404,0.19130898789777606,0.9796105562163449,0.38026860533376744,0.09951816966469434,3.0235629067924714
1782477460038999040,1.8140292167663574,0.0026605692692101,0.4303012788295746,-0.5450294017791748,0.09700438380241394,-0.373209685087204,-0.9226617217063904,-1.1800885200500488,0.8647410869598389,0.3001641631126404,0.050324269979644065,-0.03963436821207857,0.19260903959432796,0.9791825396340443,0.3824662689622468,0.1047505461939867,3.018597241006303
1782477460048919296,1.8239493370056152,-0.2331937700510025,0.643343985080719,-0.7184019684791565,0.10421929508447647,-0.3715302646160126,-0.922552764415741,-1.2102068662643433,0.8359315395355225,0.27196377515792847,0.0528937495863072,-0.04284983140637188,0.1920612158925311,0.979019238127847,0.38065673291058966,0.11249146796639281,3.011948365098365
1782477460058839040,1.833869218826294,-0.68769371509552,-0.23371726274490356,-1.413356065750122,0.1110064685344696,-0.3658024072647095,-0.9240487813949585,-0.9500110149383545,0.6858402490615845,0.158133864402771,0.05634157511060702,-0.045782953064279396,0.18941892274199365,0.9792088966556509,0.37449483373395237,0.11955760156088258,3.003965436400672
1782477460068758272,1.8437883853912354,-0.9742839336395264,-0.7766788005828857,-1.9048688411712646,0.1128695160150528,-0.35585832595825195,-0.9276989102363586,-0.8597567081451416,0.565330982208252,-0.13196289539337158,0.0644268850026834,-0.04546606874129845,0.18461682055900333,0.9796420567350874,0.36383235797656827,0.12107105860627002,2.987952971606847
1782477460078678016,1.853708267211914,-0.2740972638130188,-0.5646969676017761,-1.2888884544372559,0.11031913757324219,-0.34848377108573914,-0.9308000206947327,-0.6732158660888672,0.475818395614624,-0.45247018337249756,0.07239303743558763,-0.04292076151164556,0.1809911181580119,0.9798770905622576,0.3559529867758187,0.1179704373554869,2.9728568079533066
1782477460088596992,1.8636271953582764,-0.13173159956932068,0.9937154054641724,-0.8828062415122986,0.11443410068750381,-0.3470139801502228,-0.9308523535728455,-0.8556908369064331,0.2755418121814728,-0.522623598575592,0.0771471468385967,-0.04418786008876493,0.18061352727574306,0.9795277143483945,0.3543853513277894,0.12232100339435656,2.962467503593223
1782477460098517248,1.8735473155975342,-0.3334396779537201,0.5216374397277832,-1.4657104015350342,0.12550421059131622,-0.343024343252182,-0.9309043884277344,-0.9076544642448425,0.5858374834060669,-0.07562637329101562,0.08208969884204805,-0.04905852620582821,0.17927928162292142,0.9791391947964623,0.35013470614425724,0.13401161308324364,2.9505684678105015
1782477460108436992,1.883467197418213,0.18071313202381134,0.11100572347640991,-1.5209637880325317,0.13355936110019684,-0.3393549621105194,-0.9311283826828003,-0.41984477639198303,0.6602168083190918,-0.11682993173599243,0.0887749235606189,-0.052081831869242055,0.1781103173566458,0.9786128697388023,0.3462310975044721,0.1424664237280741,2.935704306450277
1782477460118356224,1.8933863639831543,0.5382731556892395,0.9028010964393616,-1.3494203090667725,0.1432538777589798,-0.3409087657928467,-0.9291176199913025,0.0366777628660202,0.7505462169647217,-0.00876384973526001,0.09511400317463728,-0.05577985406864834,0.1798049127813837,0.9775029261900684,0.34788340188746286,0.15297808772091245,2.9206654024368057
1782477460128276224,1.903306245803833,-0.04166002199053764,1.660083532333374,-1.381295084953308,0.16035601496696472,-0.3413849472999573,-0.9261437654495239,0.14254620671272278,0.7252350449562073,0.14696896076202393,0.10136337084536805,-0.06329834861649428,0.18144265180221789,0.9761133970409022,0.3483899625922577,0.1714440142590745,2.904404423912635
1782477460138196224,1.9132263660430908,-0.14517389237880707,2.1428160667419434,-1.5800833702087402,0.18147942423820496,-0.3384667932987213,-0.923312246799469,0.6807184219360352,0.3210107386112213,0.133791983127594,0.10628857777630127,-0.07328114015389282,0.1815867919799583,0.9748635619609908,0.3452870482149423,0.19407857812372492,2.890445568147864
1782477460148115200,1.9231452941894531,-0.4710327088832855,0.6469149589538574,-1.51545250415802,0.20092476904392242,-0.33392342925071716,-0.9209367036819458,1.0090209245681763,0.030197232961654663,0.1513749361038208,0.11258695286647045,-0.08225890729850643,0.18101139766797456,0.9735464259379716,0.34046288041477585,0.2148082815088213,2.8742603020572908
1782477460158034944,1.9330651760101318,-0.17512986063957214,0.6518784165382385,-1.2672652006149292,0.21019919216632843,-0.3270670175552368,-0.9213270545005798,1.1167813539505005,0.2810770273208618,0.09008920192718506,0.11818034342071873,-0.08632963019000263,0.17856002368803198,0.9729835687162707,0.33319820935716876,0.22430901006618204,2.861979505940302
1782477460167954176,1.9429843425750732,-0.20114867389202118,-0.25405174493789673,-2.2948715686798096,0.2153932899236679,-0.32307010889053345,-0.9215375185012817,0.6268460750579834,0.39525946974754333,-0.17186152935028076,0.12618649296671347,-0.08774329373854847,0.17757349672450712,0.9720317676502719,0.3289717854615849,0.22961047620036748,2.8451264074777285
1782477460177874176,1.952904224395752,-1.4040617942810059,-0.1453501582145691,-1.2557450532913208,0.21921281516551971,-0.3128966987133026,-0.9241436123847961,0.2958323359489441,0.3301238715648651,0.16793328523635864,0.13504510517992271,-0.08872134740232647,0.1733687506064461,0.9715114724166645,0.31824134032090723,0.23290190004200875,2.8278115013543976
1782477460187794176,1.9628243446350098,-1.026114821434021,0.3214881122112274,-1.5920186042785645,0.22425350546836853,-0.2982047498226166,-0.9277846217155457,0.26802554726600647,0.20041117072105408,0.29787129163742065,0.14088548574362225,-0.09123231586815374,0.16668639901707263,0.9716191055464962,0.30281128824346265,0.2371598873901284,2.8172475926452516
1782477460197713152,1.972743272781372,-1.596828579902649,0.2906808853149414,-1.210692048072815,0.2301018238067627,-0.28351256251335144,-0.9309531450271606,0.048538938164711,0.33667418360710144,0.047820210456848145,0.14681918726651355,-0.09421858237164739,0.16014454595722394,0.9715558717172724,0.28745498488286053,0.24231146604300374,2.8063895695727115
1782477460207633152,1.9826633930206299,-2.4997506141662598,0.8277912139892578,-1.45867919921875,0.2380957454442978,-0.2629193067550659,-0.9349780082702637,0.03850032389163971,0.10142028331756592,0.12891721725463867,0.15247625725097969,-0.09885046614451826,0.1507965069113484,0.9717200997423968,0.2660467087566544,0.24935393507788708,2.79676562947137
1782477460217553152,1.9925832748413086,-2.699136972427368,0.4174083471298218,-1.5176979303359985,0.24877460300922394,-0.23224753141403198,-0.9403043389320374,0.14986126124858856,-0.21758157014846802,0.28654152154922485,0.15843875134516036,-0.10567715758360344,0.13667537242608796,0.9721365254760279,0.2343877598152228,0.25864218881480994,2.787854446053056
1782477460227472128,2.002502202987671,-2.366270065307617,0.42675524950027466,-1.3350796699523926,0.2555108070373535,-0.205612450838089,-0.9446892142295837,0.3557104766368866,0.07258634269237518,-0.10362005233764648,0.16382244786958086,-0.11043798326672799,0.12433356016385316,0.9723717824115691,0.20708948728003834,0.2641505540830127,2.780164667641776
1782477460237392128,2.0124223232269287,-1.882373571395874,0.7097610235214233,-1.1593255996704102,0.2637646198272705,-0.18212266266345978,-0.9472378492355347,0.08349490165710449,0.36159655451774597,-0.05668365955352783,0.1689578744600663,-0.11588067353800735,0.11381009564580943,0.9721482671748191,0.18314479518216895,0.27157691720051613,2.772341701943682
1782477460247311104,2.022341251373291,-1.4918396472930908,0.15914206206798553,-0.8407991528511047,0.270635187625885,-0.16358311474323273,-0.9486818313598633,0.46071857213974,0.07784397900104523,-0.06796550750732422,0.17217002863449204,-0.1205334579707579,0.10550251180866008,0.9719560307540575,0.16432160037593888,0.27789346040561036,2.7679237319434016
1782477460257231360,2.032261371612549,-0.10184773057699203,-0.5416374206542969,-1.6776840686798096,0.27159520983695984,-0.15206167101860046,-0.9503227472305298,0.47443750500679016,0.27213308215141296,-0.13947522640228271,0.1789058376797151,-0.1212917218101255,0.10063276563107455,0.9711611532625092,0.15265386819751353,0.27837205316731467,2.7558142312817284
1782477460267151104,2.0421812534332275,0.8039111495018005,0.22599850594997406,-0.6922934055328369,0.2713527977466583,-0.15142956376075745,-0.9504929184913635,0.3465060889720917,0.34025704860687256,-0.3093337416648865,0.18473839927282593,-0.12061971038603819,0.10101702829442746,0.9701124104845217,0.1520143522614486,0.27808896979260794,2.743924679203086
1782477460277070080,2.05210018157959,1.649717092514038,0.5369232296943665,-0.04807940125465393,0.27710258960723877,-0.16180594265460968,-0.9471182823181152,0.37710273265838623,0.23459036648273468,-0.42652368545532227,0.18740220002359137,-0.12229100322691736,0.10717173584989736,0.968730899332055,0.1625204328454778,0.2846305000270713,2.7360741151878045
1782477460286990080,2.0620203018188477,1.3763701915740967,0.8005213141441345,-0.05825107917189598,0.28300392627716064,-0.17686539888381958,-0.9426703453063965,0.41192707419395447,-0.3300926089286804,-0.27598804235458374,0.18795607190569658,-0.12382763535037103,0.1154622857090452,0.9674748403255314,0.17780072665159455,0.2916541651106609,2.7316422722045552
1782477460296910080,2.0719401836395264,0.8797675371170044,0.8511158227920532,-0.026996389031410217,0.2905411124229431,-0.1864170879125595,-0.9385278224945068,0.239076167345047,-0.6156764030456543,0.06477910280227661,0.18871332899658186,-0.12667230553166767,0.12120314549841375,0.9662562444398101,0.18751403670306574,0.3002143378089991,2.727399123048191
1782477460306829312,2.0818593502044678,2.0069432258605957,0.7621579766273499,0.13005182147026062,0.298271507024765,-0.19926397502422333,-0.9334495067596436,0.2765423357486725,0.10446111857891083,0.08246684074401855,0.1888583910765007,-0.12939226094377904,0.12858028460031376,0.9649131127816298,0.20060677784625583,0.3092827543873355,2.7236533834441388
1782477460316749056,2.0917792320251465,2.274245262145996,0.8955779075622559,0.14756649732589722,0.305420458316803,-0.2203182727098465,-0.9263790845870972,0.07798713445663452,0.1840328872203827,-0.03381073474884033,0.18900295022807648,-0.13107218226476347,0.1401090398641434,0.9630511266366047,0.22214075533819147,0.3184704615907684,2.7181916716431407
1782477460326669312,2.1016993522644043,1.992956280708313,1.1999447345733643,0.40695226192474365,0.31412631273269653,-0.24058246612548828,-0.9183924794197083,0.10459011793136597,-0.18205547332763672,0.23379164934158325,0.18806810624614145,-0.13379923655972212,0.15133250011954338,0.9611590380860001,0.24296589422781228,0.32956535850669916,2.7145418708023676
1782477460336588032,2.1116182804107666,1.3910452127456665,0.7318906188011169,0.7451662421226501,0.3209334909915924,-0.25731921195983887,-0.9114760160446167,0.10286411643028259,-0.36177563667297363,0.2271498441696167,0.18589103517282432,-0.13612152306906877,0.1604148485501567,0.9597825954300081,0.26024697447708,0.3385471474022258,2.7142455180162726
1782477460346508032,2.1215381622314453,1.10732102394104,0.4741184413433075,-0.03921324014663696,0.32592278718948364,-0.2696671485900879,-0.9061203002929688,0.32843512296676636,-0.3199324607849121,0.30326080322265625,0.18451931602635785,-0.13781268995162285,0.1671751111118904,0.9586515582540472,0.2730473645932137,0.345281479015694,2.7133857300460176
1782477460356427264,2.1314573287963867,-0.03893774002790451,-0.11386550962924957,0.6792463660240173,0.32542386651039124,-0.27521467208862305,-0.9046304225921631,0.28533968329429626,-0.44661760330200195,0.3457162380218506,0.18284016931834063,-0.13736315061443266,0.16975319970541108,0.9585847919192971,0.27881298591937487,0.34531766931295177,2.715709821374929
1782477460366347008,2.1413772106170654,-0.22509323060512543,-0.10686831176280975,0.30409833788871765,0.3243313431739807,-0.2762014865875244,-0.9047220349311829,0.2699985206127167,-0.3735787868499756,0.27862340211868286,0.18071056746059513,-0.1370936152749593,0.16983618718659296,0.959012362597584,0.27983958388952535,0.344215766315355,2.7201384281787258
1782477460376268032,2.1512982845306396,-0.21139374375343323,-0.5216034650802612,0.03641001507639885,0.3214918375015259,-0.27427661418914795,-0.9063196778297424,0.19185960292816162,-0.005935788154602051,0.12583261728286743,0.1800821079581564,-0.13591329178555034,0.16842725990748159,0.9595469484769014,0.2778373968205112,0.3408755999999062,2.722441808911515
1782477460386187008,2.161217212677002,-0.17144018411636353,-0.30293235182762146,0.27941492199897766,0.3161359429359436,-0.2729238271713257,-0.9086092114448547,0.24451777338981628,0.017598509788513184,0.0036256909370422363,0.17943688348607612,-0.13339626792552292,0.1670354269844554,0.960264111012905,0.2764309392111981,0.33483299793717486,2.725122125485523
1782477460396107264,2.1711373329162598,0.23594050109386444,-0.4248870313167572,0.2874215245246887,0.3121171295642853,-0.27401530742645264,-0.9096694588661194,0.10514971613883972,0.03980815410614014,-0.07263034582138062,0.17852111999192255,-0.13140322312664676,0.16702834813373837,0.960710632739817,0.277565683478324,0.3305240286999323,2.7275554800257713
1782477460406027008,2.1810572147369385,0.40839293599128723,-0.3485376536846161,-0.06016173213720322,0.3077561557292938,-0.2773890793323517,-0.910132646560669,0.15611103177070618,0.16201737523078918,-0.13277506828308105,0.17815001048492696,-0.12894708636924643,0.16824483795432996,0.9609000157681805,0.2810754809011698,0.3260741445535497,2.7284227903489846
1782477460415946240,2.19097638130188,0.5724197626113892,-0.46133527159690857,0.09123754501342773,0.30480456352233887,-0.28171882033348083,-0.9097959399223328,0.09222909808158875,0.024989724159240723,-0.15267348289489746,0.17923923890479254,-0.12687386024195682,0.17030867224624624,0.9606098319741526,0.28558501724500207,0.32327243648657356,2.725779483922383
1782477460425866240,2.2008962631225586,0.0639520213007927,-0.2364179790019989,0.00593969039618969,0.3021351099014282,-0.2845710813999176,-0.9097986817359924,0.21072804927825928,-0.1453758180141449,-0.11237233877182007,0.17926762198818108,-0.125258332535126,0.17149637031570383,0.9606052334848542,0.2885589954220443,0.32063120215041807,2.725619492750662
1782477460435785216,2.2108154296875,-0.09934176504611969,-0.10211339592933655,-0.09932717680931091,0.3001178205013275,-0.2847989499568939,-0.9103949069976807,0.11035886406898499,-0.2568422853946686,-0.08020567893981934,0.1799327762750735,-0.12408917122372046,0.1714771944824445,0.960636101772595,0.28879668500390665,0.3184379751878088,2.7245808911044893
1782477460445705216,2.2207353115081787,-0.36887043714523315,-0.17617298662662506,-0.20223252475261688,0.29849353432655334,-0.28198760747909546,-0.9118029475212097,0.20007213950157166,-0.23221832513809204,-0.028260529041290283,0.18029116834404407,-0.12344007357364228,0.16988549512362847,0.9609352547823823,0.28586516632369924,0.3163706388544062,2.72475822452137
1782477460455625216,2.2306554317474365,-0.6348996758460999,0.015213952399790287,-0.46358633041381836,0.29816684126853943,-0.27714070677757263,-0.9133945107460022,0.10011810064315796,-0.19075477123260498,-0.09748494625091553,0.18144399579224604,-0.12349374088430276,0.16748739637260424,0.9611323705485637,0.2808169817707115,0.3155321122876585,2.7234584563945647
1782477460465544192,2.240574359893799,-0.6326303482055664,-0.15037287771701813,-0.15016663074493408,0.29776185750961304,-0.27035075426101685,-0.9155590534210205,0.13114744424819946,-0.07805317640304565,-0.08764529228210449,0.18289306108523057,-0.12363447458604233,0.16411886568263903,0.9614206217597284,0.27375732799584374,0.31443458543145,2.7219570733009983
1782477460475464192,2.2504942417144775,-0.5466423630714417,-0.1070689707994461,-0.21557632088661194,0.29613494873046875,-0.2651435136795044,-0.9176072478294373,0.21091458201408386,-0.12418445944786072,-0.16921526193618774,0.18328710905214624,-0.12319953331496764,0.16130177691802952,0.9618781083463468,0.2683527703222926,0.31217301304831085,2.722526112364089
1782477460485384192,2.2604143619537354,-0.5906298160552979,-0.0020213788375258446,0.036138471215963364,0.29621732234954834,-0.25927746295928955,-0.9192553758621216,0.09019622206687927,-0.09133896231651306,-0.09438592195510864,0.18370897886450296,-0.12369191995861345,0.15834332489353378,0.9622259258008107,0.26227401661221855,0.31173006807817377,2.7228459772014952
1782477460495303168,2.2703332901000977,-0.25239816308021545,-0.38564106822013855,-0.12210159748792648,0.2951120138168335,-0.2548360824584961,-0.9208515286445618,0.264443039894104,-0.011826515197753906,-0.10162472724914551,0.1840320401221128,-0.1234715716080483,0.15597762659250652,0.9625788483842913,0.25767818054780844,0.31013585391935605,2.7232792211654275
1782477460505223168,2.2802534103393555,-0.3561604917049408,-0.5455238819122314,0.2819334864616394,0.29032981395721436,-0.25320184230804443,-0.9228203892707825,0.27343666553497314,-0.060656189918518066,-0.10142582654953003,0.18384706671032325,-0.12121443631232325,0.15458614154794287,0.9631253800037272,0.25598851562679853,0.30480727203847924,2.724829528569515
1782477460515143168,2.290173292160034,-0.09348414093255997,-0.495206743478775,-0.014156490564346313,0.2867272198200226,-0.25104302167892456,-0.9245349764823914,0.19494697451591492,0.01422661542892456,0.05673712491989136,0.1838467800285915,-0.11957610991070357,0.15308191915564676,0.963570321389878,0.253757634237702,0.30072544222165826,2.7258808823861735
1782477460525062144,2.3000922203063965,-0.26563113927841187,-0.33590149879455566,0.1621311902999878,0.28220584988594055,-0.2501893937587738,-0.9261561036109924,0.21262142062187195,-0.043450742959976196,-0.05141347646713257,0.18323184219024644,-0.11745374180095725,0.1520742182622776,0.9641079638179739,0.25287587039667525,0.29576914072832816,2.7280970279058856
1782477460534982144,2.3100123405456543,-0.3956895172595978,-0.2711491286754608,0.061300188302993774,0.2786422669887543,-0.2476494312286377,-0.9279161095619202,0.13256683945655823,-0.0777289867401123,0.025526583194732666,0.18255096240977384,-0.11597791152105236,0.15030329769032788,0.96469336345211,0.25025335368146917,0.2917211923294658,2.730599225595223
1782477460544901120,2.3199312686920166,-0.2171335071325302,-0.7188196182250977,0.2366522252559662,0.27418434619903564,-0.24528169631958008,-0.9298709034919739,0.12832722067832947,-0.002856716513633728,0.014252007007598877,0.18256066310705962,-0.11392646505906771,0.148611314470958,0.9651979550086223,0.2478102497942094,0.2867371410659816,2.7317689018534947
1782477460554821376,2.3298513889312744,-0.28148573637008667,-0.536812961101532,-0.09055126458406448,0.26855555176734924,-0.24337534606456757,-0.9320119619369507,0.21969518065452576,0.033933207392692566,-0.045191407203674316,0.1826320096313075,-0.11123450829075146,0.14704043106622802,0.9657388404437547,0.24584432271396556,0.2805464221525156,2.7328990148573946
1782477460564741120,2.339771270751953,-0.3096260130405426,-0.4106521010398865,0.07165894657373428,0.2637299597263336,-0.24068161845207214,-0.9340871572494507,0.10492238402366638,-0.060481101274490356,-0.045649170875549316,0.1828670838936582,-0.10899790306429309,0.1451753010643368,0.966231446592603,0.24306805871491738,0.27517706230355543,2.7336816503041983
1782477460574660352,2.3496904373168945,-0.37187474966049194,-0.3650576174259186,-0.07988996803760529,0.25967082381248474,-0.237810879945755,-0.9359578490257263,0.07001054286956787,-0.0656253844499588,-0.08471781015396118,0.1828818301482691,-0.10720056028432402,0.14327990010495134,0.966712552140716,0.24011145609327844,0.27063194922729067,2.734807856586568
1782477460584580096,2.3596103191375732,-0.25225698947906494,-0.34698620438575745,-0.06882346421480179,0.25704410672187805,-0.2349616289138794,-0.9374013543128967,0.11772701144218445,-0.040703654289245605,-0.052832961082458496,0.1835244539028498,-0.10603441281608947,0.14161925576992052,0.9669640188122237,0.23717909688796154,0.2676308963607448,2.7343886195596223
1782477460594500352,2.369530439376831,-0.13461360335350037,-0.4257163405418396,-0.05590813234448433,0.2536308169364929,-0.23287838697433472,-0.9388498663902283,0.15420609712600708,-0.013551071286201477,-0.09754234552383423,0.18415892973564607,-0.10440707294435007,0.14026486504438382,0.9672178756564564,0.23503639495553813,0.26385217259568855,2.7339650073782105
1782477460604419328,2.3794493675231934,-0.20202699303627014,-0.2982063293457031,0.11079935729503632,0.25017455220222473,-0.2315657138824463,-0.9401010870933533,0.14379215240478516,-0.009690999984741211,-0.10918480157852173,0.1841667929002717,-0.10278180108125651,0.13923132862284657,0.9675397933078586,0.2336868341377731,0.26008682416306084,2.7347026992515096
1782477460614339072,2.389369249343872,-0.20561954379081726,-0.3353492319583893,-0.10862390697002411,0.24696290493011475,-0.23021864891052246,-0.9412803649902344,0.17077696323394775,-0.02757859230041504,-0.07249832153320312,0.1839516291703672,-0.10131595693430924,0.13818429932241533,0.9678853342539804,0.23230235478092776,0.25658589737402815,2.7358616839289804
1782477460624258304,2.3992884159088135,0.06568334251642227,-0.48284947872161865,-0.00958467461168766,0.24371884763240814,-0.22942067682743073,-0.9423201680183411,0.13053348660469055,0.030247703194618225,-0.045335471630096436,0.1851135699680902,-0.09958938205303125,0.13755680173844773,0.9679324055542732,0.23148244556478362,0.2530909217056592,2.734082963743143
1782477460634178048,2.409208297729492,-0.3316180109977722,-0.08913923799991608,-0.2637077867984772,0.2404453307390213,-0.22829076647758484,-0.9434348940849304,0.1288173645734787,-0.10168054699897766,0.02334517240524292,0.18541983609881613,-0.09800189666061646,0.13666817813223212,0.9681615821873347,0.23032172845716312,0.2495490300955009,2.7341256817735418
1782477460644098304,2.41912841796875,-0.2874968945980072,-0.20751674473285675,-0.002523336559534073,0.23922552168369293,-0.22563573718070984,-0.9443832039833069,-0.031095638871192932,-0.11825159192085266,0.12187343835830688,0.18632037229353202,-0.09750426855011318,0.13528234257140226,0.9682335329144429,0.22759555321206523,0.24809531050683156,2.7328741473627867
1782477460654017280,2.4290473461151123,-0.3585963845252991,-0.17969919741153717,-0.12628282606601715,0.23721416294574738,-0.2229248732328415,-0.9455336928367615,0.15469257533550262,-0.04558403789997101,0.059303224086761475,0.18630568441791281,-0.0967434713384385,0.13369315924680938,0.9685334605501129,0.22481382817969842,0.24580541303564973,2.7336320798612026
1782477460663937024,2.438967227935791,-0.5386604070663452,-0.15696299076080322,-0.18139907717704773,0.2351577877998352,-0.21818232536315918,-0.9471521973609924,0.05468292534351349,-0.03279423713684082,0.08744150400161743,0.18690848448376976,-0.09606283668619696,0.13113286831575974,0.9688350652231601,0.21995153260226313,0.2433580233589639,2.7334299830022553
1782477460673857280,2.448887348175049,-0.5205929279327393,-0.1596655547618866,-0.1986181139945984,0.23412831127643585,-0.21304701268672943,-0.9485751986503601,0.10605114698410034,-0.009365081787109375,0.08952063322067261,0.18777182682958013,-0.09590307328828739,0.1285107003236474,0.9690352987512528,0.2146925217434464,0.24198445705627045,2.7325900079662673
1782477460683776256,2.458806276321411,-0.18451371788978577,-0.14936791360378265,-0.13171792030334473,0.23318646848201752,-0.20899342000484467,-0.9497082829475403,0.10740497708320618,0.13456104695796967,0.12429934740066528,0.18843113137752177,-0.09571860095974792,0.12642706864876968,0.9691996867531941,0.210545538295371,0.2407717584560202,2.731982157463125
1782477460693696256,2.468726396560669,-0.06976928561925888,-0.18624870479106903,-0.07402824610471725,0.23178164660930634,-0.20781145989894867,-0.9503113627433777,0.14248593151569366,0.13307391107082367,0.052972495555877686,0.1889712911773916,-0.09505351625446441,0.12573445651225362,0.9692499651070972,0.20933704518495622,0.23922999442405202,2.731239693210676
1782477460703616256,2.4786462783813477,0.049645520746707916,-0.24590589106082916,0.13517796993255615,0.22924190759658813,-0.20799273252487183,-0.9508875608444214,0.17284244298934937,0.13778704404830933,0.07819163799285889,0.1888517170920534,-0.09377902870640116,0.12554565017285368,0.969421848643079,0.20952236200764293,0.23656782570805235,2.7318052924812823
1782477460713534976,2.48856520652771,0.35303476452827454,-0.32500794529914856,0.025753773748874664,0.22717231512069702,-0.2098846435546875,-0.9509685635566711,0.11674551665782928,0.0875701755285263,0.030726253986358643,0.18904033184428565,-0.09254149847028027,0.12630042948806622,0.9694059988664359,0.21145696699446528,0.23449063625365288,2.731415344397211
1782477460723455232,2.4984853267669678,0.08215826004743576,-0.255858451128006,0.08869492262601852,0.2241341918706894,-0.2120555192232132,-0.9512078166007996,0.1898977905511856,-0.035625144839286804,0.03699272871017456,0.18892344102114392,-0.09083282225293485,0.12706490077383065,0.9694904559667504,0.2136778353043025,0.23140998805638344,2.731750697838455
1782477460733374208,2.50840425491333,0.20042990148067474,-0.30078840255737305,0.1203012466430664,0.22146840393543243,-0.21363607048988342,-0.9514785408973694,0.09393076598644257,-0.05015787482261658,0.037019312381744385,0.18880209181775473,-0.08936673603563998,0.12757086158408829,0.9695839727650604,0.21529545563201252,0.2286903870994773,2.7321357581126318
1782477460743294208,2.518324375152588,-0.09208665043115616,-0.30004218220710754,-0.107539102435112,0.21876488626003265,-0.21421776711940765,-0.951973021030426,0.16244544088840485,0.005172371864318848,-0.0486525297164917,0.1887698934056427,-0.08796346591972294,0.12757705810389738,0.969717723488079,0.21589092943234414,0.2258798980675675,2.73249078404568
1782477460753214208,2.5282442569732666,-0.014295710250735283,-0.2948497235774994,-0.04570835828781128,0.2160797417163849,-0.21398557722568512,-0.9526382684707642,0.1432037055492401,-0.04646669328212738,-0.05886685848236084,0.18937569424435208,-0.08656197361320003,0.12723159790794514,0.9697710820356431,0.21565323821180854,0.2230483890151123,2.731645402065457
1782477460763133184,2.538163423538208,-0.3337323069572449,-0.18277110159397125,0.005879735574126244,0.21374951303005219,-0.21228322386741638,-0.9535444378852844,0.14437426626682281,-0.09438791871070862,-0.032371699810028076,0.18941457926113608,-0.08555058108580409,0.1261304174253339,0.9699970819590067,0.21391084071220867,0.22051775832100914,2.7321282453513223
1782477460773053184,2.5480833053588867,-0.3882352113723755,-0.26233842968940735,0.0396982841193676,0.21224120259284973,-0.20917151868343353,-0.9545684456825256,0.09485717117786407,-0.09987999498844147,0.049066126346588135,0.18952182843900056,-0.0850736905917875,0.12441157137710636,0.9702399868604052,0.2107276614319839,0.2187836333675909,2.7325513909039327
1782477460782973184,2.5580034255981445,-0.34430769085884094,-0.1466161012649536,-0.28149890899658203,0.21105629205703735,-0.20513804256916046,-0.9557058215141296,0.18780846893787384,-0.039673954248428345,0.02229517698287964,0.18971092509687396,-0.08483503430816997,0.1222706110810596,0.970496150025176,0.20660475380318646,0.2173496031504063,2.732883589799728
1782477460792892160,2.567922353744507,-0.024684103205800056,-0.18504533171653748,-0.04942849650979042,0.20917648077011108,-0.20373299717903137,-0.9564194083213806,0.22086197137832642,0.030332133173942566,-0.06273037195205688,0.19033033146347703,-0.08395002776079882,0.12141948937476449,0.9705586765989177,0.2051693945942929,0.2153175222178602,2.7320484607405437
1782477460802812160,2.5778422355651855,-0.0819346085190773,-0.05956757441163063,-0.027242764830589294,0.2076999992132187,-0.20297183096408844,-0.9569029211997986,0.1853053718805313,-0.006302475929260254,-0.048315584659576416,0.19058149383147543,-0.08325297463665415,0.12090283395043115,0.9706338958728417,0.2043919710956156,0.2137389800901443,2.7318280058133544
1782477460812731392,2.587761402130127,-0.009437439031898975,-0.2450854629278183,0.14244389533996582,0.20606471598148346,-0.2031387835741043,-0.9572209715843201,0.14221712946891785,-0.05323939025402069,-0.05124765634536743,0.19048809749197396,-0.08243246185209324,0.12080733392951898,0.9707340847905209,0.20456248627466295,0.2120379747736205,2.732210343558627
1782477460822651136,2.5976812839508057,-0.25281253457069397,-0.4414973258972168,0.12651526927947998,0.20255906879901886,-0.20257548987865448,-0.958088219165802,0.20166151225566864,-0.1632234752178192,0.007007896900177002,0.19008492850415154,-0.08078578692110198,0.12012310047996014,0.9710364089027228,0.2039872249853001,0.20835188464695095,2.7335709537833965
1782477460832571392,2.6076014041900635,-0.5371860265731812,-0.29585373401641846,0.20722216367721558,0.1985652595758438,-0.19935885071754456,-0.9595977663993835,0.11994670331478119,-0.21346768736839294,0.08183592557907104,0.18912989198476093,-0.07921194468838626,0.11801093266980803,0.9716114451867117,0.20070359610811334,0.20404574398671832,2.7364729386412687
1782477460842490112,2.617520332336426,-0.4767403304576874,-0.36342400312423706,0.1433475762605667,0.19531576335430145,-0.19494576752185822,-0.9611700773239136,0.06564004719257355,-0.15350393950939178,0.033817172050476074,0.18854182981717116,-0.07807426248790042,0.11540960247506232,0.972130114286128,0.19620216054568335,0.20047657696068397,2.7386591052589617
1782477460852410112,2.6274402141571045,-0.5958039164543152,-0.33915796875953674,0.17613931000232697,0.19182729721069336,-0.19017969071865082,-0.9628260135650635,0.20036935806274414,-0.11166967451572418,-0.07132315635681152,0.18748550687625293,-0.07690238564384164,0.11257444152326,0.97276011762794,0.19134517214371283,0.19665853074194023,2.741857923219817
1782477460862330112,2.6373603343963623,-0.36991086602211,-0.2975463569164276,0.11334437131881714,0.18832673132419586,-0.186320498585701,-0.9642705917358398,0.16586028039455414,-0.09055022895336151,-0.14742374420166016,0.18680874477462847,-0.07559286507307875,0.1102290183289799,0.9732614504000496,0.1874157187624457,0.19287695747286346,2.7441403675746616
1782477460872249088,2.6472792625427246,-0.4487992823123932,-0.5428070425987244,0.1710815727710724,0.1841260939836502,-0.18323774635791779,-0.9656715393066406,0.2192247360944748,-0.09061174094676971,-0.17066574096679688,0.18620599566450155,-0.07385280813816862,0.10821273711141133,0.9737366860293829,0.18427896333605825,0.1884100286487048,2.7462378000644816
1782477460882169344,2.6571993827819824,-0.4123627245426178,-0.7436618804931641,0.25772643089294434,0.17769348621368408,-0.1801786571741104,-0.9674506187438965,0.2598828077316284,-0.06199358403682709,-0.18249750137329102,0.18521543892684292,-0.07104091397977298,0.10596171686632241,0.9743821095974711,0.1811680750533123,0.18164730389303826,2.7493599945765785
1782477460892089088,2.667119264602661,-0.38286229968070984,-0.6558361649513245,0.06269215047359467,0.17091257870197296,-0.17729133367538452,-0.9692041277885437,0.23257555067539215,-0.06477408111095428,-0.23257803916931152,0.18447194644659964,-0.06801217889680605,0.10378956782490763,0.9749728341349077,0.17823350511284078,0.1745486770196408,2.751963223497438
1782477460902008320,2.6770384311676025,-0.4500080347061157,-0.7470441460609436,0.2957054078578949,0.1630982607603073,-0.17358006536960602,-0.9712203145027161,0.1464415341615677,-0.0006447881460189819,-0.21647804975509644,0.18386996041281858,-0.06453010966847221,0.10112221422729067,0.9756034218469262,0.17446375614388174,0.16637885334874725,2.7544431117702866
1782477460911928064,2.6869583129882812,-0.34040364623069763,-0.6981215476989746,0.24367904663085938,0.15558801591396332,-0.17055629193782806,-0.9729865789413452,0.11334814131259918,0.00042079389095306396,-0.16966784000396729,0.18284953385358108,-0.06117947612837787,0.09881179994357688,0.9762476266258927,0.17139420659263516,0.158565235280388,2.7576361291352636
1782477460921847040,2.6968772411346436,-0.2202410101890564,-0.6163041591644287,0.2511252164840698,0.1487780511379242,-0.16830337047576904,-0.9744429588317871,0.0994214117527008,0.014754176139831543,-0.1376023292541504,0.18193132533489983,-0.05809514267475002,0.09697152381321145,0.9767920084164533,0.16910822941189801,0.15151004612033822,2.7604390509119736
1782477460931767296,2.7067973613739014,-0.08378837257623672,-0.6727318167686462,0.11641257256269455,0.14244607090950012,-0.16708847880363464,-0.9755975604057312,0.17099997401237488,0.023457497358322144,-0.1448705792427063,0.18133953465219235,-0.055121639861107054,0.0957226963289507,0.9771974289792155,0.16787589195937933,0.14498454922973594,2.762405365944697
1782477460941687040,2.71671724319458,-0.049287647008895874,-0.758672833442688,0.12185101211071014,0.1355361044406891,-0.1668451875448227,-0.9766230583190918,0.18022926151752472,-0.029199719429016113,-0.15930217504501343,0.1811843264485005,-0.05173229834304369,0.09493275362223291,0.9774885167847437,0.16762913749730263,0.13789955326804543,2.7634354296127412
1782477460951606272,2.7266364097595215,-0.11398029327392578,-0.780526340007782,0.12846261262893677,0.12771165370941162,-0.1662634164094925,-0.9777761697769165,0.19554579257965088,-0.04583375155925751,-0.1429208517074585,0.1808079684502184,-0.047943484897470336,0.0938794122293671,0.9778530641813202,0.1670391201040494,0.12987915862809588,2.7650287757191134
1782477460961526272,2.7365562915802,-0.1426984965801239,-0.8935950994491577,0.16011720895767212,0.1195354163646698,-0.16524995863437653,-0.9789809584617615,0.1614704430103302,-0.10447965562343597,-0.12541967630386353,0.180510566886043,-0.0440136027375788,0.09258680956951591,0.9782160095109882,0.1660114483482006,0.12150045016014493,2.766516594253358
1782477460971446272,2.746476411819458,-0.26645252108573914,-0.8889527916908264,0.2658659517765045,0.11050170660018921,-0.1636066883802414,-0.9803174138069153,0.1797509789466858,-0.0780925303697586,-0.10619992017745972,0.17972789109358903,-0.03976307098225003,0.09088559817493683,0.9787015258451245,0.16434549634842813,0.11224654148481669,2.7691073999786564
1782477460981365248,2.7563953399658203,-0.33781272172927856,-0.8428963422775269,0.15176813304424286,0.10180344432592392,-0.16099996864795685,-0.9816899299621582,0.17500624060630798,-0.024653717875480652,-0.0748133659362793,0.17927531226797289,-0.03573515538784651,0.0887583672512113,0.9791349364451608,0.16170376136804854,0.10333288153143928,2.7710327486919413
1782477460991284992,2.766315221786499,-0.3680994510650635,-0.8597564697265625,0.24958886206150055,0.09304025024175644,-0.15766800940036774,-0.9830993413925171,0.19585439562797546,-0.06306563317775726,-0.06765139102935791,0.17847453879194064,-0.03177164032770473,0.08626061600113717,0.9796409838488024,0.1583286795732964,0.09435867957387471,2.7736871856535052
1782477461001205248,2.776235342025757,-0.2796308398246765,-0.8988346457481384,0.2959795296192169,0.08417710661888123,-0.15474732220172882,-0.984361469745636,0.20715895295143127,-0.07521788775920868,-0.10110300779342651,0.1775684050518197,-0.027729863704807272,0.08396622059546155,0.980127616003659,0.15537169533315381,0.08530688943463968,2.776498750353725
1782477461011124224,2.786154270172119,-0.23442034423351288,-1.0268125534057617,0.31068676710128784,0.0743420273065567,-0.15261253714561462,-0.9854860305786133,0.2551562786102295,-0.054662853479385376,-0.16491985321044922,0.17645326537024175,-0.023154020523848757,0.08198101041455198,0.9806157799808753,0.15321124216638823,0.07529431002800852,2.7797385479704353
1782477461021044224,2.796074390411377,-0.2812914550304413,-1.1381864547729492,0.31442612409591675,0.06364046037197113,-0.15027786791324615,-0.9865933656692505,0.24225248396396637,-0.07897017896175385,-0.188287615776062,0.1753749697973235,-0.018162816997194065,0.07983378424588766,0.9810913601894802,0.1508493234984694,0.06441601503369701,2.7829497076795846
1782477461030963200,2.8059933185577393,-0.3050439953804016,-1.0317062139511108,0.3166618049144745,0.052641984075307846,-0.14757494628429413,-0.9876489639282227,0.19313132762908936,-0.11824841797351837,-0.19560909271240234,0.1742195572035516,-0.01306123200013763,0.07749146908988713,0.9815660714997481,0.14811592519554978,0.053249909589334204,2.786316837850751
1782477461040883200,2.815913438796997,-0.3821600675582886,-1.0364280939102173,0.190444216132164,0.04220132529735565,-0.14416398108005524,-0.9886535406112671,0.12820883095264435,-0.13446150720119476,-0.2037292718887329,0.17337500750932794,-0.008269949430938011,0.07486550914610865,0.9819714688865743,0.14466807790214478,0.04265975981079011,2.788986960598386
1782477461050803200,2.825833320617676,-0.3496503233909607,-1.0011506080627441,0.2911967933177948,0.032133158296346664,-0.14067672193050385,-0.9895339608192444,0.12002748250961304,-0.10163284838199615,-0.18812406063079834,0.17263705458347695,-0.0036587492760344295,0.07224692778050887,0.9823254812065978,0.1411449035998671,0.03246161486895399,2.791364270701569
1782477461060722176,2.835752248764038,-0.36574167013168335,-1.0150097608566284,0.22194130718708038,0.021786298602819443,-0.1371963918209076,-0.9903042316436768,0.16313496232032776,-0.05703271925449371,-0.15611904859542847,0.17167397735546186,0.001077154793661982,0.06961835071105046,0.9826903059087816,0.13763048718590118,0.02199605370940024,2.794171413619472
1782477461070642176,2.845672369003296,-0.41906216740608215,-1.0001270771026611,0.29268258810043335,0.0118069127202034,-0.13345855474472046,-0.9909840822219849,0.1169772669672966,-0.08304840326309204,-0.13133037090301514,0.17095540675322637,0.005630082150358508,0.066904943498291,0.9829884177334774,0.13385794036132817,0.011913767746711303,2.796410652908254
1782477461080562176,2.8555922508239746,-0.36046889424324036,-0.9786657094955444,0.20174413919448853,0.0020234244875609875,-0.12984314560890198,-0.9915325045585632,0.16248157620429993,-0.05870971083641052,-0.13055306673049927,0.17004266396570117,0.010087342585281846,0.06428067030087307,0.9832861472475526,0.13021078135340233,0.0020407012516058063,2.7989807236865203
1782477461090481408,2.865511417388916,-0.3675806522369385,-0.9197866320610046,0.21391382813453674,-0.007563883904367685,-0.12623444199562073,-0.9919716119766235,0.16442424058914185,0.0021957457065582275,-0.13134992122650146,0.16950839777361829,0.014476513091454158,0.06168169096755577,0.9834900530816733,0.1265721277197187,-0.007624953637685082,2.800721653047282
1782477461100401152,2.8754312992095947,-0.25849011540412903,-0.8687947988510132,0.178888738155365,-0.016705026850104332,-0.12319404631853104,-0.9922419786453247,0.15139435231685638,-0.037358932197093964,-0.12471663951873779,0.16872759000760484,0.018681894535771494,0.059413731594525246,0.9836929923419137,0.12350780720381359,-0.0168340466630574,2.802890334919797
1782477461110321408,2.8853514194488525,-0.315459281206131,-0.9022113084793091,0.18106593191623688,-0.025714019313454628,-0.12061245739459991,-0.9923665523529053,0.10460195690393448,-0.04018465429544449,-0.10849404335021973,0.16814397911838905,0.02287648587637385,0.057387960395744196,0.9838245949726826,0.12090682386886815,-0.025906017802218226,2.8046147406936206
1782477461120240128,2.895270347595215,-0.3545856475830078,-0.8960629105567932,0.12657420337200165,-0.03469353914260864,-0.11729099601507187,-0.9924914240837097,0.15684014558792114,-0.08035609871149063,-0.05360537767410278,0.16767000027103407,0.027002599736092668,0.055001449755292246,0.983937219365292,0.11756160972550474,-0.03494178288129967,2.8060773175788145
1782477461130160128,2.9051902294158936,-0.3509896993637085,-0.7889305353164673,0.10642825067043304,-0.04291457682847977,-0.11364909261465073,-0.9925937056541443,0.15961378812789917,-0.10520771890878677,-0.04370695352554321,0.16744861426124427,0.030743027487780288,0.052516889984142834,0.9840009612080396,0.11389517898369426,-0.043207878081928094,2.806943244526201
1782477461140079360,2.915109395980835,-0.2889668047428131,-0.5846112370491028,0.19429072737693787,-0.0497753769159317,-0.11053860932588577,-0.9926246404647827,0.1072552353143692,-0.06379305571317673,-0.021108269691467285,0.1669998526633749,0.033846381331135766,0.05041938601893932,0.9840850677785302,0.11076496594242004,-0.05010324962733881,2.8081725798870676
1782477461149999104,2.9250292778015137,-0.17211870849132538,-0.3991994261741638,0.21915656328201294,-0.055099986493587494,-0.10817383974790573,-0.9926038384437561,0.0866551622748375,-0.03493834286928177,0.016850054264068604,0.16607147646034906,0.036232000277684764,0.04883968254764446,0.9842368941553781,0.10838592463909655,-0.05545363859258307,2.8102881042739147
1782477461159919360,2.9349493980407715,-0.187558114528656,-0.32976067066192627,0.22800731658935547,-0.05870215222239494,-0.10626263916492462,-0.9926037788391113,0.09851233661174774,-0.05305436998605728,0.044041216373443604,0.16487703454486546,0.037794201841103985,0.04764133264142719,0.9844377216793078,0.1064636466668537,-0.059070758119897704,2.812854458657135
1782477461169838080,2.944868326187134,-0.15356658399105072,-0.32246536016464233,0.16300606727600098,-0.06192603334784508,-0.1045471653342247,-0.992590069770813,0.11897864937782288,-0.060049399733543396,0.07550632953643799,0.16415127444293662,0.0392108521075014,0.046556106210622485,0.9845554957431806,0.10473855802579549,-0.06230756802909247,2.8144463801653146
1782477461179758080,2.9547882080078125,-0.22588232159614563,-0.216148242354393,0.1401556134223938,-0.06501946598291397,-0.10279820114374161,-0.99257493019104,0.15257440507411957,-0.08473231643438339,0.09145188331604004,0.16343051469011544,0.04056217351257122,0.04546694079157354,0.984671559518605,0.10298012002485325,-0.06541239637941179,2.816014395326368
1782477461189678080,2.9647083282470703,-0.35030508041381836,-0.09562723338603973,0.09163063019514084,-0.06675204634666443,-0.09980279952287674,-0.9927656054496765,0.05855807662010193,-0.08893316239118576,0.2039472460746765,0.16304895741838182,0.0411533800952008,0.043858781424258024,0.9847830607860815,0.09996923114851453,-0.06713742050858569,2.816792685072255
1782477461199597056,2.9746272563934326,-0.5312543511390686,0.09398956596851349,0.11504966765642166,-0.06723383814096451,-0.0954211950302124,-0.9931638240814209,0.08478144556283951,-0.1077800989151001,0.2872006893157959,0.16247427247865992,0.04100386477252393,0.04167450889231489,0.9849791860468565,0.09556659535160635,-0.0675934901603439,2.8178664190460814
1782477461209517312,2.9845473766326904,-0.8130265474319458,0.2834904193878174,0.12162131816148758,-0.06549663096666336,-0.08868501335382462,-0.9939039945602417,0.05307597666978836,-0.12139798700809479,0.373466432094574,0.16208930316075384,0.03957270238790908,0.03849677585459431,0.9852304090435918,0.08880167706795786,-0.06580320265945373,2.8184002946334035
1782477461219437056,2.994467258453369,-0.998966634273529,0.3920981287956238,0.01459925714880228,-0.06226709485054016,-0.07982352375984192,-0.9948623180389404,0.03847864270210266,-0.09153267741203308,0.39668726921081543,0.1618425110923804,0.03723762703739499,0.03438320068603728,0.9855141974630435,0.07990854084602743,-0.06250711887148543,2.8185551470143895
1782477461229356288,3.0043864250183105,-1.1412285566329956,0.6785199046134949,0.08201458305120468,-0.05710635706782341,-0.06911264359951019,-0.9959730505943298,0.00281558558344841,-0.06159414350986481,0.45906203985214233,0.1617496269674856,0.033805579937929285,0.029506952260087864,0.9858111245576837,0.069167782154415,-0.057274541459777284,2.818317488841322
1782477461239276288,3.0143063068389893,-1.0109150409698486,0.8844778537750244,0.08015516400337219,-0.0493912473320961,-0.058409035205841064,-0.9970701336860657,0.007887344807386398,-0.009568866342306137,0.45471179485321045,0.16135839334198301,0.029108708945867402,0.024851694828802083,0.9861534042192529,0.05844229854713181,-0.049495920991915084,2.8186660443588383
1782477461249196288,3.024226427078247,-0.9939612746238708,1.0311037302017212,0.060038477182388306,-0.03984662517905235,-0.048645924776792526,-0.9980209469795227,0.009206976741552353,0.023636769503355026,0.4900558590888977,0.16105760180564194,0.023593969688036613,0.020805017381347348,0.9864435239578401,0.04866513229796549,-0.039904445255521434,2.818878003019678
1782477461259115264,3.0341453552246094,-0.830549955368042,1.177099585533142,0.0003029763465747237,-0.028718171641230583,-0.03966645151376724,-0.9988002181053162,0.002228911966085434,0.07346466928720474,0.5743312239646912,0.16094641651608177,0.01737003047964735,0.017267949394256247,0.9866591789650636,0.039676859281923244,-0.028744748823834033,2.818766147500198
1782477461269035008,3.044065237045288,-0.6953791379928589,1.3188940286636353,-0.07412398606538773,-0.01629246212542057,-0.03242883458733559,-0.9993412494659424,-0.00897609256207943,0.04057702794671059,0.6121037006378174,0.16102918507819874,0.010653063031273212,0.014693165341136665,0.9867828023519308,0.03243452040177975,-0.016301757492963673,2.818336617453687
1782477461278954240,3.0539844036102295,-0.9067824482917786,1.58014714717865,-0.04790889471769333,-0.0014802452642470598,-0.025220094248652458,-0.9996808171272278,-0.08699021488428116,-0.04579430818557739,0.6773541569709778,0.16141759045804932,0.002766281869339901,0.012326160288242355,0.9868053513454089,0.02522276929488183,-0.0014807168404723974,2.8173314112574346
1782477461288874240,3.063904285430908,-1.0750664472579956,1.830973505973816,-0.08863338828086853,0.015567691996693611,-0.015386116690933704,-0.9997604489326477,-0.10342779755592346,-0.16309593617916107,0.7480819821357727,0.1615329795136499,-0.0064392394195236955,0.008849968828452074,0.9868066308445594,0.015386723917452088,0.015570164102563658,2.8169655895542736
1782477461298794240,3.073824405670166,-1.0139544010162354,1.9351621866226196,-0.0137455640360713,0.03437601029872894,-0.005156048573553562,-0.9993956685066223,-0.04954324662685394,-0.12249898165464401,0.7405303120613098,0.16172052957937547,-0.01654720199392577,0.005324956691135892,0.9866834525950561,0.005156071612556669,0.03438324165751528,2.816586671246033
1782477461308713216,3.0837433338165283,-0.694736123085022,2.0853664875030518,0.10733722150325775,0.05428846552968025,0.0032960723619908094,-0.9985198378562927,-0.012143686413764954,0.05043012276291847,0.7062377333641052,0.16132087387969418,-0.02706441099834391,0.002755138367596047,0.9865269394940417,-0.003296078391418781,0.05431546136462604,2.8175032773473063
1782477461318632960,3.093663215637207,-0.2644920349121094,2.106597661972046,0.20407387614250183,0.07527819275856018,0.008024035952985287,-0.997130274772644,-0.03475085645914078,0.18025416135787964,0.6159200072288513,0.16051014316913098,-0.037821948703063574,0.00208737091163312,0.986307027069246,-0.008024121713321874,0.07535190615494088,2.819246534314682
1782477461328553216,3.103583335876465,0.35573911666870117,2.2103779315948486,0.2987128496170044,0.09671134501695633,0.00719024334102869,-0.9952865242958069,-0.01118583232164383,0.23139618337154388,0.5433059334754944,0.15921495910565509,-0.04836748039895937,0.004163791135342959,0.9860496276611377,-0.007190305387094109,0.09686525589688738,2.8217695910499527
1782477461338472192,3.113502264022827,0.48679834604263306,2.1761815547943115,0.26266562938690186,0.11856210231781006,0.002387555781751871,-0.9929437637329102,0.012053132057189941,0.11689040064811707,0.5365839004516602,0.157950960841025,-0.05882699871806548,0.008215827382590128,0.9856588627851821,-0.0023875580606500966,0.11884198389471624,2.823938396814029
1782477461348392192,3.123422384262085,0.30687451362609863,2.0817933082580566,0.14524412155151367,0.13961488008499146,-0.001764306565746665,-0.9902043342590332,0.022494494915008545,-0.02766989730298519,0.6257176399230957,0.1569002734638234,-0.06896891193969931,0.01188003011321621,0.985131712979905,0.0017643074590056496,0.14007269893078206,2.8255853661815533
1782477461358312192,3.1333422660827637,-0.05266686901450157,2.1128740310668945,0.022029776126146317,0.16016076505184174,-0.0034624699037522078,-0.9870848655700684,0.07882237434387207,-0.16876348853111267,0.6888671517372131,0.15633032887803255,-0.07907354195641288,0.01431571647791046,0.9844304859076627,0.0034624767361919754,0.1608544977253933,2.826338132169687
1782477461368231424,3.143261432647705,-0.3276827335357666,2.099776029586792,0.015060550533235073,0.18049035966396332,-0.0016103658126667142,-0.9835754632949829,0.07733739912509918,-0.21042576432228088,0.7222076654434204,0.15588252679832731,-0.08937450281159612,0.014982673695173804,0.9836099045423236,0.0016103665229876332,0.181485220441854,2.8271003870555163
1782477461378150144,3.1531803607940674,-0.5682463645935059,2.05591082572937,-0.14150962233543396,0.20063409209251404,0.002951142843812704,-0.9796618223190308,0.09196844696998596,-0.17227792739868164,0.6833208799362183,0.15585368307538797,-0.09981849110946145,0.01433058408528629,0.9826192701908635,-0.0029511470900097526,0.20200602488572542,2.827291571867988
1782477461388069120,3.1630992889404297,-0.5454728603363037,1.9967385530471802,-0.13690288364887238,0.22028054296970367,0.008794833905994892,-0.9753969311714172,0.09080038964748383,-0.10413175076246262,0.6340425610542297,0.15605947089559347,-0.11014396765830356,0.013032685920675012,0.9815008463766907,-0.008794947489491459,0.22211080311341702,2.827211621150814
1782477461397989376,3.1730194091796875,-0.41074830293655396,1.9184876680374146,-0.016689389944076538,0.2391311079263687,0.013667342253029346,-0.9708911180496216,0.08211217820644379,-0.013697856105864048,0.5426074266433716,0.15608165033227872,-0.12002953344199419,0.012139285807746236,0.9803489912026159,-0.013667767682519108,0.24149389806184426,2.8274807664360084
1782477461407909120,3.182939291000366,-0.1068669855594635,1.9007412195205688,0.028280215337872505,0.25763970613479614,0.016419073566794395,-0.9661015272140503,0.08774298429489136,0.14982542395591736,0.4720219373703003,0.15581721151768838,-0.12961241904803472,0.012241308973030812,0.9791689107941858,-0.01641981089539435,0.26061460434613426,2.8281266760023085
1782477461417828352,3.1928584575653076,0.14609310030937195,1.8671789169311523,0.09088527411222458,0.2757359445095062,0.0156570952385664,-0.9611058831214905,0.06328383088111877,0.18307337164878845,0.3759008049964905,0.15528011489605534,-0.13874566310690473,0.014024747705260946,0.9779780047331016,-0.015657735241200413,0.2793904093219155,2.8288698025427816
1782477461427748096,3.2027783393859863,0.24579519033432007,1.7891584634780884,0.21268202364444733,0.29293814301490784,0.013413635082542896,-0.9560372829437256,0.10072335600852966,0.08784369379281998,0.3639962673187256,0.15457014742945643,-0.14734565711485934,0.016450162788405283,0.9767941154814906,-0.013414037741157419,0.2973259196358175,2.829719747656514
1782477461437668352,3.212698459625244,0.09550981968641281,1.7430338859558105,0.1878078281879425,0.30944690108299255,0.010817374102771282,-0.9508551955223083,0.10476818680763245,-0.010680042207241058,0.36722177267074585,0.15357693571572234,-0.15560613222347405,0.018950774104887044,0.9756237713049192,-0.01081758550622147,0.3146303551782025,2.831042835910833
1782477461447587328,3.2226173877716064,0.03616999462246895,1.8051716089248657,0.24382099509239197,0.32641398906707764,0.00955558754503727,-0.9451786279678345,0.028230786323547363,-0.03577019274234772,0.377139687538147,0.1524227776107176,-0.16425111523982788,0.02079112439704109,0.9743493051413444,-0.009555732627183922,0.33252304905255214,2.8328406649483058
1782477461457507328,3.2325375080108643,-0.04595363885164261,1.699065089225769,0.14119607210159302,0.3428310751914978,0.008947822265326977,-0.939354419708252,0.07248261570930481,-0.06001898646354675,0.31583458185195923,0.15128087049722133,-0.1727065754825603,0.02225342025279066,0.9730320031161918,-0.008947941392993255,0.3499435822500844,2.8346967877704157
1782477461467427328,3.242457389831543,0.15512001514434814,1.5614508390426636,0.24691301584243774,0.3580076992511749,0.007835227996110916,-0.9336857199668884,0.12319347262382507,0.002235565334558487,0.2541661262512207,0.15029052243013227,-0.18051731078317346,0.023887779683117047,0.9717281117626294,-0.00783530796990895,0.3661450698474598,2.8361486446839095
1782477461477346304,3.2523763179779053,0.25558561086654663,1.4748847484588623,0.24535053968429565,0.37230628728866577,0.005391658283770084,-0.9280942678451538,0.13132530450820923,0.04703754931688309,0.1449064016342163,0.1492339736458472,-0.18780712469323968,0.026102664634491478,0.9704516686517155,-0.005391684215254288,0.3814985395689802,2.8374685877133095
1782477461487266304,3.262296438217163,0.37835177779197693,1.21414315700531,0.20786188542842865,0.38476628065109253,0.0016622147522866726,-0.9230125546455383,0.11584407091140747,0.1483927220106125,0.07173997163772583,0.14799455069373893,-0.19407681191904874,0.028773642779213782,0.9693316702885507,-0.0016622154945821492,0.3949551766005526,2.8389114297329265
1782477461497185280,3.2722153663635254,0.6463480591773987,0.7173818349838257,0.24597731232643127,0.3934948444366455,-0.003854165319353342,-0.9193187355995178,0.05682253837585449,0.1358579695224762,0.009650766849517822,0.14748950596825583,-0.1982546136225358,0.03218274048458384,0.9684556746757923,0.0038541748016678035,0.4044332126006224,2.8385380793222104
1782477461507105280,3.282135486602783,0.5775118470191956,0.70917809009552,0.23107606172561646,0.3998192846775055,-0.010640889406204224,-0.9165322184562683,0.029074758291244507,0.11205080151557922,-0.04393225908279419,0.14652546449303996,-0.20110223019628096,0.03594139248832581,0.9678824289940106,0.010641089964787041,0.4113443796521776,2.8388790584515258
1782477461517025280,3.292055368423462,0.8955731987953186,0.7187478542327881,0.20660588145256042,0.40621626377105713,-0.018607687205076218,-0.9135875105857849,-0.19187605381011963,0.24266774952411652,-0.12309461832046509,0.14593655435851532,-0.20390032126026347,0.04038454020133127,0.9672105745975066,0.018608762005107547,0.41838643861155894,2.8381332551158605
1782477461526944256,3.301974296569824,0.9895672798156738,0.5191782116889954,-0.10277877002954483,0.4119094908237457,-0.026978589594364166,-0.9108253121376038,-0.24133148789405823,0.28041180968284607,-0.28734058141708374,0.1468399232389491,-0.20624131718927965,0.045297589496872105,0.9663594537526362,0.026981863089834756,0.42471319086728515,2.8341785748028134
1782477461536864256,3.311894416809082,0.9240103960037231,0.38117513060569763,0.06944546103477478,0.4162031412124634,-0.03550577908754349,-0.9085781574249268,-0.02371656894683838,0.1828751564025879,-0.29628634452819824,0.14779039661268506,-0.20782595107528426,0.050192537162180556,0.9656329752042405,0.03551324287051159,0.4295544023513058,2.830101417121034
1782477461546784256,3.3218142986297607,0.48062044382095337,0.2690517008304596,0.24862413108348846,0.4188055396080017,-0.042967282235622406,-0.907058835029602,-0.01678222417831421,0.1069321483373642,-0.31649768352508545,0.1474677331804845,-0.20866268204630417,0.05413368794963819,0.9652890054246088,0.04298051409815683,0.4325558918904372,2.8289510324705045
1782477461556703232,3.331733465194702,0.5080350041389465,0.1868889182806015,0.06711319833993912,0.42114922404289246,-0.04764065518975258,-0.9057393074035645,-0.09238335490226746,0.18522916734218597,-0.33782148361206055,0.14722580523429188,-0.20957133186569,0.056658585970361566,0.9649841054975697,0.047658693181691705,0.4352399120233975,2.82825121916464
1782477461566623232,3.341653347015381,1.0112651586532593,-0.09687899053096771,0.3604646921157837,0.42153429985046387,-0.05492960661649704,-0.9051473140716553,-0.01928207278251648,0.40043437480926514,-0.4690287113189697,0.14747354954246922,-0.2092187621555687,0.06044720658646075,0.9647929149707225,0.054957266722172604,0.43583960182514375,2.826058113298857
1782477461576543232,3.3515734672546387,1.3856638669967651,0.10171186178922653,0.6235405206680298,0.42112255096435547,-0.06836875528097153,-0.9044232964515686,-0.03126049041748047,0.4809816777706146,-0.4078173041343689,0.14608965717090128,-0.2081037882600812,0.0669414680222729,0.9648158174281061,0.06842212708042679,0.4357718562766135,2.82588711794197
1782477461586462208,3.361492395401001,1.6033406257629395,-0.016889579594135284,0.547818124294281,0.4214581847190857,-0.08377259969711304,-0.9029701948165894,-0.2309369444847107,0.5080432295799255,-0.22610390186309814,0.1450812876721577,-0.20724501094065648,0.07459497865334165,0.9645913864497875,0.08387089630468239,0.43669271490156053,2.8243967804019854
1782477461596382464,3.371412515640259,1.3492125272750854,-0.29898303747177124,0.3836140036582947,0.41992872953414917,-0.0993775874376297,-0.9020997881889343,-0.11446303129196167,0.384701669216156,-0.12300097942352295,0.1442259408194319,-0.20539717230820229,0.08223212196564739,0.9644940703015835,0.09954189239576597,0.43566987023370657,2.822671090384008
1782477461606301184,3.381331443786621,1.6454874277114868,-0.18158289790153503,0.8544412851333618,0.4175508916378021,-0.11475994437932968,-0.9013774991035461,0.014806896448135376,0.19622662663459778,0.04482537508010864,0.1431980272990974,-0.2031567764509829,0.08965807117076165,0.9644599857771744,0.11501334461247155,0.43380664308192385,2.8214245251500603
1782477461616221184,3.3912513256073,1.2002034187316895,0.16057631373405457,1.0020164251327515,0.4162435233592987,-0.13230639696121216,-0.8995756506919861,0.1839609444141388,-0.04147595167160034,-0.09870010614395142,0.13943518872528857,-0.20164353721536268,0.09773466264951543,0.964544223067117,0.13269547542908328,0.4333739520000376,2.825207464988653
1782477461626141184,3.4011714458465576,0.4132272005081177,-0.00540313683450222,0.31258872151374817,0.41703227162361145,-0.14196841418743134,-0.8977355360984802,0.20808976888656616,-0.36627131700515747,-0.23724371194839478,0.13729312376622355,-0.20165299585965601,0.10231478609336148,0.9643745642696553,0.1424496893263614,0.4348777564803677,2.827240938415111
1782477461636060160,3.41109037399292,-0.979019045829773,-0.5978931188583374,0.6169337034225464,0.4137377142906189,-0.14181527495384216,-0.8992828130722046,0.6071515679359436,-0.801071047782898,-0.3926941156387329,0.1349661643583299,-0.2001595575504778,0.10146306799600975,0.9651038990790365,0.1422949784968712,0.4312007959539864,2.8324889905025077
1782477461645980416,3.4210104942321777,-1.715169072151184,-0.9869610667228699,0.005942419171333313,0.4061140716075897,-0.1301959902048111,-0.9045000672340393,0.7770829200744629,-0.8582683801651001,-0.4240979552268982,0.1324255667635912,-0.19710798305802613,0.09433138037266382,0.9668058486967109,0.130566647433387,0.4220160744648755,2.8413374572677457
1782477461655900160,3.4309303760528564,-1.2851979732513428,-1.3653299808502197,0.36909958720207214,0.39477989077568054,-0.11667749285697937,-0.9113370180130005,0.5841324329376221,-0.37322118878364563,-0.684442400932312,0.13096039706580018,-0.19210181063111356,0.08618801307433253,0.9687713403826511,0.1169438643644297,0.40878511370184345,2.848590389803398
1782477461665819136,3.4408493041992188,-0.7888147830963135,-0.8686978816986084,0.4412000775337219,0.38445770740509033,-0.10947365313768387,-0.9166284799575806,0.37173736095428467,0.048652127385139465,-0.7829412221908569,0.1280375425528859,-0.18736518616110537,0.08111746355856851,0.9705259677280309,0.10969350553936469,0.39713986793085093,2.857161773491677
1782477461675739392,3.4507694244384766,-0.7387388348579407,-0.7433897852897644,0.11051244288682938,0.3768696188926697,-0.10353909432888031,-0.9204612970352173,-0.03667491674423218,0.024910569190979004,-0.5175727605819702,0.12637075735398587,-0.18387849793227742,0.07718844826372721,0.9717310542171794,0.10372498829047955,0.3886139584530972,2.862520528039246
1782477461685659136,3.4606893062591553,-1.7023651599884033,-0.5744259357452393,-0.19030581414699554,0.3714013993740082,-0.09307367354631424,-0.9237955808639526,-0.04118594527244568,-0.14066043496131897,-0.3108235001564026,0.1260279443009526,-0.18167590495247204,0.07138672275394473,0.9726329475891664,0.09320858039695852,0.3822624566297848,2.865832752847291
1782477461695578368,3.4706084728240967,-2.7036309242248535,-0.6427679657936096,-0.037419069558382034,0.3654322326183319,-0.0718061774969101,-0.9280641674995422,0.1265874207019806,0.0835859626531601,0.01828944683074951,0.12464542857642326,-0.1799456924021966,0.05989532121100748,0.9739073977985521,0.07186802752077433,0.37511335496234816,2.8733616061714904
1782477461705498112,3.4805283546447754,-2.63364315032959,-0.45644721388816833,-0.5151436924934387,0.3604509234428406,-0.04596159979701042,-0.9316451549530029,0.10495740175247192,0.5288107395172119,-0.16852879524230957,0.1236855965758695,-0.1789854100129936,0.046278057285558116,0.974948399728467,0.04597779883155804,0.36916012135715803,2.8806276130944295
1782477461715418368,3.490448474884033,-2.554532766342163,-0.03481234610080719,-0.6739850044250488,0.3587202727794647,-0.020256282761693,-0.9332252740859985,0.04162454605102539,0.7556993961334229,-0.3560050129890442,0.12443823564476544,-0.1796604415956274,0.033308906955555946,0.975257755113918,0.02025766841627805,0.36697543780359243,2.8840142421182553
1782477461725337344,3.5003674030303955,-3.5700736045837402,-0.07219346612691879,-0.8769877552986145,0.3583866059780121,0.010851433500647545,-0.9335101842880249,0.12546956539154053,0.3573278784751892,-0.17366749048233032,0.12533709441484892,-0.1814649501715752,0.01775870915574889,0.9752157427605435,-0.01085164668290428,0.3665617261632242,2.8879607256793434
