time,seconds_elapsed,rotationRateX,rotationRateY,rotationRateZ,gravityX,gravityY,gravityZ,accelerationX,accelerationY,accelerationZ,quaternionW,quaternionX,quaternionY,quaternionZ,pitch,roll,yaw
1783166152915345664,0.2768716812133789,3.1725869178771973,0.9061633944511414,-1.6552205085754395,0.007709797006100416,0.6197957396507263,-0.7847253680229187,-0.1076090931892395,0.3275461792945862,0.3922845721244812,0.7905863573222943,-0.2723195691719586,0.18297368896583202,-0.5170454852970631,-0.6684823584850824,0.009824518493994133,-1.1549560001250534
1783166152925265664,0.2867918014526367,3.3453803062438965,1.1255792379379272,-1.627371907234192,0.003275894094258547,0.6012270450592041,-0.7990715503692627,-0.06055741757154465,0.2879178524017334,0.4279167652130127,0.7883314240343376,-0.2624901870448617,0.17766011165124773,-0.5273229576964032,-0.6450357888334062,0.004099602320428683,-1.177738610895901
1783166152935184640,0.296710729598999,3.669461488723755,1.131123423576355,-1.7020231485366821,0.0003139159525744617,0.5804111957550049,-0.8143234848976135,-0.06513325870037079,0.21603655815124512,0.3669357895851135,0.7860723310519209,-0.2513754219397651,0.1721878324629084,-0.5378216049168838,-0.6192335595777906,0.00038549291956919767,-1.19994706985851
1783166152945104896,0.30663084983825684,3.7043707370758057,0.9884673357009888,-2.0119540691375732,-0.0037514460273087025,0.556934118270874,-0.8305482268333435,0.013806981965899467,0.18223214149475098,0.2999696135520935,0.7835755855754595,-0.23952337868728746,0.16539179895185727,-0.548892969881625,-0.5906898740304739,-0.0045168003426669144,-1.2234942588726758
1783166152955023872,0.31654977798461914,3.6965630054473877,0.8430289030075073,-2.3578805923461914,-0.010199258103966713,0.5330290198326111,-0.8460354804992676,0.13210171461105347,0.19534927606582642,0.3132596015930176,0.7861509058421859,-0.2300463945393471,0.15511578679729082,-0.552254016519752,-0.562176507581748,-0.012054770884802923,-1.2282553884794931
1783166152964943616,0.32646965980529785,3.8507392406463623,0.6725382804870605,-2.3839261531829834,-0.01779571920633316,0.5056958198547363,-0.8625282645225525,0.22465911507606506,0.17213010787963867,0.16926050186157227,0.7839839876674528,-0.2182362037020179,0.1452887246713892,-0.5627017489912337,-0.5301883215750799,-0.02062911476039644,-1.2506753101939316
1783166152974862848,0.33638882637023926,4.6343560218811035,0.6240173578262329,-2.4800493717193604,-0.025435402989387512,0.47385966777801514,-0.8802329897880554,0.22796529531478882,0.21716514229774475,0.15977400541305542,0.7822473835435328,-0.20489333426770145,0.133799245458387,-0.5728922863388937,-0.4936686230579479,-0.028888177494743563,-1.2715200561284101
1783166152984781824,0.34630775451660156,5.813009262084961,0.5780035257339478,-2.722154140472412,-0.032573044300079346,0.43058693408966064,-0.9019611477851868,0.10262612998485565,0.30142295360565186,-0.027299106121063232,0.780386697454335,-0.1866876308330335,0.11902586704896914,-0.5847882098572604,-0.4451429840173528,-0.03609789082260966,-1.294349518106319
1783166152994701568,0.3562276363372803,6.100213050842285,0.35148173570632935,-2.796605348587036,-0.04016764834523201,0.3794724643230438,-0.9243306517601013,0.08852275460958481,0.4311201870441437,0.0988912582397461,0.7768149784415802,-0.16568760553508516,0.10189346513579672,-0.5989355284628531,-0.38922604163210495,-0.04342860454405637,-1.3221917990862053
1783166153004620800,0.3661468029022217,6.25862979888916,0.1652410626411438,-3.006648302078247,-0.04880925267934799,0.32544103264808655,-0.9443017244338989,0.1917078197002411,0.42460471391677856,0.2521173357963562,0.7727185838089958,-0.14471316590499,0.08310973710798307,-0.6124188143543496,-0.3314781205832684,-0.05164223913347427,-1.3490047448836677
1783166153014540800,0.3760666847229004,5.754605293273926,0.048161037266254425,-3.1318814754486084,-0.057419657707214355,0.2709749639034271,-0.9608722925186157,0.28094565868377686,0.3900052607059479,0.2954212427139282,0.7667075881367484,-0.1242999308590625,0.0641356973522403,-0.626574406381819,-0.27440575572600767,-0.059686867759647384,-1.3785582681559676
1783166153024459776,0.3859858512878418,4.7360944747924805,0.0006476584821939468,-3.0028491020202637,-0.06462859362363815,0.2228187471628189,-0.9727152585983276,0.38510894775390625,0.3435875177383423,0.42828166484832764,0.7600402130339832,-0.10679082220202166,0.04730854732412338,-0.6392936555521321,-0.22470495759593886,-0.06634392211281402,-1.4061335693437764
1783166153034379776,0.3959057331085205,4.127578258514404,-0.015731580555438995,-2.8359484672546387,-0.07002456486225128,0.18153983354568481,-0.9808872938156128,0.3981495499610901,0.07152718305587769,0.3891972303390503,0.7526751083091525,-0.09199569643264978,0.03306286816041473,-0.6510943759309243,-0.18255208110173216,-0.07126809770368367,-1.4328484898922311
1783166153044298752,0.4058246612548828,3.7378885746002197,0.08752293884754181,-2.8236327171325684,-0.07341640442609787,0.1435726433992386,-0.9869128465652466,0.32695645093917847,-0.3279903531074524,0.16301453113555908,0.7443935672414866,-0.07828056997693376,0.02038971098109001,-0.6628231034226589,-0.14407052707806098,-0.07425318819935896,-1.4603546845943398
1783166153054218752,0.4157447814941406,3.4388811588287354,0.18235544860363007,-2.8364381790161133,-0.0745684877038002,0.1084371954202652,-0.9913026094436646,0.3686206340789795,-0.6228262186050415,-0.10819989442825317,0.7355661915535794,-0.06530371856778026,0.009170960814034138,-0.6742356157123202,-0.10865083639952697,-0.07508132602013186,-1.4879299218403905
1783166153064137728,0.42566370964050293,3.721059560775757,0.2567247748374939,-2.7460315227508545,-0.07372704893350601,0.07301200926303864,-0.9946022033691406,0.4034542143344879,-0.6025530099868774,-0.3120689392089844,0.7264064003619619,-0.05192086200845049,-0.0017651289129949667,-0.6852991787474741,-0.07307703443845288,-0.07399184609115513,-1.5152812118855286
1783166153074057728,0.43558382987976074,4.835965633392334,-0.05695537477731705,-2.5730342864990234,-0.0722695142030716,0.03072187304496765,-0.996911883354187,0.3775978684425354,-0.19008466601371765,-0.500982403755188,0.7170929313987678,-0.03621619718879875,-0.015246321250626357,-0.6958690180387206,-0.030726707593410712,-0.07236679394156022,-1.541869247359474
1783166153083976704,0.44550275802612305,5.206777572631836,-0.6177634000778198,-2.76056170463562,-0.07359765470027924,-0.021539682522416115,-0.9970553517341614,0.34697413444519043,0.38695716857910156,-0.7136532068252563,0.7074039896405896,-0.018379836448987538,-0.03368223236819724,-0.7057670766631013,0.021541348014200247,-0.0736813876999109,-1.567685569478717
1783166153093896704,0.45542263984680176,3.6980714797973633,-0.319301038980484,-2.619581937789917,-0.07367432117462158,-0.06356668472290039,-0.995254397392273,0.2959948778152466,0.8499741554260254,-0.18215948343276978,0.6969126879571494,-0.004216771390377358,-0.04852840545825173,-0.7154997671662389,0.06360956990077203,-0.07389084280858145,-1.5947624816487307
1783166153103815680,0.46534180641174316,4.536941051483154,-0.7522155046463013,-2.0172221660614014,-0.07106620818376541,-0.1008322611451149,-0.9923620820045471,0.4811461567878723,-0.0187203511595726,0.12049013376235962,0.6863732810609542,0.00889027580348038,-0.061155010535173734,-0.7246190063355962,0.10100391067909568,-0.07149113618676552,-1.6213790673216932
1783166153113735680,0.4752616882324219,4.135712623596191,-1.7920960187911987,-1.4425722360610962,-0.07693468779325485,-0.1427094042301178,-0.9867700338363647,0.546310305595398,-1.244940161705017,0.5969079732894897,0.6772382879165975,0.020329191187823042,-0.07875094947874449,-0.731254577092753,0.14319829436087142,-0.07780877424114656,-1.6418761500057963
1783166153123654912,0.4851808547973633,1.516848087310791,-0.9575235843658447,-1.8159748315811157,-0.08685960620641708,-0.1705690324306488,-0.9815098643302917,0.3483036756515503,-1.7834409475326538,0.7428471446037292,0.6687485968784513,0.025248928190615163,-0.09277694000156285,-0.7372449415182786,0.17140713304570204,-0.08826596946058181,-1.6605658258377933
1783166153133574656,0.495100736618042,-0.9587228894233704,0.20603278279304504,-1.8983378410339355,-0.08455853909254074,-0.17356635630130768,-0.9811853170394897,-0.33046525716781616,-1.373568058013916,0.7191003561019897,0.6605466007655828,0.026093145983882973,-0.09341574650269845,-0.7444937159419448,0.17444983606968115,-0.08596758562812035,-1.6826265596482184
1783166153143493632,0.5050196647644043,-1.1815494298934937,0.2031150907278061,-1.3734607696533203,-0.07825455069541931,-0.162980854511261,-0.9835209846496582,-0.4009172022342682,-0.558363139629364,0.3261723518371582,0.6547703885943201,0.024197448366547195,-0.08748717566360145,-0.7503574289877897,0.16371115011959692,-0.07939845335734277,-1.7001245125637643
1783166153153413888,0.5149397850036621,0.2143043726682663,-0.05166314169764519,-1.4896190166473389,-0.07456312328577042,-0.15894728899002075,-0.9844674468040466,-0.08519639819860458,0.014217674732208252,-0.09248262643814087,0.6481925613978257,0.023498446070676433,-0.08493593424655556,-0.7563598142330094,0.15962429666056469,-0.075595221875489,-1.7184676500928202
1783166153163332608,0.5248587131500244,1.7181971073150635,-0.26156553626060486,-1.9452885389328003,-0.0726405456662178,-0.16967304050922394,-0.9828196167945862,0.07112991809844971,0.5240584015846252,-0.14652913808822632,0.6401755711745876,0.026842388052939578,-0.088711194879169,-0.7626171859822438,0.1704978950107271,-0.07377620982592073,-1.7386158418419555
1783166153173252864,0.5347788333892822,3.370403289794922,-0.6495724320411682,-2.0942602157592773,-0.07246698439121246,-0.19571444392204285,-0.9779797792434692,0.22349846363067627,0.7665762901306152,-0.08719050884246826,0.6306551512153221,0.03422976747326147,-0.09918895178278182,-0.7689368831382569,0.19698593166664097,-0.07396348569856735,-1.7604481406112897
1783166153183171840,0.5446977615356445,4.860836029052734,-0.9987539649009705,-2.0164897441864014,-0.07514549791812897,-0.23699378967285156,-0.9686005711555481,0.3162190914154053,0.5443515777587891,-0.02946150302886963,0.6205293194263954,0.04515432907392954,-0.11687939195741866,-0.7741083254196722,0.23927031344429867,-0.0774264168399213,-1.7808427346668263
1783166153193091584,0.5546176433563232,5.675040245056152,-1.1745209693908691,-2.0780131816864014,-0.07924576103687286,-0.28871822357177734,-0.9541288614273071,0.29727861285209656,0.16783809661865234,0.16120588779449463,0.6094566497080857,0.0584867041986388,-0.13969563435143803,-0.778220489392778,0.2928877852299411,-0.08286542599458402,-1.8006104496503248
1783166153203010816,0.5645368099212646,6.033975124359131,-1.2451727390289307,-2.1472110748291016,-0.08287475258111954,-0.34542950987815857,-0.9347781538963318,0.26048707962036133,-0.10424697399139404,0.36850929260253906,0.5970265983468808,0.0731107367509326,-0.1651233945890545,-0.7816318559419698,0.3526964396786141,-0.08842594121732929,-1.8212496088307184
1783166153212930560,0.5744566917419434,5.942244052886963,-1.1405448913574219,-2.120490074157715,-0.08475691080093384,-0.4012604355812073,-0.9120341539382935,0.25725752115249634,-0.22280877828598022,0.48903000354766846,0.583778406585996,0.08774282324031903,-0.19048388130487198,-0.7843595521977028,0.4128925065403358,-0.0926655750596043,-1.8425197141095149
1783166153222849792,0.5843758583068848,6.290459632873535,-1.0327903032302856,-1.9496108293533325,-0.08479080349206924,-0.457202285528183,-0.8853116035461426,0.28004229068756104,-0.18667283654212952,0.5716977119445801,0.570648356756472,0.10305892560574531,-0.21615517287565697,-0.7855039273005044,0.4748468959391358,-0.09548385701939063,-1.861922747504215
1783166153232769792,0.5942957401275635,6.545457363128662,-1.1154228448867798,-1.842934489250183,-0.08421937376260757,-0.5139216184616089,-0.8536929488182068,0.41383975744247437,-0.007043957710266113,0.5272312164306641,0.5570948039415567,0.11877723010421821,-0.24299276801732,-0.7851700230168921,0.5397500950427465,-0.09833481608052315,-1.8801957549216626
1783166153242688768,0.6042146682739258,6.870482444763184,-1.0607225894927979,-1.7237764596939087,-0.08287954330444336,-0.5708641409873962,-0.8168507218360901,0.45049428939819336,0.09218066930770874,0.6089649796485901,0.5434561670793437,0.13503881772716828,-0.27081201278521344,-0.7829947571991677,0.6075579457399743,-0.10111625059681607,-1.8963950470875306
1783166153252607744,0.6141338348388672,6.946369647979736,-0.9900130033493042,-1.5964381694793701,-0.08037465810775757,-0.6268083453178406,-0.7750169634819031,0.43387505412101746,0.061424434185028076,0.6749345660209656,0.5294739196766997,0.15168868755396847,-0.2991355171091612,-0.7792085668746478,0.6774501947488951,-0.1033375545791532,-1.9114859599383076
1783166153262527744,0.6240537166595459,6.549655437469482,-0.878333330154419,-1.5611989498138428,-0.07626581937074661,-0.6784257292747498,-0.7306997179985046,0.3791069984436035,-0.037394583225250244,0.7158071398735046,0.5158429254641881,0.16809529911947801,-0.32618110783901316,-0.7741162835228306,0.7456177146155266,-0.10399712670014916,-1.9253030813786305
1783166153272446720,0.6339726448059082,5.645479679107666,-0.7876780033111572,-1.6497770547866821,-0.07033195346593857,-0.7225040197372437,-0.6877800822257996,0.28206291794776917,-0.15119898319244385,0.7534691691398621,0.5020348954142244,0.18285232891904304,-0.3502498956293921,-0.7693185836296723,0.8074173199120146,-0.1019051385291548,-1.941670191574369
1783166153282366720,0.643892765045166,4.442852973937988,-0.4501713216304779,-1.7598170042037964,-0.06139160320162773,-0.7571290135383606,-0.6503742933273315,0.16660097241401672,-0.2515990138053894,0.8514546155929565,0.4883437039701307,0.19554057596228805,-0.3695628891559546,-0.7659684326360697,0.8589070551254768,-0.09411539241079177,-1.963319188486401
1783166153292285696,0.6538116931915283,3.165207624435425,-0.11827941983938217,-1.7566826343536377,-0.049119025468826294,-0.7821754813194275,-0.6211190223693848,0.016388915479183197,-0.2760825753211975,0.6725869178771973,0.4760272119863715,0.20652492680195156,-0.3831291529248115,-0.7641711490298599,0.8981497895587525,-0.07891726112289442,-1.989323324658711
1783166153302205696,0.6637318134307861,1.9478365182876587,0.20433592796325684,-1.7947033643722534,-0.03464888781309128,-0.798235297203064,-0.6013484597206116,-0.08150101453065872,-0.21771013736724854,0.6385035514831543,0.4656961175182061,0.2156063567186964,-0.3909471585265851,-0.7640689815584114,0.9243597600397053,-0.05755502026609732,-2.018171249363662
1783166153312124672,0.6736507415771484,0.9977492094039917,0.6159873604774475,-1.8139466047286987,-0.017240697517991066,-0.8079831004142761,-0.5889533758163452,-0.18158133327960968,-0.08331328630447388,0.4785712957382202,0.4566887280564313,0.2239209262305707,-0.39418617735752676,-0.7654489377576791,0.940720965736325,-0.02926509441000864,-2.0508392290515003
1783166153322044928,0.6835708618164062,0.8802402019500732,0.6709225177764893,-1.7553718090057373,0.0005322895594872534,-0.8123323917388916,-0.5831944346427917,-0.08251776546239853,0.3551943302154541,0.5519444346427917,0.44979741206515755,0.2310478372181795,-0.3937253880105587,-0.7676453824735813,0.948140382041676,0.0009127134665987929,-2.082020278618983
1783166153331963904,0.6934897899627686,1.8147042989730835,0.612727165222168,-2.0578672885894775,0.020347297191619873,-0.8199429512023926,-0.5720836520195007,-0.03285946696996689,-0.05083036422729492,0.03131216764450073,0.44116890327966335,0.24005147819543693,-0.39539027337139654,-0.769033138861744,0.9613113352950676,0.03555201067172463,-2.1184689142155158
1783166153341883648,0.7034096717834473,2.4367032051086426,0.5797004103660583,-1.8569612503051758,0.040064822882413864,-0.8316555023193359,-0.5538446307182312,0.09210680425167084,0.023488998413085938,-0.023547887802124023,0.4311710082026337,0.25059555228970515,-0.40034927319991837,-0.7687742652282102,0.9820823960669222,0.07221367103441957,-2.1579409948873525
1783166153351802880,0.7133288383483887,2.849527359008789,0.4226863384246826,-1.8669863939285278,0.058229342103004456,-0.8448312878608704,-0.5318546891212463,0.15913212299346924,0.18520915508270264,0.14118391275405884,0.4208247621474755,0.26125749046437136,-0.4072065549172455,-0.7673551197647245,1.0062498031799711,0.10904922793656104,-2.1984088477891146
1783166153361722624,0.7232487201690674,3.3529937267303467,0.2931399941444397,-2.0481996536254883,0.0768946036696434,-0.8596454858779907,-0.5050713419914246,0.030176334083080292,0.16711002588272095,0.11182183027267456,0.40885290353944537,0.27261191863176815,-0.4161094547308086,-0.765098102308996,1.0345752974742826,0.15108486190862086,-2.2461224101726467
1783166153371641600,0.7331676483154297,3.4842755794525146,0.16351860761642456,-2.103057622909546,0.09619170427322388,-0.8745467066764832,-0.4753054976463318,-0.03800992667675018,0.15099018812179565,0.2561892867088318,0.39604880482343835,0.28446374917308714,-0.4259432163281795,-0.7621011639751801,1.064500270030546,0.19968171203299612,-2.3009148365864167
1783166153381561856,0.7430877685546875,3.417738914489746,0.06290528923273087,-2.217076539993286,0.11573973298072815,-0.8881514668464661,-0.4447372555732727,-0.08329956233501434,0.13326871395111084,0.3237198293209076,0.38237597416992986,0.295873923929942,-0.43599311375078514,-0.7590501934296547,1.0933069387518306,0.25459561325892616,-2.363749572218667
1783166153391480576,0.7530066967010498,3.1384544372558594,0.04281679913401604,-2.3838305473327637,0.13657012581825256,-0.8993029594421387,-0.41545504331588745,-0.10396209359169006,0.0909532904624939,0.30612581968307495,0.3680694781726275,0.30683958211121365,-0.4451089114729145,-0.7564736900546937,1.1181729603552972,0.3175966177918207,-2.4356514027448366
1783166153401400832,0.7629268169403076,2.993229627609253,0.014961807057261467,-2.448514461517334,0.15857672691345215,-0.9078885316848755,-0.38806164264678955,-0.05628180503845215,0.02983677387237549,0.30340588092803955,0.35322680095604475,0.3172307254688752,-0.4531377733283959,-0.7544942784583003,1.138219438157864,0.3879306465015636,-2.515894802795707
1783166153411319808,0.7728457450866699,3.2075209617614746,-0.03879223391413689,-2.440973997116089,0.18079303205013275,-0.9153009653091431,-0.35991373658180237,0.01143716275691986,0.003573119640350342,0.18504807353019714,0.33806279320471855,0.3275248947660274,-0.4612706045534047,-0.7521106030099642,1.1562545778637596,0.4655044633402256,-2.6036544670562236
1783166153421239808,0.7827658653259277,3.557896614074707,-0.2584572434425354,-2.3756473064422607,0.20240746438503265,-0.9222474694252014,-0.32937952876091003,0.08729588985443115,0.046713411808013916,0.03158906102180481,0.322208803596796,0.337557399693981,-0.47049466747535906,-0.7489133848471835,1.1738541014757593,0.5510213288217943,-2.700715330242678
1783166153431158784,0.79268479347229,4.1512556076049805,-0.45417162775993347,-2.256459951400757,0.22268140316009521,-0.929313600063324,-0.2946002185344696,0.15001453459262848,0.03693389892578125,-0.08360415697097778,0.3052349551505375,0.3471519988187002,-0.48185618754714643,-0.744400296541877,1.1925498560556813,0.6472515235414872,-2.8109832191923223
1783166153441078784,0.8026046752929688,4.630865573883057,-0.7162756323814392,-2.231241464614868,0.24181611835956573,-0.9362290501594543,-0.2549513280391693,0.15572112798690796,0.010615646839141846,-0.0884171724319458,0.2869733363373036,0.3563575071735259,-0.495513529732536,-0.7383238008060218,1.2117406605308436,0.7589629344960359,-2.9393038800515128
1783166153450997760,0.8125238418579102,4.483557224273682,-0.841599702835083,-2.2046875953674316,0.26078930497169495,-0.9413666725158691,-0.21405117213726044,0.12324395775794983,0.00375974178314209,0.0009621679782867432,0.2679514009611285,0.36492033736841223,-0.5097132178080124,-0.7315926041302899,1.2266584558750646,0.883511255287816,-3.082120909079102
1783166153460917760,0.8224437236785889,4.284070014953613,-0.9300274848937988,-2.24448823928833,0.2799569368362427,-0.9438456892967224,-0.17544011771678925,0.056758731603622437,0.022855818271636963,0.18563295900821686,0.24859106300991224,0.37233532402324165,-0.5231121781940239,-0.7252050984350651,1.2340832137559672,1.0109982849696817,3.0537421439783423
1783166153470836736,0.8323626518249512,3.768568754196167,-1.0187751054763794,-2.3005905151367188,0.2998746633529663,-0.9436153173446655,-0.14023330807685852,-0.010369658470153809,0.04108846187591553,0.2210591435432434,0.2298282204579628,0.3793513747034793,-0.5347671245772022,-0.7192326820457163,1.233386493615636,1.1333703923753071,2.9126512690610276
1783166153480756736,0.842282772064209,3.45317006111145,-0.9687497615814209,-2.2028281688690186,0.31994542479515076,-0.9410741925239563,-0.10960971564054489,-0.04705724120140076,0.0909765362739563,0.2803555727005005,0.21203330914047816,0.3857135340721679,-0.5444448640766034,-0.7140355235243392,1.225792567211741,1.2407391211372976,2.7877095413013313
1783166153490675712,0.8522017002105713,3.5155107975006104,-1.032366394996643,-2.1508255004882812,0.33935078978538513,-0.9372144937515259,-0.08043630421161652,-0.03763875365257263,0.06830275058746338,0.18465381860733032,0.19449936028029316,0.39133935342888765,-0.5537466565397968,-0.7087934555791684,1.2145556506230322,1.338061532121923,2.6724276610115036
1783166153500595712,0.8621218204498291,3.9658596515655518,-1.1885002851486206,-2.0618512630462646,0.35829758644104004,-0.9322774410247803,-0.04981721192598343,-0.03058454394340515,0.13195395469665527,0.11810028553009033,0.17635565856398747,0.396443471938796,-0.5638474685304907,-0.7027142591443888,1.2006582648534476,1.4326433791947135,2.5583918875030367
1783166153510514688,0.8720407485961914,4.746969223022461,-1.3850069046020508,-2.0183804035186768,0.3767765760421753,-0.9261952638626099,-0.014200231991708279,0.04280957579612732,0.17952173948287964,0.05188947916030884,0.15650383320109967,0.40100507613586023,-0.5762766807824572,-0.6946989308355872,1.1841934069620517,1.533125422367048,2.435211525720124
1783166153520434944,0.8819608688354492,5.211673259735107,-1.5288962125778198,-2.0132880210876465,0.39546144008636475,-0.9181126952171326,0.02606077864766121,0.07887324690818787,0.19139766693115234,0.06060910224914551,0.13532301515649142,0.4055376112735572,-0.5903978617006831,-0.6845854222459387,1.163291796151296,1.6366008499200855,2.3073939972858164
1783166153530353664,0.8918797969818115,5.562795162200928,-1.5787023305892944,-1.9419103860855103,0.41420066356658936,-0.9075775146484375,0.0688517764210701,0.13229277729988098,0.15098583698272705,0.08057748526334763,0.1130975026400679,0.4095555899587237,-0.6055494264170604,-0.6728914556017256,1.1374781537895626,1.7355182362402992,2.1822481971579655
1783166153540272640,0.9017987251281738,5.457693576812744,-1.6005791425704956,-1.956632137298584,0.4331548810005188,-0.894361138343811,0.1117822676897049,0.15031078457832336,0.10706853866577148,0.04877080023288727,0.08997830266362788,0.4126135549607431,-0.6210001513393315,-0.660312707920163,1.1070009953643458,1.823351394482924,2.0658525479315366
1783166153550192896,0.9117188453674316,4.91743803024292,-1.5435166358947754,-1.940327763557434,0.4525299370288849,-0.8789286613464355,0.15066930651664734,0.1024169921875,0.12709760665893555,0.08733725547790527,0.06798929574412853,0.4156750237024756,-0.6344674367913521,-0.6481071604099964,1.073611360303868,1.8922007814807065,1.9706206354832831
1783166153560111872,0.921637773513794,4.360813140869141,-1.5049757957458496,-1.9716715812683105,0.47214236855506897,-0.8621671199798584,0.1837109625339508,0.058253198862075806,0.15911829471588135,0.041859760880470276,0.046874991648181194,0.41803178804128993,-0.6458365948825701,-0.6371399960264185,1.039531807377067,1.9418716586836469,1.8950181066099299
1783166153570031616,0.9315576553344727,4.096887111663818,-1.4726336002349854,-1.9161745309829712,0.49164849519729614,-0.8444722890853882,0.21248093247413635,0.009907841682434082,0.21043914556503296,-0.04237593710422516,0.0267832083607959,0.42011335853439036,-0.6555495663469153,-0.6269307312186363,1.005579158547149,1.9787332320014681,1.833468535324128
1783166153579949312,0.9414753913879395,3.931318759918213,-1.5319985151290894,-1.7513951063156128,0.5103743076324463,-0.8263040781021118,0.2382008582353592,0.04718184471130371,0.3065439462661743,-0.09537863731384277,0.00778625938445263,0.42189174570415494,-0.6641594584203281,-0.6171215039974879,0.972513674610847,2.007465621840378,1.7812565773902562
1783166153589869312,0.9513952732086182,3.979478120803833,-1.6864527463912964,-1.6586824655532837,0.5281405448913574,-0.8076976537704468,0.2620915472507477,0.1293453574180603,0.33151668310165405,-0.12245848774909973,-0.010973251466571932,0.4226616704541465,-0.6726090192719358,-0.6073168486372417,0.9402366214738652,2.0314422127034857,1.7325485686477242
1783166153599788544,0.9613144397735596,3.9509027004241943,-1.6771677732467651,-1.5384800434112549,0.5457685589790344,-0.7881779670715332,0.28445059061050415,0.13738268613815308,0.2553257942199707,-0.12284469604492188,-0.029921329798105304,0.4226898201649286,-0.6808513844877168,-0.5973938326769124,0.9078428352554347,2.051254004582147,1.6865677359981421
1783166153609708288,0.9712343215942383,3.7687106132507324,-1.7469676733016968,-1.3519601821899414,0.5619741082191467,-0.7688928842544556,0.3049409091472626,0.14263099431991577,0.13041937351226807,-0.05043959617614746,-0.048112963577985966,0.42182600740506987,-0.6888637563454498,-0.5875497863126408,0.8771078275780887,2.0679593192044274,1.6432799858357796
1783166153619627520,0.9811534881591797,3.637678861618042,-1.7361379861831665,-1.1468433141708374,0.5770615935325623,-0.7501388192176819,0.32294201850891113,0.11571788787841797,0.02093660831451416,0.02669784426689148,-0.06555629508479639,0.4201100232906379,-0.6964040340542663,-0.5781274138593953,0.8482719696525608,2.0810043198785406,1.6032352763111708
1783166153629547264,0.9910733699798584,3.3911962509155273,-1.7213401794433594,-1.050567626953125,0.5908324718475342,-0.7321472764015198,0.33893558382987976,0.11464238166809082,-0.050033509731292725,0.06226372718811035,-0.08204108059208892,0.4177180582103869,-0.7035477361681294,-0.5690355682020931,0.8214690975276882,2.091621214821735,1.5657749297822507
1783166153639466240,1.0009922981262207,2.671860694885254,-1.695473551750183,-1.0866721868515015,0.6045407056808472,-0.715175986289978,0.3507905900478363,0.06972998380661011,-0.008197486400604248,0.041161924600601196,-0.09747724367889035,0.4153353683666242,-0.7091486678368395,-0.561340309284975,0.7968758412390948,2.0965744352874434,1.5353251615447734
1783166153649386496,1.0109124183654785,1.81407630443573,-1.4989506006240845,-0.9496753811836243,0.6175578832626343,-0.700977623462677,0.3567247688770294,0.07015568017959595,0.10846364498138428,0.03812691569328308,-0.11058542422692762,0.41350197796453264,-0.7123050635967569,-0.5562449485327827,0.7767673355056092,2.0946107223329773,1.515782231226503
1783166153659305216,1.0208313465118408,1.3830255270004272,-1.5434706211090088,-0.9425643682479858,0.6295101046562195,-0.6894497871398926,0.3582955300807953,0.09175747632980347,0.16553938388824463,-0.0157814621925354,-0.12181810149498133,0.41179004306349665,-0.7138464262280734,-0.5531839473996878,0.7607291902713409,2.088234865974464,1.5033273474227489
1783166153669225472,1.0307514667510986,1.2769025564193726,-1.5457420349121094,-0.9657796621322632,0.6417887210845947,-0.6786043047904968,0.35721588134765625,0.12585031986236572,0.2459719181060791,-0.08771520853042603,-0.13272069851182305,0.4101896920191209,-0.714389499956854,-0.5511598373085984,0.7458607365351457,2.0786881694041766,1.4945697710886348
1783166153679144448,1.040670394897461,1.664894700050354,-1.6087747812271118,-0.7183022499084473,0.6531383991241455,-0.6679599285125732,0.3567064106464386,0.15331900119781494,0.2704837918281555,-0.07292357087135315,-0.14372286822460256,0.4077883831814939,-0.7155849681067813,-0.5486259456567222,0.7314640970736599,2.070672834403879,1.4827537563159345
1783166153689064192,1.0505902767181396,1.646252155303955,-1.5410308837890625,-0.7137181758880615,0.6635329723358154,-0.6573117971420288,0.3573027551174164,0.13117527961730957,0.1954740285873413,-0.01835918426513672,-0.1546739197967087,0.404855699283707,-0.7174560863263095,-0.5453665037507105,0.7172461297910075,2.064756114412642,1.4679978605086725
1783166153698983424,1.060509443283081,1.6575175523757935,-1.4131771326065063,-0.6155943870544434,0.6732960343360901,-0.6468501091003418,0.3581310510635376,0.05760008096694946,0.13777107000350952,0.08495369553565979,-0.16514032728668993,0.4020177810345891,-0.7193380523296187,-0.5419070945838674,0.7034467721641369,2.0596427534395856,1.45324969451098
1783166153708903424,1.0704293251037598,1.5878591537475586,-1.1632518768310547,-0.45878851413726807,0.6813620328903198,-0.6373603940010071,0.35988494753837585,0.029850006103515625,-0.04730135202407837,0.05742758512496948,-0.17446889624958745,0.39912117478811887,-0.7215571813381269,-0.5381616750951824,0.6910678330017863,2.056736597861515,1.437815656160489
1783166153718822400,1.0803484916687012,1.2271841764450073,-1.0912858247756958,-0.5359206199645996,0.688608705997467,-0.6286081671714783,0.36148276925086975,0.07184350490570068,-0.20472002029418945,0.03133949637413025,-0.18265265298786218,0.39682142604249343,-0.7233769012694251,-0.5346930096656958,0.6797622938865799,2.0542014340335943,1.4246302130714037
1783166153728742400,1.0902683734893799,0.7364488840103149,-0.9068509936332703,-0.22023747861385345,0.6946869492530823,-0.622252881526947,0.3608478903770447,0.18435657024383545,-0.2777256965637207,-0.01772359013557434,-0.1892425703648387,0.39474032693035244,-0.7242955281147523,-0.5326943094708579,0.6716173192809914,2.0498743579506153,1.415819018999357
1783166153738661376,1.1001873016357422,-0.002937471028417349,-0.7760194540023804,-0.0971853956580162,0.6986862421035767,-0.6198681592941284,0.3572133779525757,0.2898697257041931,-0.33888739347457886,-0.022572845220565796,-0.1934233162993593,0.3927148293647829,-0.7241420790069759,-0.53289856605076,0.6685746567916039,2.043414750640989,1.412641471618655
1783166153748581376,1.110107421875,-0.4844447076320648,-0.7351481914520264,-0.008215841837227345,0.7019302248954773,-0.6201866269111633,0.35023197531700134,0.28476405143737793,-0.3161383867263794,-0.04833689332008362,-0.19592762182053397,0.3912149452819369,-0.7225419374596854,-0.5352535440905585,0.6689806014627133,2.033608016705344,1.416048056081832
1783166153758500352,1.1200263500213623,-0.7479776740074158,-0.5674840211868286,0.20049722492694855,0.7037644982337952,-0.6228632926940918,0.3416976034641266,0.2592635154724121,-0.278168261051178,-0.1322859227657318,-0.19686801591119266,0.38982753134977416,-0.7203355461366511,-0.5388824797658129,0.6723973114313622,2.022799715908289,1.4229028208546721
1783166153768420352,1.1299464702606201,-0.7459139823913574,-0.44421669840812683,0.39661186933517456,0.7037124633789062,-0.6273828744888306,0.3334357738494873,0.22110742330551147,-0.30181634426116943,-0.1414496898651123,-0.196521829811418,0.38810932797931885,-0.7183933755054129,-0.5428270940812927,0.6781877887681589,2.013284626580601,1.4298157743641242
1783166153778339328,1.1398653984069824,-1.1616069078445435,-0.4812930226325989,0.411306232213974,0.7029173970222473,-0.6330338716506958,0.3243068754673004,0.1939789056777954,-0.3622968792915344,-0.08066990971565247,-0.19538938129464634,0.3864232354905793,-0.7161218620074494,-0.547420694904196,0.6854660501040439,2.0030674330095666,1.4386302355132026
1783166153788259328,1.1497852802276611,-1.5844087600708008,-0.3475482761859894,0.4950330853462219,0.701573371887207,-0.6405297517776489,0.3122762143611908,0.19375133514404297,-0.4050940275192261,0.047220826148986816,-0.1931352053353679,0.3849477927109692,-0.7127084320387677,-0.5536792233681139,0.6951879192529647,1.9895749864285466,1.4526612114958322
1783166153798178560,1.1597044467926025,-1.9676446914672852,-0.22190262377262115,0.5706937313079834,0.6993137001991272,-0.6493492126464844,0.29884156584739685,0.16628694534301758,-0.5170632004737854,0.04966917634010315,-0.18946017028996645,0.38403036340794167,-0.7084782741539528,-0.5609671735077836,0.7067283519558065,1.9746435080996552,1.4711258433170473
1783166153808098304,1.1696243286132812,-2.5864341259002686,-0.11135001480579376,0.6724693775177002,0.6959389448165894,-0.6600849032402039,0.28276729583740234,0.22357112169265747,-0.543330192565918,0.05780893564224243,-0.18407373905663071,0.3835283165243127,-0.7030573825755063,-0.5698538286606413,0.7209317757070541,1.9567309223688827,1.4957178973021092
1783166153818017536,1.1795434951782227,-2.984163761138916,-0.010399626567959785,0.7351765632629395,0.691693902015686,-0.6723798513412476,0.2635616958141327,0.2668631672859192,-0.5141893029212952,0.09032011032104492,-0.1770665874627702,0.383473510184006,-0.696224760452643,-0.5804020613253418,0.737419270293799,1.9348500919495548,1.5273311995359606
1783166153827937280,1.1894633769989014,-2.93015193939209,-0.0024812500923871994,0.91840660572052,0.686414361000061,-0.6853050589561462,0.24329473078250885,0.30076825618743896,-0.4860968589782715,0.09374140202999115,-0.1690937229564535,0.38333039147866876,-0.6889885164763297,-0.5914050729785922,0.7550225372225018,1.9114237411635233,1.5617393600457186
1783166153837856256,1.1993823051452637,-2.705312728881836,-0.10366805642843246,1.2239261865615845,0.6793444752693176,-0.6989185810089111,0.22361652553081512,0.3533095121383667,-0.4829205870628357,0.08108633756637573,-0.1608626747900047,0.3818798030772493,-0.6826244043026688,-0.6019261708084026,0.7738843195136849,1.8887908347338735,1.5935815254096812
1783166153847775488,1.209301471710205,-2.8454580307006836,-0.08402884006500244,1.2500014305114746,0.6711633205413818,-0.712837815284729,0.2034749537706375,0.35666871070861816,-0.4868844747543335,0.06498825550079346,-0.15243488689359985,0.37959242030515045,-0.6764961740222972,-0.612393761935929,0.79353627830929,1.865156626389902,1.6253385153248436
1783166153857695232,1.2192213535308838,-3.041935682296753,-0.19918718934059143,1.383860468864441,0.6622197031974792,-0.7270136475563049,0.1814289689064026,0.3596004247665405,-0.6026220321655273,-0.011720642447471619,-0.1433693041806585,0.3770608735621853,-0.6697309751407438,-0.6234828390454638,0.8139625157252364,1.8382055918823297,1.6609408224554438
1783166153867614208,1.229140281677246,-3.4330251216888428,-0.4033898711204529,1.3493437767028809,0.6531546711921692,-0.7410207986831665,0.15581215918064117,0.4187142848968506,-0.7901681661605835,-0.03166662156581879,-0.13427828900360309,0.37394647090933564,-0.6618686526108956,-0.6356598125853549,0.8345893390511768,1.8049728803349347,1.7019253908201857
1783166153877534464,1.239060401916504,-4.228611469268799,-0.4975565969944,1.6030312776565552,0.6433024406433105,-0.7554501295089722,0.1243259459733963,0.4276661276817322,-0.9488039612770081,0.11439775675535202,-0.12424262174821445,0.37027292945288837,-0.6519669696071386,-0.6499236402011621,0.8563408578974064,1.7617047689114498,1.753440851597859
1783166153887453440,1.2489793300628662,-5.122159481048584,-0.578071653842926,1.7741942405700684,0.6314972043037415,-0.7706933617591858,0.08510589599609375,0.42386168241500854,-1.021939754486084,0.27678680419921875,-0.11209116187903745,0.36596334404077696,-0.6392368733198972,-0.6669952015020025,0.879928532572813,1.7047576429132676,1.8207577836281705
1783166153897373440,1.258899450302124,-5.745787143707275,-0.5804274678230286,1.9736610651016235,0.6180477738380432,-0.7851901650428772,0.03864685446023941,0.40816688537597656,-0.9900174736976624,0.3659704923629761,-0.09817346130364843,0.36104861117696346,-0.6236724525963135,-0.6863225423703345,0.9030031183577472,1.6332455495599798,1.904424527942537
1783166153907292416,1.2688183784484863,-5.867793083190918,-0.6117947101593018,2.112159490585327,0.6037833094596863,-0.7970637083053589,-0.011632862500846386,0.4546883702278137,-0.8222295045852661,0.41397660970687866,-0.08330458456498203,0.3559199978137361,-0.6062215138133978,-0.7063121568680423,0.9224172530040617,1.551532091553528,1.9996406499483967
1783166153917212416,1.2787384986877441,-5.4124531745910645,-0.4781709313392639,2.3220202922821045,0.5901070237159729,-0.8050183653831482,-0.06098303198814392,0.5304373502731323,-0.6705369353294373,0.4382566213607788,-0.06894353041421518,0.35096973254376745,-0.5884970098949859,-0.7250780567388926,0.9357064019161982,1.4678195479861729,2.0967539119667062
1783166153927131392,1.2886574268341064,-4.920255661010742,-0.5254760980606079,2.4672093391418457,0.5710098743438721,-0.8141536116600037,-0.10536419600248337,0.6137740612030029,-0.5990696549415588,0.49922406673431396,-0.05307165634151089,0.3439698926183852,-0.573587495944807,-0.741529154750047,0.9512700208128914,1.3883262584686122,2.188647530149838
1783166153937051392,1.2985773086547852,-4.683546543121338,-0.4889981150627136,2.50358510017395,0.5505550503730774,-0.8217971920967102,-0.14676056802272797,0.6178256869316101,-0.5942031741142273,0.5833755731582642,-0.038800496734016296,0.3352546413825166,-0.5605569061552331,-0.7562240871891842,0.9645580390578029,1.3102857074541658,2.2741939681124803
1783166153946970368,1.3084964752197266,-4.949322700500488,-0.4437111020088196,2.4670333862304688,0.5300072431564331,-0.8269175291061401,-0.1878817081451416,0.6251440644264221,-0.6118488311767578,0.5868990421295166,-0.024147715368430564,0.3268801357850614,-0.5469995607115358,-0.7702971226123908,0.9736037636872236,1.2301280428320784,2.363246651629111
1783166153956890368,1.3184163570404053,-5.443326950073242,-0.41648057103157043,2.676717519760132,0.5081610679626465,-0.8292534351348877,-0.23261758685112,0.6699699759483337,-0.5851141214370728,0.6211979389190674,-0.008110630996577876,0.31817372948583755,-0.5314665407828547,-0.7850114160937021,0.9777704972409753,1.1415050683619727,2.4627056597071935
1783166153966809344,1.3283352851867676,-5.46070671081543,-0.5994112491607666,2.555813789367676,0.48559918999671936,-0.8281792402267456,-0.2798437178134918,0.7000544667243958,-0.5601873993873596,0.5968908071517944,0.008652260934499978,0.3090991044824343,-0.5143305232751283,-0.7999043443223025,0.9758511958592555,1.047996587001285,2.568044449211343
1783166153976729344,1.3382554054260254,-5.233608245849609,-0.6856881380081177,2.6852290630340576,0.462380051612854,-0.8243401050567627,-0.32660073041915894,0.732627272605896,-0.47909611463546753,0.5340287685394287,0.024916593847530907,0.2992165132089937,-0.4971610491401297,-0.8140512727197868,0.9690354715889405,0.9558233493814157,2.6704544919629223
1783166153986648320,1.3481743335723877,-4.57737922668457,-0.7490583062171936,2.835252046585083,0.4374988377094269,-0.8196589946746826,-0.36980241537094116,0.7710735201835632,-0.3339816927909851,0.5622158050537109,0.041195468015480644,0.2886445582182924,-0.48143859290472135,-0.8265616170237972,0.9608155307753146,0.8690576908168195,2.7665771708637616
1783166153996568320,1.3580944538116455,-3.6555445194244385,-0.957246720790863,3.0900864601135254,0.4102506935596466,-0.8162583708763123,-0.4067143201828003,0.766842782497406,-0.28269481658935547,0.6024235486984253,0.056938855054943505,0.27706081889172446,-0.468913787412635,-0.8367287742531037,0.9549041428410535,0.7897267980961422,2.8527491352549337
1783166154006487296,1.3680133819580078,-2.5890653133392334,-0.8075667023658752,3.2187674045562744,0.38140133023262024,-0.815596878528595,-0.43512624502182007,0.6650464534759521,-0.28447026014328003,0.6848668456077576,0.07232582124557509,0.2654055866577726,-0.4604310513282541,-0.8439977432802831,0.9537600213667594,0.7196960458070117,2.9285928735734905
1783166154016407296,1.3779332637786865,-1.7989310026168823,-0.6170238852500916,3.3468382358551025,0.35185542702674866,-0.8182639479637146,-0.4545789957046509,0.5373657941818237,-0.31134432554244995,0.7601056694984436,0.08742155753276568,0.25438280738503816,-0.4560700531435318,-0.8483201829477849,0.9583844410527221,0.6587005467217416,2.9954509927008135
1783166154026326528,1.387852430343628,-2.051136016845703,-0.3755124807357788,3.2071478366851807,0.32267576456069946,-0.8207934498786926,-0.471358060836792,0.5141924619674683,-0.2473675012588501,0.8201892375946045,0.10257136886288322,0.24397080300143864,-0.45254747565991704,-0.8515621418748892,0.9627986395264679,0.6002923988171457,3.060757206555523
1783166154036246272,1.3977723121643066,-2.394981622695923,-0.3090713322162628,3.1276681423187256,0.2957501709461212,-0.8199154734611511,-0.4901737868785858,0.498958021402359,-0.1802828311920166,0.6978306770324707,0.11829510670631964,0.23478484065610383,-0.4469778309445418,-0.8550397932756361,0.9612633308728944,0.5428848146315327,3.1283286860932304
1783166154046165504,1.407691478729248,-2.753779172897339,-0.39622169733047485,3.1237006187438965,0.26852285861968994,-0.81607586145401,-0.5117769241333008,0.5311750173568726,-0.20784986019134521,0.5067110657691956,0.13369626951178176,0.2247608001975944,-0.4399933119122868,-0.8590772439400697,0.9545882563828143,0.4832018196634973,-3.0863267989715206
1783166154056085248,1.4176113605499268,-3.2661163806915283,-0.2726573050022125,2.9070868492126465,0.2425008863210678,-0.8082489371299744,-0.5365882515907288,0.476889967918396,-0.21956783533096313,0.40963512659072876,0.14910329252209742,0.21474358804459107,-0.4308028008591473,-0.8637490112985619,0.9411722742277677,0.4244586101256927,-3.018068307434893
1783166154066004224,1.427530288696289,-3.656860828399658,-0.16605283319950104,2.7172038555145264,0.2192000299692154,-0.795889139175415,-0.5643685460090637,0.4161912202835083,-0.18674635887145996,0.4357674717903137,0.1642744208339701,0.2053440301010839,-0.4191056615116915,-0.8690214056651435,0.9204747201470894,0.37046546353995174,-2.9531884229049714
1783166154075924480,1.4374504089355469,-3.886916399002075,-0.2007787525653839,2.6551437377929688,0.1976129710674286,-0.7798923850059509,-0.5938998460769653,0.4061926007270813,-0.12174946069717407,0.5462619066238403,0.179204360133349,0.19611162648394626,-0.40569730660534586,-0.8745489063129389,0.8944938719746464,0.3212145312477364,-2.8924689819346074
1783166154085843200,1.4473693370819092,-4.171215057373047,-0.18380722403526306,2.7737083435058594,0.17573654651641846,-0.760922372341156,-0.6245908737182617,0.37319836020469666,-0.06270122528076172,0.5438109040260315,0.19440609439254386,0.1862538326446628,-0.3911701178380549,-0.8800577597756537,0.8647334715130193,0.274271842872899,-2.8339736027046456
1783166154095763456,1.457289457321167,-5.016443252563477,-0.26689305901527405,2.7432003021240234,0.1539321094751358,-0.736669659614563,-0.6585003137588501,0.2945084273815155,-0.032785236835479736,0.4749829173088074,0.21013773677593517,0.1755768867915399,-0.37406228570535477,-0.8860543101580616,0.8281323605584754,0.22963807803332867,-2.777153602584024
1783166154105682432,1.4672083854675293,-5.981266498565674,-0.36542123556137085,2.782998561859131,0.13208843767642975,-0.703762948513031,-0.6980475187301636,0.18341754376888275,-0.014147818088531494,0.4810217618942261,0.2263471937907425,0.16329048824723905,-0.35257970555011214,-0.8931913093889668,0.7806803765759233,0.18701438416541388,-2.7223484791715755
1783166154115602176,1.477128267288208,-6.745508670806885,-0.36888372898101807,2.6101272106170654,0.11104325950145721,-0.6619141101837158,-0.7413089871406555,-0.03395586460828781,-0.03146052360534668,0.4859532117843628,0.24269458351445236,0.14970924579828632,-0.32700556231038613,-0.900973807414379,0.7233695076596572,0.1486879723212855,-2.6716867617150433
1783166154125521408,1.4870474338531494,-7.385154724121094,-0.20174002647399902,2.215043544769287,0.09366542100906372,-0.611055850982666,-0.7860264778137207,-0.3085091710090637,0.013903141021728516,0.4216771125793457,0.2580838743378706,0.13597331609013227,-0.297486179688995,-0.909068772985606,0.6573937227184311,0.11860391248178036,-2.628845360077809
1783166154135441408,1.4969673156738281,-7.294980049133301,0.008907528594136238,1.9525792598724365,0.08112239837646484,-0.5539173483848572,-0.8286100625991821,-0.48915767669677734,0.07383012771606445,0.3595091700553894,0.27202975129671253,0.12306910823420636,-0.2656105238762833,-0.9166814016299112,0.587062061182671,0.09759077011929397,-2.594157840811218
1783166154145360384,1.5068864822387695,-6.000855922698975,0.20531059801578522,1.8143987655639648,0.07225795090198517,-0.49935439229011536,-0.8633793592453003,-0.5119094252586365,0.19669631123542786,0.33272451162338257,0.2846570901063294,0.1120486713664808,-0.23612582030237883,-0.9223122657948368,0.5228534360046289,0.08349741748415342,-2.5652261270240944
1783166154155280384,1.5168063640594482,-3.4768853187561035,-0.07962887734174728,1.8325754404067993,0.0644761398434639,-0.45959606766700745,-0.8857845664024353,-0.4678574800491333,0.42035043239593506,0.2176479697227478,0.2956041659249553,0.10366770063612794,-0.2153154155614215,-0.9249380605135012,0.47754031652458034,0.07266171390346074,-2.5406185339078804
1783166154165199360,1.5267252922058105,-0.8900780081748962,-0.5669718980789185,1.731350302696228,0.05376520752906799,-0.4422978460788727,-0.8952552080154419,-0.424431711435318,0.6445530652999878,0.033408284187316895,0.3046008869906371,0.09731379031606636,-0.2071289671850656,-0.9245788381098881,0.45815914541036146,0.05998368667355013,-2.5190834060596177
1783166154175118336,1.536644458770752,0.593578577041626,-0.9447779655456543,1.5717132091522217,0.03961601108312607,-0.4431275427341461,-0.8955827951431274,-0.5055583715438843,0.7991608381271362,-0.02441537380218506,0.3113580991744841,0.09206335269284566,-0.2091242202720847,-0.922413997364464,0.4590844687176812,0.044206076770485214,-2.5008473528662067
1783166154185038336,1.5465643405914307,1.1821123361587524,-1.0271961688995361,1.2677570581436157,0.02463899366557598,-0.45243120193481445,-0.8914588689804077,-0.6814535856246948,0.7887654304504395,0.02451556921005249,0.3164108023475131,0.08766327713563382,-0.21583724847169353,-0.9195724431024453,0.4694896196622713,0.027631923111224553,-2.4854104861621202
1783166154194957312,1.556483268737793,1.1586464643478394,-0.8921124339103699,0.8399097919464111,0.011435885913670063,-0.46382972598075867,-0.8858505487442017,-0.8961557149887085,0.616173505783081,0.03833162784576416,0.3195922023929832,0.08416491056958256,-0.22358666306159938,-0.9169438507800789,0.48231319434038267,0.012908781406778182,-2.474019197648134
1783166154204877312,1.5664033889770508,0.9803001284599304,-0.5539101362228394,0.521990180015564,0.0019398522563278675,-0.4738136827945709,-0.8806229829788208,-1.0346699953079224,0.4963661730289459,0.1155472993850708,0.32139869220560674,0.08191852141670497,-0.23016922675252552,-0.9148848548449077,0.49361642072574147,0.002202814552947384,-2.4664833324255957
1783166154214796288,1.576322317123413,1.3096816539764404,-0.47898614406585693,0.07758375257253647,-0.004013548139482737,-0.48439013957977295,-0.8748428821563721,-1.1193995475769043,0.5332640409469604,0.22109538316726685,0.3216295586052403,0.08114222057715077,-0.23663155225397506,-0.9132228226340765,0.5056659338645634,-0.00458770350919904,-2.4631552813309643
1783166154224716544,1.586242437362671,2.1230416297912598,-0.29396942257881165,-0.03414278104901314,-0.007642766926437616,-0.4998684227466583,-0.86606764793396,-1.1323413848876953,0.7086391448974609,0.32741713523864746,0.32057122706287866,0.08214033755243784,-0.2453959051419746,-0.9111903503519209,0.5234468457984431,-0.008824447776427345,-2.462645608115498
1783166154234635264,1.5961613655090332,3.253368377685547,-0.18024030327796936,-0.2941894233226776,-0.00902270246297121,-0.5245783925056458,-0.8513143658638,-1.131037712097168,0.8633540272712708,0.15566617250442505,0.31843011367887214,0.0858038779337864,-0.2588059482559324,-0.9078873617396457,0.5522198032900391,-0.010598158587765114,-2.4639263768238036
1783166154244555520,1.606081485748291,3.743250608444214,-0.7229526042938232,-0.5782667398452759,-0.010889288038015366,-0.5563702583312988,-0.8308631777763367,-0.9108636379241943,0.9354138374328613,-0.044167399406433105,0.3146138775668922,0.09023202998082618,-0.27645362029941933,-0.9035760504053425,0.5900110904285689,-0.013105244718220926,-2.467491876851755
1783166154254474496,1.6160004138946533,3.780973196029663,-0.9768601655960083,-0.42046210169792175,-0.016832230612635612,-0.5958645343780518,-0.8029085397720337,-0.6880475282669067,0.9600460529327393,-0.1700986623764038,0.3091733275672515,0.09380126764876676,-0.2995781022039249,-0.8977004812949371,0.6383417096133218,-0.020960999434586843,-2.471300410842668
1783166154264394240,1.625920295715332,3.360344409942627,-0.8071438074111938,-0.42258650064468384,-0.022313246503472328,-0.6267693638801575,-0.7788853049278259,-0.5822094678878784,0.86738520860672,-0.22932392358779907,0.30372243987247577,0.09581357067481411,-0.3183977329737969,-0.8928580014480139,0.6774002285218766,-0.02863983371955751,-2.475723398442684
1783166154274313472,1.6358394622802734,2.339475393295288,-1.036184549331665,-1.049795150756836,-0.025637252256274223,-0.6499845385551453,-0.7595148682594299,-0.46484124660491943,0.6131955981254578,-0.10381209850311279,0.2977719085391801,0.09704067920500874,-0.3329048795272279,-0.8894321014567405,0.7075641057629267,-0.03374196097810445,-2.4830103321938064
1783166154284233216,1.6457593441009521,1.081234097480774,-0.7809209823608398,-1.1861727237701416,-0.024800892919301987,-0.6637257933616638,-0.7475647330284119,-0.5611976385116577,0.4591054320335388,-0.10363155603408813,0.290184408363665,0.09760169205878125,-0.3416014398147467,-0.8885805498443463,0.7257889555186353,-0.03316341607556185,-2.497695318805211
1783166154294152192,1.6556782722473145,0.17769281566143036,-0.409371554851532,-0.6283586621284485,-0.023910634219646454,-0.6695886254310608,-0.742347240447998,-0.32905566692352295,0.3286157250404358,0.18839216232299805,0.28470866268547373,0.09721591262804012,-0.34550751619416104,-0.8888839642243644,0.7336547566539544,-0.03219836909114751,-2.5092723114252364
1783166154304072448,1.6655983924865723,-0.8189083933830261,-0.2705196440219879,-1.5984220504760742,-0.01923166774213314,-0.6664668917655945,-0.7452865839004517,-0.4416447579860687,0.252358615398407,0.39195406436920166,0.2794676442940977,0.09689718215401358,-0.34346416488241877,-0.8913704695566141,0.7294596495245623,-0.025798667994254842,-2.5241038006342373
1783166154313991424,1.6755173206329346,-1.4565916061401367,0.5922884941101074,-1.0629652738571167,-0.008459181524813175,-0.6590004563331604,-0.7520949244499207,0.1915188580751419,-0.07122409343719482,0.22331690788269043,0.27418483629773965,0.09880612489661193,-0.33791992960149947,-0.8949134446775463,0.7194890606782791,-0.011247017937895391,-2.542760507965883
1783166154323911424,1.6854374408721924,-1.539671778678894,0.4566132426261902,-0.360306978225708,-3.481219755485654e-05,-0.646224319934845,-0.7631475329399109,0.5937237739562988,-0.17050236463546753,0.2565252184867859,0.27296114090544354,0.10002726580881531,-0.3292730952858817,-0.8983685891420127,0.7026265058138832,-4.5616600089841064e-05,-2.5516223484277956
1783166154333830400,1.6953563690185547,-1.513519525527954,-0.5369184613227844,0.2040916234254837,-0.0010606165742501616,-0.6363351941108704,-0.7714119553565979,0.9466630220413208,-0.23829859495162964,-0.1338462233543396,0.27356009901675366,0.097730434211601,-0.32363991192075436,-0.9004836491893956,0.6897381275816417,-0.0013749021863081442,-2.5512338682583615
1783166154343750400,1.7052764892578125,-2.472160577774048,-0.23040059208869934,-0.06602161377668381,-0.005634316708892584,-0.6208032965660095,-0.78394615650177,1.0672645568847656,-0.08348137140274048,0.05613243579864502,0.27454770420205427,0.09268699925084872,-0.3153348144214715,-0.9036573818947866,0.6697669127698017,-0.00718699816512154,-2.549179288301589
1783166154353669376,1.7151954174041748,-2.1870689392089844,-0.6138081550598145,-0.29600855708122253,-0.007226270157843828,-0.60256028175354,-0.7980406284332275,0.798089325428009,-0.032037436962127686,-0.034097373485565186,0.27385400588127007,0.08812584132045295,-0.3053088725164366,-0.9077578333956138,0.6467053025926386,-0.009054767345835001,-2.5525602251368
1783166154363589376,1.7251152992248535,-2.892357349395752,-1.393882393836975,-0.13642367720603943,-0.016320550814270973,-0.5828800201416016,-0.8123942613601685,0.754876434803009,0.18961530923843384,-0.22721749544143677,0.272644627191118,0.07947152156572058,-0.2957822517705535,-0.9120646579890531,0.6222686183137135,-0.020086744496747865,-2.554180916894417
1783166154373508352,1.735034465789795,-2.324373483657837,-0.627342164516449,-0.9712949991226196,-0.020635254681110382,-0.5619747638702393,-0.8268969655036926,0.17755664885044098,0.6905910968780518,-0.013663947582244873,0.2695311254515007,0.07255370553267528,-0.2851096009813306,-0.916952261728059,0.5967712720335997,-0.024949871336529383,-2.5621382723472217
1783166154383428352,1.7449543476104736,-1.6107792854309082,-0.9694864749908447,-0.8794279098510742,-0.022209107875823975,-0.5452262759208679,-0.8379946351051331,0.034675538539886475,0.9143059253692627,-0.07670867443084717,0.2652512478491682,0.06755328227554029,-0.2764764420699886,-0.9212160430957173,0.5766589893876248,-0.026496481526860127,-2.5730285050667328
1783166154393347328,1.754873275756836,-0.7839526534080505,-0.8072192072868347,-1.2840995788574219,-0.024936089292168617,-0.535753071308136,-0.8440064191818237,-0.054745305329561234,0.5904558300971985,-0.07896721363067627,0.2594203471438305,0.06286950939872157,-0.2721106641685637,-0.9245021818802216,0.5653993566484186,-0.029536311865434515,-2.5858722927682285
1783166154403267328,1.7647933959960938,0.04216688871383667,-0.5222460627555847,-1.1934088468551636,-0.024287836626172066,-0.5328783392906189,-0.8458432555198669,-0.015873298048973083,0.3941912055015564,0.13225072622299194,0.2529627420940938,0.060833305304841115,-0.27088316169132676,-0.9267855693042439,0.5619984462688645,-0.0287064583554494,-2.6003945086497326
1783166154413186304,1.774712324142456,1.2764019966125488,-0.33475401997566223,-0.7542135119438171,-0.02318313717842102,-0.5380540490150452,-0.8425914645195007,0.20705154538154602,0.21276718378067017,0.14419668912887573,0.24762263392166464,0.06064039364259491,-0.27391059069914925,-0.9273503973175417,0.5681268050089017,-0.02750715051160243,-2.6116936732231912
1783166154423106304,1.7846324443817139,2.5704495906829834,-0.26322683691978455,-0.5641013383865356,-0.02214910462498665,-0.554379403591156,-0.8319693207740784,0.38362982869148254,0.113827645778656,-0.05340665578842163,0.24385069090450973,0.06260319997646482,-0.2830127032492397,-0.9254845009391283,0.5876171135908477,-0.026616214512742955,-2.618281102844365
1783166154433025280,1.7945513725280762,2.7087759971618652,-0.12600569427013397,-0.571343183517456,-0.021696334704756737,-0.5767768025398254,-0.8166136145591736,0.4136336147785187,-0.02913445234298706,0.002038419246673584,0.23988305930090265,0.06514701801689164,-0.29571785442931237,-0.9223681744484701,0.6147775381227933,-0.026562417325398737,-2.624287148461127
1783166154442945536,1.804471492767334,2.3365514278411865,-0.2330828756093979,-0.5270734429359436,-0.020791903138160706,-0.5979816317558289,-0.801240086555481,0.4660433828830719,-0.40220147371292114,0.23797714710235596,0.23589443369173554,0.06770230230599622,-0.3078901634498844,-0.919224631097602,0.6409805340541613,-0.02594383244694277,-2.6305755280580145
1783166154452864512,1.8143904209136963,0.9644938707351685,-0.2919919788837433,-0.08095728605985641,-0.01925596408545971,-0.6115959882736206,-0.7909358143806458,0.44926390051841736,-0.7913886308670044,0.255062460899353,0.2336055017164004,0.06991562927239131,-0.3156641970109703,-0.917003990391515,0.6580762968084917,-0.0243409896448336,-2.634395131634588
1783166154462784256,1.824310302734375,-0.6461231112480164,0.18874429166316986,0.036613814532756805,-0.019389653578400612,-0.6133090257644653,-0.7896050214767456,0.44604066014289856,-0.9450253248214722,0.2449578046798706,0.23354413793038786,0.07010544071725834,-0.3166744447308744,-0.916656868888751,0.6602433005399677,-0.024551206946086115,-2.6342383208157854
1783166154472703488,1.8342294692993164,-1.6772643327713013,-0.18219542503356934,0.008818568661808968,-0.0190860778093338,-0.6038585901260376,-0.7968629002571106,0.339947909116745,-0.9024432897567749,0.30981767177581787,0.23380628896442152,0.0688166504703922,-0.31117970280828605,-0.9185674072354802,0.6483331293840879,-0.023946941961704375,-2.6350636056471437
1783166154482623232,1.8441493511199951,-2.2554869651794434,0.3460606634616852,0.2816551625728607,-0.019168762490153313,-0.5877005457878113,-0.808851420879364,0.33797064423561096,-0.6615059971809387,0.339216411113739,0.23538568186420802,0.06671291542225648,-0.30186697153558173,-0.9214225062932591,0.6282138654969538,-0.023694307932121236,-2.633675200352311
1783166154492542208,1.8540682792663574,-2.004380464553833,0.23433974385261536,0.04050958529114723,-0.016173401847481728,-0.5705652832984924,-0.821092963218689,0.16151337325572968,-0.34177297353744507,0.24061810970306396,0.23711571887248142,0.06608174022551117,-0.29169627695188594,-0.9242957542226684,0.6071940289644426,-0.019694858339818926,-2.633179920626763
1783166154502462464,1.8639883995056152,-1.8798887729644775,0.2770238220691681,0.9398018717765808,-0.01615854725241661,-0.5548662543296814,-0.8317826390266418,0.1811060607433319,-0.2608686089515686,0.13741618394851685,0.24013211567662684,0.06456652140914333,-0.28273636281954184,-0.926405914274378,0.588202210465632,-0.01942396323469273,-2.628456570067282
1783166154512381440,1.8739073276519775,-2.4145567417144775,0.0054704537615180016,0.5039330124855042,-0.017893817275762558,-0.5374565720558167,-0.8431015610694885,0.31650832295417786,-0.32951730489730835,0.06609350442886353,0.24494294657387652,0.06241498789098248,-0.2730450259931204,-0.92819924048639,0.567418153607755,-0.021220612566196916,-2.6193876449453364
1783166154522301440,1.8838274478912354,-2.493712902069092,0.44038382172584534,-0.1308562457561493,-0.01670321449637413,-0.5169085264205933,-0.855877697467804,0.30927523970603943,-0.31225407123565674,0.18108826875686646,0.246447510983126,0.060260517475263134,-0.2615909581355469,-0.931237156336975,0.5432356599151087,-0.01951341348769037,-2.6187296009171654
1783166154532220416,1.8937463760375977,-2.333144187927246,0.4139415919780731,-0.07744930684566498,-0.011920704506337643,-0.49602267146110535,-0.8682277798652649,0.2773778736591339,-0.20461511611938477,0.1528652310371399,0.24753089004670445,0.059759242727543536,-0.24962963155796702,-0.9342603791622092,0.5190122020249697,-0.01372906488263993,-2.619952475277259
1783166154542140416,1.9036664962768555,-1.895092487335205,0.0919521227478981,0.11161196231842041,-0.010493893176317215,-0.4787094295024872,-0.8779106736183167,0.2990070581436157,0.023173540830612183,0.0010643601417541504,0.24831939956634383,0.058066585269285445,-0.24015191167629174,-0.9366390636087705,0.4991841945748571,-0.011952689064942505,-2.620234729147875
1783166154552059392,1.9135854244232178,-1.438516616821289,0.3159315884113312,0.010723726823925972,-0.008865934796631336,-0.4641319215297699,-0.8857216835021973,0.26873835921287537,0.2825218141078949,0.024668216705322266,0.2493584960704088,0.056962295707821964,-0.23215176458025416,-0.9384461539817696,0.482654333065845,-0.010009508513530892,-2.6197030981501586
1783166154561979392,1.9235053062438965,-0.9910999536514282,0.15805326402187347,-0.0484788753092289,-0.006287131924182177,-0.4538039565086365,-0.8910793662071228,0.19325308501720428,0.2865981459617615,-0.0646701455116272,0.25002920108077925,0.05687558352720968,-0.22633045776463118,-0.9396942269189238,0.4710295535584363,-0.007055519264473123,-2.619799664346198
1783166154571898368,1.933424472808838,-0.7595757842063904,0.21688488125801086,-0.06574045866727829,-0.004302254877984524,-0.4465053677558899,-0.894770622253418,0.2743370532989502,0.1468990445137024,-0.09363269805908203,0.2501171397623868,0.05680461147602653,-0.22223394323867046,-0.9406523418251544,0.46285594785256595,-0.004808183911286424,-2.620691286648155
1783166154581818880,1.9433448314666748,-0.7945089936256409,0.17055946588516235,0.12969881296157837,-0.0037029157392680645,-0.43948155641555786,-0.8982439637184143,0.30625417828559875,0.001355975866317749,-0.03219115734100342,0.2507660820247266,0.056220981398059686,-0.2184427029496168,-0.9414023298263631,0.4550214366879396,-0.004122370890190027,-2.619978027338077
1783166154591738112,1.9532639980316162,-0.6187485456466675,0.03495236858725548,-0.007356872782111168,-0.002786058932542801,-0.43325430154800415,-0.901267409324646,0.2917264699935913,0.03278738260269165,-0.040382981300354004,0.251456217396938,0.055920578619046486,-0.21503299373595824,-0.9420208997421506,0.4481004463488192,-0.003091257925980828,-2.619186613240972
1783166154601657856,1.963183879852295,-0.10234295576810837,-0.018862126395106316,-0.012600370682775974,-0.002258335705846548,-0.43015381693840027,-0.9027527570724487,0.2117767632007599,0.03812500834465027,-0.12710869312286377,0.251476791526925,0.05573264169150913,-0.21334827729025607,-0.9424095244853927,0.44466316933096517,-0.002501605262126316,-2.6194902554613857
1783166154611576832,1.9731028079986572,0.00933097954839468,-0.17696993052959442,0.3206990957260132,-0.0036948828492313623,-0.43001052737236023,-0.9028162956237793,0.28239667415618896,0.009127378463745117,-0.11441081762313843,0.25207583886841556,0.05513601446545275,-0.21342883542753582,-0.9422663534072627,0.44450444599784045,-0.004092595834130031,-2.617868481961822
1783166154621496832,1.983022928237915,0.4043049216270447,-0.1644517332315445,0.21452392637729645,-0.00599147193133831,-0.432235985994339,-0.9017406702041626,0.22121669352054596,-0.0007931888103485107,-0.1657336950302124,0.25284677839826397,0.05450104229682065,-0.2148471918522832,-0.9417743620285479,0.44697087953368614,-0.006644242809859836,-2.6154950443868836
1783166154631415808,1.9929418563842773,-0.058509986847639084,0.0036638411693274975,-0.2668364942073822,-0.005813062656670809,-0.43438008427619934,-0.900710940361023,0.15431159734725952,-0.01502177119255066,-0.06646740436553955,0.25270384932190115,0.0548722509735543,-0.2159480898518059,-0.9415393274178233,0.4493499389239225,-0.006453770848968135,-2.615688407615891
1783166154641336064,2.002861976623535,0.33954018354415894,-0.07884834706783295,0.2990497946739197,-0.006006973795592785,-0.435099720954895,-0.9003621935844421,0.20286060869693756,0.030543476343154907,-0.013517141342163086,0.25242906724552794,0.05481909597570815,-0.21636486853176407,-0.9415203616737357,0.4501490324030882,-0.006671631142905126,-2.6161701489966855
1783166154651254784,2.0127809047698975,0.48483604192733765,0.01939646527171135,0.3502066731452942,-0.007335884030908346,-0.4394139051437378,-0.8982547521591187,0.2998926341533661,-0.1816493272781372,-0.13938868045806885,0.2541309860641532,0.05519242165190817,-0.21869252741993128,-0.9405024108932432,0.4549461119592454,-0.008166637510166287,-2.611891407376037
1783166154661174784,2.022700786590576,-0.09023389220237732,-0.0887071043252945,0.2957157492637634,-0.008982663042843342,-0.44173726439476013,-0.897099494934082,0.22509288787841797,-0.15141764283180237,0.03084278106689453,0.2551963714141081,0.05497175462037196,-0.22006444937312114,-0.9399066430302772,0.4575341855352755,-0.010012672118821108,-2.609019224494078
1783166154671094016,2.0326199531555176,0.025650296360254288,0.07483366131782532,0.1858493983745575,-0.008915736339986324,-0.4405243992805481,-0.8976963758468628,0.3392532467842102,-0.053692519664764404,0.1635807752609253,0.2560077431606822,0.05501314573446675,-0.21937495049050879,-0.9398447758481038,0.4561827060009871,-0.009931468907995672,-2.6074042412491547
1783166154681012992,2.04253888130188,0.026350442320108414,-0.5553022623062134,0.4013156592845917,-0.010473277419805527,-0.442273885011673,-0.8968188762664795,0.2646999657154083,-0.19116422533988953,-0.07081723213195801,0.2568574884959267,0.05470368365351961,-0.22044968616597713,-0.9393794119338764,0.4581324319199454,-0.011677721309670682,-2.6050519529190947
1783166154690932736,2.0524587631225586,-0.18103529512882233,-0.1882438063621521,0.40470781922340393,-0.015172365121543407,-0.44116276502609253,-0.8972988128662109,0.3767141103744507,-0.04162529110908508,0.03829008340835571,0.2585779548679875,0.052615637794264855,-0.22041364744981445,-0.9390350423535492,0.4568939271447522,-0.01690732080037397,-2.6002493236259414
1783166154700851968,2.0623779296875,-0.29287421703338623,-0.23640602827072144,-0.25836655497550964,-0.016419554129242897,-0.4397786557674408,-0.8979560732841492,0.20021167397499084,-0.016306549310684204,-0.011498212814331055,0.25857189071038217,0.051788843313858704,-0.21986329041762143,-0.9392117487392712,0.45535219459220305,-0.018283436799509185,-2.600052593742818
1783166154710771712,2.0722978115081787,0.2628568708896637,0.08058034628629684,0.006834580097347498,-0.015900347381830215,-0.4393782913684845,-0.8981614112854004,0.21052619814872742,-0.003447026014328003,0.00979471206665039,0.25777916588920363,0.05179982889142446,-0.21962713008702414,-0.9394842692586781,0.454906473871987,-0.017701369928315103,-2.6019091752742938
1783166154720690944,2.08221697807312,0.09365051984786987,-0.05537402629852295,0.27505457401275635,-0.015470634214580059,-0.44169580936431885,-0.8970314860343933,0.21217168867588043,-0.11201512813568115,-0.07429724931716919,0.25857708785022004,0.052548435972916106,-0.22073268417627562,-0.9389641495480459,0.4574879693128039,-0.0172447689536106,-2.6001285790819835
1783166154730610944,2.092136859893799,-0.3848419487476349,-0.1758517473936081,0.37917008996009827,-0.01705719716846943,-0.4396566152572632,-0.8980039954185486,0.15076997876167297,-0.043512940406799316,0.07799661159515381,0.2600593500500085,0.051803514322757115,-0.21980539360993842,-0.9388137035023649,0.4552163115737946,-0.01899228396704748,-2.596728508446817
1783166154740529664,2.102055788040161,-0.5018423795700073,0.04821011796593666,-0.2076137661933899,-0.018154563382267952,-0.43654218316078186,-0.8995006084442139,0.1352962851524353,-0.15508684515953064,-0.013295412063598633,0.2606196280802998,0.050920380623515386,-0.2183044063494246,-0.9390568309521353,0.45175171131514924,-0.020180197025561133,-2.595515248588227
1783166154750449920,2.111975908279419,-0.39862918853759766,-0.034060824662446976,0.0893639475107193,-0.016967223957180977,-0.43256014585494995,-0.9014453887939453,0.15415897965431213,-0.13637903332710266,0.08188062906265259,0.2599511877953656,0.0507505659290539,-0.21610571906661036,-0.9397595043986514,0.4473303925133679,-0.018820019653617286,-2.597578115584427
1783166154760368896,2.1218948364257812,-0.6472927927970886,-0.24853982031345367,0.5084102153778076,-0.02026970498263836,-0.42877498269081116,-0.9031838774681091,0.3070433735847473,-0.21148380637168884,-0.1245107650756836,0.2618804423304695,0.04899190712927562,-0.21449438118758865,-0.9396864442844272,0.4431363344993672,-0.02243873329368765,-2.5929522416526494
1783166154770288896,2.131814956665039,-0.6436536312103271,-0.004106197506189346,-0.2608289420604706,-0.021186983212828636,-0.4228506088256836,-0.9059516787528992,0.15253464877605438,-0.0722665786743164,0.03737562894821167,0.2621414963870895,0.04770504607351158,-0.21153812906888758,-0.9403497852635343,0.43658869937323985,-0.02338217644514032,-2.5926697107413745
1783166154780207872,2.1417338848114014,-0.3372630476951599,-0.04173586517572403,0.0300297811627388,-0.01930878311395645,-0.41821545362472534,-0.908142626285553,0.17685577273368835,-0.005353271961212158,-0.06727546453475952,0.2614800027513423,0.047786350982332804,-0.20891424213692317,-0.9411161086919909,0.4314798380602176,-0.02125863806866838,-2.594923827944857
1783166154790127872,2.15165376663208,-0.3343034088611603,-0.3146468997001648,0.2706010043621063,-0.020628798753023148,-0.4160597622394562,-0.9091032147407532,0.31692394614219666,-0.047563254833221436,-0.15414440631866455,0.261912505144458,0.046909137711442055,-0.20796132258930744,-0.9412509714489685,0.429107927554765,-0.02268747774872855,-2.5938596623867243
1783166154800046848,2.1615729331970215,-0.388639360666275,-0.1012323647737503,0.3576911687850952,-0.022808518260717392,-0.4130909740924835,-0.9104040861129761,0.197658970952034,-0.07645675539970398,-0.09263241291046143,0.263153916554744,0.04566468128557272,-0.20667049528149112,-0.9412502237000795,0.42584556782378113,-0.025047940481145833,-2.5909402048736534
1783166154809966848,2.1714928150177,-0.17776647210121155,-0.14309506118297577,0.21774780750274658,-0.023572439327836037,-0.4109976291656494,-0.9113315939903259,0.19576787948608398,-0.13146758079528809,-0.07900959253311157,0.264343446548747,0.04523496228578926,-0.20564045550624854,-0.9411633099533067,0.4235481271121787,-0.025860164271975523,-2.5884041071376935
1783166154819886080,2.1814119815826416,-0.7007505893707275,-0.40656957030296326,0.18583515286445618,-0.026378026232123375,-0.4076939523220062,-0.9127375483512878,0.20664536952972412,-0.060918718576431274,-0.11054730415344238,0.2650800633317326,0.04351936284549454,-0.20429705297610393,-0.9413295516673381,0.41992715442448464,-0.028891861197285155,-2.586448452684842
1783166154829805824,2.1913318634033203,-0.5593752264976501,-0.19141973555088043,-0.19492504000663757,-0.02713489904999733,-0.4023047089576721,-0.9151036143302917,0.19568347930908203,-0.005577981472015381,-0.04735976457595825,0.2645454131551151,0.04222427580000687,-0.20165640732714848,-0.942108000991707,0.4140328711414764,-0.02964358369776757,-2.587862587421812
1783166154839724800,2.2012507915496826,-0.20765765011310577,-0.21104536950588226,-0.14231722056865692,-0.025936882942914963,-0.39967581629753113,-0.9162895083427429,0.17614440619945526,-0.06530526280403137,-0.1159217357635498,0.26335393088201003,0.04216692590073501,-0.20019286237268463,-0.9427563233798927,0.41116316962234684,-0.028298869926706487,-2.590889407479491
1783166154849644800,2.2111709117889404,-0.19079658389091492,-0.4235752522945404,0.30728286504745483,-0.026405686512589455,-0.3990769684314728,-0.9165371656417847,0.2260669469833374,-0.04341265559196472,-0.14745819568634033,0.2630988132478589,0.04179356976423854,-0.19996181790901227,-0.942893226671373,0.4105099529583467,-0.028802307040877963,-2.591371509154301
1783166154859563776,2.2210898399353027,-0.24881115555763245,-0.4237467646598816,0.3434792160987854,-0.027827449142932892,-0.39778560400009155,-0.9170562624931335,0.1970321536064148,-0.03191715478897095,-0.09472352266311646,0.26387803850490904,0.041068593095415544,-0.19946234298525656,-0.9428130931965741,0.40910202598047585,-0.03033501122740905,-2.5894973687957465
1783166154869484032,2.2310099601745605,-0.07745517790317535,-0.04489589482545853,0.20989874005317688,-0.027410030364990234,-0.3973437547683716,-0.9172604084014893,0.20947788655757904,-0.10833251476287842,-0.08627963066101074,0.26486925376863873,0.04141730351145617,-0.19913416320541,-0.9425891761788199,0.408620470913504,-0.029873606828533968,-2.587527436587078
1783166154879402752,2.240928888320923,-0.22035561501979828,-0.39745262265205383,0.5823383927345276,-0.02864425629377365,-0.3968107998371124,-0.917453408241272,0.23405808210372925,-0.11126109957695007,-0.05260884761810303,0.2662365288514834,0.04102072481752153,-0.19897389285460496,-0.9422551879302327,0.40803977089949955,-0.0312113447429043,-2.5843865249321496
1783166154889322752,2.2508487701416016,-0.5095383524894714,-0.26381686329841614,0.32508888840675354,-0.033097632229328156,-0.39371272921562195,-0.9186375141143799,0.29918038845062256,-0.10947635769844055,-0.028490781784057617,0.2681891941645155,0.038783252450672406,-0.19793208026662726,-0.9420156084521959,0.4046670424927849,-0.03601346746753043,-2.5794859829366628
1783166154899241984,2.260767936706543,-0.6260940432548523,-0.004105664789676666,-0.04809721186757088,-0.03430403023958206,-0.388670951128006,-0.9207378029823303,0.20549240708351135,-0.05690094828605652,-0.0014270544052124023,0.26881731424956945,0.03756554266914818,-0.19549914330581508,-0.9423939287256076,0.39918868977083566,-0.0372398855643399,-2.578319100504561
1783166154909161728,2.2706878185272217,-0.3124660849571228,-0.35028231143951416,0.22930413484573364,-0.0350978821516037,-0.3846045136451721,-0.9224139451980591,0.2342403382062912,0.02962404489517212,-0.10377013683319092,0.26856545731402615,0.03651520172543472,-0.19354497940909565,-0.94291016453452,0.3947793285598856,-0.0380316863423519,-2.5790289795236685
1783166154919080960,2.280606985092163,-0.11668434739112854,-0.4508182406425476,0.5307542681694031,-0.03974226489663124,-0.3836076259613037,-0.9226406216621399,0.22420576214790344,-0.008466958999633789,-0.1803562045097351,0.2700819665141143,0.03440421416251297,-0.19363891607599845,-0.9425370645169562,0.3936996299433582,-0.04304786785341215,-2.5748659964757947
1783166154929000960,2.290526866912842,-0.1734572798013687,-0.3952784240245819,0.1120983213186264,-0.044738948345184326,-0.3818539083003998,-0.923139214515686,0.07084673643112183,0.03982815146446228,-0.08473432064056396,0.27113807582886656,0.03191379532313988,-0.19342156522231885,-0.9423660238621531,0.3918013829793854,-0.04842603461523686,-2.571673833469649
1783166154938919680,2.300445795059204,-0.06912341713905334,-0.35109204053878784,0.02463558129966259,-0.04776633158326149,-0.381192684173584,-0.9232608079910278,0.1590181589126587,0.0017066001892089844,-0.06923186779022217,0.2710148965930934,0.03030909629503719,-0.1935224976002699,-0.9424336976072648,0.39108604023306287,-0.051690466944337245,-2.5713244284654535
1783166154948839936,2.310365915298462,0.08477400243282318,-0.4427756369113922,0.13415168225765228,-0.051400039345026016,-0.3811960816383362,-0.9230642318725586,0.23151478171348572,-0.05444234609603882,-0.0837717056274414,0.2710537916481564,0.028541307385363483,-0.194044517387414,-0.9423704019097883,0.39108971757578564,-0.055626692577515076,-2.5704322384909832
1783166154958758912,2.320284843444824,-0.12032455205917358,-0.4130750000476837,0.10529394447803497,-0.05581017956137657,-0.38135623931884766,-0.9227419495582581,0.18872949481010437,-0.17287349700927734,-0.06453222036361694,0.27109957479658275,0.026419119422256776,-0.1947589978468997,-0.9422717868760617,0.3912629677462014,-0.06040938851942005,-2.5693334179177767
1783166154968678912,2.330204963684082,-0.43717652559280396,-0.4682147800922394,0.21899999678134918,-0.06026826426386833,-0.3787400424480438,-0.9235386848449707,0.18558870255947113,-0.20084980130195618,-0.020873546600341797,0.27127547496711574,0.02388520446672496,-0.1940622326477119,-0.9424324436060574,0.38843452584972554,-0.06516557553439448,-2.568231523938942
1783166154978597888,2.3401238918304443,-0.5294260382652283,-0.5119683742523193,0.14312388002872467,-0.06531909108161926,-0.3743070065975189,-0.9250014424324036,0.20098498463630676,-0.2344118356704712,-0.07472389936447144,0.27178488481884355,0.020860456781106748,-0.19252045174072333,-0.9426736283089531,0.3836493553403086,-0.07049810172349194,-2.5664946577138266
1783166154988517888,2.350043773651123,-0.7039381861686707,-0.5709147453308105,0.2731870710849762,-0.07065008580684662,-0.3688090443611145,-0.9268162846565247,0.1485767364501953,-0.2101856768131256,-0.09382879734039307,0.2720554776597331,0.017494174221088628,-0.1904883275631414,-0.9430768373150238,0.377727400779476,-0.0760816514779444,-2.565340461601001
1783166154998436864,2.3599629402160645,-0.7420229911804199,-0.5038507580757141,0.3411687910556793,-0.07663192600011826,-0.36171677708625793,-0.9291332364082336,0.20096054673194885,-0.16582530736923218,-0.04726141691207886,0.2731799291349661,0.013748048801168613,-0.18773488622792658,-0.9433659331174311,0.37010870046534783,-0.08229053526818152,-2.5624398002631072
1783166155008356864,2.369882822036743,-0.6574814319610596,-0.5675376653671265,0.12511961162090302,-0.08180399239063263,-0.35536372661590576,-0.9311416149139404,0.15957804024219513,-0.11996281147003174,-0.10428929328918457,0.27371858097308127,0.010391671743670792,-0.18525981683532972,-0.9437419712116776,0.36330315351834513,-0.08762845644381506,-2.5609072433227302
1783166155018276096,2.3798019886016846,-0.5440118312835693,-0.6234059929847717,0.43022626638412476,-0.08807840198278427,-0.3497661054134369,-0.9326874613761902,0.19987955689430237,-0.1263691484928131,-0.09448844194412231,0.27443214738971705,0.006646683532995678,-0.18333602463614862,-0.9439442497874518,0.35732142184204807,-0.09415583500216172,-2.5587174340300014
1783166155028195840,2.3897218704223633,-0.7082822918891907,-0.5091217756271362,0.2833997905254364,-0.09480294585227966,-0.3435971438884735,-0.934319794178009,0.18815621733665466,-0.166702538728714,-0.07503384351730347,0.2757648230031183,0.0027188561912084865,-0.18119802289859444,-0.9439882305753949,0.35074456014954014,-0.10112125581424744,-2.555222671024384
1783166155038114816,2.3996407985687256,-0.8900488615036011,-0.437595933675766,0.10801838338375092,-0.09948047995567322,-0.3361465632915497,-0.9365410208702087,0.09375844150781631,-0.18144682049751282,-0.01125866174697876,0.2762001136442875,-0.000573461158065601,-0.1781267798230493,-0.9444490906308761,0.3428223779786469,-0.1058243552560858,-2.5542329387046783
1783166155048034816,2.4095609188079834,-1.012776494026184,-0.5428578853607178,0.41043370962142944,-0.10464297235012054,-0.3269976079463959,-0.939213752746582,0.19297610223293304,-0.17225471138954163,-0.04366588592529297,0.276941778895775,-0.004291406087646705,-0.17428344616801542,-0.9449392732729731,0.333124770368814,-0.11095789253980787,-2.5527295773107492
1783166155057953792,2.4194798469543457,-1.2378605604171753,-0.5350937247276306,0.21283169090747833,-0.11014565825462341,-0.31654390692710876,-0.9421612620353699,0.1776352822780609,-0.17832911014556885,-0.08150506019592285,0.2779423401328862,-0.00831729067263031,-0.16985340260920836,-0.9454251807786193,0.3220838213783591,-0.11637915223179464,-2.550804597232234
1783166155067874048,2.4293999671936035,-1.3863455057144165,-0.5352414846420288,0.20882529020309448,-0.11563482880592346,-0.3038768172264099,-0.9456677436828613,0.16023626923561096,-0.11764723062515259,-0.06109189987182617,0.27820012494557383,-0.01278939313024103,-0.16432457815574797,-0.9462761096116201,0.3087592809338404,-0.12167447163060449,-2.5507585627695963
1783166155077792768,2.439318895339966,-1.2253669500350952,-0.5601468086242676,0.28312215209007263,-0.12122315913438797,-0.2914016544818878,-0.9488888382911682,0.2875286936759949,-0.10375520586967468,-0.1447085738182068,0.27897674863361993,-0.017185031913230578,-0.15893476006614407,-0.9468983039310558,0.29569176300158956,-0.12706447247720168,-2.5496131564916746
1783166155087712768,2.4492387771606445,-1.0122623443603516,-0.53035569190979,0.40494248270988464,-0.1275712549686432,-0.28036782145500183,-0.9513776898384094,0.232948437333107,-0.07877829670906067,-0.15946215391159058,0.28001818279478063,-0.02169416657131039,-0.15440379121983955,-0.9472479742213827,0.2841772917647249,-0.1332959590408309,-2.5476435247338745
1783166155097632000,2.459157943725586,-0.777682900428772,-0.552627444267273,0.5059998631477356,-0.1337258219718933,-0.2716218829154968,-0.953068196773529,0.2078377604484558,-0.057021915912628174,-0.11375004053115845,0.2815711772188749,-0.02569736845534472,-0.151015079000028,-0.9472337809020327,0.2750778822102067,-0.13940081458373002,-2.5443917112067376
1783166155107551744,2.4690778255462646,-0.7258390188217163,-0.4674155116081238,0.5224659442901611,-0.13965559005737305,-0.26379549503326416,-0.9544151425361633,0.20627546310424805,-0.04910123348236084,-0.05556410551071167,0.2835610695470353,-0.029395542238144872,-0.14808218133009107,-0.9469956206897798,0.26695496824986154,-0.14529470039862297,-2.5401775594963554
1783166155117470976,2.478996992111206,-0.8166027665138245,-0.5143020749092102,0.5375767350196838,-0.14499296247959137,-0.2558749318122864,-0.9557746052742004,0.19383634626865387,-0.09077423810958862,-0.03235405683517456,0.28559774272930843,-0.03282264362389204,-0.145035781544844,-0.9467424723099139,0.25875264716100377,-0.15055412733328682,-2.5360040375347332
1783166155127390976,2.4889168739318848,-0.7184725999832153,-0.5427526831626892,0.4793938100337982,-0.15139608085155487,-0.24798813462257385,-0.9568600058555603,0.25095969438552856,-0.11922986805438995,-0.06523466110229492,0.2874507313327367,-0.03679732424233007,-0.14218277656576636,-0.9464682471563577,0.250602961460858,-0.15692093571044471,-2.5320749411792796
1783166155137309696,2.498835802078247,-0.9475235939025879,-0.43857380747795105,0.377982497215271,-0.15666645765304565,-0.23933950066566467,-0.9582130312919617,0.19910115003585815,-0.17739328742027283,-0.04793626070022583,0.28885128976938595,-0.04041209590723971,-0.13878164208750174,-0.9463992027345539,0.2416855212564984,-0.16206463244830052,-2.5294088904245635
1783166155147229952,2.508755922317505,-0.8348734974861145,-0.5080001354217529,0.41310226917266846,-0.16205041110515594,-0.23013938963413239,-0.9595704674720764,0.10948389768600464,-0.24103674292564392,-0.03200662136077881,0.2902419421963216,-0.04417163454204622,-0.13514296184092878,-0.9463323552379636,0.23222091801347117,-0.1672995307907695,-2.52684680547738
1783166155157148928,2.518674850463867,-0.6660029888153076,-0.4783719480037689,0.2983338534832001,-0.16749201714992523,-0.22236262261867523,-0.9604693055152893,0.07456599175930023,-0.23093022406101227,-0.0815076231956482,0.29141973498985796,-0.047785187821397,-0.13221922382841952,-0.9462077679484195,0.22423709273880563,-0.1726494592477711,-2.524569768891844
1783166155167068928,2.528594970703125,-0.6178349852561951,-0.4167553782463074,0.3244170844554901,-0.17228855192661285,-0.21597206592559814,-0.961078941822052,0.07699741423130035,-0.07319724559783936,-0.036540687084198,0.2922084090815659,-0.050940203716860886,-0.12986773005637114,-0.9461256574121397,0.2176872874304326,-0.17738165718189197,-2.5230513539619417
1783166155176987904,2.5385138988494873,-0.4065621495246887,-0.39502134919166565,0.37560516595840454,-0.17659439146518707,-0.21067561209201813,-0.9614729285240173,0.15448440611362457,0.06135310232639313,-0.031523287296295166,0.29363225532159637,-0.05361269337748888,-0.12802034407177712,-0.9457889163054684,0.21226603275688855,-0.1816461297677841,-2.520132938913659
1783166155186907648,2.548433780670166,-0.3552035689353943,-0.5092629194259644,0.042271602898836136,-0.18126341700553894,-0.2067500203847885,-0.9614561796188354,0.10374876856803894,0.11737929284572601,0.02473437786102295,0.29397424040217157,-0.05640589030386779,-0.12684747346138217,-0.9456781624847606,0.2082520301741336,-0.1863428648691681,-2.5192815652216183
1783166155196826880,2.5583529472351074,-0.3190503716468811,-0.4738982617855072,0.17938737571239471,-0.1860380321741104,-0.203512042760849,-0.961234986782074,0.09982587397098541,0.086995929479599,-0.004722654819488525,0.2941842278441193,-0.05916631788479658,-0.12602323472204158,-0.9455543644696062,0.20494370582246457,-0.19117699477640962,-2.518613260273978
1783166155206746880,2.568272829055786,-0.5892141461372375,-0.30363789200782776,0.08442587405443192,-0.19018015265464783,-0.19895708560943604,-0.9613779783248901,0.08295662701129913,-0.026888251304626465,-0.0005818605422973633,0.294383920676143,-0.06181943576243115,-0.12445632187756904,-0.945530037061883,0.20029361607340232,-0.19529888848116292,-2.5182459847213985
1783166155216665856,2.5781919956207275,-0.6717686653137207,-0.26903703808784485,0.07879595458507538,-0.1927841305732727,-0.19288459420204163,-0.9620965719223022,0.0876510739326477,-0.14767631888389587,-0.017426133155822754,0.2944329722062356,-0.06397508141060913,-0.12189709964679685,-0.9457047780884917,0.1941010993489662,-0.19776013823820737,-2.5186269180646295
1783166155226585856,2.5881118774414062,-1.0602412223815918,-0.39815202355384827,0.13744238018989563,-0.19601987302303314,-0.18473897874355316,-0.9630408883094788,0.17552731931209564,-0.19686807692050934,-0.03114551305770874,0.29437093614059723,-0.06675757682500529,-0.11841871040880697,-0.945973644116816,0.18580626145427157,-0.20079960086928894,-2.5194520705930006
1783166155236504832,2.5980308055877686,-1.1493330001831055,-0.21933089196681976,0.03398257866501808,-0.19859735667705536,-0.1736994981765747,-0.9645659923553467,0.20961420238018036,-0.1794346570968628,0.05289912223815918,0.29416295787700536,-0.06966667481388773,-0.11341760865605637,-0.9464412810008861,0.1745850429456079,-0.20305539628383626,-2.5210733139209323
1783166155246424832,2.6079509258270264,-1.2777190208435059,-0.18653494119644165,0.0907420963048935,-0.20064190030097961,-0.16241344809532166,-0.9661080241203308,0.21263530850410461,-0.19522204995155334,0.09605187177658081,0.29390304114271343,-0.07235608688694661,-0.10821546939919056,-0.946929270787619,0.16313608127489956,-0.2047697377815871,-2.5228992632485103
1783166155256343808,2.6178698539733887,-1.3968424797058105,-0.10835331678390503,-0.006223065312951803,-0.20175892114639282,-0.14925873279571533,-0.9679954648017883,0.23697620630264282,-0.07632720470428467,0.26148301362991333,0.2934536877347525,-0.0748881309743544,-0.1019511990202962,-0.9475667580874773,0.1498185706019571,-0.20548766439524735,-2.525467744965419
1783166155266264064,2.6277899742126465,-1.2466912269592285,-0.14665409922599792,0.012890208512544632,-0.20241886377334595,-0.13661526143550873,-0.969723105430603,0.22094303369522095,-0.03492403030395508,0.3169063329696655,0.2928479035090534,-0.07713167379371258,-0.09586010513728639,-0.9482097090523263,0.13704383456026054,-0.20578398904862405,-2.5283205425043094
1783166155276182784,2.637708902359009,-0.8872617483139038,-0.024581987410783768,0.08633299916982651,-0.2032240629196167,-0.1261449009180069,-0.9709724187850952,0.1765974909067154,0.04321339726448059,0.3885597586631775,0.29265306014670284,-0.07907847168782334,-0.09088664919596402,-0.9485992252611027,0.12648186259098546,-0.20632120972187173,-2.5299881444223655
1783166155286102784,2.6476287841796875,-0.505550742149353,0.14058776199817657,0.018556416034698486,-0.20256544649600983,-0.11966235190629959,-0.9719301462173462,0.01947525143623352,0.0964232087135315,0.4017397165298462,0.2926552358340392,-0.07971103117660983,-0.08764182234184235,-0.9488509558309092,0.11994978428702535,-0.20547428421827388,-2.5308636676725227
1783166155296022016,2.657547950744629,-0.4827128052711487,0.5069135427474976,-0.07286351174116135,-0.1990267038345337,-0.11521114408969879,-0.9731982350349426,-0.07523477077484131,0.11840023100376129,0.4688952565193176,0.29255188806318894,-0.07866126033979522,-0.08493115280217875,-0.9492167231279738,0.11546755310356022,-0.20172628126900818,-2.5319620066979502
1783166155305941760,2.6674678325653076,-0.2960512340068817,0.5938888192176819,-0.09950175136327744,-0.19312450289726257,-0.11154244840145111,-0.9748134016990662,-0.04598070681095123,0.10792611539363861,0.5736141204833984,0.29205536239020774,-0.076388020551169,-0.08220801026542236,-0.9497949731433625,0.11177504901206156,-0.19558174743704806,-2.533982031798283
1783166155315860992,2.677386999130249,0.053715821355581284,0.8515949249267578,0.044149164110422134,-0.18545220792293549,-0.11083121597766876,-0.9763830900192261,0.1738402545452118,0.013892136514186859,0.5511206388473511,0.2921965716149793,-0.07277213395299975,-0.08070115928915896,-0.9501645000449295,0.11105938099388503,-0.18770205807036872,-2.5344413150844636
1783166155325780992,2.6873068809509277,0.17330101132392883,1.1196238994598389,0.07894865423440933,-0.17350585758686066,-0.11314702779054642,-0.9783115386962891,0.26074033975601196,-0.03527521342039108,0.5765323638916016,0.2928812102315925,-0.06660828138032901,-0.0800472777596895,-0.9504611433745102,0.11338985043784029,-0.1755272041407831,-2.5337774579129126
1783166155335699712,2.69722580909729,0.11050979048013687,1.1596006155014038,-0.0733490064740181,-0.16152973473072052,-0.11487513035535812,-0.9801591038703918,0.20253010094165802,-0.0032431557774543762,0.5904343724250793,0.2934572280546144,-0.06053381668768482,-0.07909557141958666,-0.9507694134457564,0.1151292945764199,-0.16333143465843464,-2.5334078313337174
1783166155345619968,2.707145929336548,0.32693472504615784,1.4491238594055176,-0.0879860371351242,-0.1487221121788025,-0.11696416884660721,-0.9819374084472656,0.20876544713974,0.10806828737258911,0.5803413391113281,0.293576927036944,-0.054051394466332836,-0.0781647678758389,-0.9511999738454361,0.11723251136172023,-0.15031539452107476,-2.534028974844106
1783166155355538944,2.71706485748291,0.7349565029144287,1.5754777193069458,-0.1845860779285431,-0.13323017954826355,-0.12226226925849915,-0.9835149645805359,0.20918843150138855,0.22255828976631165,0.5356237292289734,0.29368078068265435,-0.045814331581132656,-0.07838093730014531,-0.9515824542898221,0.12256893673298414,-0.13464370444262166,-2.5346194661008186
1783166155365458944,2.726984977722168,1.154916524887085,1.52810537815094,-0.08156182616949081,-0.11823442578315735,-0.13191883265972137,-0.9841839671134949,0.21175554394721985,0.28262990713119507,0.5262677073478699,0.2938940596748989,-0.03717025969578028,-0.08078612309346178,-0.9516923364236629,0.1323044805061271,-0.11956149399475936,-2.534619440885532
1783166155375377920,2.7369039058685303,1.6332610845565796,1.5929832458496094,-0.1724667102098465,-0.10249604284763336,-0.14568787813186646,-0.984006941318512,0.21769991517066956,0.30376893281936646,0.575254499912262,0.2941852756813653,-0.0275560927413441,-0.0850717611159036,-0.9515558750447262,0.1462082300272831,-0.10378763808022212,-2.534302464658194
1783166155385297664,2.746823787689209,1.6723849773406982,1.5998461246490479,-0.22291624546051025,-0.08639495819807053,-0.16239404678344727,-0.982936441898346,0.16566437482833862,0.28573083877563477,0.591243326663971,0.29405684059252635,-0.01736600192701797,-0.09072040142598572,-0.9513142869893606,0.16311642186974937,-0.08766945639472168,-2.534842598634954
1783166155395216896,2.7567429542541504,1.4444727897644043,1.8008167743682861,-0.2868611514568329,-0.06944648921489716,-0.17790958285331726,-0.9815933108329773,0.17120736837387085,0.21532414853572845,0.6994430422782898,0.2937827824279217,-0.006954015828454184,-0.09568176840893075,-0.9510459646716307,0.1788617313320317,-0.07063105353769299,-2.536044022934898
1783166155405136896,2.766662836074829,1.308405876159668,1.9115819931030273,-0.15703678131103516,-0.05090675875544548,-0.19131538271903992,-0.980207622051239,0.11728249490261078,0.04905770719051361,0.6355268359184265,0.29359140935863876,0.003923541407698882,-0.09940225881582683,-0.9507406747391169,0.1925021033658294,-0.051888052319031264,-2.537555569720265
1783166155415055872,2.7765817642211914,0.7701866626739502,1.9725532531738281,-0.14374122023582458,-0.031422488391399384,-0.20193156599998474,-0.9788954257965088,0.17813575267791748,-0.14818134903907776,0.5696089267730713,0.29389018193181704,0.014899630970928448,-0.10163800764464263,-0.9503032676440093,0.20332972138045452,-0.03208892603754312,-2.538459136153658
1783166155424975872,2.786501884460449,0.14008232951164246,2.0821053981781006,-0.31284549832344055,-0.01123823318630457,-0.20608703792095184,-0.9784691333770752,0.232185497879982,-0.18948180973529816,0.5946495532989502,0.29374983528607995,0.025200837370490416,-0.10064966011165265,-0.9502344768577944,0.20757446208495173,-0.011485021530146007,-2.540765419480474
1783166155434894848,2.7964208126068115,0.0356438122689724,1.9962127208709717,-0.2708042860031128,0.009307272732257843,-0.20690321922302246,-0.978317141532898,0.30862486362457275,-0.19862961769104004,0.44078052043914795,0.29330248542943527,0.035146146530357435,-0.09801109578684694,-0.9503327521992331,0.20840861526444523,0.009513266312130219,-2.5438745780207888
1783166155444814848,2.8063409328460693,-0.08960025757551193,1.8932472467422485,-0.197001114487648,0.028989385813474655,-0.2068055123090744,-0.9779524803161621,0.35753101110458374,-0.1688506007194519,0.3378005623817444,0.2931720088820215,0.044580203702894235,-0.0950597331545057,-0.950277087134767,0.2083087507002862,0.02963426103536155,-2.546195334998951
1783166155454733824,2.8162598609924316,-0.3453625440597534,1.8440210819244385,-0.38251742720603943,0.047793127596378326,-0.20437076687812805,-0.97772616147995,0.30485275387763977,-0.03941890597343445,0.29545992612838745,0.2928172492302536,0.05322393986637103,-0.09112706313955778,-0.9503268621884338,0.2058208641333301,0.048843038747632024,-2.548853883047666
1783166155464654080,2.8261799812316895,-0.22293275594711304,1.8498724699020386,-0.377797931432724,0.06648340076208115,-0.20104150474071503,-0.9773240089416504,0.19587621092796326,0.12146693468093872,0.21760421991348267,0.29181912849265007,0.06162980323982927,-0.08683172628232533,-0.9505281153573486,0.20242101814645133,0.06792131779591923,-2.5527470389207383
1783166155474572800,2.8360989093780518,0.08950317651033401,1.8939563035964966,-0.3302983045578003,0.08495564758777618,-0.20042048394680023,-0.976019561290741,0.18619303405284882,0.14638911187648773,0.12615078687667847,0.2911311967904897,0.07038905927989463,-0.08387850708981087,-0.9503959041236614,0.20178709153441354,0.08682414394619273,-2.555886899311836
1783166155484492800,2.8460187911987305,0.3982633352279663,1.8041667938232422,-0.3760349154472351,0.10364469885826111,-0.20217165350914001,-0.9738503098487854,0.1523977816104889,0.14914736151695251,0.1117592453956604,0.29003312338341036,0.0795985530889294,-0.08209093920783535,-0.9501610122025953,0.20357485901809222,0.1060286328042059,-2.5599066666958623
1783166155494412032,2.855937957763672,0.44612088799476624,1.759474515914917,-0.36598390340805054,0.12178708612918854,-0.206080824136734,-0.9709267020225525,0.20050907135009766,0.08408680558204651,0.06342548131942749,0.28892833218243175,0.08889585669852736,-0.08145053806676365,-0.9497282892915918,0.20756811145453957,0.12478216018952124,-2.5639549671877475
1783166155504331776,2.8658578395843506,0.3545137345790863,1.5857182741165161,-0.6218922734260559,0.138518825173378,-0.2092210054397583,-0.9680078029632568,0.216827854514122,-0.0111922025680542,0.08164000511169434,0.2872452709500957,0.09736611162004734,-0.08072136814562182,-0.9494704018057414,0.21077827119201564,0.14213191159541344,-2.5690961956257565
1783166155514250752,2.875776767730713,0.6991028189659119,1.6828943490982056,-0.6398448944091797,0.15493179857730865,-0.21314454078674316,-0.964658260345459,0.23221419751644135,-0.06776976585388184,0.046430110931396484,0.2845757841556071,0.1057419763278873,-0.0805574990766544,-0.949392261959892,0.21479233939777584,0.15924799869734071,-2.576351193016059
1783166155524170752,2.8856968879699707,0.526539146900177,1.3716375827789307,-0.48320743441581726,0.17070497572422028,-0.21850846707820892,-0.9607881307601929,0.20011410117149353,-0.03214764595031738,-0.059567034244537354,0.28222099891780156,0.11407642350290217,-0.08119420622494378,-0.9490760014056443,0.22028574250570698,0.1758369060741339,-2.5830147968722756
1783166155534089728,2.895615816116333,0.5262866616249084,1.0438700914382935,-0.28622910380363464,0.18328510224819183,-0.22263039648532867,-0.9575188159942627,0.12770427763462067,0.12749184668064117,-0.035996198654174805,0.2805109102164179,0.12073284153710562,-0.08163438185259943,-0.948721839785314,0.22451175830042985,0.18912893499698347,-2.5880124282729
1783166155544009984,2.905535936355591,0.6056301593780518,0.810693621635437,-0.40610769391059875,0.1927986592054367,-0.22715727984905243,-0.9545827507972717,-0.03247456252574921,0.12541167438030243,-0.19774574041366577,0.27914210765602593,0.12598601919632862,-0.08268096262341378,-0.9483517725843824,0.22915765608906105,0.19929065357178455,-2.592082401633939
1783166155553928960,2.915454864501953,1.2727341651916504,0.36823228001594543,-0.4769965410232544,0.2000269889831543,-0.23487582802772522,-0.9512215852737427,-0.1497950553894043,0.03437533974647522,-0.2900503873825073,0.27631198313023425,0.1304739009378603,-0.08582398062656327,-0.9482945497871733,0.23709082333504805,0.20726448979887263,-2.5993104249177956
1783166155563848960,2.925374984741211,1.1544764041900635,0.9390556216239929,-0.3658498525619507,0.2079497128725052,-0.24592885375022888,-0.9467185139656067,-0.11781606078147888,0.010516256093978882,-0.3138405680656433,0.2738956085238025,0.13584670852135264,-0.09047886296571335,-0.9478081922316265,0.24847785588781673,0.21621946415295187,-2.6060699106634546
1783166155573767936,2.9352939128875732,0.9806707501411438,0.6725856065750122,-0.10269197821617126,0.2165830135345459,-0.25558558106422424,-0.94221431016922,0.010437250137329102,0.04644861817359924,-0.15622013807296753,0.2721746366098241,0.14143293141143948,-0.0942845003000897,-0.9471157680042241,0.25845335962414634,0.22594109990066882,-2.6114140290816814
1783166155583688192,2.94521427154541,0.12787246704101562,0.7097550630569458,-0.44484150409698486,0.22389554977416992,-0.26061946153640747,-0.9391210079193115,-0.11082790791988373,0.06098872423171997,-0.16419625282287598,0.2711893440505634,0.1457426416857787,-0.09590917988182476,-0.9465817096073837,0.2636637747202293,0.23404073255427846,-2.614727116416979
1783166155593607424,2.9551334381103516,0.3444601893424988,0.6734388470649719,-0.34908461570739746,0.23178890347480774,-0.2607388198375702,-0.9371708631515503,-0.21582821011543274,0.13567781448364258,-0.1737757921218872,0.26913459568129167,0.14949506992706224,-0.0952145181784481,-0.9466531154667616,0.263787427170525,0.24246258094540954,-2.6199290114921285
1783166155603527424,2.9650533199310303,0.7307904362678528,0.4178144335746765,-0.02781064808368683,0.23757775127887726,-0.26597288250923157,-0.9342458248138428,-0.02465660870075226,0.015225201845169067,-0.4298746585845947,0.2682696836756231,0.15309890753097408,-0.09714841729556868,-0.9461259529944213,0.26921300239742807,0.24902064166237103,-2.6229018287491312
1783166155613446400,2.9749724864959717,-0.15353190898895264,0.09268452227115631,-0.3642461895942688,0.24043172597885132,-0.26827725768089294,-0.9328557848930359,-0.07897847890853882,0.08279141783714294,-0.3633020520210266,0.2671509150412063,0.15476427042322533,-0.0980822866958598,-0.946075171364274,0.2716042946901452,0.25224746066013654,-2.6258158848405446
1783166155623366400,2.9848923683166504,0.040085095912218094,0.4571816921234131,-0.015031803399324417,0.243182972073555,-0.26643893122673035,-0.932669460773468,-0.10307677090167999,0.14046236872673035,-0.17127341032028198,0.2663273957718287,0.15578134978210123,-0.09694038513512826,-0.9462580962938395,0.26969651145075674,0.2550598019196619,-2.6276707736827807
1783166155633285376,2.9948112964630127,0.1558295339345932,0.5751104354858398,0.5022731423377991,0.24805188179016113,-0.2680453360080719,-0.9309253096580505,-0.25183606147766113,0.04212373495101929,-0.2920207977294922,0.2674456831918614,0.1585851392036803,-0.09689216153533191,-0.9454815797355143,0.27136354125700923,0.260406941348522,-2.626011134719196
1783166155643205376,3.0047314167022705,-0.2606642246246338,0.6182147860527039,0.6272416114807129,0.25243014097213745,-0.26982319355010986,-0.9292332530021667,-0.20593661069869995,0.06123554706573486,-0.16894173622131348,0.2708649430359008,0.16140855328439968,-0.09659522580207121,-0.9440598169825316,0.27320939540056477,0.26525300818962216,-2.619446944559034
1783166155653124352,3.014650344848633,-1.466089129447937,0.14531810581684113,-0.1679132878780365,0.2550027072429657,-0.2629525363445282,-0.9304996132850647,-0.1276528537273407,0.1655556857585907,-0.15711629390716553,0.27267579939827574,0.16181881712176627,-0.09254647371913347,-0.9438737694152229,0.26608115413637023,0.26748206907316413,-2.6151344746982432
1783166155663044352,3.0245704650878906,-1.944639801979065,0.25580379366874695,-0.1561817079782486,0.25747936964035034,-0.24558047950267792,-0.9345558285713196,0.11623889207839966,0.3398187756538391,-0.14681929349899292,0.2733109072895098,0.160438415451585,-0.08355597014166026,-0.9447639937580177,0.24811846718559036,0.2688401763230972,-2.6121120746429973
1783166155672963328,3.034489393234253,-1.6757521629333496,0.509345531463623,-0.740574836730957,0.2616586685180664,-0.2274235486984253,-0.9379836320877075,0.2004995346069336,0.2411259412765503,-0.42674720287323,0.27300545010732613,0.15972986976224474,-0.07412528838627369,-0.9457588615537313,0.2294310782627309,0.2720428180514893,-2.6110828197907487
1783166155682883328,3.0444092750549316,-1.7248969078063965,0.13150303065776825,-0.9000599980354309,0.2668117582798004,-0.2097531110048294,-0.9406461119651794,0.14973792433738708,0.1816311627626419,-0.43429285287857056,0.27020996195221963,0.1594410383563602,-0.06523416317468281,-0.9472643214849988,0.2113224400620735,0.27638767069448517,-2.6153449850482393
1783166155692802304,3.054328441619873,-2.322599411010742,0.03480711579322815,-0.3242872655391693,0.26824522018432617,-0.18947815895080566,-0.9445329904556274,0.48427248001098633,-0.11173033714294434,-0.39874398708343506,0.268910443660871,0.1570690042689858,-0.0553429505967583,-0.9486589279593032,0.1906306512865432,0.2767119476547536,-2.6157807549109675
1783166155702722304,3.0642483234405518,-3.224050998687744,0.12356837093830109,-0.07177118211984634,0.27067774534225464,-0.16295897960662842,-0.9487770795822144,0.6041544079780579,-0.4581958055496216,-0.20938026905059814,0.27040632511049956,0.15447306419914034,-0.041827479092919825,-0.9493518467947605,0.16368898027578746,0.2779084598352545,-2.6095671014246995
1783166155712641536,3.074167490005493,-4.3335442543029785,-0.26205974817276,-0.27847614884376526,0.2701819837093353,-0.12643153965473175,-0.954472005367279,0.3916679620742798,-0.46295446157455444,-0.16790348291397095,0.27257972036334294,0.1489904216748862,-0.023787937877113214,-0.9502295436705459,0.12677081717656064,0.2758528496194087,-2.6005014401910636
1783166155722561280,3.084087371826172,-4.020143032073975,-0.5650589466094971,-0.3595007061958313,0.26641103625297546,-0.08483943343162537,-0.9601184129714966,0.36441779136657715,-0.34744206070899963,-0.21204644441604614,0.2738409686145855,0.14115634779335534,-0.003957870180294455,-0.9513517772932857,0.08494154196236714,0.27066783440246206,-2.5926303914626434
1783166155732480256,3.094006299972534,-2.8612852096557617,-0.2811090052127838,-0.3369485139846802,0.26251649856567383,-0.05204332247376442,-0.9635230302810669,0.36371946334838867,-0.3576704263687134,-0.4524163007736206,0.27515453991056343,0.13455448458268052,0.011557928704379486,-0.9518674348880287,0.05206684466789116,0.2659984497540307,-2.5857649798954623
1783166155742400512,3.103926420211792,-4.2687458992004395,-0.07755035907030106,-1.2688982486724854,0.26191195845603943,-0.01676652394235134,-0.9649460911750793,0.13379421830177307,-0.3787565529346466,-0.3781324625015259,0.27328122966621354,0.1293300303804259,0.02829635026644353,-0.9527803984368349,0.016767309364546904,0.26504094084612767,-2.58517537400327
1783166155752319232,3.1138453483581543,-5.570465087890625,-0.37619033455848694,-0.6879791617393494,0.25993743538856506,0.03409251570701599,-0.9650234580039978,0.36544403433799744,0.01729908585548401,0.1647304892539978,0.2718471440251379,0.12137626789359209,0.05249840763499317,-0.9532108004446888,-0.03409912251154161,0.2631139781541812,-2.581448570918796
1783166155762239488,3.123765468597412,-5.409060955047607,-0.20875248312950134,-0.5489727258682251,0.25645938515663147,0.08819728344678879,-0.9625226259231567,0.38433343172073364,0.3369583487510681,-0.08447438478469849,0.27235020841292,0.11221994919761799,0.07839238848214053,-0.9524109229443452,-0.08831202739919528,0.26039546363316074,-2.5729704968793197
1783166155772158464,3.1336843967437744,-4.965217590332031,-0.23961105942726135,-0.8844063878059387,0.25341540575027466,0.13935375213623047,-0.9572675228118896,0.23689523339271545,0.37602710723876953,-0.20261400938034058,0.2719331320440318,0.10378812813790883,0.10292837139068671,-0.9511498866017435,-0.13980877298581867,0.258791441676616,-2.566429649043481
1783166155782078208,3.143604278564453,-4.62131929397583,-0.14890272915363312,-0.8327077627182007,0.25094321370124817,0.18683910369873047,-0.9497992992401123,0.12402626872062683,0.13502979278564453,-0.1431725025177002,0.2702408818595787,0.0963284791196934,0.1257823052832383,-0.949668139405265,-0.187943605900425,0.2583042268720398,-2.56264184487817
1783166155791997440,3.1535234451293945,-4.464914798736572,-0.10257969796657562,-0.9487701654434204,0.24795657396316528,0.23135706782341003,-0.9407398700714111,0.15435665845870972,-0.005588024854660034,-0.03856921195983887,0.26833174380057595,0.08910954200354526,0.1472737872734603,-0.9478228124384506,-0.23347237061075893,0.2577148329118598,-2.5594365123003424
1783166155801917440,3.1634433269500732,-4.387761116027832,0.07293380051851273,-1.0024843215942383,0.24566246569156647,0.2752416431903839,-0.9294579029083252,0.14676307141780853,0.1408655345439911,0.2623894214630127,0.26554399020850766,0.08251899522633946,0.16870585061246,-0.945629622989047,-0.2788410554952577,0.25839832563370024,-2.557609597720943
1783166155811836416,3.1733624935150146,-3.7477269172668457,0.1867130994796753,-1.0101659297943115,0.24433210492134094,0.31495949625968933,-0.9171163439750671,0.20947954058647156,0.29067710041999817,0.12852686643600464,0.2624682060888046,0.07709113382618317,0.1884112345772756,-0.9432224908055649,-0.320413965900284,0.26036594595032764,-2.556483741330802
1783166155821756416,3.1832823753356934,-3.4720816612243652,0.3040248155593872,-1.0647008419036865,0.24330101907253265,0.349778950214386,-0.9046874046325684,0.16404761373996735,0.390333354473114,0.07064199447631836,0.25870668721117485,0.07268779024646511,0.2058465098826011,-0.9409646768324365,-0.3573351432904908,0.2627178163151485,-2.5572651932099117
1783166155831675392,3.1932013034820557,-3.4657790660858154,0.5107138156890869,-1.1714369058609009,0.2432854175567627,0.38305699825286865,-0.8911113739013672,0.2074591964483261,0.43734702467918396,0.20449644327163696,0.2543440100396604,0.069221631874981,0.22282878456560554,-0.9385439631156812,-0.3931034690475646,0.2665184218051445,-2.5589345528204546
1783166155841595392,3.2031214237213135,-4.019320011138916,0.9054344892501831,-1.244573950767517,0.2448650747537613,0.4185091555118561,-0.8745806217193604,0.17627748847007751,0.4927762448787689,0.25612664222717285,0.2491645153191945,0.06657478794212723,0.2414073237809924,-0.9355252710256791,-0.43180318197390516,0.2729901500102195,-2.5607759751888017
1783166155851514368,3.213040351867676,-4.3708906173706055,1.0496487617492676,-1.4039000272750854,0.2476356327533722,0.45801275968551636,-0.8537569642066956,0.1862022429704666,0.45127370953559875,0.39680200815200806,0.24326708538247171,0.06433105380874375,0.2626462373005834,-0.9315039759630089,-0.47575841971389465,0.28230725253985356,-2.561811054282424
1783166155861434368,3.2229604721069336,-4.340261936187744,1.204201340675354,-1.4089103937149048,0.25081580877304077,0.49794918298721313,-0.830143392086029,0.20389610528945923,0.29564517736434937,0.29600948095321655,0.23657043479784548,0.06265959549227976,0.284608647657162,-0.926879788458675,-0.5212323194785937,0.29341483909229427,-2.563023148359123
1783166155871353344,3.232879400253296,-4.18734884262085,1.2391231060028076,-1.4196913242340088,0.2539297938346863,0.5360909104347229,-0.8050628900527954,0.2694771885871887,0.2392997145652771,0.1320434808731079,0.22968651044584787,0.06146486310359388,0.30608925780761553,-0.9218327811900147,-0.5657995359948693,0.3055393262796322,-2.5637545168409015
1783166155881273344,3.2427992820739746,-3.906658172607422,1.0566842555999756,-1.6559616327285767,0.2547282874584198,0.5718488097190857,-0.7798092365264893,0.2650166153907776,0.2769365906715393,0.022149324417114258,0.2221474303494314,0.05984051849413294,0.326365594809971,-0.9168179017003979,-0.6087577429558463,0.31572770452888943,-2.5662185093119168
1783166155891192320,3.252718448638916,-3.4672932624816895,1.0941169261932373,-1.8071261644363403,0.25297367572784424,0.6043147444725037,-0.7555183172225952,0.2548387944698334,0.41498756408691406,-0.12196880578994751,0.2136752709049963,0.05789431032364366,0.344802951699409,-0.9121962640345038,-0.6489055428556334,0.323101075802974,-2.571887270553638
1783166155901112320,3.2626383304595947,-3.014219045639038,1.0541526079177856,-1.8387633562088013,0.250099778175354,0.632738471031189,-0.7328656911849976,0.2129586935043335,0.49221575260162354,-0.21327078342437744,0.204414198692931,0.05642397075203897,0.3610865425612278,-0.9081011274971472,-0.6850845305334162,0.3288699914906342,-2.5805663485703896
1783166155911031552,3.272557497024536,-2.820291757583618,0.9046443104743958,-1.735296607017517,0.24644002318382263,0.6580557823181152,-0.7114983201026917,0.29776468873023987,0.43039941787719727,-0.16218942403793335,0.19551419005249507,0.055018709577616044,0.37579752847276887,-0.9041699400474659,-0.718233767829209,0.3334352463801159,-2.589502885385081
1783166155920951296,3.282477378845215,-2.849249839782715,1.0172269344329834,-1.6186572313308716,0.2447010576725006,0.6819543838500977,-0.6892457008361816,0.3802836835384369,0.28090572357177734,-0.05359792709350586,0.18730261547935428,0.05472066148242634,0.39036240214816204,-0.899744758203798,-0.7504314780281921,0.3411464679066212,-2.5956289332731193
1783166155930870272,3.292396306991577,-3.325122117996216,1.2250597476959229,-1.4965087175369263,0.24298091232776642,0.7064890265464783,-0.6647056341171265,0.4014740586280823,0.15300804376602173,0.10515058040618896,0.17928644451674397,0.05448004545549049,0.40580674968213737,-0.8945441062994516,-0.7845248773593928,0.3504571489560224,-2.599763644667091
1783166155940790528,3.302316427230835,-3.810354471206665,1.3492026329040527,-1.4195246696472168,0.2419276088476181,0.7331418395042419,-0.6355896592140198,0.3617711067199707,0.06353479623794556,0.313507080078125,0.1711819112520841,0.054612696924354096,0.42334694058305306,-0.8879705688967343,-0.8229303515264428,0.36370169789161916,-2.600567804458318
1783166155950709248,3.3122353553771973,-3.671795606613159,1.5454832315444946,-1.4301645755767822,0.24114388227462769,0.759870707988739,-0.6036937236785889,0.3628447651863098,0.05671858787536621,0.38398247957229614,0.1631115791337179,0.05510912664861588,0.4417195039816156,-0.8804779688786826,-0.8631142069341603,0.38002988624348677,-2.598556522277855
1783166155960629504,3.322155475616455,-3.1272125244140625,1.6599476337432861,-1.444623351097107,0.24088698625564575,0.7833852171897888,-0.5729581713676453,0.32905930280685425,0.10632425546646118,0.31511521339416504,0.15441974013078558,0.05683165105340594,0.45857503681221723,-0.8732889906750744,-0.9000937860393032,0.3979907448846009,-2.597319724603226
1783166155970548480,3.3320744037628174,-2.001889944076538,1.6100921630859375,-1.4782085418701172,0.23966798186302185,0.8013738989830017,-0.5480503439903259,0.37388789653778076,0.2623620629310608,0.1735234260559082,0.1453447458821431,0.059096257890074985,0.4716804554274064,-0.8676982056380625,-0.9295885737417057,0.41225108151565987,-2.600730479166168
1783166155980468224,3.341994285583496,-0.6887698173522949,1.5960313081741333,-1.4974724054336548,0.23721224069595337,0.812049925327301,-0.5332028865814209,0.38357633352279663,0.446464478969574,-0.0298006534576416,0.1356557653868477,0.061978597504121484,0.4791213035667327,-0.8649849690032317,-0.9476562354000656,0.4185894796025895,-2.613482886768387
1783166155990387456,3.3519134521484375,-0.5773471593856812,1.4908404350280762,-1.7694005966186523,0.23221471905708313,0.8186732530593872,-0.5252146124839783,0.35170862078666687,0.6269291639328003,-0.0016713142395019531,0.12523882224960045,0.06435891370807853,0.4829602624622498,-0.8642467965208892,-0.9590968335521929,0.41629249762126347,-2.634982121982243
1783166156000307200,3.361833333969116,-1.6452146768569946,1.5686112642288208,-1.7014877796173096,0.22593693435192108,0.8282579779624939,-0.5127778649330139,0.2701110243797302,0.6464582085609436,0.5115114450454712,0.11434778715834974,0.06615874295214075,0.4891156090022986,-0.8621563118944735,-0.9759917284718658,0.41502086845659225,-2.655277990592949
1783166156010226176,3.3717522621154785,-2.957470178604126,1.724892497062683,-1.5085893869400024,0.22090497612953186,0.8434639573097229,-0.48966270685195923,0.32365068793296814,0.3290213942527771,0.8371053338050842,0.10436682939383482,0.06794837138938646,0.5005513638755419,-0.8567023418631464,-1.0036992557974613,0.42379907597951216,-2.6641415064122542
1783166156020146432,3.3816723823547363,-3.3178210258483887,1.9675993919372559,-1.1634188890457153,0.21840284764766693,0.8614051342010498,-0.4585644602775574,0.26913073658943176,-0.1963965892791748,0.7689129710197449,0.09516886595672033,0.07087172471800747,0.5154560786640366,-0.8486607463401634,-1.03802963966588,0.44448820504100606,-2.661484864195884
1783166156030065408,3.3915913105010986,-3.3382256031036377,2.43369722366333,-0.9384132027626038,0.21941807866096497,0.8781604766845703,-0.42507651448249817,0.30478233098983765,-0.7946643829345703,0.5545778274536133,0.08632852920023304,0.0760897307139494,0.5307278888666837,-0.8396938478642711,-1.072003051149798,0.47651151897603233,-2.6501390797692914
1783166156039985408,3.4015114307403564,-3.9647655487060547,2.4392387866973877,-0.8009898066520691,0.2221376746892929,0.8948013782501221,-0.3872795104980469,0.2991788387298584,-0.9393112659454346,0.6082877516746521,0.07774805716372693,0.08262969550558032,0.5472957014184922,-0.8292134945007933,-1.1079860989802137,0.5207701450087847,-2.627915327858256
1783166156049904384,3.4114303588867188,-4.301361083984375,2.4523675441741943,-0.5579600930213928,0.2258063703775406,0.9114577174186707,-0.3438842296600342,0.3160485029220581,-0.6489149928092957,0.7532165050506592,0.07018025142285499,0.08962990704343622,0.5657069596705516,-0.8167109964948345,-1.1468135667411072,0.581025315611696,-2.5887040957174006
1783166156059824384,3.4213504791259766,-4.36613655090332,2.6878156661987305,-0.35977351665496826,0.2301129251718521,0.926364541053772,-0.2981554865837097,0.2758990228176117,-0.29098862409591675,0.883528470993042,0.06316167080201132,0.09729957038596891,0.5843415469880977,-0.8031738957833738,-1.184642662000089,0.6573004177965478,-2.5334893998098287
1783166156069743360,3.431269407272339,-3.661123514175415,2.8866240978240967,0.03993980213999748,0.23620852828025818,0.9379324316978455,-0.25394561886787415,0.30187737941741943,-0.10736602544784546,0.8717129230499268,0.056526616385824666,0.10649455102006883,0.6014034426000202,-0.7897959376550221,-1.2166199044432464,0.7492271901469811,-2.4641691934085603
1783166156079663360,3.4411892890930176,-2.9143552780151367,3.0669915676116943,0.5309929251670837,0.24594932794570923,0.944931149482727,-0.21590249240398407,0.48041480779647827,-0.1528017520904541,0.8236600160598755,0.0501835381013112,0.11839117813432276,0.6148432979101767,-0.7780956049758981,-1.237384190006409,0.8503639244425708,-2.3890836008953826
1783166156089582336,3.451108455657959,-1.9962434768676758,2.9161853790283203,0.836201012134552,0.258831650018692,0.9480230212211609,-0.18509043753147125,0.7360871434211731,-0.25463318824768066,0.7932599782943726,0.04551437064404681,0.13141906195188313,0.6246469512618327,-0.7684228279192489,-1.246964355395398,0.9500080459203821,-2.314760053838233
1783166156099502336,3.4610283374786377,-1.158024787902832,2.8152828216552734,1.1233636140823364,0.27285462617874146,0.9481846690177917,-0.1627773642539978,0.771289050579071,-0.3093905448913574,0.6143764853477478,0.04111947942822813,0.1451325833679502,0.6305139559872445,-0.7613790245107134,-1.247472617056764,1.032901383231781,-2.2578703550802213
1783166156109421312,3.470947265625,-0.028513403609395027,2.943598508834839,2.0949323177337646,0.2925800085067749,0.9445329904556274,-0.1491796374320984,0.7934490442276001,-0.4544968605041504,0.5949499011039734,0.03912602401372746,0.16057468096276506,0.6321597500892399,-0.7570066867178398,-1.2361697631413218,1.0992788447103288,-2.2167222473884536
1783166156119341312,3.480867385864258,-0.02289799600839615,2.9542715549468994,2.076556444168091,0.31684958934783936,0.9379525184631348,-0.1408960372209549,0.7259513139724731,-0.7858070135116577,0.4808008074760437,0.037737036296248444,0.17847000118372425,0.6306349513049051,-0.754336866462113,-1.2166778351047538,1.1523770060772591,-2.191749977914755
1783166156129260288,3.49078631401062,-0.5043748617172241,2.6595866680145264,2.446096897125244,0.34104806184768677,0.9311797618865967,-0.12880383431911469,0.741456151008606,-0.814862072467804,0.4181409478187561,0.03722743898937494,0.1959932372033717,0.6302259357936331,-0.7503439404809341,-1.197635733559378,1.2096863358245462,-2.160900700049463
1783166156139180544,3.500706434249878,0.31039613485336304,2.9558796882629395,2.8628947734832764,0.3694629669189453,0.9218559265136719,-0.11695641279220581,1.0995311737060547,-1.2264976501464844,0.2110726237297058,0.03863938381802329,0.21497311611042982,0.6287355199298862,-0.7463144229853874,-1.172842586137842,1.2642189000703754,-2.1324577291998543
1783166156149099264,3.5106253623962402,0.12939199805259705,2.8768436908721924,3.3948488235473633,0.40072956681251526,0.9096645712852478,-0.10920725762844086,0.9909788370132446,-1.8794827461242676,-0.02955615520477295,0.04084935899576927,0.23514240588628835,0.6245833960938768,-0.7435959854759503,-1.1424757710932065,1.304736187281221,-2.1189870887145776
1783166156159019520,3.520545482635498,-0.06877434253692627,3.1567561626434326,3.743946075439453,0.43599316477775574,0.8948202729225159,-0.09595120698213577,0.9160728454589844,-2.010512351989746,0.09048855304718018,0.044909240820994546,0.257279150445915,0.621153631953634,-0.7388902122488391,-1.1080284101612237,1.3541744590879383,-2.097215020557556
1783166156168938496,3.5304644107818604,0.496812105178833,3.0516104698181152,4.296391487121582,0.47372859716415405,0.876701295375824,-0.08352283388376236,0.846431314945221,-1.9088363647460938,-0.15585702657699585,0.049396108471460795,0.2811141284105829,0.6158030759206921,-0.7343850751064148,-1.0689612215005189,1.3962803842078844,-2.085238887264889
1783166156178858240,3.540384292602539,1.1642967462539673,2.71109676361084,4.44091272354126,0.5140733122825623,0.8543663620948792,-0.07607175409793854,1.082026481628418,-1.4489402770996094,-0.3332604765892029,0.055603681747194246,0.3052646126303067,0.6072706479484333,-0.7313987688904099,-1.0243302587047447,1.4238840596051356,-2.086470934031877
1783166156188777472,3.5503034591674805,2.5453312397003174,2.1890997886657715,4.550515174865723,0.5533618330955505,0.8292592167854309,-0.07823044061660767,1.2569713592529297,-1.1654255390167236,-0.41340768337249756,0.061613218368130926,0.3281085221835485,0.5943312011437452,-0.7316550557319821,-0.9777808538698775,1.4303539990088734,-2.107912275905532
1783166156198697216,3.560223340988159,3.5872902870178223,1.7932300567626953,4.743687629699707,0.5925255417823792,0.8002699017524719,-0.09209451079368591,1.214145541191101,-1.2034224271774292,-0.4263685941696167,0.06756543758264583,0.3497336252690949,0.5758811828881958,-0.7358546500724833,-0.9277451559423903,1.4166030068185005,-2.1487529462968276
1783166156208616192,3.5701422691345215,4.2670488357543945,1.7970412969589233,5.110004901885986,0.6326445937156677,0.7663394808769226,-0.11173449456691742,0.9835053086280823,-1.1367008686065674,-0.3472803831100464,0.07351151731139896,0.37153168286194044,0.5532603015641779,-0.7419321354359086,-0.8731237452059672,1.3959841284617884,-2.1979299186714476
1783166156218536448,3.5800623893737793,4.631152153015137,1.8300195932388306,5.228198051452637,0.6732271313667297,0.7274193167686462,-0.13276465237140656,0.8007566332817078,-1.027498722076416,-0.30916041135787964,0.07939035791823038,0.39380000867216386,0.5277681591627537,-0.7483846279863116,-0.814553531785744,1.3760884387603296,-2.248628677102883
1783166156228455424,3.5899813175201416,5.287813186645508,2.104247570037842,5.345968723297119,0.7129089832305908,0.684226393699646,-0.15360723435878754,0.8241698741912842,-1.062857985496521,-0.40762627124786377,0.0838659417576488,0.4167298842772291,0.4995323688359189,-0.7548312435977713,-0.7535423691661934,1.3585753534352476,-2.30179061964615
