time,seconds_elapsed,rotationRateX,rotationRateY,rotationRateZ,gravityX,gravityY,gravityZ,accelerationX,accelerationY,accelerationZ,quaternionW,quaternionX,quaternionY,quaternionZ,pitch,roll,yaw
1784201753930799616,0.09310173988342285,-0.07271498441696167,-0.016419336199760437,0.011641290970146656,-0.03338523209095001,0.6627945899963379,-0.7480566501617432,0.027403801679611206,-0.01495218276977539,-0.002935171127319336,-0.7521306241836434,0.29578333486823266,-0.19617313089692656,0.5552727796406148,-0.7245447344124095,-0.04459968608697534,-1.2888041193942563
1784201753940719872,0.10302186012268066,-0.10225404053926468,0.04219748452305794,0.0502922460436821,-0.03311631828546524,0.6634714603424072,-0.7474682927131653,0.011921875178813934,-0.020984947681427002,-0.01739370822906494,-0.7520741950573758,0.296063834947212,-0.1964994993540909,0.5550842139141072,-0.7254490386605351,-0.04427568877338368,-1.2884511881749214
1784201753950639616,0.11294174194335938,-0.08624418079853058,0.07867267727851868,0.05940105766057968,-0.0322563536465168,0.6642116904258728,-0.7468482851982117,-0.0127418152987957,0.00012546777725219727,0.016974687576293945,-0.7520138589716483,0.29618774408178616,-0.19710069093171684,0.5548866569956475,-0.7264387557384924,-0.04316314126742676,-1.2877897234755002
1784201753960558592,0.12286067008972168,-0.10843829065561295,0.041364945471286774,0.10187587887048721,-0.031261805444955826,0.6649395227432251,-0.7462426424026489,0.043026331812143326,0.0497211217880249,0.053997159004211426,-0.7520323224321807,0.29628958443902015,-0.19771484140705198,0.5545886927993102,-0.7274128393906939,-0.04186779662157802,-1.2867838941548269
1784201753970478848,0.1327807903289795,-0.15236367285251617,-0.007025492377579212,0.12586109340190887,-0.03035649284720421,0.6659378409385681,-0.7453892827033997,0.0796118676662445,0.032105982303619385,0.07772576808929443,-0.7521507995258961,0.29661263458159415,-0.19830857124233262,0.5540431434002471,-0.7287502983847214,-0.04070319411244048,-1.285281138649486
1784201753980398592,0.1427006721496582,-0.20470911264419556,-0.028668470680713654,0.10704857110977173,-0.02973053604364395,0.667326807975769,-0.7441713809967041,0.05567046254873276,-0.004591822624206543,0.09039336442947388,-0.7522196019994081,0.29723522455348994,-0.19891085630912575,0.5533997971449629,-0.7306136419488504,-0.03992995931320391,-1.2838320070207818
1784201753990318848,0.15262079238891602,-0.19690604507923126,-0.009336849674582481,0.11139404773712158,-0.029159625992178917,0.6688705086708069,-0.7428067922592163,0.03840646892786026,0.011610448360443115,0.06630837917327881,-0.7522316755099978,0.2979470032509831,-0.1995599738138217,0.55276658138495,-0.7326883547916961,-0.03923585658953397,-1.282505017511635
1784201754000237824,0.16253972053527832,-0.1458510458469391,0.02742713689804077,0.13508810102939606,-0.02828330174088478,0.6701416373252869,-0.7416941523551941,0.015099700540304184,0.05327749252319336,0.019846677780151367,-0.75231209831532,0.2984291721298725,-0.20023221094587648,0.5521536789610721,-0.7343996237040927,-0.03811490541794152,-1.280951798787727
1784201754010157824,0.17245984077453613,-0.13678458333015442,0.0830022469162941,0.1681845337152481,-0.026870246976614,0.67124342918396,-0.7407497763633728,-0.002670764923095703,0.07584208250045776,-0.015704751014709473,-0.7524612523538559,0.29866685719123404,-0.20105529859827898,0.5515223449524044,-0.7358850554948042,-0.03625849488786918,-1.2789880038826482
1784201754020077824,0.18237972259521484,-0.07883193343877792,0.12041220813989639,0.15750932693481445,-0.025016814470291138,0.672055721282959,-0.7400778532028198,-0.017860375344753265,0.054338932037353516,-0.015049099922180176,-0.752659483675107,0.29861425783765283,-0.2019668055515981,0.5509470300861763,-0.7369814376051362,-0.03379008209880618,-1.2768113016132467
1784201754029996800,0.19229888916015625,-0.10498443990945816,0.11106424778699875,0.15173958241939545,-0.02310078963637352,0.6727453470230103,-0.7395133972167969,-0.014847822487354279,0.033675551414489746,0.016582489013671875,-0.7528218915807011,0.2984591169671644,-0.20289270305784496,0.5504689041156119,-0.7379131370346981,-0.031227668262907134,-1.274805427497903
1784201754039916800,0.20221877098083496,-0.11757773160934448,0.04332464933395386,0.12018697708845139,-0.021582884714007378,0.6736378073692322,-0.7387464642524719,0.032660745084285736,0.017341196537017822,0.032462894916534424,-0.7529534342877598,0.2985410239819274,-0.20371554900703726,0.5499403813323156,-0.7391199914464278,-0.029207242496185157,-1.2729625863586445
1784201754049836800,0.21213889122009277,-0.12789376080036163,0.011409593746066093,0.06307762116193771,-0.020786048844456673,0.6745354533195496,-0.7379498481750488,0.02925465628504753,-0.01279228925704956,0.013325214385986328,-0.7529900927637583,0.2988238962110687,-0.20427766236172296,0.5495279408918913,-0.740335233306765,-0.028159846949142604,-1.271815582899452
1784201754059755776,0.22205781936645508,-0.08443108946084976,0.06176277622580528,0.054754238575696945,-0.020182395353913307,0.675420880317688,-0.7371562719345093,0.011271243914961815,0.005288958549499512,0.006107687950134277,-0.7529346004142384,0.29912837809517634,-0.20480254065763803,0.5492428303001128,-0.7415352709406077,-0.02737188318006175,-1.271104567013915
1784201754069675776,0.2319777011871338,-0.03384861350059509,0.09842731803655624,0.0847957655787468,-0.019062362611293793,0.67580646276474,-0.7368326187133789,0.02019151672720909,0.06249004602432251,0.018357276916503906,-0.7529697095572377,0.29900861683893604,-0.20537174058797528,0.5490473262246105,-0.7420583010994549,-0.02586491511516097,-1.270143036027946
1784201754079595776,0.2418978214263916,-0.0007908602710813284,0.07773961871862411,0.06714522838592529,-0.017924746498465538,0.676011323928833,-0.7366732358932495,0.0667986273765564,0.10198855400085449,0.11899745464324951,-0.7530501589740008,0.2987946369584272,-0.2058765576910179,0.5488644302309712,-0.7423362767578788,-0.02432721969895244,-1.2691297564004627
1784201754089515776,0.2518177032470703,0.0762738287448883,0.17708830535411835,0.0670381635427475,-0.016606563702225685,0.6757432222366333,-0.7369500398635864,0.08301280438899994,0.0961073637008667,0.15858089923858643,-0.7531607335076246,0.29825701910287905,-0.2063194754401387,0.5488387488760766,-0.7419724564940714,-0.022530364836815534,-1.2682412175083806
1784201754099434752,0.2617368698120117,0.2307729870080948,0.2316131442785263,0.09167114645242691,-0.014501440338790417,0.6746691465377808,-0.7379778027534485,0.12079416215419769,0.05210697650909424,0.1632707715034485,-0.7533844820186782,0.2970386175487072,-0.20683121594608314,0.5489998243781393,-0.7405164076335654,-0.019647710798614184,-1.26709992847028
1784201754109354752,0.27165675163269043,0.31550705432891846,0.19001643359661102,0.0676073506474495,-0.01240615639835596,0.6726278066635132,-0.7398770451545715,0.1799018830060959,-0.040044188499450684,0.20160794258117676,-0.7538056198423974,0.2953341306867089,-0.2069764199608851,0.5492865530659684,-0.7377542318248119,-0.016766291246215988,-1.2659198815008386
1784201754119274752,0.28157687187194824,0.4825565814971924,0.31996822357177734,0.056043677031993866,-0.010327337309718132,0.6699154376983643,-0.7423655986785889,0.1870088428258896,-0.11266446113586426,0.27872729301452637,-0.7542432960705581,0.2932549695435897,-0.20692687527194392,0.549818055639271,-0.7340949054390301,-0.013910493076921458,-1.2651546690208122
1784201754129193728,0.29149580001831055,0.15999501943588257,0.0821218490600586,-0.012554826214909554,-0.008534770458936691,0.6670321226119995,-0.7449800968170166,0.2214406579732895,-0.1898287534713745,0.2773592472076416,-0.754663672006511,0.29116819957002,-0.20671488111660838,0.5504296026149973,-0.7302180508400995,-0.01145587272388174,-1.2647132385375612
1784201754139113728,0.30141568183898926,-0.3124679923057556,0.13397382199764252,-0.06931430846452713,-0.00833222083747387,0.6678647994995117,-0.7442359328269958,0.17552275955677032,-0.14129924774169922,0.3922309875488281,-0.7542861718945235,0.2914450756236969,-0.20722400190292775,0.5506090963346653,-0.7313363078265532,-0.011195203571356692,-1.2654078282999448
1784201754149033728,0.31133580207824707,-0.5153811573982239,0.32990577816963196,0.0876377522945404,-0.006564807146787643,0.6708986759185791,-0.7415199875831604,0.09471480548381805,-0.1374208927154541,0.2547340989112854,-0.753459527684474,0.2923359643779707,-0.20923596143594927,0.5505078123311228,-0.7354200440613389,-0.008852944806772749,-1.2654011207210014
1784201754158953728,0.3212556838989258,-0.7429356575012207,0.40740177035331726,0.13375404477119446,-0.0029548369348049164,0.6755728125572205,-0.7372873425483704,0.10004652291536331,-0.15173858404159546,0.17896825075149536,-0.7524737536455058,0.29354716045419155,-0.21257089739065285,0.5499335754417896,-0.7417413415773162,-0.004007692554059973,-1.2638019797554327
1784201754168872960,0.3311748504638672,-0.8263493180274963,0.2950398325920105,0.024111974984407425,0.00018168742826674134,0.6813259720802307,-0.7319802045822144,0.13054035604000092,-0.10140043497085571,0.16374289989471436,-0.7511839973602866,0.29544292115227055,-0.2161559407299645,0.549283899782991,-0.7495725606877219,0.0002482135927142501,-1.2626542887817063
1784201754178792704,0.3410947322845459,-0.8139299154281616,0.12981005012989044,-0.12686796486377716,0.0012910611694678664,0.6872621774673462,-0.7264083027839661,0.12093184143304825,-0.01872885227203369,0.15186911821365356,-0.7496025642353622,0.2979971752800951,-0.21907424771866496,0.5489081804127963,-0.7577133329907522,0.00177731973499934,-1.2634008277562612
1784201754188712960,0.3510148525238037,-0.6056156158447266,0.13872604072093964,-0.14894503355026245,0.0011798865161836147,0.6925501227378845,-0.7213687896728516,-0.017964564263820648,0.09639030694961548,0.10445594787597656,-0.7479967999809913,0.30056183124514085,-0.221310176072111,0.5488034178656893,-0.765018214419291,0.001635620297351065,-1.2653132426688631
1784201754198631680,0.360933780670166,-0.6527867913246155,0.40176212787628174,-0.18619690835475922,0.0017602714942768216,0.6970244646072388,-0.7170451283454895,-0.19243408739566803,0.22834479808807373,0.05440175533294678,-0.746257293557537,0.30237579048629176,-0.22371031343811382,0.5492017632895841,-0.7712393903649711,0.002454891336073659,-1.2678890490338686
1784201754208551680,0.3708536624908447,-0.4265635311603546,0.5952638983726501,-0.1318841427564621,0.004220940172672272,0.7009977698326111,-0.7131509780883789,-0.24459263682365417,0.3959870934486389,-0.047301292419433594,-0.744447954575514,0.30326302958472845,-0.22683927961862832,0.5498842631882128,-0.7767956327479788,0.005918650192845839,-1.269969198995873
1784201754218471680,0.38077378273010254,-0.20847992599010468,0.563420295715332,-0.13477566838264465,0.007532486692070961,0.7031782865524292,-0.7109736800193787,-0.1030525267124176,0.4568253755569458,-0.26731306314468384,-0.7429644172391636,0.30291920532200467,-0.2296804552683755,0.5508999075635771,-0.779857722185801,0.010594210592863744,-1.2717095286992879
1784201754228390656,0.39069271087646484,0.30515727400779724,0.45088306069374084,-0.18936647474765778,0.01007773820310831,0.7032161951065063,-0.7109047174453735,-0.013541501946747303,0.44603002071380615,-0.35405194759368896,-0.7419465042550265,0.30170200510639605,-0.23135154589038964,0.5522389607852576,-0.7799110358348411,0.014174983775967267,-1.2738745451059086
1784201754238310912,0.40061283111572266,1.1129199266433716,0.2299528419971466,-0.16140298545360565,0.0112032825127244,0.6982048749923706,-0.7158104181289673,-0.01724577695131302,0.3881598711013794,-0.4363960027694702,-0.7420864557102995,0.298353861498442,-0.23039046331404853,0.5542680095720678,-0.7728868652244162,0.015649909370628986,-1.2766666601297716
1784201754248230656,0.41053271293640137,2.0039119720458984,0.2390693724155426,-0.066856250166893,0.01195063628256321,0.6870548725128174,-0.7265072464942932,-0.13012996315956116,0.4049861431121826,-0.359918475151062,-0.7438598635219383,0.2921618067762239,-0.2266888654001979,0.5567101055560503,-0.7574279415417006,0.01644795461442426,-1.2784167920273535
1784201754258150912,0.4204528331756592,2.369426727294922,0.4655567407608032,-0.13254328072071075,0.013889987953007221,0.6707764863967896,-0.7415295243263245,-0.29587242007255554,0.30590808391571045,-0.22130006551742554,-0.7463850970663065,0.2830145780460363,-0.221670914027239,0.5600661066560222,-0.7352552123519435,0.01872934698430541,-1.2802641267204404
1784201754268069632,0.4303717613220215,2.0961005687713623,0.6069982647895813,-0.18503151834011078,0.016873380169272423,0.654058575630188,-0.7562556862831116,-0.32026389241218567,0.09498006105422974,0.029525339603424072,-0.7484678856984545,0.2733245778382055,-0.2171769739795435,0.5638472083733451,-0.7129374408368007,0.022308039678435802,-1.2829571789105698
1784201754277989888,0.4402918815612793,1.7249253988265991,0.6768020391464233,-0.23003780841827393,0.020469671115279198,0.6396820545196533,-0.7683669924736023,-0.19817352294921875,-0.24933171272277832,0.1806442141532898,-0.7497144769806195,0.264629110858144,-0.21398116183711885,0.5675488191734819,-0.6940845575494398,0.026634187322791648,-1.2863239213383215
1784201754287909632,0.450211763381958,1.3362228870391846,0.4989771842956543,-0.15624640882015228,0.02376699261367321,0.6279382109642029,-0.777900218963623,-0.015908721834421158,-0.4693078398704529,0.27002668380737305,-0.7505235553982526,0.25744936031556953,-0.21158854976548117,0.5706702642178765,-0.6789011460099575,0.030543250237911563,-1.289414805989078
1784201754297828608,0.4601306915283203,1.1059671640396118,0.5471107959747314,-0.1106744334101677,0.02687734365463257,0.6187955141067505,-0.7850922346115112,0.07207589596509933,-0.326482892036438,0.41282355785369873,-0.7511256002946033,0.2517470552344916,-0.2099459657877514,0.5730240519402426,-0.6672084488101813,0.03422126759578353,-1.291535476975748
1784201754307748864,0.4700508117675781,1.4534015655517578,0.6927441954612732,-0.02430066466331482,0.03131949529051781,0.6091126203536987,-0.7924651503562927,0.048117730766534805,0.04962456226348877,0.4736022353172302,-0.7518164524960971,0.24542834932065785,-0.20864409592082225,0.5753300969062182,-0.6549411831648677,0.039501049880384026,-1.2929641217362458
1784201754317668608,0.47997069358825684,2.346958637237549,0.9532904028892517,-0.04778984561562538,0.037530601024627686,0.5942555069923401,-0.8034001588821411,-0.011422809213399887,0.4342021346092224,0.3695927858352661,-0.7531485185566857,0.23614143743044277,-0.20624531596699702,0.578331593524567,-0.6363396698521834,0.046680765960785714,-1.2943222223031787
1784201754327587840,0.48988986015319824,3.243248701095581,1.2862862348556519,-0.2620728611946106,0.04583808034658432,0.571557343006134,-0.8192808628082275,-0.12275765091180801,0.668463408946991,0.19521164894104004,-0.75480346892975,0.22244441260792605,-0.20218320012158675,0.5830199948117537,-0.6084024794828969,0.05589089533215592,-1.2978329426678228
1784201754337507840,0.49980974197387695,3.389031410217285,1.4459885358810425,-0.3769204914569855,0.05523169785737991,0.5441147685050964,-0.8371909260749817,-0.2407175600528717,0.7290328145027161,0.1379874348640442,-0.7560155374172872,0.2061964828581314,-0.19719927526497646,0.5890976649220826,-0.5753336474365812,0.06587718143545324,-1.3043768347488198
1784201754347427840,0.5097298622131348,2.760002374649048,1.365840196609497,-0.16805730760097504,0.06576931476593018,0.517960250377655,-0.8528725504875183,-0.2792550325393677,0.5089409947395325,-0.06506568193435669,-0.7568426067292318,0.19046301679517275,-0.19309987238814427,0.5946642882617627,-0.5444646789287141,0.0769627358210531,-1.310447287475489
1784201754357347840,0.5196497440338135,1.5149693489074707,1.510781168937683,-1.0482290983200073,0.0756978765130043,0.5014591813087463,-0.8618634343147278,-0.2682638168334961,-0.008112013339996338,-0.4519488215446472,-0.7557417460537611,0.179158338084451,-0.19227735047561578,0.5998218257311636,-0.5252845049219969,0.08760567288106956,-1.3181915329015628
1784201754367266560,0.5295686721801758,2.386939525604248,1.2849669456481934,-1.8104885816574097,0.08000583946704865,0.4856707453727722,-0.8704728484153748,-0.17371007800102234,-0.4750353693962097,-0.6930341720581055,-0.7515631846252246,0.1691128273440583,-0.19016943863310923,0.6085962350700823,-0.5071303384599185,0.0916532723867956,-1.337577912369787
1784201754377186816,0.5394887924194336,2.3926525115966797,0.8474063277244568,-1.1694332361221313,0.0820600613951683,0.46581408381462097,-0.8810694813728333,0.3950212299823761,-0.6560912132263184,-0.46315354108810425,-0.7478969283696478,0.15827001224198448,-0.18551515849978395,0.6174017746818325,-0.4845543843759274,0.09286896966679459,-1.3572490978441552
1784201754387106560,0.5494086742401123,1.6084433794021606,0.4625076949596405,-0.6529103517532349,0.08379814773797989,0.44866782426834106,-0.889761209487915,0.6385681629180908,-0.5104659199714661,0.08016037940979004,-0.7461597361516094,0.14952778313161527,-0.18099952284522317,0.6229978100574202,-0.4652741604646248,0.09390350449702246,-1.3691064995131181
1784201754397025792,0.5593278408050537,0.6606411933898926,0.4212794303894043,-0.4568811058998108,0.08510059118270874,0.4391852617263794,-0.8943568468093872,0.36160045862197876,-0.2609320878982544,0.3654719591140747,-0.74487430273884,0.14455211353659092,-0.17867920573233356,0.6263709985198768,-0.45469158371341317,0.09486721607115357,-1.376421509169929
1784201754406945792,0.5692477226257324,-0.11081103980541229,0.5888245105743408,-0.3463718891143799,0.08786316215991974,0.4372994303703308,-0.8950135707855225,0.07845764607191086,-0.1373421549797058,0.35071730613708496,-0.7433887849055453,0.14241097137508366,-0.17947793920550287,0.6283947531965108,-0.45259355598227485,0.0978560883607495,-1.3809837616967007
1784201754416865792,0.5791678428649902,-0.5133596062660217,0.5620151162147522,-0.47824740409851074,0.09141372889280319,0.4407012462615967,-0.892987072467804,-0.027586229145526886,-0.19448542594909668,0.15543824434280396,-0.7413739459390397,0.1421757189054383,-0.18246237703592316,0.629966838379353,-0.45637971690304746,0.10201312520692085,-1.3849628121191222
1784201754426785792,0.589087724685669,-0.4215724468231201,0.4333582818508148,-0.6681060194969177,0.09320633113384247,0.4455755949020386,-0.8903791308403015,-0.03909868001937866,-0.2759741544723511,0.032667338848114014,-0.7387611785529137,0.1429701137491884,-0.1853914408223811,0.6319980585087958,-0.4618171118993055,0.10430174048722385,-1.3907954383735004
1784201754436704768,0.5990068912506104,-0.07487926632165909,0.4776330590248108,-0.6317796111106873,0.09428535401821136,0.44851410388946533,-0.8887887001037598,0.0013719797134399414,-0.16940033435821533,-0.13530492782592773,-0.7360861305247791,0.14311939308619734,-0.18740991932638382,0.6344854069140904,-0.46510216721682596,0.10568770225569558,-1.3977541680526326
1784201754446624768,0.6089267730712891,0.5013387203216553,0.40862417221069336,-0.6655583381652832,0.09549611806869507,0.44719594717025757,-0.8893235325813293,0.04142097383737564,-0.03723806142807007,-0.19830769300460815,-0.7337998237783939,0.14147336212287465,-0.18794554835024602,0.6373379984615885,-0.4636278647307983,0.10697074330537039,-1.4050506026748668
1784201754456544512,0.6188466548919678,1.012064814567566,0.3304855227470398,-0.780219316482544,0.0955217033624649,0.4413180351257324,-0.8922522068023682,0.0454389825463295,0.041378527879714966,-0.24823546409606934,-0.7316619485688414,0.13828622431315327,-0.18641568433138175,0.6409344945046428,-0.45706693565655976,0.10665063027219075,-1.4139613210964026
1784201754466463744,0.6287658214569092,1.4221702814102173,0.19870217144489288,-0.8624327182769775,0.09425642341375351,0.4309324026107788,-0.8974480628967285,0.0300111323595047,0.1635957956314087,-0.24177312850952148,-0.729639116973544,0.1336563014574901,-0.18278939105166836,0.6452526021919621,-0.44552577622036343,0.10464352777885905,-1.4244719520654059
1784201754476383744,0.6386857032775879,1.4281675815582275,0.04714928939938545,-1.1265201568603516,0.09130256623029709,0.4190140962600708,-0.9033775925636292,0.055242836475372314,0.4168165922164917,-0.04794687032699585,-0.7272942960925064,0.1289200935897476,-0.17801917013765495,0.6501782658994324,-0.43235921739108085,0.10072597057606864,-1.4368072502969966
1784201754486303744,0.6486058235168457,1.4935468435287476,-0.22272665798664093,-1.388511061668396,0.08527778089046478,0.4070287048816681,-0.9094257950782776,0.11937309801578522,0.4542078375816345,0.05902302265167236,-0.7242049437861697,0.12508274805758238,-0.17216677104577333,0.6559268758101618,-0.41919875418108415,0.09349761210345377,-1.4520296137335915
1784201754496222720,0.658524751663208,1.2234313488006592,-0.38092705607414246,-1.429427146911621,0.07667064666748047,0.3958085775375366,-0.9151268601417542,0.15230274200439453,0.08574354648590088,0.12897878885269165,-0.7206861482832362,0.12244713776728058,-0.16566009287450686,0.6619477905912436,-0.40694816768468345,0.0835862288490628,-1.468625549101269
1784201754506142976,0.6684448719024658,0.8500735759735107,-0.2507552206516266,-1.5806443691253662,0.06798014789819717,0.3873486816883087,-0.9194235801696777,0.06091083586215973,-0.3144727051258087,0.22803258895874023,-0.7166558240247036,0.12096883663149474,-0.16017102086934865,0.6679193100611217,-0.3977540208847193,0.07380349517481509,-1.4855452129051718
1784201754516062720,0.6783647537231445,1.0911198854446411,0.27179986238479614,-2.162385940551758,0.06083296239376068,0.3803945481777191,-0.9228214025497437,0.0013008154928684235,-0.532112717628479,0.31408727169036865,-0.7111683953473595,0.1193356572703179,-0.15603940269322075,0.6750187786482886,-0.3902228804558591,0.06582538632493985,-1.5056380899262267
1784201754525982976,0.6882848739624023,1.5001564025878906,0.2343752533197403,-2.5183768272399902,0.05393841862678528,0.3704985976219177,-0.9272655844688416,0.12281938642263412,-0.3071288466453552,0.26871150732040405,-0.7037818426341009,0.116142699096378,-0.15125502892430354,0.6843420519671259,-0.3795457651131103,0.05810385683781958,-1.5316257165396014
1784201754535901696,0.6982038021087646,1.6416932344436646,0.11066180467605591,-2.468214273452759,0.04720326513051987,0.35709360241889954,-0.9328750967979431,0.2817762494087219,0.14478322863578796,0.2800431251525879,-0.6957005370040604,0.11156638568440969,-0.14531131625303814,0.6945777353220717,-0.3651544854900361,0.05055665172318257,-1.5598446387886984
1784201754545821696,0.7081236839294434,1.9569629430770874,0.1258506029844284,-2.1858086585998535,0.040418293327093124,0.34277766942977905,-0.9385466575622559,0.29542768001556396,0.25995975732803345,0.06003713607788086,-0.6886357522621265,0.10709602616642917,-0.13877001032727249,0.7036007468894908,-0.34987211280570885,0.04303817439173353,-1.5846853314051155
1784201754555741696,0.7180438041687012,3.1331729888916016,0.22104209661483765,-2.4157087802886963,0.03455425053834915,0.31939253211021423,-0.9469922780990601,0.04845355078577995,0.26129594445228577,-0.28964102268218994,-0.681711719680756,0.09917185449966237,-0.12910767337856813,0.7132778672951884,-0.3250883639667998,0.03647223658170519,-1.610063340169154
1784201754565660672,0.7279627323150635,3.464460611343384,-0.05533862113952637,-1.5970412492752075,0.0286266952753067,0.28769317269325256,-0.9572947025299072,-0.0723431333899498,0.5753439664840698,-0.4000508785247803,-0.6760120338320534,0.08880023138962258,-0.11604812339191409,0.72225690095478,-0.2918172973131846,0.02989483536112771,-1.6325246001532014
1784201754575580928,0.7378828525543213,3.3686256408691406,0.505242109298706,-1.605190634727478,0.02588946931064129,0.2555864155292511,-0.9664394855499268,-0.5564680695533752,0.5814496874809265,-0.47299832105636597,-0.6720308758399808,0.07774753610648823,-0.1036125868848993,0.7291050700718367,-0.2584542152028563,0.02678209972551215,-1.6487391462973635
1784201754585500672,0.747802734375,3.032869338989258,1.3300745487213135,-2.363987922668457,0.03042663261294365,0.2256058007478714,-0.9737434387207031,-1.0525060892105103,-0.001789882779121399,-0.4127616882324219,-0.6652792156026993,0.06467082374687926,-0.09458317740396821,0.7377500792587147,-0.22756482622018936,0.03123691124293438,-1.670440860023561
1784201754595420928,0.7577228546142578,3.068094253540039,1.3119163513183594,-2.02716064453125,0.039021436125040054,0.19691963493824005,-0.9796428084373474,-0.5102433562278748,-0.25233954191207886,-0.3242359757423401,-0.6572080285174362,0.05065106445494947,-0.08725294521446186,0.7469264216362976,-0.19821503706363386,0.03981126429062122,-1.6944555795921161
1784201754605339648,0.7676417827606201,3.1570560932159424,1.2245298624038696,-1.6943292617797852,0.047773249447345734,0.16712680459022522,-0.9847773313522339,0.12547503411769867,0.019427165389060974,-0.3229008913040161,-0.6507489256483288,0.03664084631564075,-0.07917570686211828,0.7542642760327908,-0.1679147551572216,0.048473726449475105,-1.7138020040993633
1784201754615259648,0.7775616645812988,2.8654072284698486,1.1343351602554321,-2.2460057735443115,0.05656086653470993,0.13885736465454102,-0.9886958599090576,0.15939676761627197,0.392575740814209,-0.06547284126281738,-0.6433525645723477,0.023252544998817702,-0.07149398806678682,0.7618695937103865,-0.13930750357030908,0.05714526388219953,-1.7350908677830759
1784201754625179648,0.7874817848205566,3.183933973312378,1.1703605651855469,-2.340049982070923,0.06479909271001816,0.11101526767015457,-0.9917039275169373,0.06621287018060684,0.4490585923194885,0.20499128103256226,-0.6343905274725514,0.010298049170425018,-0.06357659853242355,0.7703250959081069,-0.11124457500741257,0.06524841386360605,-1.7601017319050747
1784201754635098624,0.797400712966919,3.2816431522369385,1.449898362159729,-2.3871514797210693,0.0754854753613472,0.08030849695205688,-0.9939076900482178,-0.0510714128613472,0.15580600500106812,0.19985556602478027,-0.6250023680980685,-0.004305728557685653,-0.05502378748409653,0.7786693989261287,-0.08039507380368202,0.07580265025510959,-1.785827931619063
1784201754645018880,0.8073208332061768,2.4181582927703857,1.5683057308197021,-2.4543628692626953,0.08885861188173294,0.053577691316604614,-0.9946022033691406,-0.17220212519168854,-0.10538128018379211,0.3244514465332031,-0.6150126863591661,-0.01853169249107955,-0.048533138654533,0.7868040950787619,-0.05360335876417083,0.08910428915112593,-1.8122883910851115
1784201754654938624,0.8172407150268555,1.2882206439971924,1.6577388048171997,-2.431886672973633,0.10379248857498169,0.03795728087425232,-0.9938744306564331,-0.06479102373123169,-0.2749567925930023,0.3957451581954956,-0.6048529760659471,-0.029839092387137917,-0.04660920656638137,0.7944118108491591,-0.03796640115340082,0.10405501346510243,-1.838120227531587
1784201754664857088,0.8271591663360596,0.5440669655799866,1.3926365375518799,-2.4722981452941895,0.11827872693538666,0.03158771991729736,-0.9924778938293457,0.13416267931461334,-0.38684284687042236,0.1678929328918457,-0.5946357310747554,-0.0381611731154155,-0.04800813385150757,0.8016528574037417,-0.031592976527543,0.1186157351998296,-1.863300615391552
1784201754674776320,0.837078332901001,-0.26696136593818665,0.9817824363708496,-2.614184617996216,0.12902949750423431,0.033657848834991455,-0.9910693764686584,0.228651762008667,-0.25574952363967896,0.18798410892486572,-0.5842005211397765,-0.04254149312106373,-0.05153179094349273,0.8088538505550557,-0.033664208287817646,0.12946400006470407,-1.888394287058144
1784201754684696320,0.8469982147216797,-0.25151526927948,0.7914175391197205,-2.779135227203369,0.1366143375635147,0.04009572044014931,-0.9898125529289246,0.09380863606929779,-0.0717577114701271,0.22128838300704956,-0.5731483656254021,-0.04449797975752236,-0.055800200845905784,0.8163376464878926,-0.04010647172714085,0.13715388817417912,-1.9145733523729627
1784201754694616320,0.8569183349609375,-0.358688622713089,0.7326746582984924,-2.876471519470215,0.14283466339111328,0.046772394329309464,-0.9886407852172852,-0.09629535675048828,-0.040241632610559464,0.11545658111572266,-0.5614793500636154,-0.04598186888490235,-0.059709922298388285,0.8240517624280227,-0.04678946416434995,0.14348296646369665,-1.9420117028668322
1784201754704535296,0.8668372631072998,-0.5209678411483765,0.7703490853309631,-2.923596143722534,0.14865605533123016,0.055458713322877884,-0.9873326420783997,-0.20219914615154266,-0.029335666447877884,0.22524768114089966,-0.5494407899153883,-0.04688243387510845,-0.06430961238964365,0.831733785790736,-0.055487179937932396,0.14944080576597452,-1.9698603957518361
1784201754714455296,0.8767573833465576,-0.5059386491775513,0.9675819873809814,-2.9868221282958984,0.15538959205150604,0.0648016557097435,-0.9857255220413208,-0.19104938209056854,-0.1474280059337616,0.1326676607131958,-0.5370645479480958,-0.048151573447979205,-0.06941658193969773,0.8392999256996003,-0.06484709710521937,0.156353150651782,-1.9980323247247578
1784201754724375296,0.8866772651672363,-1.105961561203003,0.9708371758460999,-3.1194658279418945,0.1628473401069641,0.0773441344499588,-0.9836151003837585,-0.03430730104446411,-0.1705600768327713,0.027209460735321045,-0.5240969907935642,-0.04908665524102672,-0.07604576741289144,0.8468352467408898,-0.07742145774007711,0.1640717497527019,-2.026838334822965
1784201754734294272,0.8965961933135986,-1.2923011779785156,0.8657872676849365,-3.1592700481414795,0.16912393271923065,0.09467372298240662,-0.9810371994972229,0.17258138954639435,0.009803205728530884,0.1625862717628479,-0.5107977366055076,-0.04851057435289223,-0.08442822101283576,0.8541688212851595,-0.09481572695769838,0.1707150014597048,-2.055570286480425
1784201754744214272,0.9065163135528564,-1.0790610313415527,0.7834958434104919,-3.1666922569274902,0.17388366162776947,0.11153183877468109,-0.978429913520813,0.20332884788513184,0.047327421605587006,-0.09797084331512451,-0.4972245426334934,-0.047676328623647166,-0.09226052098096539,0.8613842578505205,-0.11176437404687534,0.17588074583700802,-2.084697995295725
1784201754754134272,0.9164361953735352,-1.0734219551086426,0.8442370891571045,-3.1319684982299805,0.1779099851846695,0.12749893963336945,-0.975752055644989,0.080100879073143,0.009143516421318054,-0.188279926776886,-0.4835859657055233,-0.04698479008379007,-0.09958114821144637,0.8683436452985582,-0.12784693270205555,0.18034999429620527,-2.113757079155331
1784201754764054272,0.926356315612793,-0.9082956910133362,0.9915136694908142,-3.138633966445923,0.18253985047340393,0.14278997480869293,-0.9727745056152344,-0.07723894715309143,-0.08395208418369293,-0.19560623168945312,-0.4698112073275669,-0.046960350181877,-0.10680578719030995,0.8750226979492998,-0.14327970885496416,0.18549158224969586,-2.1427627212392717
1784201754773973248,0.9362752437591553,-0.631292998790741,1.378509283065796,-3.239027976989746,0.18889930844306946,0.15615229308605194,-0.9695016741752625,-0.15119484066963196,-0.25733333826065063,-0.41578274965286255,-0.45548921982681095,-0.04844604663013471,-0.11358758134833802,0.8816351222687095,-0.1567939552293806,0.19243072594427132,-2.172685341217867
1784201754783893248,0.9461953639984131,-0.3595390319824219,1.8954904079437256,-3.3878138065338135,0.19951286911964417,0.16718199849128723,-0.9655282497406006,-0.12753717601299286,-0.38516905903816223,-0.3283865451812744,-0.4401062045209515,-0.05273328002341437,-0.12022927107869898,0.8882965213368454,-0.1679707447874513,0.20376809035871207,-2.2043782141735693
1784201754793813248,0.9561152458190918,0.21081891655921936,2.58488130569458,-3.548236131668091,0.21468718349933624,0.17541687190532684,-0.9608008861541748,0.021686717867851257,-0.39323610067367554,-0.3004448413848877,-0.42353958688603455,-0.0601018687117238,-0.12644099489716668,0.8949942101064665,-0.1763291933942564,0.21983489983778104,-2.2380735193751358
1784201754803732224,0.9660341739654541,0.7529168128967285,2.6195812225341797,-3.578356981277466,0.23378391563892365,0.1785818636417389,-0.955747663974762,0.29394131898880005,-0.3273245394229889,-0.30020326375961304,-0.4056011741674729,-0.07077019877509017,-0.13083480043236784,0.9018656063908557,-0.17954495506791007,0.23989781999862528,-2.2746268684655915
1784201754813652224,0.9759542942047119,1.7271077632904053,1.9092237949371338,-3.0964014530181885,0.24950778484344482,0.17563462257385254,-0.9523121118545532,0.6886788606643677,-0.03700852394104004,-0.6397289037704468,-0.3887025115384475,-0.08111725524036038,-0.131392309559449,0.9083316582941214,-0.17655037909893756,0.2562424823817221,-2.310090133692601
1784201754823572224,0.9858741760253906,3.476047992706299,0.9961901903152466,-2.9805986881256104,0.258237361907959,0.15884476900100708,-0.9529332518577576,0.795626163482666,0.3202201724052429,-1.3821954727172852,-0.3730185571977964,-0.09065802650018165,-0.1237517267112569,0.9150539652931177,-0.15952045052813427,0.26463626200245915,-2.3461552601606925
1784201754833492224,0.9957942962646484,5.6630754470825195,-0.021692471578717232,-2.916104316711426,0.2585798501968384,0.1234397441148758,-0.9580705165863037,0.6999467611312866,0.5757637619972229,-2.005201578140259,-0.35710214077521824,-0.09934799054232864,-0.1053314964586342,0.9227748225149542,-0.12375539774869924,0.26361534333018627,-2.3866881586636057
1784201754843411200,1.0057132244110107,6.832496166229248,-0.7146296501159668,-2.8525497913360596,0.25200605392456055,0.06997006386518478,-0.9651927947998047,0.5980000495910645,0.23903566598892212,-1.8598194122314453,-0.3407852548687694,-0.10723241483413873,-0.07684276119534657,0.9308392562352619,-0.07002728522741061,0.2553925077128142,-2.4306979689246586
1784201754853331200,1.0156333446502686,6.304101943969727,-0.9398454427719116,-2.752656936645508,0.24290089309215546,0.01287089567631483,-0.9699656963348389,0.38486093282699585,-0.0792771428823471,-1.3250324726104736,-0.32434759460622736,-0.11353410748494086,-0.046121001296268824,0.9379666838256921,-0.012871251336002953,0.24537593294186286,-2.474151396439145
1784201754863251200,1.0255532264709473,3.9480245113372803,-1.0211900472640991,-3.084635019302368,0.23304587602615356,-0.03063684143126011,-0.971983015537262,0.42518776655197144,-0.15640538930892944,-1.0769213438034058,-0.30799653452046155,-0.11634510139839714,-0.021732564553869193,0.9439966200774852,0.030641635839845718,0.2353211758752831,-2.514457055690383
1784201754873170176,1.0354721546173096,1.0436155796051025,-0.5502835512161255,-3.1585748195648193,0.22698922455310822,-0.04712751880288124,-0.9727563261985779,0.7801976203918457,-0.29318925738334656,-0.8098363876342773,-0.2916755867199537,-0.11620427474756297,-0.010881100046809656,0.9493700750670065,0.04714498101478621,0.22924435973380042,-2.550867012028506
1784201754883090176,1.0453922748565674,-0.0677146315574646,-0.6862426996231079,-2.602323532104492,0.2226199507713318,-0.04340494051575661,-0.9739385843276978,1.2929134368896484,-0.7728029489517212,-0.22598206996917725,-0.277886544538551,-0.11368042532195133,-0.010366654575886725,0.9538073145431941,0.043418579862289454,0.2247164531403762,-2.579498091764952
1784201754893010176,1.055312156677246,-0.470764696598053,-1.0825777053833008,-2.188279151916504,0.21519769728183746,-0.035413265228271484,-0.9759281873703003,1.4544800519943237,-1.0544610023498535,0.10068404674530029,-0.2667055813965922,-0.10906248022289192,-0.011885929357417849,0.9575135818398615,0.03542067294797832,0.2170325771713587,-2.602143766681249
1784201754902930176,1.065232276916504,-1.3423693180084229,-1.3417634963989258,-1.4891865253448486,0.20361340045928955,-0.023253655061125755,-0.9787752032279968,1.340255618095398,-1.1831672191619873,0.3105317950248718,-0.25831521475734925,-0.10187519652704641,-0.01529233172763077,0.9605523656522523,0.02325575188204625,0.2051034865438437,-2.618569448421132
1784201754912849152,1.0751512050628662,-1.6365879774093628,-1.2619436979293823,-0.1409962922334671,0.19129079580307007,-0.006205567624419928,-0.9815137982368469,1.1186151504516602,-1.5004472732543945,0.20760327577590942,-0.255217579379471,-0.09367741646246999,-0.021625105402865906,0.9620919432783303,0.00620560741199304,0.19248080530573153,-2.623589054495867
1784201754922769408,1.085071325302124,-2.191533088684082,-1.2885057926177979,0.7610600590705872,0.17825579643249512,0.011308014392852783,-0.9839192032814026,0.9181950092315674,-1.855409026145935,0.2543964982032776,-0.25802012072047503,-0.08496260385442415,-0.028666262572821604,0.9619694339420104,-0.011308255163060008,0.17922516069006258,-2.6164711537074967
1784201754932689152,1.0949912071228027,-2.399418354034424,-1.2619203329086304,1.379939079284668,0.1661856323480606,0.03253968432545662,-0.9855574369430542,0.7233560085296631,-1.6982501745224,0.5791090726852417,-0.264026743432588,-0.0760864064785793,-0.037843494570357794,0.9607645773100234,-0.03254543096227267,0.16704954039441172,-2.602490464011894
1784201754942608384,1.1049103736877441,-2.4559290409088135,-1.5396360158920288,2.018756151199341,0.1536000669002533,0.05342501029372215,-0.9866877794265747,0.7234598398208618,-1.3063089847564697,0.6012355089187622,-0.27341351771501954,-0.06674821528247234,-0.046912502610966585,0.9584304328185349,-0.05345045894089802,0.15443286848482343,-2.581674470125898
1784201754952528128,1.1148302555084229,-1.9489303827285767,-2.2208597660064697,2.4689993858337402,0.13676822185516357,0.07231929153203964,-0.9879596829414368,0.7400628328323364,-0.7221605777740479,0.43920791149139404,-0.28519135996846173,-0.05534984742116882,-0.05437411399171183,0.9553248781913806,-0.07238247923847596,0.1375607233696702,-2.556392224559315
1784201754962448384,1.1247503757476807,-0.6917756795883179,-2.848437547683716,3.1619040966033936,0.11389897763729095,0.08227606862783432,-0.9900796413421631,0.9306719303131104,-0.3428198993206024,-0.2724783420562744,-0.29947667684679713,-0.04207629790907881,-0.056478047352476184,0.9515007603668629,-0.08236918011116838,0.11453671788425862,-2.527016681923895
1784201754972368128,1.1346702575683594,0.9781959056854248,-3.142819881439209,3.914273977279663,0.0870872288942337,0.07728862762451172,-0.993198037147522,1.1031440496444702,-0.2673673629760742,-0.890987753868103,-0.31696095693853876,-0.02907042715258369,-0.050555972097141334,0.9466439379412542,-0.07736578347085267,0.08745996401364084,-2.492018981503397
1784201754982287104,1.1445891857147217,2.3486526012420654,-3.3071210384368896,4.473276138305664,0.05807537958025932,0.057453084737062454,-0.9966576099395752,1.1188044548034668,-0.40660470724105835,-1.1227576732635498,-0.33716416132203386,-0.017655573208528477,-0.03687106195231528,0.9405578853725136,-0.05748473749674498,0.058204323745098506,-2.451513396562633
1784201754992207360,1.1545093059539795,2.8732688426971436,-3.4004552364349365,4.915310859680176,0.026842251420021057,0.029112542048096657,-0.9992156624794006,1.0869120359420776,-0.6609637141227722,-0.9817565679550171,-0.3592805353109227,-0.007295247775960228,-0.018410454364362148,0.9330194250855278,-0.029116655951217336,0.02685686223597393,-2.4060568214159694
1784201755002127104,1.1644291877746582,2.743481397628784,-3.4126598834991455,5.322017192840576,-0.006254827603697777,0.0003620716743171215,-0.9999803900718689,1.0803056955337524,-0.9803730845451355,-0.7064099907875061,-0.38299101022635357,0.002958302415518802,0.0010305501177600236,0.9237468184715386,-0.0003620716841476525,-0.0062548689453764015,-2.35552579392532
1784201755012046336,1.1743483543395996,2.0395359992980957,-3.302952527999878,5.590371131896973,-0.04021715745329857,-0.02232159674167633,-0.9989416003227234,1.0854747295379639,-1.2982808351516724,-0.4686945080757141,-0.4078308888301302,0.01381005055103666,0.018397852779284272,0.9127675928657849,0.022323451260598058,-0.04023803877839269,-2.3007525846858687
1784201755021966336,1.1842682361602783,1.2194349765777588,-3.2020490169525146,5.7282490730285645,-0.07398762553930283,-0.03521926328539848,-0.9966370463371277,1.098493218421936,-1.4752177000045776,-0.2688201069831848,-0.43303791531624636,0.025728424267585075,0.031929874841070655,0.9004424489377922,0.03522654801601023,-0.07410134992758274,-2.2437569922007214
1784201755031886336,1.1941883563995361,0.44697073101997375,-3.1636595726013184,5.883450984954834,-0.10749468207359314,-0.03812292963266373,-0.9934744834899902,1.177151083946228,-1.4903347492218018,-0.15926599502563477,-0.4582963234617701,0.03906350982045786,0.04167498329507422,0.8869620259673169,0.03813216978702867,-0.1077814410597067,-2.185693602285044
1784201755041805312,1.2041072845458984,-0.10080128163099289,-3.2211670875549316,6.104901313781738,-0.14095693826675415,-0.03238150477409363,-0.989486038684845,1.3306846618652344,-1.415952205657959,-0.06588810682296753,-0.4837680509063357,0.05392135132452947,0.04847142001063918,0.8721877697781582,0.03238716704307515,-0.14150263953067438,-2.126468728122846
1784201755051725056,1.2140271663665771,-0.5944201350212097,-3.346705675125122,6.302128314971924,-0.17467060685157776,-0.01912032440304756,-0.9844412803649902,1.4776033163070679,-1.311095118522644,0.0008444786071777344,-0.5094179790159675,0.07043572416190533,0.05308653267540724,0.8559870848742663,0.0191214894103596,-0.17560366048002127,-2.0662571600076847
1784201755061645312,1.223947286605835,-0.8323322534561157,-3.545161008834839,6.5290656089782715,-0.20885686576366425,0.00011512992205098271,-0.9779462218284607,1.5779516696929932,-1.210350751876831,-0.007130682468414307,-0.5351460106875289,0.08853981760033443,0.05645876430047958,0.8382075980978599,-0.00011512992013880727,-0.21040589598540582,-2.0051922260910873
1784201755071565056,1.2338671684265137,-0.9856989979743958,-3.661935806274414,6.7127227783203125,-0.24292093515396118,0.02388044074177742,-0.9697521328926086,1.641648292541504,-1.1306614875793457,-0.05016058683395386,-0.5608770277944162,0.10776828615288664,0.05924476117196451,0.8187143419305103,-0.02388271106523756,-0.24544728508390082,-1.943267273519466
1784201755081484288,1.243786334991455,-0.6447768807411194,-3.624608039855957,6.968461990356445,-0.2753004729747772,0.04957139864563942,-0.9600793123245239,1.642777919769287,-1.0616410970687866,-0.001972019672393799,-0.5866779687573944,0.12683536577878277,0.062234447342091596,0.7974010811737124,-0.04959172297327036,-0.27925475622002066,-1.8799425961104739
1784201755091404288,1.2537062168121338,-0.3250106871128082,-3.5589749813079834,7.2275710105896,-0.30498450994491577,0.07435749471187592,-0.9494500756263733,1.645514965057373,-1.0486769676208496,0.1655145287513733,-0.6129057335961787,0.14446703633048463,0.0663644917504318,0.7739971609493567,-0.07442618529399052,-0.31081128981929423,-1.8137293777272974
1784201755101324288,1.2636263370513916,-0.5046358108520508,-3.45363712310791,7.4224019050598145,-0.33146932721138,0.10110032558441162,-0.9380334615707397,1.6572902202606201,-1.0372575521469116,0.4479517340660095,-0.6390939169675842,0.16139504502236549,0.0702488377367761,0.7487160061548052,-0.10127335063130026,-0.33967049885289696,-1.7458289886556122
1784201755111243264,1.273545265197754,-0.9464079737663269,-3.321563959121704,7.5738205909729,-0.3540724813938141,0.13328959047794342,-0.925670862197876,1.6644209623336792,-1.1461374759674072,0.7978785037994385,-0.6646451145543949,0.17873311768241246,0.07224292565903423,0.7218602825191,-0.13368745161200793,-0.36533293744908724,-1.6780120538275363
1784201755121163264,1.2834653854370117,-1.6180758476257324,-3.1737518310546875,7.636536121368408,-0.37224280834198,0.17222708463668823,-0.912015974521637,1.6514023542404175,-1.319291353225708,1.0619487762451172,-0.6890169887953733,0.19712387648207366,0.0716532934837955,0.693731600010038,-0.17309009974210268,-0.3875157066509498,-1.6116608697763048
1784201755131083264,1.2933852672576904,-2.3619771003723145,-3.051079511642456,7.687583923339844,-0.3853081166744232,0.21895143389701843,-0.8964362144470215,1.6410454511642456,-1.4074738025665283,1.2219977378845215,-0.7116856877604679,0.21720140505613433,0.06786331921814352,0.6646214285674085,-0.22073969558504833,-0.4059479239207346,-1.5480383943680514
1784201755141003264,1.3033053874969482,-3.0388317108154297,-2.91648006439209,7.761020183563232,-0.3928059935569763,0.2725535035133362,-0.8783040642738342,1.702742576599121,-1.441376805305481,1.204216480255127,-0.7325501693189066,0.23897807128020604,0.061134661701411235,0.6344464687843843,-0.2760460287990304,-0.42054997110923514,-1.4867864029992475
1784201755150922240,1.3132243156433105,-3.677706241607666,-2.7844464778900146,7.833512783050537,-0.3939847946166992,0.3319481909275055,-0.8570801615715027,1.8116941452026367,-1.4747400283813477,1.22556471824646,-0.7515087634578193,0.26228750152421093,0.051625478543495265,0.6031373670782005,-0.33836813609178734,-0.430876695379848,-1.4273369773556215
1784201755160842240,1.3231441974639893,-4.161749839782715,-2.6958987712860107,7.869100093841553,-0.3886002004146576,0.3953108787536621,-0.8322975635528564,1.8967331647872925,-1.503953456878662,1.4640724658966064,-0.768379712138715,0.28681891115101027,0.039826338808036724,0.5707376198674083,-0.4064062794339945,-0.43681920309812394,-1.369130082950086
1784201755170762240,1.333064317703247,-4.440517425537109,-2.6245994567871094,8.000986099243164,-0.3765207827091217,0.46047449111938477,-0.8038627505302429,1.9697673320770264,-1.5199990272521973,1.7211601734161377,-0.7833288942883212,0.3120414738971651,0.026433684725885608,0.536961057647759,-0.4785296533392723,-0.4380408614898718,-1.3103271610319167
1784201755180681216,1.3429832458496094,-4.31660795211792,-2.5610034465789795,8.152839660644531,-0.3573487401008606,0.5243242979049683,-0.7729074358940125,2.0359222888946533,-1.4883593320846558,1.9015085697174072,-0.7967946072156599,0.3367429315524932,0.01226710551551503,0.5015695884816542,-0.5519213834534646,-0.43307126667306034,-1.2480671153051246
1784201755190601472,1.3529033660888672,-3.9814035892486572,-2.487182378768921,8.422569274902344,-0.33070340752601624,0.5838713049888611,-0.7414374351501465,2.090118169784546,-1.4627165794372559,1.9401984214782715,-0.8093844340063137,0.35955161075742786,-0.0019816924563171097,0.46434407321767873,-0.6234891084227752,-0.41954766365024976,-1.1787179395048315
1784201755200521216,1.362823247909546,-3.8913731575012207,-2.452986478805542,8.695194244384766,-0.2965337038040161,0.6386165618896484,-0.7100962996482849,2.145639419555664,-1.526021957397461,1.9315013885498047,-0.8212465437728885,0.38037651896764524,-0.016296037115093743,0.4249734349596649,-0.6926991488921475,-0.3955831177314349,-1.0994620137146591
1784201755210441472,1.3727433681488037,-4.194455623626709,-2.364541530609131,8.875079154968262,-0.2551691234111786,0.6904556751251221,-0.6768748760223389,2.158275842666626,-1.728755235671997,1.7943522930145264,-0.8313442494747603,0.40071021830014797,-0.03152590602980516,0.3838021591884954,-0.7621188178040487,-0.36050651846867804,-1.0107835443389162
1784201755220360192,1.382662296295166,-4.841243743896484,-2.339211940765381,8.994359016418457,-0.20700286328792572,0.7403305172920227,-0.6395784616470337,2.170015573501587,-2.015995740890503,1.6617342233657837,-0.8387119166767723,0.4217750862474626,-0.048130456381409795,0.34110363951089034,-0.8335619071205651,-0.31301503811005293,-0.9120299371365175
1784201755230280192,1.3925821781158447,-5.519893646240234,-2.36187481880188,9.045272827148438,-0.15294332802295685,0.7883321046829224,-0.5959370136260986,2.190525770187378,-2.1447925567626953,1.7393391132354736,-0.8424885185202712,0.4446151673116328,-0.06594580841998628,0.29695398739565215,-0.9080933203302499,-0.2512214685051025,-0.8008548759226288
1784201755240200192,1.4025022983551025,-5.852010250091553,-2.4998600482940674,9.09796142578125,-0.09376723319292068,0.8318652510643005,-0.5469990372657776,2.2128467559814453,-2.073793411254883,1.8627796173095703,-0.8427943122938729,0.4684317643023303,-0.08409618255023833,0.2513907243908464,-0.9824602200915539,-0.1697711175247004,-0.6707388976986338
1784201755250119168,1.4124212265014648,-5.661198139190674,-2.6094043254852295,9.18578052520752,-0.029967278242111206,0.8674517273902893,-0.49661800265312195,2.2232351303100586,-1.922490119934082,1.8890893459320068,-0.8405312235781818,0.49127318358559463,-0.10169392944507917,0.2044902208815103,-1.0500572867718612,-0.06026963147247661,-0.512219743292931
1784201755260039424,1.4223413467407227,-5.47965145111084,-2.503340005874634,9.28322982788086,0.038797494024038315,0.8930825591087341,-0.4482167959213257,2.215139150619507,-1.891587257385254,1.7572835683822632,-0.836403157614026,0.5115943817194472,-0.11900753037241976,0.15664661195462365,-1.1041510252913924,0.08634444623899547,-0.31707681912465535
1784201755269959168,1.4322612285614014,-5.488816738128662,-2.3931782245635986,9.287557601928711,0.11163406074047089,0.9092727899551392,-0.40094998478889465,2.183913469314575,-1.9755417108535767,1.7248482704162598,-0.829886729762958,0.5299873737798116,-0.13652249130758629,0.1084576287605404,-1.14153345095497,0.2715465915716213,-0.08492819450652936
1784201755279879424,1.4421813488006592,-5.688346862792969,-2.279559373855591,9.220536231994629,0.18678018450737,0.9164471626281738,-0.35388949513435364,2.1721065044403076,-2.1071667671203613,1.7084426879882812,-0.8205545863583106,0.5471154172280602,-0.15401287895515242,0.060290539746194464,-1.1591095886852272,0.48563350478310285,0.17477645698240987
1784201755289798144,1.4521002769470215,-6.046999931335449,-2.1612846851348877,9.044926643371582,0.26261550188064575,0.9152361750602722,-0.3055744767189026,2.1630284786224365,-2.1838366985321045,1.7637959718704224,-0.8078555469680582,0.5638071337082491,-0.1712725388108702,0.012514418614025436,-1.1560937381114724,0.7099350469496186,0.4435447655233247
1784201755299718144,1.4620201587677002,-6.439709663391113,-1.800455093383789,8.710477828979492,0.3373476266860962,0.9062621593475342,-0.25472643971443176,2.150949001312256,-2.216442823410034,1.7256584167480469,-0.7913252071963076,0.5807445316435145,-0.1880759672188716,-0.03417088191409159,-1.134355993332323,0.9240481556621603,0.7006419684923602
1784201755309638144,1.471940279006958,6.390911102294922,-2.2009084224700928,19.599416732788086,0.43280255794525146,0.8692264556884766,-0.2390134483575821,2.0725226402282715,-1.851724624633789,2.1927945613861084,-0.7823187940023918,0.579052732629618,-0.2125822403620638,-0.08651059276634895,-1.0536355623041964,1.0662304309284307,0.8815444699108772
1784201755319557120,1.4818592071533203,-4.814563274383545,-10.502898216247559,5.08621883392334,0.5124093294143677,0.8075606226921082,-0.29203173518180847,8.801509857177734,5.483333110809326,-0.44150400161743164,-0.7888413576436059,0.554163453044912,-0.21653406856751303,-0.15409465278098758,-0.9400042671140039,1.0527890416370806,0.9598713032211507
1784201755329477376,1.4917793273925781,-1.6400328874588013,-3.5107593536376953,4.520294189453125,0.525114119052887,0.7990192174911499,-0.29295629262924194,1.3051013946533203,4.4330363273620605,3.9516477584838867,-0.7818983381013942,0.5592998946206161,-0.20175601154460093,-0.18738495066694205,-0.9256623874796704,1.0619152168968085,1.0404858555025327
1784201755339397120,1.5016992092132568,-4.025400638580322,-2.2251510620117188,5.717582702636719,0.5543860793113708,0.7803429365158081,-0.2893456220626831,0.15084463357925415,-0.4423302412033081,0.1935662031173706,-0.7730424468179974,0.5611576606938318,-0.20107031718293783,-0.21697495243908058,-0.8952140204695653,1.0897662854028236,1.1136066092854966
1784201755349317376,1.5116193294525146,-5.997076034545898,2.431198835372925,4.304309368133545,0.5904982089996338,0.7679287195205688,-0.24818794429302216,-1.2694685459136963,0.6536104679107666,1.8860511779785156,-0.7522088945602703,0.5769894495529077,-0.2073383796918701,-0.24140358473875193,-0.8756012078157275,1.1729111111740542,1.2241566590097472
1784201755359236352,1.521538257598877,-6.243876934051514,3.6039013862609863,2.231820583343506,0.6210837364196777,0.7617312669754028,-0.18444591760635376,-0.713079035282135,0.5158870816230774,0.6583228707313538,-0.7275972648650257,0.5993586620363204,-0.22033210369680065,-0.2506492980195492,-0.8659810908134413,1.2821176935269287,1.327804093366815
1784201755369156352,1.5314583778381348,-6.4633965492248535,3.646679162979126,0.9457558393478394,0.6380089521408081,0.7619640827178955,-0.11115346848964691,1.7212438583374023,0.8286730051040649,0.6057671308517456,-0.7019060815308468,0.6253365755998669,-0.23103556825837968,-0.25080768693904565,-0.8663405251051735,1.3983082792246078,1.4281003533350565
1784201755379076352,1.5413782596588135,-5.492992877960205,0.4607082009315491,-0.4653967320919037,0.6420237421989441,0.7647823691368103,-0.053976401686668396,2.9769186973571777,0.8933444619178772,0.1370147466659546,-0.6806461417016556,0.647639852020684,-0.23146148939206218,-0.2524064696074674,-0.8707034920516145,1.486921282730794,1.5184555225250183
1784201755388995072,1.5512971878051758,-4.833342552185059,-1.9664489030838013,-0.9119539856910706,0.6359357237815857,0.7714947462081909,-0.01953309401869774,3.265812873840332,1.5536394119262695,0.47877687215805054,-0.6653939687924366,0.6649879590719376,-0.21914485512864773,-0.2588771695074495,-0.8811871898674593,1.5400904657191152,1.5998034051879606
1784201755398915328,1.5612173080444336,-3.456057071685791,-3.1184916496276855,-0.7322174906730652,0.6277978420257568,0.7783530354499817,-0.006027846597135067,3.3314459323883057,2.0367257595062256,0.22007811069488525,-0.6559923587683724,0.6757788647039742,-0.20077102063922256,-0.26960693587801,-0.8920382372677392,1.5611950493031648,1.6644781233327541
1784201755408835072,1.5711371898651123,-2.7360055446624756,-1.3262518644332886,-0.7954811453819275,0.6247358918190002,0.7808204293251038,0.00493209483101964,2.5122270584106445,2.2312796115875244,0.809933066368103,-0.6481258695980997,0.6833220178317286,-0.18851277761548882,-0.2783284059352855,-0.8959779470426333,1.578690850731282,1.7134009913064776
1784201755418755328,1.5810573101043701,-1.2107133865356445,-3.447359561920166,-0.17979508638381958,0.6218204498291016,0.7831234335899353,0.007554968819022179,0.8101100921630859,1.93049955368042,0.4025096893310547,-0.6434422008579326,0.6873720657368065,-0.17690994200599605,-0.2867135646337041,-0.899672723569546,1.582945488401243,1.7475897501810944
1784201755428674304,1.5909762382507324,-0.18774323165416718,-1.6824296712875366,-1.4036792516708374,0.6134414672851562,0.789720356464386,-0.005587565712630749,-0.756904661655426,0.7695752382278442,-0.2537965774536133,-0.6458022217896776,0.6857884596498905,-0.16401343158086049,-0.2928023635560961,-0.9103530623508863,1.561688022636411,1.7545244443601846
1784201755438594304,1.6008963584899902,0.08208318054676056,-1.0351499319076538,-0.1886942982673645,0.6090229153633118,0.79302978515625,-0.013964315876364708,-1.108870267868042,0.865127682685852,0.41496527194976807,-0.647397896570987,0.684368738990646,-0.15702633930160256,-0.2964088472566506,-0.9157665217984411,1.5478712966708628,1.7564317216877285
1784201755448514304,1.610816240310669,0.01988319307565689,0.1394156813621521,-2.2312116622924805,0.5992529988288879,0.8004304766654968,-0.014382596127688885,-0.9819281697273254,0.5820158123970032,0.6507809162139893,-0.6491854682893443,0.6852515123716906,-0.15244365145416067,-0.29283014697538573,-0.9280129851704044,1.5468000598865985,1.756434527882728
1784201755458434304,1.6207363605499268,0.7333166003227234,0.9028909802436829,-1.5919638872146606,0.5832907557487488,0.8121375441551208,-0.01429817732423544,-0.4384390711784363,0.47013479471206665,0.4588935375213623,-0.6529530410609731,0.6862789947859518,-0.1478920311204466,-0.28425585134393033,-0.947806389953361,1.546288284707422,1.7492336485682958
1784201755468353280,1.630655288696289,0.13961471617221832,1.4753937721252441,-0.8102149963378906,0.5743414759635925,0.8185410499572754,-0.011062354780733585,0.4074699878692627,0.8226637244224548,0.1525723934173584,-0.6552536538632533,0.6872652434724374,-0.14877939305982732,-0.27599606194884796,-0.9588666975313209,1.5515377719570627,1.7404929236399607
1784201755478273280,1.6405751705169678,0.2288162261247635,0.8709893822669983,-1.764305830001831,0.5647361874580383,0.8252578973770142,-0.0047240410931408405,0.5188666582107544,1.4915754795074463,0.01351308822631836,-0.6564553071143912,0.689420057174304,-0.14945890493339703,-0.2672608646780252,-0.9706586667715754,1.5624314814801776,1.7370427504285328
1784201755488193280,1.6504952907562256,0.17320343852043152,-0.654278039932251,-2.369739294052124,0.5462165474891663,0.8376114368438721,-0.0073999930173158646,0.5572380423545837,1.7514235973358154,-0.14761406183242798,-0.6603620611154255,0.6900596962150011,-0.1418365934768286,-0.2600423924083904,-0.9928959193668807,1.5572494285642702,1.7318693675168464
1784201755498112256,1.660414218902588,1.2880873680114746,-0.7848984003067017,-1.6289652585983276,0.5300592184066772,0.8478101491928101,-0.01598414033651352,0.904068648815155,1.537550687789917,0.21825462579727173,-0.6653042530944804,0.6885608207381736,-0.13376070407581375,-0.2556608329340268,-1.0118420833278134,1.5406500750565122,1.7202430191254645
1784201755508032256,1.6703343391418457,1.9167767763137817,-0.991654634475708,-1.3783518075942993,0.5170235633850098,0.8552229404449463,-0.035786308348178864,0.3351035714149475,0.8671282529830933,0.07158344984054565,-0.6738085264206348,0.6825024200822486,-0.12766084551222825,-0.25273581308901966,-1.0259809046797614,1.5016905277507815,1.6856044304726352
1784201755517952256,1.6802542209625244,1.3842871189117432,-0.7493668794631958,-1.8827420473098755,0.5040519833564758,0.8619797229766846,-0.05405938997864723,-0.3272331953048706,0.5541579127311707,0.30680596828460693,-0.681779685047108,0.6768088376259188,-0.1220659721491989,-0.2494114961410981,-1.0391620136420718,1.46395509433889,1.650876333007297
1784201755527871488,1.6901733875274658,1.4452852010726929,-0.9557538628578186,-1.8196581602096558,0.4869498908519745,0.8706714510917664,-0.06935975700616837,-0.8640708923339844,0.6421304941177368,0.23116397857666016,-0.6891334978618578,0.6724236898638805,-0.11474538282225165,-0.24448879729309186,-1.0565658012516415,1.4293108853734422,1.6193180888154128
1784201755537791232,1.7000932693481445,2.000034809112549,-0.3627767860889435,-1.825628399848938,0.47247314453125,0.8769693374633789,-0.08771468698978424,-0.4671631157398224,0.5324239730834961,-0.11331986635923386,-0.6972467521338839,0.6664985020308976,-0.10918976507540497,-0.24021713374839887,-1.0695187166343434,1.3872360497323803,1.5788061490516963
1784201755547711488,1.7100133895874023,2.0891177654266357,-0.4785153567790985,-1.6573351621627808,0.45706093311309814,0.883187472820282,-0.10523734986782074,-0.4294425845146179,0.7526155710220337,0.04429377615451813,-0.7056940306899088,0.660558818177429,-0.1050874459181848,-0.23369741770183214,-1.0826153980330342,1.3444924448115017,1.5322060139378533
1784201755557631232,1.719933271408081,2.1116960048675537,-0.5603625178337097,-1.4762870073318481,0.4420187175273895,0.8879876732826233,-0.1268744170665741,-0.3542654812335968,0.8081181645393372,-0.1596703976392746,-0.7149996943056451,0.6530564549937388,-0.10039949093199635,-0.22850054466404565,-1.092950583375448,1.291276947392477,1.478007016165905
1784201755567550208,1.7298521995544434,2.4498484134674072,-0.9613277912139893,-1.9136273860931396,0.42659056186676025,0.8919942378997803,-0.1495545506477356,-0.30075135827064514,0.6780434846878052,0.1706116944551468,-0.7244006665487401,0.6450931718220252,-0.09527602696028913,-0.223653374023892,-1.101737720841794,1.2336039850860692,1.4205391495168316
1784201755577470208,1.7397723197937012,3.2817304134368896,-0.7382832765579224,-1.7470903396606445,0.40927836298942566,0.894844651222229,-0.17816922068595886,-0.604285717010498,0.4420235753059387,-0.040153563022613525,-0.7358110814255614,0.634707733154338,-0.08978576483399696,-0.2183269770331018,-1.1080830751177142,1.1602126768051058,1.3472459080575576
1784201755587390208,1.7496922016143799,3.8212666511535645,-0.4681176245212555,-1.945728063583374,0.39157965779304504,0.8954108357429504,-0.21190758049488068,-0.6740350723266602,0.38284844160079956,-0.11975747346878052,-0.7490384341194122,0.6218848408600846,-0.08547197245257501,-0.21188493853507953,-1.1093531017801266,1.0747647336542892,1.2586648877840148
1784201755597310208,1.7596123218536377,3.7701072692871094,-0.2779189348220825,-1.5811519622802734,0.3754832148551941,0.8933890461921692,-0.24671520292758942,-0.4934641718864441,0.37714922428131104,-0.04265248775482178,-0.7625899289896699,0.6080540759924363,-0.0831422915552658,-0.20448532048313273,-1.104832776880848,0.989473641444974,1.1660731174978882
1784201755607229184,1.76953125,4.120346546173096,-0.7323136925697327,-0.6827224493026733,0.36294224858283997,0.8886688351631165,-0.2802509665489197,-0.5563016533851624,0.41684257984161377,0.18227431178092957,-0.774853126450732,0.5943593706472965,-0.08131082374580327,-0.1993190981055274,-1.0944339583285463,0.9132604221102439,1.0852094386903868
1784201755617149440,1.7794513702392578,4.182731628417969,-1.5353134870529175,-0.9435567259788513,0.3545891344547272,0.8780087828636169,-0.3215075731277466,-0.12314382195472717,0.24087238311767578,-0.021815180778503418,-0.7886033034507904,0.5768406899165781,-0.0806290129542835,-0.19712594888651083,-1.0716861239228885,0.834289429367038,1.0045131842330481
1784201755627069184,1.7893712520599365,3.776352882385254,-0.07762341946363449,-1.4778183698654175,0.340926855802536,0.8685668110847473,-0.35966750979423523,-0.156051367521286,0.41698628664016724,0.33551284670829773,-0.8017193652100926,0.5604282468486648,-0.07801551116985765,-0.19256147117400055,-1.0523029253918545,0.7586548936234817,0.9264445084153788
1784201755636988160,1.7992901802062988,3.928314685821533,-0.12484446167945862,-1.1546868085861206,0.3276616036891937,0.8599624633789062,-0.3912832736968994,-0.2768193185329437,0.5332413911819458,0.5116903185844421,-0.8132453295348738,0.5462732950581806,-0.07709634810982403,-0.1851318081889687,-1.0351960705618264,0.6971349786074937,0.8557336530401265
1784201755646908160,1.8092103004455566,3.441666603088379,0.6892796754837036,-1.1661746501922607,0.3191410303115845,0.8479952812194824,-0.42314663529396057,0.4635738134384155,-0.024966776371002197,0.4062551259994507,-0.8246581974131574,0.5311885000567459,-0.07915467065313923,-0.17751694979438887,-1.0121913633316957,0.646189465943306,0.7910292536601202
1784201755656828160,1.8191301822662354,3.789177894592285,2.079718828201294,-0.9326785206794739,0.31745466589927673,0.8356049060821533,-0.44831565022468567,0.47646012902259827,-0.09430241584777832,0.6217318177223206,-0.834272995471072,0.5181063981464396,-0.08606932336844197,-0.1677686752060526,-0.989232987598769,0.6161450375711601,0.7368214869444046
1784201755666749440,1.8290514945983887,3.0113089084625244,0.884678840637207,0.1371227502822876,0.31892943382263184,0.8222350478172302,-0.4713953137397766,1.0924475193023682,-0.16354364156723022,0.5171259045600891,-0.8423786125355412,0.505747038140716,-0.09231615825444249,-0.1615423402123297,-0.965326944309094,0.5948238219471002,0.6974335925548618
1784201755676668416,1.838970422744751,3.105194330215454,1.0369343757629395,0.27598103880882263,0.3233911693096161,0.8079670071601868,-0.4925520420074463,1.0167577266693115,-0.289351224899292,0.4380781650543213,-0.8493814817177008,0.4939377093264599,-0.0987396267328265,-0.15756638713618565,-0.9406936190909309,0.5809747178150927,0.6685029873143779
1784201755686588160,1.8488903045654297,2.7007288932800293,0.13106028735637665,-0.2211596667766571,0.32734233140945435,0.7925909757614136,-0.5144379734992981,0.9133651256561279,-0.2675513029098511,0.26262223720550537,-0.8561461561255704,0.48171710860101963,-0.10358392927652955,-0.15566849527045418,-0.9150465847035046,0.5666914287241755,0.6445144353327216
1784201755696508416,1.8588104248046875,1.0678563117980957,0.27187255024909973,-0.4303877055644989,0.3249281048774719,0.784885585308075,-0.5276138186454773,0.5531083941459656,0.28716641664505005,0.3975021243095398,-0.8605221835546911,0.4746085710514696,-0.10459345619817491,-0.1526712155445961,-0.9025114623080852,0.5519885339645563,0.6239769822018871
1784201755706427392,1.8687293529510498,1.1890802383422852,-0.9236835241317749,-1.1813627481460571,0.31556084752082825,0.7813647389411926,-0.5384149551391602,0.6130127310752869,0.30495429039001465,0.27660465240478516,-0.8641275984054526,0.4696544655228783,-0.10108024720899259,-0.14997024668283573,-0.8968496095655332,0.5301304913908534,0.603408022676358
1784201755716347392,1.8786494731903076,0.9528031945228577,-0.20514830946922302,-0.7769474983215332,0.3042771518230438,0.7787973880767822,-0.5485343933105469,0.2418043613433838,0.103313148021698,0.17452627420425415,-0.8675365260095566,0.46521654624885117,-0.09646951209928381,-0.14713094901053939,-0.8927463347774356,0.5064516378239986,0.582440286946232
1784201755726267392,1.8885693550109863,1.3751626014709473,-0.2651470899581909,-0.7193117737770081,0.29733505845069885,0.7748076319694519,-0.5579112768173218,0.32275158166885376,0.007998764514923096,0.19978755712509155,-0.8707898472503601,0.46052282125141636,-0.09467359953516721,-0.14380769121067655,-0.8864107198525614,0.4896535991076288,0.5634331110933172
1784201755736187392,1.8984894752502441,1.5095653533935547,-0.14951343834400177,-0.9078134894371033,0.29070866107940674,0.7688201069831848,-0.5695648789405823,0.02534663677215576,-0.07103568315505981,0.0010528564453125,-0.874760140633941,0.4543989618171761,-0.09348346103740064,-0.13991830170377864,-0.8769939719145148,0.4719368135212081,0.5417794138301859
1784201755746106368,1.9084084033966064,2.2756285667419434,0.27170413732528687,-0.30488479137420654,0.28658536076545715,0.759369432926178,-0.5841463804244995,-0.03473904728889465,-0.008057177066802979,0.04015529155731201,-0.8793693799195372,0.4463241102686938,-0.09338953947071361,-0.1370501293039038,-0.8623434194501433,0.4561037170741541,0.5219482255844647
1784201755756026368,1.9183282852172852,2.3018546104431152,0.3563234210014343,-0.21916109323501587,0.2859126031398773,0.7473876476287842,-0.5997213125228882,0.15860643982887268,-0.09159547090530396,0.06888329982757568,-0.8843973281063762,0.4369686237148842,-0.09590491487749671,-0.13304902115289532,-0.8441213807514916,0.44486902636894793,0.5010749964380804
1784201755765946368,1.928248405456543,1.7853717803955078,0.005208802875131369,-0.39470788836479187,0.28629428148269653,0.7347368597984314,-0.6149775981903076,0.20265832543373108,-0.0698503851890564,-0.22276043891906738,-0.8888781128267613,0.42777034422798454,-0.09758960266205353,-0.13185084078403686,-0.8252786745453401,0.4356983825240761,0.48772975730224594
1784201755775865344,1.9381673336029053,2.1002862453460693,0.7557224631309509,-1.707902193069458,0.2805585265159607,0.7272835373878479,-0.6263749003410339,0.3099108338356018,0.1374320387840271,-0.15250998735427856,-0.8930017196014199,0.42097237601650245,-0.09795305764125341,-0.1254405739181932,-0.814355690184341,0.4211131160591632,0.4629457609705668
1784201755785785344,1.948087453842163,2.247551202774048,-0.18085579574108124,-0.6507985591888428,0.2737911641597748,0.7159427404403687,-0.6422338485717773,0.33263885974884033,0.09654194116592407,-0.4348382353782654,-0.8983303810156795,0.41144346803805887,-0.0979660671334305,-0.11882480932536786,-0.7979734908146343,0.4029803142613256,0.43482852374956665
1784201755795705344,1.9580073356628418,1.8877935409545898,-0.06376752257347107,-0.6959830522537231,0.2677188217639923,0.7049567103385925,-0.6567820906639099,0.3512997329235077,0.09197938442230225,-0.2756672501564026,-0.9028673618555031,0.4027482427668043,-0.09696811047726334,-0.11498517217185186,-0.7823620895557734,0.38705976491007044,0.41465734978061985
1784201755805625344,1.9679274559020996,2.3575057983398438,-0.3630898892879486,-0.317015141248703,0.2628878951072693,0.6923465728759766,-0.6719719171524048,0.2179012894630432,-0.23615455627441406,-0.18807446956634521,-0.907399207816093,0.3934029430942599,-0.09616742115333621,-0.11230648179704159,-0.7647360815953084,0.37291332878925754,0.3977260722373722
1784201755815544320,1.977846384048462,1.965575098991394,-0.19120308756828308,-0.4786839187145233,0.2583233714103699,0.6777143478393555,-0.6884564757347107,0.4551623463630676,-0.29868602752685547,-0.2863054871559143,-0.9121802391735948,0.3829996575143739,-0.09530487561204043,-0.11025195024779448,-0.7446498006483022,0.3589644550411015,0.3820445103769536
1784201755825464576,1.9877665042877197,1.436999797821045,-0.2960105538368225,-0.43291372060775757,0.2549901008605957,0.6677980422973633,-0.6993038654327393,0.2633204460144043,-0.07523822784423828,-0.002981901168823242,-0.9154119616548226,0.3759537839482124,-0.09490430607080541,-0.10804123251321539,-0.7312465654758388,0.3496520147151436,0.3699971013738167
1784201755835384320,1.9976863861083984,1.5890783071517944,-0.358106404542923,-0.31437191367149353,0.25112688541412354,0.6575313210487366,-0.7103434801101685,0.22960123419761658,-0.22128254175186157,-0.26119887828826904,-0.9186059022919251,0.36878473900251907,-0.09394721019384397,-0.10646586096969664,-0.717537475572594,0.3398150715472677,0.35926255940046303
1784201755845303296,2.0076053142547607,1.4079266786575317,-0.2980779707431793,-0.48141059279441833,0.2455056607723236,0.6486598253250122,-0.7203938961029053,0.09922091662883759,-0.011208653450012207,-0.21817421913146973,-0.921615212877854,0.3623326024731697,-0.09229377595597288,-0.1040300689625399,-0.7058222182943519,0.328449751240592,0.34673081333256395
1784201755855223296,2.0175254344940186,1.5610110759735107,-0.2639058828353882,-0.3278716206550598,0.24145133793354034,0.6384357213973999,-0.7308221459388733,0.24939338862895966,-0.08812755346298218,-0.27125298976898193,-0.9245916777182509,0.3553700414573961,-0.09111013594284724,-0.10267042589239403,-0.6924641748593722,0.3190930543825246,0.3371560545172801
1784201755865143296,2.0274453163146973,1.1312037706375122,-0.10327932983636856,-0.3391974866390228,0.23827297985553741,0.6291936635971069,-0.7398251295089722,0.06852023303508759,-0.05596679449081421,-0.17037683725357056,-0.9272413249633942,0.34911737334224263,-0.09057863151106885,-0.10067742943546176,-0.6805153519098418,0.3115764701380378,0.32740052545672865
1784201755875063296,2.037365436553955,0.7292428612709045,-0.40707942843437195,-0.392607718706131,0.23374363780021667,0.6235432028770447,-0.7460280060768127,0.014791518449783325,0.07367664575576782,-0.11078351736068726,-0.9291227328764858,0.345024526246622,-0.08912952472452933,-0.09871631868815693,-0.6732667063806346,0.30362947203891044,0.3186773599935862
1784201755884982272,2.0472843647003174,0.9849379062652588,-0.46843236684799194,-0.05567476525902748,0.22988544404506683,0.6175679564476013,-0.7521718144416809,0.24872171878814697,-0.03237813711166382,-0.16906225681304932,-0.9308700265760568,0.340925904443539,-0.08765619525565276,-0.0978106946898952,-0.6656468042722306,0.29661288571688216,0.31258130273716667
1784201755894902528,2.057204484939575,1.2670944929122925,-0.28025713562965393,-0.1636129468679428,0.2256319224834442,0.6089723110198975,-0.7604228854179382,0.14891032874584198,-0.10668349266052246,-0.15995675325393677,-0.9331314058633328,0.3352698197533773,-0.0859226814635427,-0.09735086846197029,-0.6547642951640802,0.2884439964606303,0.3064633378927004
1784201755904822272,2.067124366760254,1.4080435037612915,-0.09882541745901108,-0.5662980079650879,0.22205710411071777,0.5994860529899597,-0.7689650058746338,0.23408913612365723,0.08398562669754028,-0.01973128318786621,-0.935631091637674,0.3290363778249683,-0.08516203672996814,-0.09527305956681731,-0.6428588073924628,0.2811261723724959,0.2971158419556072
1784201755914742528,2.0770444869995117,1.7029739618301392,-0.2825012505054474,-0.42005211114883423,0.21803739666938782,0.5885152816772461,-0.7785302996635437,0.2875168025493622,-0.002928793430328369,-0.0470159649848938,-0.9383823448795274,0.32194776826270477,-0.08416937186192067,-0.09329354222194973,-0.6292211977876998,0.27306696518351187,0.2875457282042934
1784201755924661504,2.086963415145874,1.695722222328186,-0.4343697130680084,0.0643983781337738,0.21272364258766174,0.5762416124343872,-0.7891097664833069,0.14163120090961456,-0.08287924528121948,0.05137789249420166,-0.9413603233237213,0.3140904651499213,-0.08241538226001036,-0.0916272705375593,-0.6141225355476547,0.26331493683095175,0.2779897011361207
1784201755934581248,2.0968832969665527,1.533378005027771,-0.294491708278656,0.22576089203357697,0.2118975669145584,0.5617036819458008,-0.7997426986694336,0.0716259777545929,-0.021832525730133057,0.09954744577407837,-0.9440490746148454,0.3055854075050584,-0.0821353932775246,-0.0929656414930289,-0.5964436218526052,0.25900572898385177,0.276338759299734
1784201755944501504,2.1068034172058105,1.7257864475250244,0.10672104358673096,-0.37786516547203064,0.20983275771141052,0.5506933927536011,-0.8079028725624084,0.0066742002964019775,0.14861690998077393,0.16711002588272095,-0.9463210790398257,0.29890773591685027,-0.08187025604479632,-0.09180367011393235,-0.5831947234041001,0.25411066744762123,0.2700646898387784
1784201755954420224,2.116722345352173,2.521554708480835,-0.5158836841583252,-0.6422310471534729,0.20606084167957306,0.5332518219947815,-0.8204763531684875,0.26719051599502563,0.264279305934906,-0.14685457944869995,-0.9499609242553645,0.28826612068772833,-0.08163617963180456,-0.08838790427233373,-0.5624398606464852,0.24605866048478195,0.25696402354441755
1784201755964340480,2.1266424655914307,2.691240072250366,-0.6400379538536072,-0.45351630449295044,0.19870421290397644,0.5133750438690186,-0.8348429203033447,0.25333741307258606,0.508673906326294,-0.04624533653259277,-0.9539980277173237,0.27617991508493184,-0.07939272086264797,-0.08549358291245608,-0.539113058666507,0.2336662100712955,0.24358479404460737
1784201755974260224,2.1365623474121094,2.7828595638275146,-0.07431436330080032,-0.18625158071517944,0.19468219578266144,0.4909609258174896,-0.8491502404212952,0.13310712575912476,0.216863751411438,0.02989065647125244,-0.9578764493744314,0.263160708719943,-0.07855767385796722,-0.08395079091795095,-0.5131924330026536,0.2253721673866411,0.23420577464766135
1784201755984180480,2.146482467651367,2.5802037715911865,-0.4440467953681946,-0.6354258060455322,0.18912546336650848,0.46882444620132446,-0.8628065586090088,0.039573267102241516,-0.02517518401145935,0.09501487016677856,-0.9616812331483211,0.25026336538822436,-0.07723313765142754,-0.08107087368614083,-0.4879594301685885,0.21578517969197294,0.2221183456982922
1784201755994099456,2.1564013957977295,2.039515972137451,-0.27950525283813477,-0.1394442617893219,0.1844734400510788,0.45008304715156555,-0.873724639415741,0.2192130833864212,0.004583090543746948,0.16896700859069824,-0.9646938386067054,0.23949662383807022,-0.07601996265061181,-0.07891857768336012,-0.4668583506959172,0.20807855474739895,0.2128927590812797
1784201756004019456,2.1663215160369873,2.0318119525909424,-0.40692293643951416,-0.2906133234500885,0.1802719533443451,0.432378888130188,-0.8834877014160156,0.2236129492521286,-0.10867896676063538,0.09569168090820312,-0.967314792124402,0.22950167929769982,-0.07473376654707209,-0.07775497921956144,-0.44712936827836103,0.20128270875205484,0.20633144596566894
1784201756013939456,2.176241397857666,1.8796358108520508,-0.40863215923309326,-0.358532190322876,0.1751977950334549,0.4155277907848358,-0.8925482630729675,0.1055944412946701,-0.09716841578483582,0.11142033338546753,-0.9697935644368175,0.2199624628735248,-0.07309164009233825,-0.07599066354838344,-0.42852299072829375,0.19382517509217118,0.19869847295830867
1784201756023858432,2.1861603260040283,1.841027855873108,-0.3518029749393463,-0.11079977452754974,0.17204956710338593,0.39952781796455383,-0.9004312753677368,0.14122864603996277,-0.05268031358718872,0.060755372047424316,-0.9719289988667973,0.21108508399488904,-0.0723011667451954,-0.07462952845742675,-0.41100171853056167,0.18879892125904169,0.1927352370340536
1784201756033778432,2.196080446243286,1.7084306478500366,-0.6457230448722839,-0.09649833291769028,0.1673154979944229,0.3837004601955414,-0.908173680305481,0.20310688018798828,-0.06959828734397888,-0.06225478649139404,-0.9739420876252781,0.2023595010077749,-0.07045412472039396,-0.07432074099108874,-0.3938001603532976,0.1821899676460538,0.18876413540655793
1784201756043698432,2.206000328063965,1.6549229621887207,-0.23653119802474976,-0.13863202929496765,0.16309067606925964,0.36868515610694885,-0.9151353240013123,0.17557814717292786,-0.10222092270851135,-0.028773367404937744,-0.9757820596838179,0.19411678380867822,-0.06892753698586766,-0.07360047458382381,-0.3775941296565409,0.1763632497704757,0.18435182539506684
1784201756053618432,2.2159204483032227,1.356027364730835,-0.44068992137908936,-0.0437457375228405,0.15875206887722015,0.3544306755065918,-0.9215078353881836,0.16262856125831604,-0.0699915885925293,-0.0022134780883789062,-0.9774656006192431,0.18632103870874414,-0.06730940336553609,-0.07290323027587753,-0.36230513734553005,0.1705996870097306,0.1802127611712113
1784201756063537408,2.225839376449585,1.6105495691299438,-0.3190678358078003,-0.053840115666389465,0.15580256283283234,0.3413584232330322,-0.9269304275512695,0.13574713468551636,-0.0011026859283447266,0.11400318145751953,-0.9788580627005391,0.17929357621689737,-0.06624659570892737,-0.07281502866840288,-0.34836175974266836,0.16652779839229295,0.1778706344327402
1784201756073457408,2.2357594966888428,1.4233407974243164,-0.4067350924015045,-0.14547789096832275,0.151792511343956,0.3267809748649597,-0.9328307509422302,0.1121387630701065,-0.07342404127120972,0.06275933980941772,-0.9804434762040506,0.17139583937811703,-0.0648697812722311,-0.07173514146604305,-0.33289555021932987,0.1613086357648616,0.1732291849898982
1784201756083377408,2.2456793785095215,1.0000754594802856,-0.15708833932876587,0.1357734203338623,0.14941082894802094,0.3159177005290985,-0.9369484782218933,0.20247209072113037,-0.0590665340423584,0.1932350993156433,-0.9814988585369084,0.16561031065527076,-0.06402343811920998,-0.07165304846786968,-0.3214237473103723,0.1581339326600077,0.1714360622366157
1784201756093297408,2.2555994987487793,0.6552730202674866,-0.12205950915813446,-0.18404053151607513,0.14830929040908813,0.3080568015575409,-0.9397368431091309,0.08959048986434937,-0.2173738181591034,0.15836477279663086,-0.9822307906584729,0.1614471500803267,-0.06376824042537318,-0.07135159984251077,-0.313149813996522,0.1565289700086225,0.16979012964463583
1784201756103216384,2.2655184268951416,0.17274624109268188,-0.1614190936088562,0.10687383264303207,0.14679589867591858,0.30451080203056335,-0.941129207611084,0.10794956982135773,-0.23593777418136597,0.17890691757202148,-0.9825948386095362,0.15952842615427093,-0.06313547150370437,-0.07121842755346966,-0.30942479428408254,0.1547316861506297,0.1688857132883788
1784201756113136384,2.2754383087158203,0.1398434191942215,-0.17668114602565765,0.11026962846517563,0.14571036398410797,0.3030787408351898,-0.9417599439620972,0.10879096388816833,-0.09301099181175232,0.19005095958709717,-0.9827178124628492,0.1587699865873232,-0.06254699170663147,-0.07173359501315342,-0.3079217025996027,0.15350417798162147,0.16959967263248818
1784201756123056384,2.285358428955078,0.24981366097927094,-0.053001999855041504,0.1815764605998993,0.14524081349372864,0.30105167627334595,-0.9424823522567749,0.10378262400627136,-0.0039019882678985596,0.1622852087020874,-0.982846360399576,0.15774425275464046,-0.062254087713942766,-0.07248572486224683,-0.3057952888821045,0.15290174059175754,0.17084220454549506
1784201756132975360,2.2952773571014404,0.40913355350494385,0.11670421063899994,0.043450549244880676,0.14600299298763275,0.29799479246139526,-0.9433357119560242,0.12871626019477844,0.053262531757354736,0.14188307523727417,-0.9830292679457338,0.15622008291599862,-0.06266931052868245,-0.07294662823473495,-0.3025913236233633,0.15355471692403508,0.1715964879427146
1784201756142895360,2.3051974773406982,0.778615415096283,0.024382688105106354,-0.0728037878870964,0.14670422673225403,0.29241350293159485,-0.9449720978736877,0.14899584650993347,0.02133771777153015,0.052210867404937744,-0.9834619876646857,0.15334219340638108,-0.063246609869705,-0.07272280242490405,-0.29674967310257055,0.15401764233930196,0.1706888927010849
1784201756152815360,2.315117359161377,0.6531570553779602,-0.10940253734588623,0.17810140550136566,0.1464260220527649,0.2854265570640564,-0.9471489191055298,0.1998264193534851,-0.0055956244468688965,-0.015070319175720215,-0.9840216134848258,0.1497068798700078,-0.0633512762746814,-0.07263516525446541,-0.2894514632362028,0.15338235436833464,0.16975961034446735
1784201756162735360,2.3250374794006348,0.6960806846618652,-0.06869680434465408,0.10755646973848343,0.14594514667987823,0.2790112793445587,-0.9491326212882996,0.19731657207012177,0.03698301315307617,-0.0030615925788879395,-0.9844803787675672,0.14640910128750514,-0.06323025709804342,-0.07324426035574391,-0.2827643346675309,0.152571872144483,0.17028136896453538
1784201756172654336,2.334956407546997,0.6304396390914917,-0.005484015680849552,-0.0511050820350647,0.1459219753742218,0.2726898789405823,-0.9509716033935547,0.030179709196090698,-0.049789488315582275,-0.05883979797363281,-0.9849591832062504,0.14313533848858526,-0.06345444396410801,-0.07308431769269902,-0.2761877676847659,0.15225756173888377,0.1693299624066886
1784201756182574336,2.344876289367676,0.2791726291179657,-0.34181705117225647,0.27746784687042236,0.1441992074251175,0.2682572901248932,-0.9524939060211182,0.144939586520195,-0.1754991114139557,-0.09113097190856934,-0.9853150234045157,0.14080232795847114,-0.06267180276901665,-0.07349407611040594,-0.27158355480431307,0.15025027365242005,0.16947019165142382
1784201756192494336,2.3547964096069336,0.29363757371902466,-0.17675486207008362,0.14917992055416107,0.14241179823875427,0.26556912064552307,-0.9535155892372131,0.14886322617530823,-0.11591088771820068,-0.062033116817474365,-0.9854625634405862,0.13943367634078963,-0.061647920941323237,-0.07497599628459949,-0.2687941787722752,0.14825854402976504,0.17195397894604186
1784201756202413312,2.364715337753296,0.5475850105285645,-0.07322448492050171,-0.023863574489951134,0.14153245091438293,0.2611429691314697,-0.9548680186271667,-0.021720439195632935,0.038890570402145386,-0.11933547258377075,-0.9858064275961254,0.13711741422439017,-0.06135802641909381,-0.07496559506836993,-0.2642060750069747,0.14715062438000776,0.17138540177250533
1784201756212333568,2.3746354579925537,0.809796929359436,-0.06828698515892029,0.14467856287956238,0.141026109457016,0.25503480434417725,-0.956592321395874,0.18484057486057281,0.11250367760658264,-0.10744881629943848,-0.9862101616868072,0.13398383817232543,-0.06125491482613925,-0.07540338553425796,-0.2578836823007747,0.14637115929484015,0.17163056658199513
1784201756222253312,2.3845553398132324,1.2724528312683105,-0.28485947847366333,-0.126472607254982,0.13946612179279327,0.24498911201953888,-0.9594423174858093,0.16747967898845673,0.09250478446483612,-0.12370282411575317,-0.9869584778595157,0.12874200839876784,-0.06086330990293599,-0.0750609933814839,-0.2475084625829868,0.1443506154341586,0.16979995044283291
1784201756232173568,2.3944754600524902,1.12808096408844,-0.2058434784412384,0.11545214056968689,0.1365274339914322,0.23296484351158142,-0.9628539085388184,0.2084890455007553,0.06612266600131989,-0.08304452896118164,-0.9878348531873568,0.12245232281413188,-0.059820368762170756,-0.074895017908833,-0.23512531002416018,0.14085555104317252,0.16800838755826158
1784201756242092288,2.4043943881988525,1.2479568719863892,-0.17730146646499634,0.1193079948425293,0.13522367179393768,0.22195802628993988,-0.9656341075897217,0.10504123568534851,0.11002744734287262,-0.02321171760559082,-0.9885114624371919,0.1167985710897424,-0.05950671200272795,-0.0752471991918131,-0.22382212889071976,0.1391313803633689,0.16761103385576387
1784201756252012544,2.4143145084381104,1.301405429840088,-0.1410265415906906,0.052523910999298096,0.1341295838356018,0.20909984409809113,-0.9686518907546997,0.0663861632347107,0.009909555315971375,-0.08243453502655029,-0.9892709451976037,0.11020502262402816,-0.0594045543191177,-0.07529231463736862,-0.21065436155879694,0.13759539594526812,0.16649398911691393
1784201756261932288,2.424234390258789,0.9086564779281616,-0.2105116993188858,-0.022840354591608047,0.13219556212425232,0.19836919009685516,-0.9711714386940002,0.1994847059249878,-0.014378726482391357,-0.05600440502166748,-0.9899214396286928,0.10465800593372114,-0.05883005232639608,-0.07510801069836218,-0.1996937656228049,0.135288225580598,0.165028885624122
1784201756271852544,2.434154510498047,0.7637298703193665,-0.4178353250026703,0.22994422912597656,0.12944535911083221,0.19021357595920563,-0.9731714725494385,0.10888166725635529,-0.07105769217014313,-0.12608695030212402,-0.9904010595109646,0.10042381403109489,-0.057700298734664666,-0.07544265629679801,-0.19137968979887798,0.13223768614493708,0.1647649887158381
1784201756281771520,2.444073438644409,0.6810627579689026,-0.19867253303527832,0.226897731423378,0.12651373445987701,0.1829506903886795,-0.9749478697776794,0.09135127067565918,-0.162946417927742,-0.13328272104263306,-0.9907567243837471,0.09668953022687085,-0.05636671239735609,-0.07664908913720618,-0.1839869646812761,0.12904351814897316,0.166341961327706
1784201756291691264,2.453993320465088,1.0784735679626465,-0.3337685763835907,0.09516368061304092,0.12423450499773026,0.1742209792137146,-0.9768381714820862,0.025561027228832245,-0.1524772197008133,-0.14253127574920654,-0.9911873677673361,0.09220887067511807,-0.05548362707780112,-0.07724400593115285,-0.17511459417995812,0.12650110430657177,0.16666637597945702
1784201756301611520,2.4639134407043457,1.180055022239685,-0.4726982116699219,0.25927475094795227,0.12023051083087921,0.1628640741109848,-0.9792956113815308,0.1364986151456833,-0.0740579217672348,-0.14837467670440674,-0.9917316536159403,0.08635404473010536,-0.053806754740576904,-0.07820588780920582,-0.16359278803242447,0.122161106652099,0.16741719184601403
1784201756311530240,2.473832368850708,1.0152435302734375,-0.32623153924942017,0.26126840710639954,0.11666405200958252,0.1519121676683426,-0.9814847111701965,0.11601722240447998,0.004551440477371216,-0.06694668531417847,-0.9921924744808065,0.08073916684162939,-0.052333958600638046,-0.07935016019074503,-0.1525026111807374,0.11830976167564788,0.16865871846701816
1784201756321450496,2.483752489089966,1.0512923002243042,-0.36017704010009766,0.14675447344779968,0.11400149017572403,0.14133816957473755,-0.9833754301071167,0.10451962798833847,-0.08597926795482635,-0.0293656587600708,-0.992604319908762,0.0753414505204643,-0.05134163629031577,-0.08015260508400165,-0.1418130209995363,0.11541356310568118,0.16935634773195052
1784201756331370240,2.4936723709106445,0.7107973098754883,-0.36656755208969116,0.36206573247909546,0.11098639667034149,0.1324678212404251,-0.9849539399147034,0.13332206010818481,-0.1656099259853363,-0.022538065910339355,-0.9929081072650008,0.07080876072795139,-0.05009132662289998,-0.0813051183139472,-0.13285833242081455,0.11220849986516515,0.17087982449998892
1784201756341290496,2.5035924911499023,0.5329251289367676,-0.34970611333847046,0.32295164465904236,0.1081022396683693,0.1260305643081665,-0.986118733882904,0.1500764787197113,-0.1608969122171402,0.0022777915000915527,-0.9930614651260694,0.06753278070945926,-0.048784686290012216,-0.08299566529952745,-0.12636661557052842,0.10918796445669059,0.17367845265903137
1784201756351209472,2.5135114192962646,0.22590181231498718,-0.4627058804035187,0.4870625436306,0.104415662586689,0.12171628326177597,-0.9870575070381165,0.115494005382061,-0.16202999651432037,-0.036532580852508545,-0.9931312392253125,0.06529854762189859,-0.04698241195623548,-0.084965573835543,-0.12201883606789805,0.10539281447424712,0.17713469424636213
1784201756361129216,2.5234313011169434,0.19989870488643646,-0.3858505189418793,0.3746952712535858,0.10103695839643478,0.11919813603162766,-0.9877161979675293,0.09406191855669022,-0.15546827018260956,-0.0793309211730957,-0.9931081891750988,0.06398376478895805,-0.045254451920727586,-0.08714575042911826,-0.11948222042032426,0.10193893550471742,0.18115512051037447
1784201756371049472,2.533351421356201,0.18519219756126404,-0.4669935703277588,0.5361821055412292,0.09776453673839569,0.11696990579366684,-0.988311767578125,0.08225865662097931,-0.11674102395772934,-0.13018798828125,-0.993056549201497,0.0628166375905154,-0.04356822197179004,-0.08941198793712511,-0.11723828932492777,0.09859997100887466,0.1853812041474884
1784201756380969216,2.54327130317688,0.5020934343338013,-0.5767834782600403,0.4133835434913635,0.09307289123535156,0.11329130083322525,-0.9891928434371948,0.18448448181152344,-0.05176787078380585,-0.1197853684425354,-0.9930218186104921,0.060870780177924744,-0.041210640840863934,-0.09221795842728225,-0.11353506131300496,0.09381354045781853,0.19053601231526
1784201756390888448,2.5531904697418213,0.7901350855827332,-0.5212581753730774,0.028534652665257454,0.08800612390041351,0.1066070944070816,-0.9903988242149353,0.07215011864900589,0.046209678053855896,-0.1448398232460022,-0.9932418945197904,0.057315700237769336,-0.03892934463666958,-0.09311249062838099,-0.10681006557288969,0.08862650501907607,0.19168640113988308
1784201756400808448,2.5631103515625,0.7801535725593567,-0.45934030413627625,0.09294360131025314,0.08351471275091171,0.09884236752986908,-0.9915924072265625,0.10737273097038269,0.07274271547794342,-0.06591796875,-0.9935191455799249,0.05322305095416532,-0.037028493350680175,-0.09335881783956702,-0.09900402446297742,0.08402452751275098,0.19155059954949755
1784201756410728448,2.573030471801758,0.7440232634544373,-0.4912910461425781,0.14690802991390228,0.07918229699134827,0.09110947698354721,-0.9926878809928894,0.12710127234458923,-0.02369614690542221,-0.042392075061798096,-0.9937452830071712,0.049166562408486394,-0.035195295925891504,-0.09388475627533782,-0.09123599757099728,0.07959702762399098,0.1920276810044834
1784201756420647424,2.58294939994812,0.5527915358543396,-0.5484933853149414,0.2803094983100891,0.07429192960262299,0.08449559658765793,-0.9936504364013672,0.12413334846496582,-0.13579565286636353,-0.04271119832992554,-0.9938854348516039,0.0456617485180996,-0.033011862681344484,-0.09495818997128709,-0.08459646732305942,0.07462781699985976,0.19366650502263702
1784201756430567168,2.592869281768799,0.395937979221344,-0.6230565905570984,0.40691375732421875,0.06892276555299759,0.07979211956262589,-0.994425892829895,0.09774898737668991,-0.1563149392604828,-0.04861915111541748,-0.993916469769269,0.04310448821604579,-0.030480376026041364,-0.09665896507907183,-0.07987703165986505,0.06919843935860472,0.19665771055053974
1784201756440487424,2.6027894020080566,0.3829655945301056,-0.5460420250892639,0.4728277623653412,0.06329996138811111,0.07581546157598495,-0.9951106309890747,0.09275166690349579,-0.11324527114629745,-0.07868087291717529,-0.9938557521984145,0.04090899491571354,-0.027769550525872756,-0.09902602003302406,-0.07588828322489914,0.06352539381959102,0.20103329140169116
1784201756450407168,2.6127092838287354,0.06767608225345612,-0.5570379495620728,0.2894957661628723,0.058295972645282745,0.07291854172945023,-0.9956327080726624,0.08791374415159225,-0.034954674541950226,-0.057437360286712646,-0.9938037947322722,0.03925862052598957,-0.025345855860473387,-0.10084863819190555,-0.07298331648461341,0.058484911665018076,0.20439822903094645
1784201756460326400,2.6226284503936768,0.12595289945602417,-0.5850499868392944,0.31473129987716675,0.05280615761876106,0.07195389270782471,-0.996009111404419,0.13097070157527924,0.021384119987487793,-0.010033369064331055,-0.9937233385690548,0.03853593118172561,-0.02259262770345279,-0.10256030228409391,-0.07201612859853161,0.05296815240924849,0.20759652708425153
1784201756470246400,2.6325483322143555,-0.025934096425771713,-0.575973391532898,0.25361040234565735,0.04714353755116463,0.07121293991804123,-0.9963464140892029,0.11548464000225067,-0.06025712937116623,-0.05631166696548462,-0.9936411438894335,0.03790467761042831,-0.01974896096039186,-0.10416626592398223,-0.07127327134415433,0.047281147717201925,0.2105887136360784
1784201756480166400,2.6424684524536133,0.08410092443227768,-0.5009438395500183,0.35160282254219055,0.04189997911453247,0.07114844024181366,-0.9965853095054626,0.07905644178390503,-0.06580786406993866,-0.040401995182037354,-0.9935356113563528,0.03762362423596673,-0.017082299710666493,-0.10573452167900652,-0.07120860735423136,0.0420187967687022,0.2135437622679226
1784201756490086400,2.652388334274292,0.07797645032405853,-0.6012678146362305,0.5103999376296997,0.036694370210170746,0.07009019702672958,-0.9968655109405518,0.11246029287576675,-0.05615893006324768,-0.10124850273132324,-0.993374603238971,0.036850086235742076,-0.014467401670628722,-0.10788673034096356,-0.07014771343818361,0.03679313672964822,0.21765567001136898
1784201756500005376,2.6623075008392334,0.42960792779922485,-0.5550088882446289,0.16222752630710602,0.03131774812936783,0.06747233867645264,-0.9972295165061951,0.13671204447746277,-0.007718920707702637,-0.09119516611099243,-0.9932583686295482,0.035276697213224656,-0.0118660468177867,-0.10978421479510876,-0.06752364017433937,0.03139443809629246,0.22122548713582108
1784201756509925376,2.672227382659912,0.5337151885032654,-0.5906310677528381,0.22587734460830688,0.02555275335907936,0.0625409409403801,-0.9977152347564697,0.12599754333496094,0.0696001723408699,-0.08073019981384277,-0.993278833055367,0.03251179535659577,-0.00923939354573571,-0.11070082401723264,-0.0625817813906749,0.025605671328302035,0.22278523362941766
1784201756519845376,2.68214750289917,0.5083291530609131,-0.609063446521759,0.32395362854003906,0.019749034196138382,0.05715510621666908,-0.9981699585914612,0.16801036894321442,0.09874394536018372,-0.02485555410385132,-0.993224696499072,0.02951889861319931,-0.006607169452497634,-0.11220314713634268,-0.05718627181203309,0.01978266110781116,0.22554904210487417
1784201756529764352,2.6920664310455322,0.47829538583755493,-0.528820812702179,0.26308655738830566,0.014370699413120747,0.05231152102351189,-0.9985274076461792,0.06437990814447403,0.020717043429613113,0.0484694242477417,-0.9931297498980226,0.026813706296446277,-0.004161772716568329,-0.11382871151055816,-0.05233540820235159,0.01439089971065453,0.22861300978459273
1784201756539684352,2.701986312866211,0.2468404322862625,-0.39990973472595215,0.18658263981342316,0.009879274293780327,0.048691119998693466,-0.9987650513648987,0.054222896695137024,-0.06918367743492126,0.10301309823989868,-0.9930659958139763,0.024759609206208698,-0.0021093386667912673,-0.11490184451126732,-0.04871037837948788,0.009891167705248836,0.23062478524467797
1784201756549604352,2.7119064331054688,0.11934426426887512,-0.5236465930938721,0.2906525731086731,0.005693315528333187,0.046826887875795364,-0.9988868236541748,0.13621342182159424,-0.059018660336732864,0.1749579906463623,-0.9929581982935327,0.023592177944321353,-0.00010855476468989098,-0.1160921788119363,-0.04684401853584891,0.005699598541260748,0.23290768926277536
1784201756559524352,2.7218263149261475,0.017305118963122368,-0.4397042691707611,0.2875700294971466,0.0007687102188356221,0.0459548756480217,-0.9989432096481323,0.14365573227405548,-0.051387008279561996,0.21853244304656982,-0.9927768575445526,0.02286881277768798,0.0023253031299762614,-0.11775260369503322,-0.04597106753076743,0.0007695232920656017,0.23613323713791834
1784201756569443584,2.731745481491089,0.01809048466384411,-0.28109490871429443,0.26532918214797974,-0.002419890370219946,0.04580691084265709,-0.9989473819732666,0.057229459285736084,-0.05842592939734459,0.2831118106842041,-0.9925933963634078,0.022601364885854555,0.003935409730862983,-0.11929883373535302,-0.04582294503042615,-0.002422435644857566,0.2391750588052254
1784201756579363328,2.7416653633117676,-0.2127465307712555,-0.0940723568201065,0.2496318221092224,-0.00459721963852644,0.04675237461924553,-0.9988959431648254,0.059330496937036514,-0.08456365764141083,0.32760077714920044,-0.9924226155387725,0.022934495799215786,0.005103271820979129,-0.12060402206505041,-0.04676942337295271,-0.004602268626106192,0.241756100714412
1784201756589283584,2.7515854835510254,-0.34549203515052795,0.030902601778507233,0.2452453225851059,-0.004364867229014635,0.04946010559797287,-0.9987665414810181,0.09607018530368805,-0.09064356982707977,0.38501226902008057,-0.9922320072748113,0.024286893911534834,0.005183203901621578,-0.12189731689193731,-0.04948029224583093,-0.004370229833788256,0.2443701002602692
1784201756599203328,2.761505365371704,-0.6149718165397644,0.08398731797933578,0.32145416736602783,-0.0034365791361778975,0.05411328747868538,-0.9985288977622986,0.14129973948001862,-0.10187329351902008,0.4130644202232361,-0.9920014068028762,0.02664799817335535,0.005043772798140827,-0.12327905958460565,-0.054139730866882944,-0.0034416285621991353,0.24718519761823934
1784201756609122304,2.7714242935180664,-1.0069360733032227,0.09805839508771896,0.3121485710144043,-0.0024907132610678673,0.062039222568273544,-0.9980705976486206,0.16986437141895294,-0.04984745383262634,0.4423150420188904,-0.991678368859382,0.030635437640753882,0.0051154384232864804,-0.12493743586105034,-0.06207908702760154,-0.002495522892795594,0.2505736335595024
1784201756619042304,2.781344413757324,-1.379810094833374,0.3639179468154907,0.1882079392671585,0.00013365436461754143,0.0739830955862999,-0.9972594976425171,0.09990296512842178,-0.011956118047237396,0.5035308599472046,-0.9913385278805414,0.03672989276888199,0.004601252289205919,-0.12600706137692216,-0.07405075405312349,0.00013402165070382295,0.25286504517447395
1784201756628962304,2.791264295578003,-1.522303581237793,0.4381152093410492,0.27820253372192383,0.004339581821113825,0.08845024555921555,-0.9960711598396301,0.06717836111783981,-0.056025318801403046,0.4762347340583801,-0.9908966912287082,0.044185147289420114,0.0034786677627847407,-0.12711944436475336,-0.08856598400744663,0.00435667127449205,0.2553738291682101
1784201756638881536,2.8011834621429443,-1.3843162059783936,0.45626717805862427,0.37983930110931396,0.0091554531827569,0.10295113921165466,-0.994644284248352,0.029739201068878174,-0.13737496733665466,0.44335949420928955,-0.9903204961116902,0.05170534765284472,0.0021018727308371745,-0.12879237203117275,-0.10313387645454358,0.009204491586311946,0.25912578918841417
1784201756648801280,2.811103343963623,-1.4008840322494507,0.680892825126648,0.38385745882987976,0.014948236756026745,0.11629074811935425,-0.9931027293205261,-0.013147702440619469,-0.15886276960372925,0.4256283640861511,-0.9896983081851343,0.05872479306934805,0.0001956385359679602,-0.13057076920267188,-0.11655446448279207,0.015050918174190454,0.2632228263667883
1784201756658721536,2.821023464202881,-1.5096962451934814,0.7402978539466858,0.3647758960723877,0.022801579907536507,0.13075992465019226,-0.9911518096923828,-0.022023389115929604,-0.06862615048885345,0.5114155411720276,-0.9889630666184257,0.06646178137218034,-0.002630696346598471,-0.13239380509940402,-0.1311354405931622,0.023001075724961604,0.2676705971259996
1784201756668641280,2.8309433460235596,-1.2594105005264282,0.8404825329780579,0.09444669634103775,0.030610602349042892,0.14446024596691132,-0.989037036895752,-0.05896143242716789,0.008432835340499878,0.46627092361450195,-0.9882930519925495,0.07383094488431505,-0.005520943722606808,-0.13339921991147385,-0.1449674695188753,0.030940028094299625,0.27058378876818673
1784201756678560512,2.840862512588501,-1.0186936855316162,1.164183259010315,0.3229559659957886,0.04062299430370331,0.15546925365924835,-0.9870051145553589,-0.07329206168651581,0.024431869387626648,0.4156855344772339,-0.98770724063757,0.0800192717405734,-0.009714003278885034,-0.1339290552085476,-0.15610246523364602,0.041134618855766504,0.2727654398592086
1784201756688480256,2.8507823944091797,-0.7834022641181946,1.2921931743621826,0.3505540192127228,0.05309121310710907,0.1640356481075287,-0.9850246906280518,-0.02254311740398407,0.06544128060340881,0.36823391914367676,-0.9870132703555023,0.08518321203150639,-0.015214428531275755,-0.1353407996678434,-0.16478034522246549,0.053846257406686554,0.2769909836568959
1784201756698400512,2.8607025146484375,-0.6382556557655334,1.373382806777954,0.3029842674732208,0.06663107126951218,0.170810729265213,-0.9830483198165894,-0.021037809550762177,0.007518738508224487,0.35875022411346436,-0.9863698678214297,0.08954370302384113,-0.02139548297769568,-0.13637670434473176,-0.1716524329788241,0.0676765439182199,0.28060529049699456
1784201756708320256,2.870622396469116,-0.6152244210243225,1.4386054277420044,0.36571744084358215,0.08099810779094696,0.1766715794801712,-0.9809314012527466,0.07232219725847244,-0.0973258912563324,0.35364264249801636,-0.9857036669051554,0.09352552879020742,-0.02805823399898386,-0.1373095614969105,-0.17760381045467757,0.08238574722613833,0.2841601363221235
1784201756718239232,2.8805413246154785,-0.37020838260650635,1.2171978950500488,0.6875916719436646,0.09471423178911209,0.18111707270145416,-0.9788901209831238,0.142575204372406,-0.12363722920417786,0.2642447352409363,-0.9848656662237854,0.09682038918691155,-0.034362264741741665,-0.13958736356831472,-0.18212219646682967,0.09645650473305213,0.29040380763259815
1784201756728159488,2.8904614448547363,-0.17211155593395233,1.2809110879898071,0.379944384098053,0.10807647556066513,0.18313154578208923,-0.9771296381950378,0.09793243557214737,-0.08541426062583923,0.18368786573410034,-0.9841328984334278,0.09889494597417238,-0.04068139876335179,-0.14158796892860379,-0.1841709289321271,0.11015831848023291,0.2959634924528868
1784201756738079232,2.900381326675415,0.0883609876036644,1.2684892416000366,0.5888229012489319,0.12133843451738358,0.18312431871891022,-0.9755728840827942,0.12557929754257202,0.017925500869750977,0.1900961995124817,-0.9835208360660573,0.09995492911993496,-0.04714408988678429,-0.14308470929466943,-0.1841635722492287,0.12374113199760922,0.3003782911895026
1784201756747998464,2.9103004932403564,0.2789498567581177,1.2498418092727661,0.4180133044719696,0.134559765458107,0.18042440712451935,-0.9743411540985107,0.1561354249715805,0.10427407920360565,0.12508273124694824,-0.9829220692709999,0.09970862596930276,-0.0537364586331393,-0.14503390067335822,-0.18141791682579808,0.1372352537776752,0.30549567144798245
1784201756757918464,2.920220375061035,0.5649825930595398,1.148247480392456,0.03923826292157173,0.1467156857252121,0.17636525630950928,-0.9733292460441589,0.0841803103685379,0.18641245365142822,0.10913246870040894,-0.9826460638179769,0.09861601378737726,-0.060085448443066514,-0.14516013289619473,-0.1772925899130394,0.1496096034647732,0.3066479191243982
1784201756767838464,2.930140495300293,1.0478472709655762,1.1999255418777466,0.5220901370048523,0.1579875499010086,0.16809245944023132,-0.9730287194252014,0.1951160728931427,0.09072713553905487,0.055914461612701416,-0.9824811548376553,0.09537393468308149,-0.06625299426358354,-0.14575741070463274,-0.16889427199519474,0.160962123375041,0.30821884495644436
1784201756777758464,2.9400603771209717,0.9905966520309448,1.3865939378738403,0.20040404796600342,0.1713564544916153,0.1574389487504959,-0.9725481867790222,0.0747372955083847,-0.020216643810272217,0.11280697584152222,-0.9822433246590302,0.09112722062703861,-0.07363249725884881,-0.14653357302314005,-0.15809671315625826,0.17440325335985185,0.3100307645930897
1784201756787677440,2.949979543685913,1.1250540018081665,1.1421761512756348,0.1749490201473236,0.18362148106098175,0.14720650017261505,-0.9719122648239136,0.01668064296245575,0.07363395392894745,0.19107425212860107,-0.9821348145944078,0.08692962807913661,-0.08054266641396672,-0.14617552114718568,-0.14774340280247394,0.18672713968112298,0.30935881093885287
1784201756797597440,2.959899425506592,1.304700255393982,1.2260099649429321,0.04052160680294037,0.19521547853946686,0.13509272038936615,-0.9714117646217346,0.08852167427539825,0.14415836334228516,0.1606971025466919,-0.982068124325952,0.08173140003474756,-0.08725871012973023,-0.14576704697694315,-0.13550703613269724,0.19831903172031615,0.3082071152092415
1784201756807517440,2.9698195457458496,1.6033927202224731,1.002542495727539,-0.1943598836660385,0.20619679987430573,0.12126057595014572,-0.9709679484367371,0.031687721610069275,0.2624674439430237,0.18098992109298706,-0.9822255850051688,0.07548772347691433,-0.09390223936380422,-0.14393358290485503,-0.12155973074298634,0.20925345606107357,0.30378583930199593
1784201756817437440,2.9797394275665283,1.8113436698913574,0.9035415053367615,0.08244822174310684,0.21491217613220215,0.104822538793087,-0.9709917306900024,0.08876824378967285,0.2555900514125824,0.17533743381500244,-0.9824387828665861,0.06778792340818554,-0.09954355408720086,-0.142512658882335,-0.10501545308779667,0.21782106854228772,0.29960369679535687
1784201756827356416,2.9896583557128906,1.844316005706787,1.1088122129440308,0.031976521015167236,0.22462448477745056,0.08679620921611786,-0.9705721139907837,-0.011306628584861755,0.13415104150772095,0.20296353101730347,-0.9824852322351638,0.059398832508666025,-0.1057625352425652,-0.14145244857444764,-0.08690556454263756,0.22743097769106607,0.2959145323041499
1784201756837276416,2.9995784759521484,1.9400418996810913,1.1610726118087769,-0.12694165110588074,0.2358691394329071,0.06898092478513718,-0.9693334698677063,-0.0704791247844696,0.09721780568361282,0.2191656231880188,-0.9824212873248829,0.05114340083187288,-0.11277241658809511,-0.13969643045992267,-0.06903574683697954,0.2386924324836969,0.29077997982191967
1784201756847196416,3.009498357772827,1.7090284824371338,0.9938173294067383,-0.16994477808475494,0.24593092501163483,0.05130700394511223,-0.9679284691810608,0.03171800076961517,0.06336280703544617,0.19401800632476807,-0.9823882517870001,0.04278269627775087,-0.11918637464552856,-0.13739587813060494,-0.05132954006772946,0.2488146197611756,0.28433570004099373
1784201756857115392,3.0194175243377686,1.6608160734176636,0.9475812911987305,-0.2941023111343384,0.25581681728363037,0.03649730980396271,-0.9660360813140869,0.08489671349525452,0.1498277634382248,0.22519135475158691,-0.9822780085396162,0.03576368137693891,-0.12531129107895403,-0.1347143061473066,-0.03650541577042373,0.25886895927243425,0.27734118433041816
1784201756867035392,3.0293374061584473,1.7965656518936157,0.8070510625839233,-0.2293691337108612,0.26353365182876587,0.019997721537947655,-0.9644429087638855,0.10601893067359924,0.1123264953494072,0.076274573802948,-0.9822236107082155,0.02772430673132308,-0.13042206621315916,-0.13212954392107862,-0.019999054189585686,0.2667381800785405,0.2701194951655886
1784201756876955392,3.039257526397705,1.2326501607894897,0.9476572871208191,-0.3060760796070099,0.2719533443450928,0.006258124019950628,-0.9622901082038879,0.05987954139709473,0.15325725078582764,0.11289435625076294,-0.982045783712037,0.021058325957529548,-0.13568899228133435,-0.1293485780540334,-0.006258164868603331,0.2754278241482327,0.2627864057506215
1784201756886875392,3.049177408218384,0.8758131861686707,0.7218981981277466,-0.14109273254871368,0.2802252769470215,-0.002909142291173339,-0.959929883480072,-0.021619290113449097,0.22741170227527618,0.08189338445663452,-0.9817090555889446,0.016747782059018414,-0.14055098919795458,-0.12732760233649365,0.002909146407872746,0.2840300056176618,0.2575439041721306
1784201756896794368,3.059096336364746,0.7763755321502686,0.8237910866737366,0.031414296478033066,0.28636834025382996,-0.010461556725203991,-0.958062469959259,-0.047400474548339844,0.23453687131404877,-0.029486358165740967,-0.9813717387942479,0.013221882675802737,-0.14420103846987564,-0.1262567914876116,0.010461747744876904,0.29045064550427657,0.2543709835881182
1784201756906714368,3.069016456604004,0.37154069542884827,0.8823928833007812,-0.4034314453601837,0.29533976316452026,-0.015477116219699383,-0.9552669525146484,-0.058935344219207764,0.31680768728256226,-0.0025577545166015625,-0.9809042791130352,0.01101689746760285,-0.1491481333916048,-0.12434000812946773,0.015477734467396172,0.2998481587406723,0.24983821940345505
1784201756916634368,3.0789363384246826,0.3378022313117981,0.7499032020568848,-0.2899421155452728,0.30298441648483276,-0.017725322395563126,-0.9528306722640991,-0.038702189922332764,0.3393195569515228,0.005702376365661621,-0.9805785259296722,0.010026172626481535,-0.15324538909168364,-0.12198808088933993,0.01772625100039082,0.30787268115660893,0.2447860814485334
1784201756926554368,3.0888564586639404,0.26746949553489685,0.31461116671562195,-0.2881292998790741,0.3077457547187805,-0.019869964569807053,-0.9512611031532288,-0.03981667757034302,0.15977780520915985,-0.030580878257751465,-0.9804199634033186,0.008946960731761702,-0.15585052682255457,-0.12003014482498343,0.01987127251208158,0.31288675512224157,0.24050765872331537
1784201756936473344,3.0987753868103027,-0.17099973559379578,0.48425158858299255,-0.2865242063999176,0.31178638339042664,-0.019490933045744896,-0.9499523043632507,-0.14432117342948914,0.016408661380410194,0.03204458951950073,-0.980334446149699,0.00906619693694569,-0.15792927230752402,-0.11798554507802679,0.01949216654854392,0.31713489163269815,0.23643542933501643
1784201756946393600,3.1086955070495605,-0.0792519822716713,0.6953374147415161,-0.18554221093654633,0.31736817955970764,-0.0174784567207098,-0.94814133644104,-0.30264344811439514,-0.23276568949222565,-0.04650282859802246,-0.9800272229707726,0.010217612201643928,-0.16070141540015867,-0.11669322640217474,0.017479347134973046,0.32300402546159473,0.23417902145813455
1784201756956313344,3.1186153888702393,-1.0205954313278198,0.2921712398529053,-0.3453443646430969,0.32202067971229553,-0.012506690807640553,-0.9466500282287598,-0.34167400002479553,-0.4801843464374542,-0.20467138290405273,-0.9798064583260052,0.012785635861494414,-0.16282357212973791,-0.11534444022137762,0.012507016449256747,0.3278896907835151,0.23229559630732705
1784201756966233600,3.128535509109497,-2.7120773792266846,0.2345135509967804,-0.2579894959926605,0.3243490159511566,0.006069847848266363,-0.9459180235862732,-0.14324244856834412,-0.4197356104850769,-0.0800066590309143,-0.9796556137852332,0.0222307494238917,-0.1629318428234093,-0.11503923440606252,-0.006069885298564313,0.3303297608487301,0.23479759849253984
1784201756976152320,3.1384544372558594,-3.833763360977173,0.6654190421104431,-0.8129433393478394,0.3289296627044678,0.03906415402889252,-0.9435461163520813,-0.06789758801460266,-0.006654486060142517,0.0941045880317688,-0.9791289209143439,0.03903550294561599,-0.16341105335142675,-0.11436627250489705,-0.03907409583517521,0.33543602837616643,0.2391708269700529
1784201756986072576,3.148374557495117,-3.8388991355895996,0.4145748019218445,-1.1750322580337524,0.3334091007709503,0.07832349091768265,-0.9395231604576111,-0.09015348553657532,0.5797728300094604,0.042596280574798584,-0.9783536734800559,0.058793760984426756,-0.1636511635808514,-0.11218585816605729,-0.07840379364600543,0.34100721706738124,0.24184460304954983
1784201756995992320,3.158294439315796,-3.907383680343628,0.46188488602638245,-1.4373677968978882,0.33695122599601746,0.11841008812189102,-0.9340465664863586,-0.18532463908195496,0.7993144989013672,-0.15637701749801636,-0.9773997512203855,0.07869568308839406,-0.1636573270375768,-0.10822673008490287,-0.11868855160722264,0.3462136195533067,0.24133714658272504
1784201757005911296,3.168213367462158,-4.033979892730713,0.20133958756923676,-1.6312628984451294,0.337697297334671,0.1605311930179596,-0.9274644255638123,-0.04747512936592102,0.6456669569015503,-0.09208208322525024,-0.9762706121682971,0.09937184484110935,-0.16245928919417207,-0.10309178393665078,-0.16122879675477597,0.34918757297294617,0.2389142510830607
1784201757015831552,3.178133487701416,-4.159853458404541,0.4683622419834137,-1.0864008665084839,0.33779454231262207,0.20227527618408203,-0.9192277193069458,0.10643458366394043,0.12908458709716797,-0.2211531400680542,-0.9745950717247004,0.12012097690717799,-0.16111206584287818,-0.09888564459124134,-0.20368067475966664,0.35215841905960527,0.23859557153650587
1784201757025751296,3.1880533695220947,-4.650139808654785,0.025670021772384644,-1.0480071306228638,0.3373910188674927,0.24620017409324646,-0.9085993766784668,0.19976413249969482,-0.25697287917137146,-0.1752476692199707,-0.9720933500025201,0.14247415406521083,-0.15937829706561826,-0.09661348598839573,-0.24875778350537228,0.35555005245847304,0.2430425746433376
1784201757035671552,3.1979734897613525,-4.641902923583984,-0.0477742925286293,-1.117031216621399,0.3342253267765045,0.2911572754383087,-0.8963932394981384,0.22587904334068298,-0.20462468266487122,-0.16816669702529907,-0.9691718287505067,0.16542815247173104,-0.1563230536644264,-0.09435373341929562,-0.29543630777420893,0.3568894034855075,0.24776228728005845
1784201757045590528,3.207892417907715,-4.952088832855225,0.11092401295900345,-0.8965978622436523,0.33177387714385986,0.33720606565475464,-0.881032407283783,0.24606117606163025,0.23763826489448547,-0.07479333877563477,-0.9653635059541078,0.1894039348607206,-0.15365524989783252,-0.09267902117343722,-0.34394755171154806,0.3601498798120129,0.254640074472062
1784201757055510528,3.2178125381469727,-4.187798023223877,-0.06236320734024048,-1.0781350135803223,0.32883182168006897,0.3803882300853729,-0.8643925189971924,0.33486446738243103,0.5979137420654297,-0.13505816459655762,-0.9612096311102798,0.2121552417836996,-0.1509765025843877,-0.09095154212963852,-0.39021604898837087,0.3635135948289181,0.26129019268918635
1784201757065430528,3.2277324199676514,-3.0352916717529297,0.2722427546977997,-1.3481262922286987,0.32469770312309265,0.41533222794532776,-0.849747359752655,0.28103044629096985,0.8596311211585999,-0.33979731798171997,-0.9577630299287487,0.23031711839806926,-0.14859460088677806,-0.08696891656349064,-0.42830798135327974,0.36499023276795933,0.2613431816274878
1784201757075350528,3.237652540206909,-1.9210846424102783,0.30295395851135254,-1.197390079498291,0.32160046696662903,0.44027474522590637,-0.8382906913757324,0.28251025080680847,0.9101738333702087,-0.3486142158508301,-0.9552253856771353,0.2430875851424829,-0.14752317726159545,-0.08179090835036586,-0.4559046605719429,0.3663224529368464,0.2567242806640503
1784201757085269504,3.2475714683532715,-0.7439751625061035,0.10449574887752533,-1.244970440864563,0.3181751072406769,0.45503902435302734,-0.8316874504089355,0.3095104396343231,0.8677453994750977,-0.35376787185668945,-0.953945805725175,0.2502495612500592,-0.1467358782428152,-0.0763617014285289,-0.47241605112404045,0.3653870727617055,0.24863820745558785
1784201757095189248,3.25749135017395,-0.37153539061546326,0.17071828246116638,-1.613545536994934,0.31192493438720703,0.46372857689857483,-0.8292518854141235,0.19913771748542786,0.7306379079818726,-0.20239484310150146,-0.9538608123306413,0.2535944510632353,-0.14513413273116646,-0.06910522509225421,-0.482199005700259,0.3597804451846913,0.23401401157816093
1784201757105109504,3.267411470413208,-0.6803011894226074,0.28506937623023987,-1.481947898864746,0.3067321181297302,0.4723435342311859,-0.8263213634490967,0.1614380180835724,0.5873335599899292,-0.01178288459777832,-0.953625547937232,0.2569346196651425,-0.14430491019030786,-0.06131214456889299,-0.49194773831069044,0.35543673568833334,0.21853627635638384
1784201757115029248,3.2773313522338867,-1.315900444984436,0.25975796580314636,-1.6052429676055908,0.301764577627182,0.4855023920536041,-0.8205032348632812,0.1605309545993805,0.4299181401729584,0.12787628173828125,-0.9525630374602165,0.26292323171479,-0.14359581758419976,-0.053621051074422665,-0.506937734926439,0.35242572215380175,0.20464789496602195
1784201757124948480,3.287250518798828,-1.7542716264724731,0.2955620288848877,-1.7509857416152954,0.29543226957321167,0.5027257800102234,-0.8123955726623535,0.15206223726272583,0.2906091809272766,0.12465143203735352,-0.9508118413925459,0.2713042851855149,-0.14211334393308955,-0.04641680817896594,-0.5267490803162811,0.3487880605510478,0.1924990617073264
1784201757134868480,3.297170400619507,-2.103626012802124,0.44869014620780945,-1.7898929119110107,0.2899516820907593,0.5234786868095398,-0.8011854290962219,0.14251288771629333,0.26569056510925293,0.14336377382278442,-0.9482198884246448,0.2817567311871621,-0.14149361174319974,-0.038362093110982085,-0.5509286381082924,0.34723952072773384,0.17993417523502606
1784201757144788480,3.3070905208587646,-2.2721543312072754,0.1797146052122116,-1.844722867012024,0.2829428017139435,0.5458658337593079,-0.7886532545089722,0.22045987844467163,0.34428614377975464,0.08603179454803467,-0.9451986145916567,0.2932726727311988,-0.14023025508921105,-0.03043570908130491,-0.5774221385248886,0.3444636777909635,0.16761941256661153
1784201757154707456,3.317009449005127,-2.2743659019470215,0.3013942837715149,-1.848332405090332,0.2743656039237976,0.5688380002975464,-0.7753366231918335,0.2290828824043274,0.5235691666603088,0.0660775899887085,-0.9418922630326763,0.30527390832559537,-0.13834571735679616,-0.022524168179050546,-0.605092335900533,0.3401151464572665,0.15491078627122296
1784201757164627200,3.3269293308258057,-2.1873159408569336,0.3945082426071167,-1.7041735649108887,0.26679253578186035,0.5905665755271912,-0.761612057685852,0.17160773277282715,0.5568485856056213,0.02125561237335205,-0.9383986358477263,0.31680708300148225,-0.1372123920145543,-0.014634607090693417,-0.6317607397685963,0.33694185799179016,0.14224809649778336
1784201757174547456,3.3368494510650635,-2.2080445289611816,0.29247617721557617,-1.4897685050964355,0.2597441077232361,0.6111566424369812,-0.7476767897605896,0.20439773797988892,0.4242590069770813,0.0797232985496521,-0.9347618948788425,0.32802100629146486,-0.1362491308726738,-0.007656686374862989,-0.6575210780440356,0.3343580982744569,0.13139257074382604
1784201757184467200,3.346769332885742,-2.2923576831817627,0.32550498843193054,-1.4587997198104858,0.253106951713562,0.631306529045105,-0.7330682277679443,0.270116925239563,0.20417320728302002,0.09938597679138184,-0.9308770623450711,0.3393019756370168,-0.13542550791761146,-0.0014411145690852044,-0.683236738368687,0.332455404236549,0.12226338272604255
1784201757194386432,3.3566884994506836,-2.580950975418091,0.6436117887496948,-1.2285021543502808,0.2478732019662857,0.6522023677825928,-0.7163735032081604,0.2347012460231781,-0.0045125484466552734,0.1686745285987854,-0.9263725901356007,0.3513536651437598,-0.13551329167076798,0.004551526114464275,-0.7104861798561181,0.3331168540958285,0.11474798529115758
1784201757204306432,3.3666083812713623,-2.9335076808929443,0.6761801242828369,-0.9180524945259094,0.245764821767807,0.6739969849586487,-0.6966546773910522,0.3108757734298706,-0.09132486581802368,0.28109681606292725,-0.9210002574770768,0.36452505672431645,-0.13709170614655136,0.009269838671657241,-0.7396061022175987,0.3391479735409843,0.11241728514828524
1784201757214226432,3.37652850151062,-3.283540725708008,0.9813352227210999,-0.9423704743385315,0.24444080889225006,0.6977645754814148,-0.6733300089836121,0.30908703804016113,-0.060588061809539795,0.42471861839294434,-0.9145970721768526,0.37943445190569003,-0.13915630571096388,0.013313349824086433,-0.7722720240135182,0.34823772497238875,0.11366861316312081
1784201757224146432,3.386448383331299,-2.8883049488067627,1.2108368873596191,-0.7762230634689331,0.24602781236171722,0.7203232049942017,-0.6485404372215271,0.22487367689609528,-0.0038315653800964355,0.4875450134277344,-0.9077191005764033,0.3939705747077964,-0.14323741571658993,0.017781607797095884,-0.8042681759558021,0.362584286633516,0.11643471642217211
1784201757234065408,3.3963675498962402,-2.187641143798828,1.0663621425628662,-0.8095046281814575,0.24756541848182678,0.738160252571106,-0.6275594830513,0.27576524019241333,0.11135756969451904,0.4817464351654053,-0.901825967581687,0.40564625602202176,-0.14721205212752755,0.02212997577416523,-0.8303392095593111,0.37574666804446605,0.11814340168723271
1784201757243985408,3.406287431716919,-1.8301677703857422,1.5718483924865723,-0.6817365288734436,0.24941721558570862,0.7524458169937134,-0.6096034646034241,0.2635069489479065,0.23359239101409912,0.5099788308143616,-0.8966910926580434,0.41494381969723376,-0.15172309161369324,0.02732932714203882,-0.8517676259249662,0.3883664744963518,0.11702193604699393
