time,seconds_elapsed,rotationRateX,rotationRateY,rotationRateZ,gravityX,gravityY,gravityZ,accelerationX,accelerationY,accelerationZ,quaternionW,quaternionX,quaternionY,quaternionZ,pitch,roll,yaw
1784890531829701632,0.393385648727417,-0.10085360705852509,0.08828681707382202,-0.09574063867330551,0.1497565656900406,0.6597217917442322,-0.7364374399185181,0.028344035148620605,-0.005287587642669678,0.038653016090393066,0.9239652933447577,-0.3614281690230242,0.03392594041568287,0.12044411106065352,-0.7204485245465463,0.2006172666771856,0.3350319257835253
1784890531839620864,0.4033048152923584,-0.04108534753322601,0.08687028288841248,-0.13832831382751465,0.149576798081398,0.660220205783844,-0.7360272407531738,0.01878868043422699,0.02140522003173828,0.017124652862548828,0.9239450514434246,-0.36169848387326764,0.03406723987379075,0.1197465352267197,-0.7211118783184619,0.200491531099854,0.3335809823922479
1784890531849540608,0.4132246971130371,-0.06426902860403061,0.06475581228733063,-0.14669519662857056,0.1491638571023941,0.6606737375259399,-0.7357039451599121,0.014288276433944702,0.019654572010040283,0.011460840702056885,0.9239572909747087,-0.3619171399825181,0.034117467373330004,0.11897431993802822,-0.7217159418313696,0.20003822737753446,0.33183024194309
1784890531859459840,0.4231438636779785,-0.08016331493854523,0.06313687562942505,-0.13400444388389587,0.14873529970645905,0.6613403558731079,-0.7351916432380676,-0.0013048797845840454,0.014898598194122314,0.014625847339630127,0.9239127333623325,-0.36226976773114744,0.03412920174441479,0.11824128527401515,-0.7226042732791622,0.19961399396315507,0.330221390996489
1784890531869379840,0.4330637454986572,-0.07623495161533356,0.05789109319448471,-0.1111454963684082,0.14839453995227814,0.6620615720748901,-0.7346111536026001,-0.018740609288215637,0.029573559761047363,0.008353829383850098,0.923838920981458,-0.3626679257492536,0.03415261636853215,0.1175889918293037,-0.7235661786703004,0.199321939000583,0.32885048680641343
1784890531879298560,0.44298267364501953,-0.09338570386171341,0.04633643478155136,-0.07195547968149185,0.14815177023410797,0.6627976894378662,-0.7339960932731628,-0.012333288788795471,0.006925821304321289,-0.006436645984649658,0.9237376610510232,-0.3630897444191467,0.03417293597488434,0.1170759027428603,-0.7245488475840421,0.19916678518213968,0.32783758225921983
1784890531889218816,0.45290279388427734,-0.10592547059059143,0.06084199249744415,-0.03143908083438873,0.14817790687084198,0.6636428236961365,-0.7332267761230469,-0.01158122718334198,-0.037757813930511475,-0.016315460205078125,0.9235705730049714,-0.3636113377773059,0.03425514701053251,0.11675078004504236,-0.7256780803154141,0.19940450959304057,0.3274096579947338
1784890531899138816,0.46282267570495605,-0.1124265119433403,0.06779470294713974,-0.021658888086676598,0.14839933812618256,0.6644373536109924,-0.7324620485305786,-0.020820602774620056,-0.03626352548599243,-0.02083379030227661,0.9233925583384466,-0.36412236221142125,0.03440763931986834,0.11652102358289057,-0.7267406761674604,0.19989762020195978,0.3272783863093087
1784890531909057792,0.47274184226989746,-0.0942031592130661,0.07160770893096924,-0.025898441672325134,0.14868447184562683,0.6651670932769775,-0.7317414879798889,-0.015307411551475525,0.0013214945793151855,-0.018289029598236084,0.9232243393712689,-0.3645992724710456,0.03459241219824052,0.11630763635953603,-0.7277176108217355,0.2004635018427041,0.3271979575786971
1784890531918977792,0.48266172409057617,-0.07504305243492126,0.06906012445688248,-0.025911757722496986,0.14893406629562378,0.665710985660553,-0.731195867061615,0.0017464756965637207,0.004638075828552246,-0.02808135747909546,0.9231063781604255,-0.36495527022529933,0.03478082614899674,0.11607075601220913,-0.728446231266299,0.2009368807434767,0.3269902402683431
1784890531928896768,0.4925806522369385,-0.059357766062021255,0.06111108511686325,-0.060766108334064484,0.14902542531490326,0.6661723852157593,-0.7307569980621338,0.03076888620853424,-0.0021861791610717773,-0.012635946273803711,0.9230264890554978,-0.3652425505380988,0.03491977737430286,0.11576097897496586,-0.729064728321561,0.2011743709885686,0.3265136268034242
1784890531938816768,0.5025007724761963,-0.01226029358804226,0.03805343806743622,-0.08428501337766647,0.1488526612520218,0.6664347052574158,-0.7305529713630676,0.035504043102264404,0.008247852325439453,-0.0024945735931396484,0.923024584180512,-0.3653765795609756,0.03497825947761125,0.11533453186246435,-0.7294165217733366,0.2010019956771629,0.3255785960609158
1784890531948735744,0.5124197006225586,0.06136312708258629,0.02392430230975151,-0.09913011640310287,0.14847244322299957,0.6663030982017517,-0.7307503819465637,0.024287551641464233,0.034868717193603516,0.01312953233718872,0.9231366378319182,-0.3652422023404491,0.03497075608431341,0.11486470693133108,-0.7292399947802048,0.20044952266082802,0.3243133635796452
1784890531958655744,0.5223398208618164,0.11485431343317032,0.0004772990942001343,-0.09850240498781204,0.1479564905166626,0.6657102704048157,-0.7313950657844543,0.0028308480978012085,0.04034435749053955,0.016246140003204346,0.9233705114426255,-0.3648049873293388,0.034925653424808745,0.11438694948480592,-0.7284452338813545,0.19959991682867914,0.3228140846536234
1784890531968574720,0.5322587490081787,0.08095307648181915,0.007546583656221628,-0.09270430356264114,0.14734920859336853,0.6651008129119873,-0.7320717573165894,-0.00609859824180603,0.013945817947387695,0.019760966300964355,0.9236095570925915,-0.36435081149178716,0.03482233050594625,0.11393516387511653,-0.7276288040717985,0.19862314381295257,0.3213187735400219
1784890531978494720,0.5421786308288574,0.029081089422106743,0.027714435011148453,-0.10100804269313812,0.1468912661075592,0.6648566126823425,-0.7323855757713318,-0.018732696771621704,-0.015976667404174805,0.011865556240081787,0.9237523797204606,-0.3641394354417829,0.03478066243711612,0.1134645380113401,-0.72730182157514,0.19793923774843325,0.3199777237412399
1784890531988413696,0.5520977973937988,0.0014127744361758232,0.04577808827161789,-0.09119812399148941,0.1465260237455368,0.6649303436279297,-0.7323918342590332,-0.011775672435760498,-0.026929855346679688,-0.005599498748779297,0.923817272899348,-0.36413480361023837,0.03478405507519638,0.11294966306071118,-0.7274005598489274,0.19745813437189194,0.3186891329103453
1784890531998333696,0.5620176792144775,-0.02348245680332184,0.03929169103503227,-0.07646871358156204,0.1462778002023697,0.6651196479797363,-0.7322695851325989,0.010201051831245422,-0.03485536575317383,-0.016845405101776123,0.9238414308438228,-0.36421491719951776,0.034824000061923474,0.11248041881586172,-0.72765400258088,0.19716429722522139,0.3175977536641034
1784890532008252928,0.571936845779419,-0.062401093542575836,0.029497500509023666,-0.05038091540336609,0.14612649381160736,0.6654919385910034,-0.7319614887237549,0.02779315412044525,-0.04807555675506592,-0.007921934127807617,0.9237999467502187,-0.36442346063679315,0.034853980319721554,0.11213642235176502,-0.7281527113673433,0.19704636825552,0.31688574765099436
1784890532018172672,0.5818567276000977,-0.07724794745445251,0.028393086045980453,-0.024424947798252106,0.1461070477962494,0.6660218238830566,-0.7314832210540771,0.02006116509437561,-0.03963327407836914,0.0076978206634521484,0.9236955423174207,-0.3647479998004613,0.034889705826739684,0.11192948215512852,-0.7288628508197722,0.19714631584683476,0.3165899165677424
1784890532028091648,0.59177565574646,-0.041900210082530975,0.038255684077739716,-0.013759586960077286,0.14628800749778748,0.666418194770813,-0.7310858964920044,-0.005327314138412476,-0.005895733833312988,0.019019246101379395,0.92360293628143,-0.3650088511708479,0.03500838288359334,0.11180594226599916,-0.7293943568437479,0.19748871097708756,0.31654214485313675
1784890532038011904,0.6016957759857178,-0.0077017610892653465,0.031324807554483414,-0.03178412467241287,0.1464330106973648,0.6665913462638855,-0.7308989763259888,-0.002832561731338501,0.021885156631469727,0.034381091594696045,0.9235697027041044,-0.36512509518866426,0.03513068613586787,0.11166273893337007,-0.7296266450200551,0.19772865107492035,0.3163638420219393
1784890532047930624,0.6116147041320801,0.06383926421403885,0.034425411373376846,-0.04241533577442169,0.14644433557987213,0.6664196252822876,-0.731053352355957,-0.004034087061882019,0.0389636754989624,0.03835010528564453,0.9236393353532827,-0.36500892246901,0.03523914940510556,0.1114326264087247,-0.7293962509514906,0.1977028679127418,0.315818713052235
1784890532057850880,0.6215348243713379,0.1159466803073883,0.03527655825018883,-0.06624636054039001,0.1463799625635147,0.6658284068107605,-0.7316046953201294,0.01032780110836029,0.03603005409240723,0.030158162117004395,0.9238270988799201,-0.36461836946112014,0.035370730080437486,0.11111217664608662,-0.728603599553133,0.19747312367877645,0.3149082642240927
1784890532067769856,0.6314537525177002,0.0929606631398201,0.025237351655960083,-0.07868825644254684,0.14611561596393585,0.6651442646980286,-0.7322795987129211,0.033663421869277954,0.012681663036346436,0.03350329399108887,0.9240581342189471,-0.3641491865614618,0.03543423384846353,0.11070879361583881,-0.7276870120203099,0.1969486859731819,0.31368310844829556
1784890532077689600,0.6413736343383789,0.05537308007478714,0.036676693707704544,-0.08956700563430786,0.14584848284721375,0.6647778749465942,-0.732665479183197,0.04374194145202637,-0.012922406196594238,0.02824348211288452,0.9242157730534512,-0.36387858927431976,0.03549145425419722,0.1102633619431848,-0.7271964044205749,0.19649692115603515,0.3124637355569113
1784890532087609856,0.6512937545776367,0.06141345947980881,0.046165578067302704,-0.11205402761697769,0.14553067088127136,0.664589524269104,-0.7328994274139404,0.06118014454841614,-0.039040207862854004,0.02461695671081543,0.9243430830920015,-0.3637124454036756,0.03554636887737689,0.10972486389619117,-0.7269443395684756,0.1960186579770439,0.3110706064624262
1784890532097528576,0.661212682723999,0.12207867205142975,0.055382244288921356,-0.15123818814754486,0.1451461762189865,0.664101243019104,-0.7334181666374207,0.06486053764820099,-0.019661545753479004,0.05434095859527588,0.9245660708271348,-0.36334577145202424,0.03564796532510193,0.10902613898755134,-0.7262910293598106,0.1953790856569525,0.3092050980919145
1784890532107448832,0.6711328029632568,0.13367687165737152,0.04068749025464058,-0.16196319460868835,0.14449350535869598,0.6634296178817749,-0.7341545224189758,0.08541065454483032,0.0394970178604126,0.10431742668151855,0.9248635461193456,-0.36283638912616095,0.03567219983956556,0.10818880436093814,-0.7253931095897289,0.19433235596373175,0.30684320284655286
1784890532117367808,0.6810517311096191,0.1912301778793335,0.0705665647983551,0.03505079448223114,0.1446933150291443,0.6624255776405334,-0.7350212931632996,0.16739468276500702,0.010731160640716553,0.11687248945236206,0.9251388908834487,-0.3622081453337886,0.035980791655642205,0.10783696901390029,-0.7240519964224795,0.194370619429025,0.30588942988380385
1784890532127287808,0.690971851348877,0.13495279848575592,0.04660964012145996,0.28962117433547974,0.1464928686618805,0.6609748005867004,-0.7359701991081238,0.2643042802810669,-0.05295783281326294,0.13805454969406128,0.9253148933635119,-0.36147384036355096,0.03676361631297363,0.10852378647433276,-0.722117048603647,0.19647931136611635,0.30789762507044216
1784890532137206784,0.7008907794952393,0.31725069880485535,0.11158544570207596,0.2608550190925598,0.1490728259086609,0.6591193675994873,-0.7371153235435486,0.3105981647968292,-0.1648261547088623,0.21013784408569336,0.925489228865247,-0.36057281928697177,0.037809675299819274,0.10966984713567325,-0.7196471527190745,0.1995466765069829,0.3111828711944733
1784890532147126784,0.710810661315918,0.6703042387962341,0.1800236999988556,0.24474364519119263,0.15204405784606934,0.6550629138946533,-0.7401183247566223,0.24828553199768066,-0.2457154393196106,0.22220450639724731,0.9262007194381395,-0.3583212680236062,0.03932811962174318,0.11050500775675604,-0.7142658973499028,0.20261322253504083,0.31332237671885915
1784890532157044224,0.7207281589508057,0.8280608057975769,0.2602122724056244,0.30772659182548523,0.15548953413963318,0.6490878462791443,-0.7446528673171997,0.16589106619358063,-0.16733741760253906,0.3040706515312195,0.927337138435042,-0.35492359564206033,0.04126494101609457,0.11123029001970021,-0.7063847380321082,0.205850335484293,0.31487033050782476
1784890532166964224,0.7306482791900635,0.8170358538627625,0.4357585310935974,0.3953011631965637,0.16056601703166962,0.6423032879829407,-0.7494431138038635,0.06128153204917908,-0.23606854677200317,0.2688828110694885,0.9285182406095642,-0.3511953170730177,0.04404878299546291,0.11213963192545985,-0.6974996302854711,0.21105642878218475,0.3173719228102835
1784890532176883200,0.7405672073364258,0.49016472697257996,0.5470073223114014,0.39736616611480713,0.16696321964263916,0.636669397354126,-0.7528449296951294,0.05871424078941345,-0.4098169207572937,0.2671424150466919,0.9293280719833776,-0.3483158304241507,0.047472392066081136,0.11301291149411434,-0.6901714095113658,0.21824405310373593,0.32075012847336837
1784890532186803200,0.7504870891571045,0.11735395342111588,0.6431030035018921,0.3841637074947357,0.173995241522789,0.633842408657074,-0.753637433052063,0.026596799492836,-0.22830963134765625,0.24603861570358276,0.9294557829660746,-0.34722914428806706,0.051119501052447426,0.11371253188616086,-0.6865109748430539,0.22689825803066885,0.3248753545369552
1784890532196722176,0.7604062557220459,-0.1323445588350296,0.6070004105567932,0.4510266184806824,0.1814986914396286,0.6331489682197571,-0.7524497509002686,0.003666713833808899,0.10366743803024292,-0.008322954177856445,0.9290299434775454,-0.34751934522670724,0.05482190379184977,0.11457824956865482,-0.6856147418752211,0.23668914054505377,0.3302425232360497
1784890532206642176,0.7703261375427246,-0.4627220034599304,0.42919787764549255,0.36416587233543396,0.18816854059696198,0.6346251964569092,-0.7495622038841248,0.058978065848350525,0.38861387968063354,-0.25989830493927,0.9281156784569365,-0.349100701647389,0.0578585229266999,0.11568256535019371,-0.6875234779226473,0.2459552935632713,0.3364404928764741
1784890532216561152,0.7802450656890869,-0.4754210412502289,0.15295828878879547,0.21637721359729767,0.19235458970069885,0.6378492712974548,-0.7457533478736877,0.0039649903774261475,0.7554155588150024,-0.33865827322006226,0.9269623412312558,-0.35154385981501624,0.05949993429733976,0.11669409975464612,-0.6917024360104255,0.2524312035592291,0.34184189205536875
1784890532226481152,0.7901651859283447,0.12478657811880112,-0.14710569381713867,0.09481818974018097,0.19347074627876282,0.6390749216079712,-0.7444140911102295,-0.16136625409126282,1.0216153860092163,-0.281388521194458,0.9265046122400222,-0.3524566891982878,0.059726341191273825,0.11745738604830344,-0.6932948942837911,0.2542712691396002,0.3444880445662679
1784890532236400128,0.800084114074707,0.7825031876564026,-0.3165690302848816,0.0959433764219284,0.19275489449501038,0.6357068419456482,-0.7474772930145264,-0.2881986200809479,0.952366828918457,-0.06703680753707886,0.9272315614376858,-0.35035558766600144,0.059264792065544435,0.11823776391454095,-0.6889238588581358,0.25237556474142586,0.34462936137552863
1784890532246320128,0.8100042343139648,1.0089954137802124,-0.4291580319404602,0.009173160418868065,0.19091787934303284,0.6295408010482788,-0.7531458735466003,-0.3820189833641052,0.4685884714126587,0.08302563428878784,0.9286731184929023,-0.34642829517657014,0.05843363224006041,0.11890829913020737,-0.6809620577708776,0.24826432134203746,0.3430479741878921
1784890532256240128,0.8199241161346436,0.9076547026634216,-0.448075532913208,-0.1820138543844223,0.18716546893119812,0.6229892373085022,-0.7595087289810181,-0.4196484088897705,-0.1346164345741272,-0.09168756008148193,0.9303768035626048,-0.34207357640932473,0.056844527242985304,0.11896828036136657,-0.6725583590936931,0.24161551782967058,0.3391823404661989
1784890532266159104,0.8298430442810059,0.7846248149871826,-0.3538108170032501,-0.2889661490917206,0.1826314926147461,0.6177592277526855,-0.764865517616272,-0.3924398422241211,-0.4299235939979553,-0.31483107805252075,0.9318930368593009,-0.3384399597089409,0.05500568031411145,0.11835581860114211,-0.6658899426027656,0.23438727815283003,0.33404256299501717
1784890532276079104,0.8397631645202637,0.9827362895011902,-0.3121054470539093,-0.4174732565879822,0.17766717076301575,0.6125324368476868,-0.7702196836471558,-0.24810174107551575,-0.39707839488983154,-0.38783085346221924,0.9335190173223511,-0.33474359536847437,0.053262352273121566,0.11684216013042657,-0.6592604528029933,0.22670536002464942,0.3268843375349677
1784890532285998080,0.849682092666626,0.8727096319198608,-0.2664441764354706,-0.07279098778963089,0.17345573008060455,0.606095016002655,-0.7762486338615417,0.11286018788814545,-0.47403019666671753,-0.20708876848220825,0.9352685248961714,-0.3304370473772103,0.05183659365488023,0.11574588444253238,-0.6511418194345658,0.21984227873512305,0.32074261729889975
1784890532295918336,0.8596022129058838,0.2480926513671875,-0.015191446989774704,0.2664845585823059,0.172763392329216,0.6016219258308411,-0.779874324798584,0.2886165976524353,-0.6468489766120911,0.056195735931396484,0.9361615199045124,-0.3277295324636668,0.051538317364347074,0.11635663814431028,-0.645530033597355,0.21800655744350633,0.3204862632413672
1784890532305837056,0.8695211410522461,-0.15043701231479645,0.16216647624969482,0.07640323042869568,0.1746385097503662,0.6012065410614014,-0.7797769904136658,0.0668623298406601,-0.5605113506317139,0.07378333806991577,0.9360376199156455,-0.3276867268795851,0.052277270162487746,0.11714164661890328,-0.6450101092685715,0.22032391198214046,0.3228898092687862
1784890532315757312,0.8794412612915039,0.2352267950773239,0.10368319600820541,-0.21491090953350067,0.17534108459949493,0.6012285351753235,-0.7796023488044739,-0.11537404358386993,0.02339005470275879,-0.03710907697677612,0.9360654717622996,-0.327727309402319,0.05285494870864788,0.11654461377924187,-0.6450376420018316,0.22122966908476027,0.3219357876854751
1784890532325676288,0.8893601894378662,0.914118766784668,-0.0519585907459259,-0.29533651471138,0.17396977543830872,0.5972839593887329,-0.7829344868659973,-0.048466235399246216,0.5390533208847046,0.0056975483894348145,0.9371304182511287,-0.32517249849953644,0.05287353461382198,0.11512502321366341,-0.6401103453276389,0.21864988545388658,0.31720165427837127
1784890532335596032,0.8992800712585449,1.4903295040130615,-0.2251167893409729,-0.49576443433761597,0.1705668419599533,0.5884084105491638,-0.7903685569763184,-0.026294991374015808,0.7411050796508789,0.030908167362213135,0.9393390190593113,-0.319505370107078,0.052269022245533474,0.11325346769000816,-0.6290890313206599,0.21254711523187086,0.3093609799318601
1784890532345515264,0.9091992378234863,1.93672513961792,-0.3214319050312042,-0.6985601186752319,0.16482529044151306,0.5760608911514282,-0.8006163239479065,-0.08412155508995056,0.6189159154891968,0.066226065158844,0.9423976066232012,-0.3116044916813061,0.050936008886633743,0.1104306079035613,-0.6139013981780576,0.2030362535119455,0.2978527144342337
1784890532355435008,0.919119119644165,2.4424750804901123,-0.4516521990299225,-1.0464065074920654,0.1568600833415985,0.5603237748146057,-0.8132848143577576,-0.1056058257818222,0.4875277876853943,0.09317678213119507,0.9462123512220088,-0.3015951224353091,0.048969018104212114,0.10641734571802429,-0.5947766263635567,0.19053266446540335,0.2825465270028418
1784890532365353984,0.9290380477905273,3.262662172317505,-0.7547193765640259,-1.4472980499267578,0.14506827294826508,0.5392505526542664,-0.8295565247535706,-0.15400992333889008,0.6612040996551514,-0.011523187160491943,0.9511240064539273,-0.2883229713527558,0.04573410297248422,0.10070420256030799,-0.5695469457998188,0.1731238884770374,0.2617668054970364
1784890532375274240,0.9389581680297852,3.9873039722442627,-1.1792148351669312,-1.6745802164077759,0.1286967694759369,0.511191725730896,-0.8497765064239502,-0.036625251173973083,0.6012960076332092,-0.10252445936203003,0.9571293534576384,-0.2710293211844938,0.04067978635104917,0.09376317205883516,-0.5365707842355538,0.15030557340002934,0.23669564703970614
1784890532385193216,0.9488770961761475,4.3888020515441895,-1.4365900754928589,-1.6573394536972046,0.1091572567820549,0.4772509038448334,-0.8719611763954163,0.1620677262544632,0.15757575631141663,-0.12481921911239624,0.9635649598657458,-0.2507157317222784,0.03407409526306798,0.08673577744449058,-0.4975236868773102,0.12453804642755345,0.21122097027879008
1784890532395113216,0.9587972164154053,4.329254627227783,-1.2789819240570068,-1.530781626701355,0.08960187435150146,0.4406481981277466,-0.8931968808174133,0.18861162662506104,-0.15762817859649658,-0.02280348539352417,0.9696413770283911,-0.22947193350915648,0.027279933105048882,0.07996266379264888,-0.4563206414277077,0.09998144784245493,0.1877944539057171
1784890532405032192,0.9687161445617676,3.427133083343506,-0.49113160371780396,-1.4018843173980713,0.07535658031702042,0.4067833721637726,-0.9104112386703491,0.03259934484958649,-0.515975296497345,0.2020372748374939,0.9745750856443941,-0.21041704960527977,0.02278233651839712,0.0735453330276666,-0.4189301582551744,0.08258376386419224,0.1682079139543471
1784890532414952192,0.9786362648010254,2.0745866298675537,0.3640917241573334,-1.6379002332687378,0.06891685724258423,0.3831629157066345,-0.921106219291687,-0.35036522150039673,-0.8007349371910095,0.3859652280807495,0.9778584987452406,-0.19739789713575603,0.02193110700045822,0.06592223213840812,-0.3932181394706963,0.07468052106719729,0.14950775383886458
1784890532424872192,0.9885561466217041,1.1286309957504272,0.9072538614273071,-1.6187995672225952,0.06866026669740677,0.36999160051345825,-0.9264944195747375,-0.28715085983276367,-0.707058310508728,0.3358725309371948,0.9797924404192272,-0.1902064143397231,0.02396450900627915,0.057042709156493523,-0.37899999275808294,0.07397236785689122,0.1305012894148206
1784890532434791168,0.9984750747680664,0.5653785467147827,1.2347605228424072,-1.3803189992904663,0.07279597222805023,0.36377981305122375,-0.9286360740661621,0.06734074652194977,-0.45405080914497375,0.20308071374893188,0.9807918450077883,-0.18683291758370996,0.027846253672480167,0.048634930542445394,-0.37232251896196594,0.07823021937791771,0.11383494495922793
1784890532444711168,1.0083951950073242,0.3129730820655823,1.228438138961792,-1.334389328956604,0.07937582582235336,0.3610868453979492,-0.9291478991508484,0.08844034373760223,-0.25712868571281433,0.09125727415084839,0.9812772462420861,-0.18535072556256876,0.03272873920076479,0.04085198270894501,-0.36943309340326325,0.08522170728863758,0.0991475041261293
1784890532454630144,1.0183141231536865,0.5929746031761169,1.0329933166503906,-1.389173150062561,0.08493606746196747,0.3581070899963379,-0.9298092126846313,0.06154830753803253,0.01349020004272461,-0.08799779415130615,0.9817358394843633,-0.18363618141738322,0.037055957934563795,0.03315725472678575,-0.3662397435449162,0.09109502656500013,0.08440413504810505
1784890532464550144,1.0282342433929443,0.9023860692977905,0.8510286211967468,-1.6400576829910278,0.08812296390533447,0.35246559977531433,-0.9316664338111877,-0.04127848893404007,0.21119406819343567,-0.17940229177474976,0.9824548519444016,-0.180397736088343,0.04029190693846344,0.024814631194355657,-0.36020448693117096,0.09430581996584064,0.06768789188417859
1784890532474469120,1.0381531715393066,0.9652686715126038,0.9011751413345337,-1.7853338718414307,0.08999963849782944,0.3449999690055847,-0.9342778325080872,-0.14923426508903503,0.13256961107254028,-0.11201733350753784,0.9833086816716553,-0.17610939570416181,0.04297157486352106,0.015589714286157548,-0.3522387491826199,0.09603437404212367,0.04880934922876676
1784890532484389120,1.0480730533599854,0.6900893449783325,1.0877189636230469,-1.9309529066085815,0.09245028346776962,0.33873817324638367,-0.9363276362419128,-0.20965304970741272,-0.07790443301200867,0.009371459484100342,0.9839372748970832,-0.1723956933044072,0.0459991138394048,0.005597006608444372,-0.3455754707976995,0.0984181133829248,0.028566811095584607
1784890532494308352,1.0579922199249268,0.13339917361736298,1.3451608419418335,-1.92485511302948,0.09700340032577515,0.33672669529914856,-0.9365924596786499,-0.21171897649765015,-0.35157352685928345,0.09444469213485718,0.9840079717286241,-0.1708467899201292,0.050151113013419034,-0.004959969129497375,-0.3434384216014056,0.10320258865066498,0.007832488739975116
1784890532504228096,1.0679121017456055,-0.5331962704658508,1.3569706678390503,-2.04436993598938,0.10289862751960754,0.3403681516647339,-0.9346450567245483,-0.06745246052742004,-0.3365992307662964,0.15301358699798584,0.9833946557226191,-0.17215826830783804,0.05512713252195414,-0.01604577576003245,-0.34730840465887325,0.10965220736758777,-0.013376534800220162
1784890532514147328,1.0778312683105469,-1.3083600997924805,1.566037893295288,-1.575831651687622,0.11014974117279053,0.35062602162361145,-0.9300152659416199,0.2921024560928345,-0.40777018666267395,0.15264099836349487,0.9820109148722045,-0.17693329699873356,0.06072039955018651,-0.025734133193872747,-0.35823948884963175,0.11788944186266627,-0.031030068211965606
1784890532524067072,1.0877511501312256,-2.378875255584717,1.866866111755371,-1.3848835229873657,0.12066250294446945,0.3693094849586487,-0.9214397072792053,0.21805208921432495,-0.533265233039856,0.2681651711463928,0.9795781059826663,-0.18615292782022824,0.06802387840164754,-0.03386168433965618,-0.37826585258059936,0.1302090750775681,-0.04414901763197588
1784890532533986048,1.097670078277588,-3.378474712371826,2.1293787956237793,-1.2783530950546265,0.1339215487241745,0.3971468508243561,-0.907931387424469,0.0836840569972992,-0.666113555431366,0.2924070954322815,0.9758399994876752,-0.20023098846130089,0.077083483554078,-0.04125422110153221,-0.4084059148912909,0.14644586598992884,-0.05412149785544773
1784890532543906304,1.1075901985168457,-3.8990097045898438,2.1073966026306152,-1.448708176612854,0.14752547442913055,0.4319750964641571,-0.8897380232810974,0.05949053168296814,-0.4841906726360321,0.1753062605857849,0.9708370150618922,-0.2181437363431834,0.08685797048147718,-0.04841852208083701,-0.44668159529229085,0.1643128738190725,-0.0622631325962699
1784890532553825024,1.117509126663208,-3.528095006942749,1.9151002168655396,-1.6974998712539673,0.15793368220329285,0.4672639071941376,-0.8698973059654236,-0.06497715413570404,-0.16280531883239746,-0.006597995758056641,0.9652681257588231,-0.23642613527603992,0.09567664075702714,-0.056621353466131556,-0.4861935226663879,0.17959814801490506,-0.0725297702277334
1784890532563745280,1.1274292469024658,-2.0834319591522217,1.875568151473999,-1.5248403549194336,0.16631664335727692,0.4945898652076721,-0.8530648350715637,-0.009242668747901917,0.3943414092063904,-0.2690664529800415,0.9603490625058295,-0.2504612162834203,0.10361829480719476,-0.06528519518436464,-0.5173628803174541,0.19254826750548046,-0.0846554251542616
1784890532573664256,1.1373481750488281,0.14918400347232819,1.768578290939331,-1.221526026725769,0.17480428516864777,0.5050007104873657,-0.845232367515564,0.08924907445907593,0.9029124975204468,-0.558362603187561,0.9577059525315885,-0.25513232766303945,0.11086620488831075,-0.0735895955676412,-0.5293827718522118,0.2039369928745203,-0.09792194858091981
1784890532583584000,1.1472680568695068,2.1587324142456055,1.6421339511871338,-1.0763705968856812,0.18345654010772705,0.4969336986541748,-0.8481748700141907,0.08294665813446045,1.2469322681427002,-0.6361848711967468,0.9578092000832188,-0.24941553609147044,0.11706604810250917,-0.08178587465072402,-0.5200617082448971,0.21301424266127944,-0.11349035342727072
1784890532593504256,1.1571881771087646,3.614079236984253,1.649823546409607,-1.5204333066940308,0.1912868171930313,0.47417253255844116,-0.8594008088111877,-0.010851636528968811,0.9414769411087036,-0.493733286857605,0.959869604518512,-0.2353787245293764,0.12205096149786213,-0.09138294557091664,-0.49402393582740306,0.21901138618441002,-0.13440101611817715
1784890532603423232,1.167107105255127,4.505110740661621,1.4575707912445068,-2.0158421993255615,0.19597190618515015,0.44173088669776917,-0.8754820823669434,-0.12497277557849884,0.44318732619285583,-0.23169565200805664,0.9627063597780797,-0.21581741738426816,0.12522700383969057,-0.10458323030901132,-0.45752708452903734,0.22021440591108712,-0.16494910167870647
1784890532613343232,1.1770272254943848,3.1053028106689453,1.7833003997802734,-1.5400727987289429,0.20245902240276337,0.41159185767173767,-0.8885958194732666,-0.11554495990276337,0.16078057885169983,0.0716707706451416,0.9646713035479287,-0.19768520530812356,0.12892890280496,-0.11707755554108763,-0.4242000351770994,0.2240173987016937,-0.1931161764541149
1784890532623262208,1.186946153640747,1.4969220161437988,2.24153995513916,-1.6285886764526367,0.2140856832265854,0.3942246437072754,-0.8937305212020874,-0.15315735340118408,-0.6197648048400879,0.3286213278770447,0.9646192887192445,-0.18634183540616853,0.13568879970685668,-0.12796477460664837,-0.4052240014990646,0.2351115453371573,-0.21526316815689311
1784890532633182208,1.1968662738800049,-0.12149850279092789,2.75003719329834,-1.902708649635315,0.22937162220478058,0.3922557830810547,-0.8907997012138367,-0.019609034061431885,-0.9868450164794922,0.40232008695602417,0.9623023550683899,-0.18274925709943043,0.1456120534097953,-0.1391907870227252,-0.4030826471715522,0.25201514534626696,-0.23554129236420313
1784890532643101184,1.2067852020263672,-0.8085082769393921,2.993486166000366,-2.1708967685699463,0.24654342234134674,0.401285856962204,-0.8821485042572021,-0.023993998765945435,-0.7159373760223389,0.2921522259712219,0.9582565713963179,-0.184519105605518,0.15772901305621456,-0.15105835391792974,-0.41292026585721986,0.27252702519608063,-0.25528475803555806
1784890532653021184,1.216705083847046,-0.6306032538414001,2.8767988681793213,-2.5270650386810303,0.26247408986091614,0.41384729743003845,-0.8716867566108704,-0.19815826416015625,-0.17759543657302856,0.12241917848587036,0.953340073387898,-0.18775547770407425,0.17001325938924472,-0.16427438476482845,-0.4266762044466494,0.2924753361663661,-0.27748347987804783
1784890532662940160,1.2266242504119873,-0.11944014579057693,2.6630303859710693,-2.641373872756958,0.2753292918205261,0.4241899251937866,-0.8627031445503235,-0.20916718244552612,0.15605604648590088,-0.020002543926239014,0.9483503220016635,-0.18953160504811162,0.18090385027770442,-0.1788386914904287,-0.43806716305796134,0.30892915854685465,-0.3034860830499261
1784890532672860160,1.236544132232666,0.28456830978393555,2.517080068588257,-2.634572982788086,0.2861579358577728,0.43036025762557983,-0.856097936630249,-0.04026255011558533,0.18760544061660767,-0.09125924110412598,0.9436796581237925,-0.1889420092414943,0.19039943387446143,-0.19369489510510837,-0.444891847426504,0.32258289427034137,-0.3313155722286978
1784890532682779136,1.2464630603790283,0.4052127003669739,2.498324155807495,-2.7653095722198486,0.29572978615760803,0.43492236733436584,-0.8505212664604187,0.06523212790489197,0.047575801610946655,-0.0936163067817688,0.9389342212835585,-0.1872815575219713,0.19916068030225112,-0.20895752819872762,-0.44995206833862816,0.33462805010595925,-0.36069406297068324
1784890532692699136,1.2563831806182861,0.36379122734069824,2.50520396232605,-3.059763193130493,0.3040492832660675,0.44021329283714294,-0.8448469042778015,0.12012976408004761,-0.14976221323013306,-0.08285695314407349,0.9336646030085213,-0.18568147832132026,0.2076028256057136,-0.22515310304506606,-0.45583620257329627,0.3454554129547502,-0.3923737410701324
1784890532702618112,1.2663021087646484,0.37646886706352234,2.5062053203582764,-3.196463108062744,0.3110801577568054,0.4465029835700989,-0.8389661908149719,0.14457783102989197,-0.2946780025959015,-0.10701769590377808,0.9277513833091301,-0.18425357419907493,0.21579510150880163,-0.24240577700871688,-0.46285326901004503,0.35507447931078745,-0.42662633508432546
1784890532712538368,1.2762222290039062,0.5731944441795349,2.546295642852783,-3.0162506103515625,0.31800127029418945,0.4523046314716339,-0.8332440853118896,0.14046430587768555,-0.2251012623310089,-0.02121758460998535,0.9215797777518726,-0.18237087964153453,0.2238723265919326,-0.25944698772616964,-0.46934771336587516,0.3645813829176448,-0.4607578074902339
1784890532722457088,1.2861411571502686,1.285136342048645,2.559079885482788,-2.8610312938690186,0.32598933577537537,0.45408615469932556,-0.8291783332824707,0.07281437516212463,-0.12438949942588806,-0.0924067497253418,0.9156250106929072,-0.17809829455964446,0.2317149687844926,-0.2760798271374241,-0.47134626611075336,0.374585081938013,-0.4947474172060207
1784890532732377344,1.2960612773895264,2.2442433834075928,2.3635425567626953,-3.283984899520874,0.332457035779953,0.44957077503204346,-0.8290708661079407,0.08427572250366211,-0.08062851428985596,-0.2639009952545166,0.9099874436014095,-0.1702223421198227,0.23767400625570134,-0.29403802000286144,-0.4662847589598137,0.3813677686205917,-0.5334574760844892
1784890532742296320,1.3059802055358887,3.9955642223358154,2.677950382232666,-4.088698863983154,0.3375365436077118,0.4349769055843353,-0.8347839117050171,0.3611481487751007,-0.17869028449058533,-0.5944458246231079,0.904205168244602,-0.15624403650656812,0.24123814990832793,-0.3159192807763066,-0.4500126183829507,0.3842421786421502,-0.5832750721379493
1784890532752216064,1.3159000873565674,5.638659954071045,0.9840155839920044,-3.5497047901153564,0.3360649049282074,0.40571126341819763,-0.8499757051467896,1.0145362615585327,-0.730082631111145,-0.533370852470398,0.8994714178217709,-0.13540513173021362,0.23807055268111446,-0.3404981760284669,-0.41775688948666534,0.37651882338699055,-0.643041714753544
1784890532762135296,1.3258192539215088,5.30825138092041,0.144082173705101,-2.906264543533325,0.3285638391971588,0.3687474727630615,-0.8695235252380371,1.272159457206726,-0.916797399520874,-0.9597764015197754,0.8966883049057311,-0.11332419456069084,0.22890145381785465,-0.3615409918385393,-0.3776611796294538,0.3612814221002619,-0.6967406159318231
1784890532772055040,1.3357391357421875,4.637124538421631,-0.5651764869689941,-2.716977834701538,0.31701698899269104,0.33447813987731934,-0.8874821662902832,0.9266963601112366,-0.9444787502288818,-1.4706721305847168,0.8943602929676281,-0.09478371926549374,0.21742804744529592,-0.379289939647362,-0.341051412690745,0.34308297908756946,-0.7425536865996417
1784890532781975296,1.3456592559814453,3.8333704471588135,-1.0837818384170532,-2.7642300128936768,0.30118536949157715,0.3052178919315338,-0.9033988118171692,0.48415398597717285,-0.5816308856010437,-1.6074501276016235,0.8917870093724437,-0.08042053991830603,0.20453147933874907,-0.3954939299121418,-0.31016724234990706,0.32180277759379944,-0.7841072278441091
1784890532791894272,1.3555781841278076,2.6805953979492188,-1.1224967241287231,-2.902172803878784,0.282456636428833,0.28424006700515747,-0.9162018299102783,0.2875354290008545,-0.31166011095046997,-1.3138549327850342,0.8884826435279665,-0.07124970092488858,0.19189203808499466,-0.4107304957414104,-0.28821371080259856,0.29904560901789856,-0.8223282536253771
1784890532801814016,1.3654980659484863,1.7459014654159546,-0.8876755833625793,-2.9108099937438965,0.2652328908443451,0.27206945419311523,-0.9250025749206543,0.3606368601322174,-0.18524694442749023,-1.0598301887512207,0.8840937845634752,-0.0663539569842719,0.18192271056536344,-0.42529932159272865,-0.2755429572819942,0.27924536187151633,-0.8577911344833683
1784890532811733248,1.3754172325134277,1.347652792930603,-0.9937273859977722,-2.699369192123413,0.24941691756248474,0.26518121361732483,-0.9313807487487793,0.7628511190414429,0.19809085130691528,-0.7201084494590759,0.8794135164211173,-0.06411127786372992,0.17377964621993994,-0.43854550099922607,-0.26839185867050935,0.2616533194487155,-0.8896569320866963
1784890532821653248,1.3853371143341064,1.633927822113037,-1.224135160446167,-2.2721948623657227,0.23349155485630035,0.25643616914749146,-0.9379350543022156,1.0432876348495483,0.34440916776657104,-0.5324628949165344,0.8752608664486158,-0.061548630746997894,0.1650582666543562,-0.4504286340135716,-0.25933325065959967,0.2439827708742318,-0.9185826086935337
1784890532831571968,1.3952560424804688,1.26978600025177,-0.9537015557289124,-1.6838592290878296,0.21826209127902985,0.24777743220329285,-0.9439110159873962,1.0188289880752563,0.26291897892951965,-0.19059520959854126,0.8720544339725212,-0.05952129121513366,0.1565302082961297,-0.45986595490125914,-0.2503854820991785,0.22723783302082168,-0.9418337557222193
1784890532841492224,1.4051761627197266,0.8712045550346375,-0.8497986197471619,-0.9858556985855103,0.20642316341400146,0.24122121930122375,-0.9482625126838684,0.7941261529922485,-0.15728262066841125,0.12346392869949341,0.869889627104372,-0.058299886990847975,0.14989952051438907,-0.4662866176235912,-0.24362402894675855,0.21434174951051282,-0.9577695577210643
1784890532851411200,1.4150950908660889,1.8246349096298218,-0.8596051931381226,0.0857422724366188,0.1978844851255417,0.22975069284439087,-0.9529199004173279,0.7132177948951721,-0.43093782663345337,-0.2605352997779846,0.8697891408171164,-0.05480717268215109,0.1433046335947272,-0.4689636669240861,-0.2318215231155277,0.2047511189415738,-0.9650577720365727
1784890532861331200,1.4250152111053467,2.268389940261841,-1.5710951089859009,0.8149464130401611,0.1869685798883438,0.20895890891551971,-0.9598848819732666,0.5920231342315674,-0.424336701631546,-0.5213315486907959,0.8722061005054434,-0.048328851767214645,0.13312360907180745,-0.4681869137573948,-0.2105102388343501,0.19237354015483293,-0.9648955172012232
1784890532871250176,1.434934139251709,3.1383159160614014,-1.3076539039611816,1.352758765220642,0.1758938729763031,0.1810559630393982,-0.9676156640052795,0.451623797416687,-0.5291242003440857,-0.690663754940033,0.8763184698834386,-0.03910238169206121,0.12109156471034233,-0.4646222913105122,-0.182060049782603,0.17981723576901726,-0.9585682290262066
1784890532881170176,1.4448542594909668,4.049163341522217,-1.6974860429763794,1.6050851345062256,0.16374552249908447,0.14424176514148712,-0.9759004712104797,0.315945029258728,-0.7648319602012634,-0.41257303953170776,0.8810838493724801,-0.026195020525696413,0.1066001344893771,-0.46004514855817413,-0.14474668506526903,0.16624064414361742,-0.9503174834414162
1784890532891089152,1.454773187637329,3.994774103164673,-2.1295459270477295,2.3453075885772705,0.14763173460960388,0.10116603970527649,-0.9838548302650452,0.6753968000411987,-0.8599855899810791,-0.14444106817245483,0.8867810965991045,-0.011482670323936751,0.08911082642248518,-0.45337257398010555,-0.10133940419719632,0.1489431429366641,-0.9376570289696246
1784890532901009152,1.4646930694580078,3.0921056270599365,-2.66560435295105,3.4437291622161865,0.12630002200603485,0.062206465750932693,-0.9900397062301636,1.0028960704803467,-1.1741602420806885,0.24711984395980835,0.8942388030433867,9.857008804912711e-05,0.07057001112368347,-0.44199196484239767,-0.06224665486158751,0.1268852974346666,-0.9141444076459269
1784890532910929152,1.4746131896972656,1.6783894300460815,-2.720651626586914,4.450361728668213,0.10150846838951111,0.03405376896262169,-0.9942516684532166,1.0807729959487915,-1.7635765075683594,0.09737056493759155,0.9035605245142124,0.006208312534041356,0.05325057895027806,-0.4250934022880305,-0.03406035253074597,0.10174281891048047,-0.8777487939664077
1784890532920848128,1.484532117843628,0.26565203070640564,-2.7137603759765625,5.080484867095947,0.0758095234632492,0.020431485027074814,-0.996912956237793,0.9623832106590271,-1.9988555908203125,0.09989452362060547,0.9140060591644322,0.00597768230984933,0.03883016967292857,-0.40379376733279776,-0.020432907067556294,0.07589819864288518,-0.8312261887806133
1784890532930768128,1.4944522380828857,-0.31546545028686523,-2.618647813796997,5.38026237487793,0.0504789873957634,0.017969517037272453,-0.9985634684562683,0.8144654631614685,-1.7442725896835327,-0.09649878740310669,0.9246271146427302,0.001282597755420819,0.02676992347400085,-0.37992949427896866,-0.017970484861809695,0.05050861238093451,-0.7792813891415834
1784890532940687104,1.504371166229248,-0.011349093168973923,-2.5992984771728516,5.574211120605469,0.025730498135089874,0.017857937142252922,-0.9995093941688538,0.8200031518936157,-1.4430593252182007,-0.41765064001083374,0.9348838273949656,-0.0037863571609224795,0.015197526060115991,-0.3546079825918528,-0.017858885565178884,0.025737442886209615,-0.7248527206946346
1784890532950607104,1.5142910480499268,0.7185271978378296,-2.893448829650879,5.772789001464844,-0.00035454778117127717,0.01359715685248375,-0.9999074935913086,0.9886510372161865,-1.2632461786270142,-0.6502084732055664,0.9446073734717333,-0.006480456093625029,0.002063472848672463,-0.32813208370630126,-0.013597575524626069,-0.00035458057395232605,-0.668669466651135
1784890532960526336,1.5242102146148682,1.4160665273666382,-3.213214635848999,6.116676330566406,-0.03024175390601158,0.003772054798901081,-0.9995355010032654,1.1490771770477295,-1.1155579090118408,-0.8138037323951721,0.9538051767283215,-0.006337229196892861,-0.013859706843431512,-0.30003914973647355,-0.0037720636595263927,-0.030246580802493286,-0.6095975176959684
1784890532970446080,1.5341300964355469,1.7790603637695312,-3.2775795459747314,6.403481483459473,-0.06273221969604492,-0.009715569205582142,-0.9979830980300903,1.1820406913757324,-1.0901837348937988,-0.8137387037277222,0.9623390126299449,-0.003797565448547221,-0.03152818323109578,-0.26999113242423295,0.009715721871659618,-0.06277640458100994,-0.5467455834500862
1784890532980365312,1.5440492630004883,1.671940803527832,-3.1446571350097656,6.629865646362305,-0.09556405246257782,-0.021888479590415955,-0.9951825737953186,1.1294842958450317,-1.2525560855865479,-0.5717881917953491,0.969934177718638,-0.0007763567031208626,-0.04907236730956671,-0.23836743526267157,0.0218902270668444,-0.09573311222607786,-0.4809126119510996
1784890532990285056,1.553969144821167,1.1864113807678223,-2.956054210662842,6.833302021026611,-0.12736822664737701,-0.028933273628354073,-0.9914333820343018,1.1000702381134033,-1.5487492084503174,-0.27838772535324097,0.9764754937124064,0.0010464862783016284,-0.065438532695456,-0.20545645263296705,0.028937312357801864,-0.12776893011660176,-0.41291104618108626
1784890533000204032,1.5638880729675293,0.32736676931381226,-2.614060878753662,6.995919704437256,-0.1566794067621231,-0.026675807312130928,-0.9872891902923584,1.122041940689087,-1.675320029258728,0.1192777156829834,0.9819391429931528,-0.00034683502300766384,-0.07972000544626562,-0.1715814594771251,0.02667897275619936,-0.15738410811599193,-0.34387778557873755
1784890533010124288,1.573808193206787,-0.3870312571525574,-2.425400495529175,7.072471618652344,-0.1826869547367096,-0.014592998661100864,-0.9830628037452698,1.1549617052078247,-1.6565648317337036,0.513504147529602,0.9862572745770304,-0.005383088466454259,-0.09186733987914156,-0.13721535476233476,0.01459351693887189,-0.18373849077920318,-0.2751354264461019
1784890533020043008,1.5837271213531494,-0.9140042662620544,-2.277777671813965,7.187785625457764,-0.20589782297611237,0.005486584268510342,-0.9785581231117249,1.2106890678405762,-1.5296717882156372,0.6742826104164124,0.9893258771374019,-0.01341369682051551,-0.10266944557682707,-0.102535133296851,-0.005486611696875546,-0.2073842729500588,-0.20711638227514564
1784890533029963264,1.5936472415924072,-1.3728338479995728,-2.0410099029541016,7.33940315246582,-0.22549864649772644,0.032040126621723175,-0.9737164974212646,1.2210736274719238,-1.4284024238586426,0.7977521419525146,0.9911302716302599,-0.02376988783946102,-0.11214610305915163,-0.06722473206591931,-0.03204561175935972,-0.22757373002489478,-0.1391077352735503
1784890533039882240,1.6035661697387695,-1.884486436843872,-1.785819172859192,7.3402180671691895,-0.2404215931892395,0.0645003542304039,-0.9685232043266296,1.1511576175689697,-1.456559658050537,0.9632589221000671,0.9915901817500447,-0.036372619078414506,-0.12006431743800448,-0.03178757357444296,-0.0645451646437653,-0.2433170300788913,-0.07198652534109835
1784890533049801984,1.6134860515594482,-2.60347318649292,-1.5279018878936768,7.341355800628662,-0.25025638937950134,0.10364607721567154,-0.9626158475875854,1.1024597883224487,-1.5167624950408936,1.1289976835250854,0.9906043576485517,-0.05189386300087044,-0.12648760248476246,0.0032947930938365547,-0.10383254726394016,-0.2543449642302714,-0.006635976038711821
1784890533059722240,1.623406171798706,-3.35263991355896,-1.2723233699798584,7.253085613250732,-0.2543657124042511,0.15012916922569275,-0.955384373664856,1.1025102138519287,-1.5203531980514526,1.304383397102356,0.9880670124013499,-0.07096662908810344,-0.13142126725383146,0.03762555959797497,-0.15069892001404034,-0.2602080979593359,0.056368465967165826
1784890533069641216,1.6333250999450684,-3.9402103424072266,-1.1161859035491943,7.169346809387207,-0.2530207633972168,0.20273569226264954,-0.9459803104400635,1.1355280876159668,-1.4284589290618896,1.444439172744751,0.9838501662245223,-0.09327874802469353,-0.13531047896958773,0.07091494137685667,-0.20415082537683285,-0.2613516595958534,0.1169866989049979
1784890533079561216,1.6432452201843262,-4.464310646057129,-1.0829650163650513,7.1384992599487305,-0.24686197936534882,0.2592814862728119,-0.9337195754051208,1.2309622764587402,-1.4051250219345093,1.5684089660644531,0.977832887391745,-0.11790506238714826,-0.13870329281666718,0.10345316662125008,-0.2622781714461028,-0.258471523876474,0.1765334864059475
1784890533089480192,1.6531641483306885,-5.044552326202393,-1.0630775690078735,7.079788684844971,-0.23637230694293976,0.3198377192020416,-0.9175140261650085,1.2840254306793213,-1.3869916200637817,1.7760803699493408,0.9697933690936039,-0.14510325515599212,-0.14208462385502127,0.13512150343497825,-0.32555821121951467,-0.2521398748124437,0.23525364129608925
1784890533099400192,1.6630842685699463,-5.496419906616211,-1.0381165742874146,7.095047950744629,-0.22119231522083282,0.3831813931465149,-0.8967976570129395,1.283555030822754,-1.3880183696746826,1.939476490020752,0.9595909685130297,-0.17448395269680347,-0.14545285151407858,0.16608450994433827,-0.3932381181010425,-0.241820285974901,0.29436576658308095
1784890533109319168,1.6730031967163086,-5.558502674102783,-1.0312809944152832,7.069578170776367,-0.20133404433727264,0.44637614488601685,-0.8719019293785095,1.2786502838134766,-1.316676378250122,1.9903254508972168,0.9472917769211492,-0.2047639643412478,-0.14873049234624175,0.19644154980484038,-0.4627115198563883,-0.22693594905934003,0.35526935044446056
1784890533119239168,1.6829230785369873,-5.083044528961182,-1.0819292068481445,7.188215255737305,-0.1771842986345291,0.5042650699615479,-0.8451759815216064,1.2931969165802002,-1.2180712223052979,1.9177467823028564,0.9333767510652887,-0.23331140231696162,-0.15158433094949297,0.2267062073513401,-0.5285307247121372,-0.20664919495632675,0.42044496556562777
1784890533129158144,1.6928422451019287,-4.257357120513916,-1.1239901781082153,7.443544387817383,-0.14959049224853516,0.5517483949661255,-0.8204854130744934,1.3283777236938477,-1.1807156801223755,1.8353017568588257,0.9185573171662683,-0.25720511371208254,-0.15363205612362704,0.25786657875952734,-0.5844591924697016,-0.18033873023831326,0.49298330149433844
1784890533139078144,1.7027621269226074,-3.833381414413452,-1.067934274673462,7.634151935577393,-0.11593397706747055,0.593217670917511,-0.7966505885124207,1.3244301080703735,-1.3327195644378662,1.7962234020233154,0.9022432289378183,-0.2791690684980894,-0.15407577782884443,0.2903145399612379,-0.6350498925304762,-0.14451229432278012,0.5750478869203522
1784890533148997120,1.7126810550689697,-4.148719310760498,-0.894416868686676,7.7489914894104,-0.07708940654993057,0.6310073137283325,-0.7719371914863586,1.3381825685501099,-1.6096450090408325,1.818369746208191,0.8841875358733858,-0.3008269617949265,-0.15340968190764342,0.3227710169504757,-0.6828509650235629,-0.09953485688603883,0.6646403760094675
1784890533158918912,1.7226028442382812,-4.970788955688477,-0.7369757890701294,7.853041172027588,-0.03302748501300812,0.6691948175430298,-0.7423526644706726,1.4041212797164917,-1.8826652765274048,1.9192783832550049,0.863467092886059,-0.32491854412203564,-0.15248478363633897,0.3544022089801884,-0.7331247102959064,-0.04446097161329519,0.7618776881931312
1784890533168837888,1.7325217723846436,-5.82508659362793,-0.6177220940589905,7.917849063873291,0.015915444120764732,0.7086310386657715,-0.705399751663208,1.5091395378112793,-2.016995906829834,2.038682222366333,0.8394482483534198,-0.35239972319731744,-0.15203476459067214,0.38474218312068775,-0.7875561141371296,0.022558477868465585,0.868887781414253
1784890533178757632,1.7424416542053223,-6.436308860778809,-0.5402395129203796,7.986508369445801,0.06928534060716629,0.7468690276145935,-0.6613517999649048,1.603734016418457,-1.9842042922973633,2.1140191555023193,0.8120973163050069,-0.38233674286411684,-0.15212725888754397,0.4137316476100435,-0.8433410832698096,0.10438244958283253,0.9892325923543618
1784890533188676864,1.7523608207702637,-6.696810245513916,-0.5586448907852173,8.11019229888916,0.1267569661140442,0.7806388139724731,-0.611993134021759,1.657010793685913,-1.8516838550567627,2.0489742755889893,0.7816482237567598,-0.41325401200436,-0.15239602974674338,0.44161354732891306,-0.8956873248595789,0.2042337323009176,1.126915232571781
1784890533198596608,1.7622807025909424,-6.683629512786865,-0.610583484172821,8.236634254455566,0.1877063363790512,0.8067758083343506,-0.5602490901947021,1.659385323524475,-1.808957815170288,1.9344098567962646,0.7485391480059511,-0.44346004618275237,-0.15237664885602414,0.4688428157950356,-0.9386748001120007,0.3232865454931181,1.2841466064544897
1784890533208516864,1.7722008228302002,-6.668140888214111,-0.6999219059944153,8.265766143798828,0.25106263160705566,0.8241068124771118,-0.50775545835495,1.6124322414398193,-1.8726297616958618,1.7753031253814697,0.7131725914325071,-0.47226925248000223,-0.15193424221148813,0.49524005588131226,-0.9686235374159587,0.4592023983782244,1.4586365174930471
1784890533218435840,1.7821197509765625,-6.977801322937012,-0.8180155754089355,8.237817764282227,0.31523793935775757,0.8333526253700256,-0.4540357291698456,1.5883264541625977,-1.9726195335388184,1.650263786315918,0.675453918891631,-0.4999396714057081,-0.15179745645759787,0.5203650963631462,-0.9851456690608195,0.6068916057673048,1.6458366854595774
1784890533228355584,1.7920396327972412,-7.554468154907227,-0.8151835799217224,8.190762519836426,0.37981536984443665,0.8356436491012573,-0.39678722620010376,1.6303775310516357,-2.0438649654388428,1.731229305267334,0.6346589447893609,-0.5275330579578406,-0.1526933504103504,0.5436927325379881,-0.989303617063525,0.763547673207627,1.8432106661067946
1784890533238274816,1.8019587993621826,-8.242706298828125,-0.20484976470470428,7.5914201736450195,0.4433058798313141,0.8317738771438599,-0.33411410450935364,1.5839157104492188,-1.8947010040283203,1.8706741333007812,0.5910443800015291,-0.5557945349309982,-0.15503347107988388,0.5636698177249062,-0.9822955411356097,0.9249393756116167,2.0445552244948613
1784890533248194816,1.8118786811828613,2.0668091773986816,-2.1451053619384766,16.136247634887695,0.5227749943733215,0.8002073764801025,-0.29389500617980957,1.3877931833267212,-0.8838561773300171,2.070765733718872,0.5490071296153115,-0.5770329517387665,-0.14172321587153985,0.5878252776846293,-0.9276409418638154,1.0586480136095626,2.2084269791377467
1784890533258113792,1.8217978477478027,-1.9428491592407227,-4.187160968780518,3.3328018188476562,0.566952645778656,0.7610769867897034,-0.3151608407497406,7.802859306335449,6.320862770080566,1.3989163637161255,0.5176377919230618,-0.5686428473446065,-0.1380756554498945,0.62420462668478,-0.8649718154716199,1.0634455948064407,2.287223444427152
1784890533268033792,1.8317177295684814,-2.010423183441162,0.9292592406272888,8.46369457244873,0.6069186925888062,0.7294171452522278,-0.31559526920318604,-0.2725376486778259,2.962507963180542,2.9937264919281006,0.49699378044856557,-0.5712317937384289,-0.12608172678585067,0.6409327926136172,-0.8174694911893106,1.091280221395668,2.3367247485452287
1784890533277952768,1.8416366577148438,-7.8210883140563965,4.155354976654053,2.6212708950042725,0.6526830196380615,0.7115993499755859,-0.2600601315498352,-2.4192540645599365,0.20627784729003906,2.697575330734253,0.46642572869998244,-0.5960746139418923,-0.12109910386386284,0.6422438202815336,-0.791772005857843,1.1916287447357643,2.4376187473545428
1784890533287872768,1.8515567779541016,-10.789051055908203,3.155747652053833,-1.7835007905960083,0.6639118790626526,0.7277083396911621,-0.1722261756658554,-1.5563220977783203,-0.007691800594329834,2.0175325870513916,0.4418240658023246,-0.6283875511743588,-0.1378985131398011,0.6252237359973342,-0.8149748265078189,1.3169798667237846,2.5558510433130857
1784890533297791744,1.8614757061004639,-7.7918314933776855,4.399496078491211,-0.18815632164478302,0.6542010307312012,0.7523346543312073,-0.07754604518413544,0.7634625434875488,0.3126218914985657,1.869706153869629,0.41839863877534766,-0.6582706308965968,-0.16705314178947117,0.6030882972949028,-0.8515988545817109,1.452811353894016,2.694652907661672
1784890533307711744,1.8713958263397217,-10.392501831054688,4.138134002685547,-0.0903077945113182,0.655964732170105,0.7545601725578308,0.018690302968025208,3.117060661315918,0.04011756181716919,0.9629685878753662,0.3917816014419802,-0.6893980223197614,-0.18459555218608478,0.58065661306054,-0.854983637514255,1.5992814648606155,2.831156444436672
1784890533317630720,1.881314754486084,-5.654909610748291,1.70786714553833,0.19530898332595825,0.6529883742332458,0.7510502934455872,0.09761933237314224,3.386028289794922,1.355761170387268,1.2401797771453857,0.3671044033539746,-0.7125934790122987,-0.20253444054342923,0.562516323907041,-0.8496513643160352,1.7191936044087694,2.952114117278173
1784890533327550720,1.8912346363067627,-2.5424721240997314,-0.11331497132778168,1.6184138059616089,0.6585860848426819,0.7403704524040222,0.13459549844264984,3.9118943214416504,1.7171337604522705,0.6402305364608765,0.35035357118685356,-0.72341872096376,-0.20967380039225553,0.5567356689453545,-0.833621265684491,1.7723906347690497,3.0121855425802986
1784890533337470720,1.9011547565460205,-0.3336588740348816,-1.0930562019348145,0.8892185688018799,0.6710200905799866,0.7280385494232178,0.14032821357250214,3.1356358528137207,2.8346750736236572,0.7352211475372314,0.33968691769148945,-0.7253751027581884,-0.20975001234179655,0.5607572782311787,-0.8154564066825782,1.7769519639350992,3.0295202733589686
1784890533347389696,1.9110736846923828,2.865713596343994,-1.4108556509017944,3.529836654663086,0.6862868666648865,0.7176057696342468,0.11854224652051926,1.2740859985351562,1.436919927597046,-0.04003572463989258,0.33870974046608876,-0.7202931652763797,-0.2011190707579646,0.5709681082265621,-0.8003584407093762,1.7418384832997256,3.001779996087976
1784890533357309696,1.9209938049316406,3.4206361770629883,-0.16828851401805878,1.4463554620742798,0.7105098366737366,0.6976970434188843,0.09162136167287827,-0.48287928104400635,1.0329699516296387,-0.10836029797792435,0.3403234021827911,-0.7163784020695976,-0.18058976743482175,0.5816951562341246,-0.7721778050543721,1.699040184380713,2.9489045708013513
1784890533367228672,1.930912733078003,2.315412998199463,-0.048951730132102966,-1.5090159177780151,0.7079347968101501,0.7029330730438232,0.06865594536066055,-2.2164034843444824,1.2888119220733643,0.8826990127563477,0.35126494815236614,-0.7098276939938176,-0.1745640825980098,0.5850513391844158,-0.779512938035791,1.6674745985215471,2.910083739360625
1784890533377148928,1.9408328533172607,1.8144450187683105,0.8147768378257751,-1.428530216217041,0.6972016096115112,0.7144701480865479,0.058671481907367706,-1.1576050519943237,1.0476300716400146,0.9648728370666504,0.36311982697415673,-0.7067246472470609,-0.17284679111176515,0.5820723824900481,-0.7958665238017343,1.6547513373675513,2.883746346205532
1784890533387067904,1.950751781463623,1.348029613494873,0.33618998527526855,-1.5196454524993896,0.6860296726226807,0.7257772088050842,0.051099278032779694,0.04706364870071411,0.8024364113807678,0.625612735748291,0.3733605400587179,-0.7040523374177409,-0.17280030391262158,0.5788371552621983,-0.8121634804873052,1.6451445536314953,2.863413926917288
1784890533396987648,1.9606716632843018,1.433840274810791,-0.31190478801727295,-1.4140779972076416,0.6748790740966797,0.7368073463439941,0.0406593382358551,0.5343647003173828,1.0246062278747559,0.009313225746154785,0.38254717744047206,-0.699962044363799,-0.17430664053986897,0.577345647993388,-0.8283360187866111,1.6309704426185063,2.844833293968455
1784890533406906880,1.9705908298492432,-0.09138380736112595,-0.4029076099395752,-1.6893197298049927,0.6641251444816589,0.746890664100647,0.03304728493094444,0.7072280049324036,0.8117183446884155,-0.24215376377105713,0.3892174605361357,-0.6963733382514088,-0.17772961362649561,0.5761823525181877,-0.8433736414261389,1.6205159455000926,2.834527922468661
1784890533416826624,1.9805107116699219,-1.2165098190307617,-0.006951930932700634,-1.4738998413085938,0.6522333025932312,0.757129967212677,0.03669191151857376,0.4748266935348511,0.8562124967575073,0.20471739768981934,0.39100837785887294,-0.6955434326012501,-0.18591742764426022,0.5733817500701712,-0.8589084427216672,1.6269929073112515,2.846853781894477
1784890533426745600,1.9904296398162842,-2.100252866744995,-0.3080872595310211,-1.661813497543335,0.6399004459381104,0.7669743895530701,0.04772879183292389,0.3193587064743042,0.9019100666046143,0.0180671326816082,0.38992285346248334,-0.6966001402027168,-0.19650099164869897,0.5692942557956525,-0.8741126325728322,1.6452463024170692,2.8731434870347017
1784890533436665856,2.000349760055542,-2.0337371826171875,-0.42733412981033325,-1.2510961294174194,0.6289356350898743,0.7750235795974731,0.06147114560008049,0.2837231159210205,0.9978799819946289,0.1900395154953003,0.38611999162974153,-0.6980386396464607,-0.20851290316361443,0.5658409035124199,-0.8867524501010229,1.668225249091765,2.9086688074668743
1784890533446585600,2.0102696418762207,-0.35938671231269836,-0.44891345500946045,-1.0086305141448975,0.6206793785095215,0.7810138463973999,0.06909790635108948,0.2575554847717285,0.7881389856338501,-0.10370481014251709,0.384622909420712,-0.6983976436431151,-0.21630923352856002,0.563485816296239,-0.8962875761406216,1.681666059466721,2.929736794368471
1784890533456504832,2.020188808441162,0.5997660160064697,-1.1088186502456665,-1.054814100265503,0.6133809685707092,0.7872195839881897,0.06363258510828018,0.18273109197616577,0.9899258017539978,-0.2989994287490845,0.38692103024741076,-0.6949677552784973,-0.22098894331096594,0.5643366207768921,-0.9062871977498248,1.6741672814723545,2.929941813466681
1784890533466424576,2.030108690261841,2.636378049850464,-1.1586120128631592,-1.267087697982788,0.6045229434967041,0.7953770756721497,0.04390035569667816,-0.1153719425201416,1.1170679330825806,-0.49408042430877686,0.3946317004469392,-0.6872567478033738,-0.22277419221416875,0.5677284624715614,-0.9196294805969074,1.6432889101311758,2.905317413433714
1784890533476343808,2.0400278568267822,3.261345148086548,-1.311907172203064,-1.0708575248718262,0.5952914953231812,0.8033982515335083,0.013392091728746891,-0.33213841915130615,0.8929823637008667,-0.5957285165786743,0.4069537107003391,-0.6767806867932789,-0.22059906624440137,0.5724444747401383,-0.9329805587218618,1.5932892285824902,2.856751154246805
1784890533486263808,2.049947738647461,3.6069886684417725,-1.0192673206329346,-1.3757284879684448,0.5849793553352356,0.8107777237892151,-0.020949503406882286,-0.1794312596321106,0.8495007157325745,-0.27409446239471436,0.4205529556573823,-0.6649231540614668,-0.21772103101372658,0.5775899151708321,-0.94547955946263,1.5349992447915028,2.799651939975734
1784890533496182784,2.0598666667938232,3.266369581222534,-1.5162585973739624,-1.0530248880386353,0.5753881335258484,0.8158782124519348,-0.057195838540792465,-0.2521612048149109,0.6660097241401672,-0.33872395753860474,0.4341924033900316,-0.6524723544501402,-0.21373326160282594,0.5831594785925192,-0.9542464199014467,1.4717178862464566,2.737221735879743
1784890533506102784,2.069786787033081,4.0731048583984375,-1.521298885345459,-0.8749563694000244,0.566670835018158,0.8186032176017761,-0.09366387873888016,-0.34848546981811523,0.7013704776763916,-0.14881354570388794,0.4466979952080287,-0.6396996264330376,-0.2096483965523428,0.5893155610141307,-0.9589748713334596,1.4069893817497974,2.6752047069288367
1784890533516021760,2.0797057151794434,4.660857677459717,-1.8690320253372192,-1.278079628944397,0.555715024471283,0.8196406960487366,-0.13917705416679382,-0.5741170644760132,0.7181097269058228,-0.5398237705230713,0.46194778986911267,-0.6235135038954353,-0.20406464589634596,0.5968190144088843,-0.9607835385955793,1.3253971619816238,2.596727756951806
1784890533525941760,2.089625835418701,5.839103698730469,-2.1856067180633545,-1.2414989471435547,0.5424041152000427,0.8177003264427185,-0.1927792727947235,-0.3957366943359375,0.6280088424682617,-0.5890658497810364,0.47970988107476803,-0.6040701890885449,-0.1967474854651427,0.6052007946552252,-0.9574046853194003,1.2293044485892326,2.503386747987499
1784890533535860736,2.0995447635650635,6.535886764526367,-2.256331205368042,-0.33404412865638733,0.5294352173805237,0.809463381767273,-0.25390440225601196,-0.24165445566177368,0.5446473360061646,-0.42282289266586304,0.49858712039237285,-0.5815834624668645,-0.18657028594068406,0.6151122964297285,-0.9432376670169674,1.1236210180700865,2.4005778729798366
1784890533545780736,2.109464645385742,7.132246017456055,-2.3327736854553223,-0.191735178232193,0.5194386839866638,0.7918319702148438,-0.3212254047393799,-0.023863673210144043,0.3508683443069458,-0.342303067445755,0.5170991377814473,-0.5564393301034259,-0.1725183090811441,0.6270735818043028,-0.9138027441099343,1.0169508455484135,2.297304910329103
1784890533555699712,2.1193838119506836,6.6337409019470215,-2.349745035171509,-0.30780380964279175,0.5096785426139832,0.7684171795845032,-0.3869921863079071,-0.3779340982437134,0.4073946475982666,-0.16200387477874756,0.5343423449566862,-0.5307485378713883,-0.1575115849964262,0.6387287980507773,-0.8763641557482627,0.921378113428169,2.2052788207962952
1784890533565619712,2.1293036937713623,7.009106636047363,-1.9859684705734253,-0.4847479462623596,0.4947372376918793,0.7433311939239502,-0.45021533966064453,-0.4893356263637543,0.2757423520088196,0.02344226837158203,0.5527042864121676,-0.5042877059659813,-0.14347905377820355,0.647785190902319,-0.8380365653251501,0.8324788303556725,2.1176878927957827
1784890533575539712,2.13922381401062,5.250932693481445,-1.5043915510177612,-0.7385997772216797,0.4788931906223297,0.7198082804679871,-0.5025309324264526,-0.0138053297996521,0.5223792195320129,0.11974900960922241,0.5694246031556184,-0.48106706561092416,-0.13156366508386486,0.6534685260792195,-0.8035260866157242,0.7613176529975194,2.0448591084188124
1784890533585458688,2.1491427421569824,4.846720218658447,-2.079606056213379,-0.5923653244972229,0.46339690685272217,0.6963393092155457,-0.548064649105072,0.5922824144363403,-0.06808918714523315,0.3701014518737793,0.5832540397434616,-0.4595212859885878,-0.12168752264148545,0.6586706816140434,-0.7702842822650465,0.7018845426811944,1.9867697569879552
1784890533595378944,2.1590628623962402,3.94208025932312,-1.611586570739746,-0.3095478117465973,0.44617244601249695,0.6768351197242737,-0.5855121612548828,0.7564337253570557,0.02619832754135132,0.4654102325439453,0.5942248142579967,-0.44025693509273645,-0.11583503484767556,0.6630634259660925,-0.7434547964201829,0.6511501371376526,1.9419051022439398
1784890533605297920,2.1689817905426025,3.5403552055358887,-1.4230917692184448,-0.05828787386417389,0.43305155634880066,0.6552213430404663,-0.6189923286437988,1.1196675300598145,-0.4125150442123413,0.27588319778442383,0.6026314678469985,-0.42259013711326165,-0.10918525431080721,0.6680805293481664,-0.7144755451611282,0.6104623634642387,1.9078484940862521
1784890533615217664,2.1789016723632812,3.5807976722717285,-1.08225679397583,-0.5913958549499512,0.4214068353176117,0.635662317276001,-0.646799623966217,0.8568218946456909,0.04698538780212402,0.29503870010375977,0.6113120682366135,-0.40756704057671816,-0.10241731217810449,0.6705948336225906,-0.6888662095053908,0.5774473050455504,1.8755248927612946
1784890533625136896,2.1888208389282227,3.6486809253692627,-1.2090070247650146,-0.11628153175115585,0.409320205450058,0.6140323281288147,-0.6748491525650024,0.8446012735366821,0.10700654983520508,0.26412832736968994,0.6190596636916245,-0.39166403797459654,-0.09578467265823767,0.6739361022392524,-0.661159344842631,0.5452114285506956,1.846921145096445
1784890533635056640,2.1987407207489014,4.162657260894775,-1.175639033317566,0.19240105152130127,0.3960576355457306,0.5892465114593506,-0.7042207717895508,0.8641199469566345,0.18043732643127441,0.3090333938598633,0.627295804809512,-0.3742737888796965,-0.08836708893852499,0.6772077977702753,-0.6301259429276781,0.512317681910689,1.8175934864917513
1784890533644975616,2.2086596488952637,3.9520111083984375,-1.207770824432373,1.174799919128418,0.3887098431587219,0.5581283569335938,-0.7330740094184875,0.6608049273490906,0.09169769287109375,0.3401296138763428,0.6322898224618806,-0.35685777532852103,-0.07820187562372037,0.6831886237181762,-0.5921284082370882,0.48755092539559114,1.7995870585025715
1784890533654895872,2.2185797691345215,2.968463659286499,-1.1772563457489014,-0.20490561425685883,0.3794531226158142,0.5334928035736084,-0.7559105753898621,0.1700006127357483,0.1387178897857666,0.42503899335861206,0.6366653966260615,-0.34199823683836883,-0.07128760139752689,0.6874681964927458,-0.5627247761738361,0.46523155589021786,1.7842238297628108
1784890533664814592,2.228498697280884,2.872781276702881,-1.1549546718597412,0.21621231734752655,0.36811918020248413,0.5115510821342468,-0.7764043807983398,-0.11973664164543152,0.025665104389190674,0.23033809661865234,0.641788705881516,-0.3278340336210198,-0.06574692354524904,0.6901517453429938,-0.5369889584830523,0.4427409765086505,1.7670714134994807
1784890533674734848,2.2384188175201416,1.8733572959899902,-0.7776992321014404,-0.4159644544124603,0.3587988615036011,0.49471279978752136,-0.7915318012237549,-0.11267459392547607,0.14276888966560364,0.11243939399719238,0.6454883521377391,-0.31687080082546865,-0.06186265871992053,0.6921782090963593,-0.5175043165968759,0.42559220161130473,1.7548313589038032
1784890533684654592,2.2483386993408203,1.5080046653747559,-1.0322860479354858,-0.48492249846458435,0.34712889790534973,0.4831264913082123,-0.8037974238395691,-0.09981444478034973,-0.01289638876914978,0.012980222702026367,0.6501000310556871,-0.3073489243141211,-0.06031511904017378,0.6922923330305166,-0.5042220813278577,0.40766771485442266,1.7400273328039477
1784890533694573568,2.2582576274871826,0.5372533798217773,-0.5801136493682861,-0.6838732361793518,0.3365510404109955,0.47758522629737854,-0.8115699887275696,0.09649339318275452,-0.25721779465675354,-0.0655052661895752,0.6536062255912204,-0.30083178231489316,-0.06095292633677222,0.6917976925728955,-0.49790418820298576,0.39310682956180265,1.7287132699775554
1784890533704493824,2.2681777477264404,0.14668941497802734,-0.49914637207984924,-0.27456533908843994,0.33008718490600586,0.4771890640258789,-0.8144526481628418,0.04796454310417175,-0.333527535200119,-0.026840686798095703,0.6555210222981217,-0.2981100740542783,-0.062482500404569055,0.6910272581869358,-0.49745331828779393,0.3850559381360371,1.7224654992888613
1784890533714412800,2.2780966758728027,0.7921922206878662,-0.3632946312427521,0.07376863062381744,0.32708632946014404,0.4736635088920593,-0.8177147507667542,0.37497055530548096,-0.3852083086967468,-0.13405215740203857,0.6565111596267947,-0.295464084450068,-0.061996678997510594,0.6912673376234516,-0.493445873986733,0.3805068088498362,1.719289934138182
1784890533724332800,2.2880167961120605,-0.12229898571968079,-1.1335254907608032,-0.5738769769668579,0.31746935844421387,0.47113853693008423,-0.8229469656944275,0.15791818499565125,0.04593604803085327,-0.2545982003211975,0.6577341614626943,-0.2905029966131095,-0.06430020096207494,0.6919967120805458,-0.4905811144622614,0.36818043341627116,1.7147102193272843
1784890533734251776,2.297935724258423,0.7334353923797607,-0.5103282332420349,-0.2213699370622635,0.30840325355529785,0.4705769419670105,-0.8267071843147278,0.42600226402282715,-0.080669105052948,0.11943179368972778,0.6597795046717089,-0.28669586622553184,-0.06672244539057587,0.691407702819438,-0.489944523385828,0.3570601337323199,1.7077652892341222
1784890533744171776,2.3078558444976807,1.261948823928833,-0.8305062651634216,0.2253178209066391,0.30176106095314026,0.46288439631462097,-0.8334736824035645,0.45566996932029724,0.016470491886138916,-0.08074140548706055,0.6604555759609276,-0.28083155749698724,-0.06630840707537475,0.693206584880486,-0.4812464202020324,0.3473712275566596,1.7052271981418796
1784890533754090752,2.317774772644043,1.478525161743164,-0.7417302131652832,-0.3088621497154236,0.2914505898952484,0.45301419496536255,-0.8425168991088867,0.1776045858860016,0.25769442319869995,-0.04929828643798828,0.6631034464027993,-0.27280314765858005,-0.06572672965173029,0.693939643934131,-0.470143456008928,0.33304304916840227,1.69670038937553
1784890533764010752,2.3276946544647217,2.225459098815918,-0.7304583787918091,-0.03673131391406059,0.28393828868865967,0.437198281288147,-0.8533678650856018,0.26148712635040283,-0.013919442892074585,0.0907641053199768,0.6660981248612852,-0.26360031249105026,-0.06189452488762655,0.6949800900017346,-0.45248107814873817,0.32120448849176986,1.687772897789241
1784890533773929728,2.337613821029663,2.030897378921509,-0.7935125231742859,-0.11066126823425293,0.27608171105384827,0.4191814363002777,-0.86490797996521,0.27451643347740173,-0.03000602126121521,0.07111525535583496,0.6688900647593323,-0.25345105541576907,-0.05752018511481106,0.6964482110390642,-0.43254354396220746,0.30898031831674916,1.679563163859761
1784890533783849728,2.347533702850342,2.04569411277771,-0.8741676807403564,0.02046959102153778,0.2663879990577698,0.4027782380580902,-0.8756752610206604,0.3255156874656677,-0.1334148347377777,0.0660896897315979,0.6717367874251817,-0.24331815614264096,-0.054393425682050224,0.6975725148794257,-0.4145501565813075,0.2953134520440149,1.671065324088221
1784890533793769728,2.3574538230895996,1.499776005744934,-0.829643189907074,0.09311279654502869,0.25781407952308655,0.387132465839386,-0.8852459192276001,0.37714990973472595,-0.2530840039253235,0.0738140344619751,0.6735137463377093,-0.23393501387310808,-0.051492151215714335,0.6992869930086233,-0.39751952551615977,0.2833956991571713,1.6657910667809086
1784890533803688704,2.367372751235962,0.8986598253250122,-0.7285019159317017,-0.23147061467170715,0.2499261200428009,0.3773376941680908,-0.8917136788368225,0.1581396758556366,-0.19034123420715332,0.12003087997436523,0.6746608809426125,-0.2271201434974747,-0.05059264630349602,0.7004924139169879,-0.3869197685289175,0.2732648084538854,1.6622189156279694
1784890533813608704,2.3772926330566406,0.9817416071891785,-0.6970075964927673,-0.02139676734805107,0.2422703504562378,0.36968719959259033,-0.8970153331756592,0.1394740343093872,-0.14257538318634033,0.04351496696472168,0.6764604625277612,-0.2213082818574809,-0.05014964770721012,0.7006490088056329,-0.3786723565216089,0.26379102372035595,1.6567572101920454
1784890533823527936,2.387211799621582,1.0548206567764282,-0.7948039174079895,-0.08313416689634323,0.2345578819513321,0.3616749346256256,-0.9023158550262451,0.2938081920146942,-0.1776997148990631,0.03708148002624512,0.6774827832613626,-0.21530758681780968,-0.04984703248239706,0.701551919874898,-0.37006381642362324,0.2543221462632614,1.653551422729452
1784890533833447680,2.3971316814422607,1.2797404527664185,-0.6997925639152527,-0.018093382939696312,0.2282021939754486,0.35074177384376526,-0.9082422256469727,0.1924215704202652,-0.10228291153907776,-0.050009727478027344,0.6785510709452305,-0.20874603483945808,-0.047999685996208,0.7026305306832087,-0.3583630873787187,0.24616134648508547,1.6504655683668477
1784890533843366912,2.407050848007202,1.783422827720642,-0.9277002811431885,0.24251317977905273,0.2198178768157959,0.3368399143218994,-0.9155430197715759,0.1551973819732666,0.019040822982788086,0.06703227758407593,0.6797911843968573,-0.20032895723985333,-0.045790924289538314,0.7040280391831697,-0.3435586501998954,0.2356353995935819,1.6468863307991886
1784890533853286656,2.416970729827881,1.7693241834640503,-0.7778512835502625,0.155382439494133,0.2127583622932434,0.32022473216056824,-0.923141360282898,0.2358500212430954,-0.13838577270507812,0.06843560934066772,0.6805228142229641,-0.1914217927033811,-0.04227305079755654,0.7060165779022672,-0.3259667137207881,0.22651675966876061,1.6449700299926575
1784890533863205632,2.426889657974243,1.7914265394210815,-0.8225314021110535,0.25227221846580505,0.2060387134552002,0.30295583605766296,-0.9304654002189636,0.0966346263885498,-0.13375109434127808,0.14218109846115112,0.6813686339152252,-0.182472642583326,-0.03835417699671102,0.7077920658752063,-0.30779272690236165,0.21791978034873175,1.642769684072943
1784890533873125888,2.436809778213501,1.3354638814926147,-0.684215784072876,0.26928240060806274,0.1994243711233139,0.28805699944496155,-0.936617910861969,0.1428455114364624,-0.12526097893714905,0.1844053864479065,0.6817106780985062,-0.17447412057651215,-0.03535294731671148,0.7096334352238172,-0.29219722337762827,0.20978689811872883,1.6419096237619526
1784890533883044608,2.4467287063598633,0.7615289092063904,-0.5771228671073914,0.1142779067158699,0.19379673898220062,0.27773141860961914,-0.9409081339836121,0.09792079031467438,-0.17819833755493164,0.13609856367111206,0.6817642740558041,-0.1685575040341447,-0.03367952147498519,0.7110918170214849,-0.2814318301815385,0.20312714763500136,1.6417722455250932
1784890533892964864,2.456648826599121,0.24801716208457947,-0.4548541307449341,0.1887269765138626,0.1891966164112091,0.2731250524520874,-0.9431899785995483,0.0740174800157547,-0.1201251745223999,0.12902677059173584,0.6818056440614982,-0.16514008080236792,-0.033671353382353476,0.7118540155694616,-0.27664011033195646,0.19796498647768218,1.6415583625650711
1784890533902884608,2.4665687084198,0.0684247612953186,-0.3914503753185272,0.17448891699314117,0.1857140064239502,0.2717898190021515,-0.944267213344574,0.1503302901983261,-0.10440093278884888,0.06130218505859375,0.6811126744548376,-0.16330782394758334,-0.03459679835998463,0.7128949286059979,-0.27525237633568356,0.19419665991271093,1.6433666480531142
1784890533912803584,2.476487636566162,0.06545460969209671,-0.4321916997432709,0.16187381744384766,0.18261274695396423,0.27111437916755676,-0.9450659155845642,0.14557328820228577,-0.05860522389411926,-0.03547912836074829,0.6804748175402813,-0.161862113319589,-0.035604769850060364,0.7137836020484333,-0.27455058975325747,0.1908751634044169,1.6450143132463202
1784890533922723840,2.48640775680542,0.13443313539028168,-0.2696765661239624,0.04835711419582367,0.17971158027648926,0.2697679102420807,-0.9460068941116333,0.18175387382507324,0.0003126561641693115,0.0013657808303833008,0.6801113458860073,-0.16026089759757656,-0.03623537175703687,0.7144592100624743,-0.27315198666235047,0.18773160992654986,1.645920593681567
1784890533932642816,2.4963266849517822,0.19025367498397827,-0.5200729370117188,0.14885808527469635,0.17664027214050293,0.2683573365211487,-0.9469860196113586,0.14762423932552338,0.03616228699684143,0.06544005870819092,0.6796650239216067,-0.15856859955571687,-0.03691858114480749,0.7152261298418447,-0.271687406903652,0.18440967763156121,1.6470493342702632
1784890533942562816,2.50624680519104,0.30538904666900635,-0.2487112283706665,0.09814883768558502,0.17300142347812653,0.26577815413475037,-0.948384165763855,0.14306913316249847,0.10037174820899963,0.04507911205291748,0.6796506803697603,-0.15626195653159058,-0.03728444824293811,0.7157283470207088,-0.2690110271632406,0.18043312779783163,1.6469769660140585
1784890533952481792,2.5161657333374023,0.5555194616317749,-0.39727509021759033,0.21357792615890503,0.17073486745357513,0.26156488060951233,-0.9499649405479431,0.21244385838508606,0.16854986548423767,0.08820956945419312,0.6792392433421851,-0.15386213645623503,-0.03666014435956959,0.7166704038362737,-0.26464317589651215,0.17782901362706338,1.6481435722294995
1784890533962401792,2.52608585357666,0.45166417956352234,-0.322950541973114,0.1053052544593811,0.16755548119544983,0.2566777169704437,-0.9518622159957886,0.24330267310142517,0.22144117951393127,0.021930575370788574,0.6789925988232329,-0.15088888137515774,-0.03607534601613716,0.7175653502712049,-0.25958316458004693,0.17424404103657887,1.6488218915888875
1784890533972320768,2.5360047817230225,0.663758397102356,-0.42712825536727905,-0.01733577996492386,0.16438570618629456,0.2512904107570648,-0.9538503289222717,0.25463590025901794,0.21929064393043518,0.04538780450820923,0.6791120183248159,-0.14776316080986182,-0.03522613504771809,0.7181447943003568,-0.25401321232015517,0.17066267145811656,1.648497064135745
1784890533982240768,2.545924663543701,0.8551073670387268,-0.2713719308376312,-0.01150904968380928,0.16105397045612335,0.24440054595470428,-0.9562060236930847,0.16246286034584045,0.20046941936016083,0.04171633720397949,0.6796471058179397,-0.14406291794127885,-0.033806163683850365,0.718458619799556,-0.24690144696800176,0.16686404888342676,1.6470543779046125
1784890533992160768,2.555844783782959,1.091434359550476,-0.3907913267612457,0.017255419865250587,0.15763840079307556,0.23472712934017181,-0.9591940641403198,0.17465223371982574,0.169142484664917,0.0457419753074646,0.6803714132205219,-0.1393502207556898,-0.03137626674566359,0.7188127733992465,-0.23693785188970126,0.16288856075462174,1.6451611645171436
1784890534002079744,2.5657637119293213,1.123732328414917,-0.13134989142417908,0.11307115852832794,0.15480951964855194,0.22440962493419647,-0.9621196985244751,0.17655032873153687,0.07069535553455353,0.029594063758850098,0.6808738799897661,-0.1346286614278942,-0.0285529330440521,0.7193543238394614,-0.22633717215063973,0.15953719850011788,1.6439157580510664
1784890534011999744,2.575683832168579,1.0827391147613525,-0.40637484192848206,0.13175898790359497,0.15283343195915222,0.21342787146568298,-0.9649302959442139,0.19100812077522278,-0.10802015662193298,0.011896848678588867,0.6811980871182499,-0.12999461717081937,-0.02522395488462438,0.7200238295390067,-0.21508233434510415,0.15708314937127807,1.6431920056480147
1784890534021918720,2.5856027603149414,1.1238447427749634,-0.25802427530288696,0.07285653054714203,0.15046757459640503,0.2034473568201065,-0.967454731464386,0.20181205868721008,-0.0108814537525177,0.06840693950653076,0.6813143173412153,-0.12557701728257828,-0.02242852351406905,0.7207900470703251,-0.2048776319996688,0.15429316102935453,1.6429831660925796
1784890534031838720,2.59552264213562,1.0639768838882446,-0.26206618547439575,0.06319844722747803,0.14773249626159668,0.19234879314899445,-0.9701427817344666,0.13310550153255463,0.049838706851005554,0.016209125518798828,0.6817270608125758,-0.12064785877005611,-0.01930523700155164,0.7213318820077314,-0.19355506817764875,0.15111816374405798,1.6419347620312674
1784890534041757696,2.6054418087005615,1.1437199115753174,-0.08737083524465561,0.31775322556495667,0.14660507440567017,0.18179301917552948,-0.9723467826843262,0.15330642461776733,0.06703205406665802,0.04000425338745117,0.6816697390157718,-0.1165076847599193,-0.015892482882057222,0.7221494637535774,-0.18280955087836173,0.14964729422609466,1.642193432176981
1784890534051677696,2.6153616905212402,1.1414086818695068,-0.14084258675575256,0.07713323086500168,0.14590132236480713,0.17020754516124725,-0.9745471477508545,0.12701736390590668,-0.0005908608436584473,-0.03331106901168823,0.6815217271378888,-0.11217464445349883,-0.011969173190302997,0.7230502985309987,-0.17104028192263046,0.14860818312535165,1.642675923681316
1784890534061596928,2.6252808570861816,1.026178002357483,0.006342606619000435,0.14882339537143707,0.14501631259918213,0.1603393405675888,-0.9763511419296265,0.04280412197113037,0.0708618313074112,0.0005515813827514648,0.6819249544334274,-0.10839612565482666,-0.008643305750242018,0.7232937682994628,-0.16103443583262023,0.1474508601714966,1.6415776164069928
1784890534071516672,2.6352007389068604,1.1013224124908447,-0.18203000724315643,0.03632039204239845,0.1443178802728653,0.14914445579051971,-0.9782271385192871,0.1952664703130722,-0.06950882077217102,-0.07049417495727539,0.6819073710670505,-0.10422608472897814,-0.004834103706029349,0.7239584009489065,-0.14970298985604327,0.1464734607114581,1.6416044750982157
1784890534081435648,2.6451196670532227,1.170728087425232,-0.17370682954788208,0.18611282110214233,0.14304538071155548,0.1384171098470688,-0.9799891710281372,0.12305264174938202,-0.03470312058925629,-0.015692591667175293,0.682167781857866,-0.10001799447616538,-0.0013522999362689002,0.7243215450388742,-0.13886295732230103,0.144942689750854,1.6408176029632757
1784890534091355904,2.6550397872924805,1.1147301197052002,-0.014462501741945744,0.08513210713863373,0.14211001992225647,0.12691082060337067,-0.9816814064979553,0.14153562486171722,-0.07439008355140686,-0.06658214330673218,0.6821183040738295,-0.09567185655275383,0.00248859402567684,0.7249518641595698,-0.12725399898680495,0.1437631640390535,1.6408360739774235
1784890534101275648,2.664959669113159,1.0918447971343994,0.09926352649927139,0.1993636041879654,0.14251241087913513,0.11575549840927124,-0.9830009341239929,0.09691323339939117,-0.04617542773485184,0.010863542556762695,0.6821291768880776,-0.09195065353761483,0.006678378769221623,0.7253965979742906,-0.1160155798240581,0.14397378302082045,1.6406324512646413
1784890534111194880,2.6748788356781006,1.0140414237976074,-0.20489224791526794,-0.009849733673036098,0.14160983264446259,0.10527867078781128,-0.9843084216117859,0.09226162731647491,-0.08420629054307938,-0.01613408327102661,0.6822049929183178,-0.0879896652638259,0.010178973188331105,0.7257757764476341,-0.10547412779603207,0.14288690207834726,1.6402229206018628
1784890534121114624,2.6847987174987793,1.24848210811615,-0.19739997386932373,0.09894998371601105,0.1396096646785736,0.0945693776011467,-0.985680341720581,0.1918722540140152,-0.022654712200164795,-0.04392164945602417,0.6827738594103326,-0.08354119795051754,0.013442021450425778,0.7257134591740902,-0.09471091231646617,0.14070196222856107,1.6384290703286442
1784890534131033600,2.6947176456451416,1.1501951217651367,-0.2941253185272217,0.015628527849912643,0.13745063543319702,0.08245327323675156,-0.9870707988739014,0.19908195734024048,-0.07070400565862656,-0.09341931343078613,0.6827817578827925,-0.07856396253300091,0.017096752938942795,0.7261849183718919,-0.08254698661007283,0.13836129821483584,1.6381098429555505
1784890534140953856,2.7046377658843994,1.0526944398880005,-0.2925724387168884,0.16183288395404816,0.13482101261615753,0.07202869653701782,-0.9882485270500183,0.08632461726665497,-0.10361438989639282,-0.05542212724685669,0.6831718317253226,-0.07399384527475522,0.02001609855030117,0.7262235247689227,-0.07209112661752755,0.1355871676562108,1.6367667857047348
1784890534150872832,2.7145566940307617,0.9187166690826416,-0.23466883599758148,0.09158723801374435,0.1320895254611969,0.061957526952028275,-0.9892995357513428,0.1553402692079544,-0.17934338748455048,-0.09563082456588745,0.6830556737809356,-0.0695265574139477,0.02272171912417484,0.7266944318019072,-0.06199723388816104,0.13273319101727765,1.6368084639859666
1784890534160792576,2.7244765758514404,1.085965633392334,-0.16176825761795044,0.2813481390476227,0.13064906001091003,0.05156624689698219,-0.9900867342948914,0.08578160405158997,-0.1561194658279419,-0.06286126375198364,0.6825480710792661,-0.06544238316559618,0.02596008142383268,0.7274418482028644,-0.051589126069957796,0.13119918303690598,1.6378443718988749
1784890534170711808,2.734395742416382,0.8414735794067383,-0.3453827202320099,0.26333555579185486,0.12833641469478607,0.041887927800416946,-0.9908456802368164,0.029759898781776428,-0.11496226489543915,-0.0943136215209961,0.6820340218478418,-0.061291319510161875,0.028644945049311303,0.7281843817985812,-0.04190018619208512,0.12880502141586214,1.638927008749315
1784890534180631552,2.7443156242370605,0.4629116356372833,-0.18812943994998932,0.1504737287759781,0.12581007182598114,0.03502800688147545,-0.9914357662200928,0.11801011860370636,-0.15467216074466705,-0.08183693885803223,0.6814282458080051,-0.05803791531709545,0.03022780476253105,0.7289537723653459,-0.03503517198377978,0.12622222374671493,1.6403791207477163
1784890534190551808,2.7542357444763184,0.3609030842781067,-0.2675585448741913,0.26256319880485535,0.12414917349815369,0.030815396457910538,-0.991784930229187,0.08768858015537262,-0.19406917691230774,-0.07375150918960571,0.6810271489267387,-0.05600328464831301,0.031163368370764496,0.7294480722841202,-0.030820275658359257,0.12452977475667751,1.6413500416931246
1784890534200470784,2.7641546726226807,0.30133509635925293,-0.3881787061691284,0.26015570759773254,0.12127789109945297,0.026911579072475433,-0.9922537207603455,0.19285479187965393,-0.19364435970783234,-0.17972809076309204,0.6800814737196208,-0.05365500494951553,0.03153222378205801,0.7304903519491623,-0.02691482861557009,0.12162144099230718,1.6438778276477333
1784890534210390528,2.7740745544433594,0.4814433455467224,-0.27159491181373596,0.27059367299079895,0.11812030524015427,0.02358698472380638,-0.9927191138267517,0.11962687969207764,-0.08985590934753418,-0.17436456680297852,0.6794245212318969,-0.05138821740947994,0.0316178976599357,0.7312605800966147,-0.023589173287140167,0.11842982470162332,1.645652579843684
1784890534220309760,2.783993721008301,0.6222132444381714,-0.5063469409942627,0.1846931427717209,0.1139879897236824,0.017494600266218185,-0.9933280944824219,0.1972150206565857,-0.06479683518409729,-0.22099685668945312,0.6786261488151004,-0.04782723227317492,0.03238077455189986,0.7322094921902761,-0.017495492434774766,0.11425385010135275,1.6477202858595408
1784890534230229504,2.7939136028289795,0.8910185694694519,-0.5522910952568054,0.5091355443000793,0.10944005101919174,0.009586149826645851,-0.9939471483230591,0.16103723645210266,-0.010867886245250702,-0.16779601573944092,0.6776594482627252,-0.04350677089917514,0.03366859694779477,0.7333153637746729,-0.009586296714124564,0.10966476058590367,1.6501718039730562
1784890534240148736,2.803832769393921,0.8391314148902893,-0.6823641657829285,0.23098938167095184,0.1030617281794548,0.0005267722881399095,-0.994674801826477,0.2370719313621521,-0.03261600434780121,-0.21531665325164795,0.6765318745955391,-0.038134468860604676,0.034761341583488675,0.7346033382300625,-0.0005267722971299059,0.10324506819590955,1.653081766223803
1784890534250068736,2.8137526512145996,0.7631581425666809,-0.6375170350074768,0.32805246114730835,0.09665286540985107,-0.0076826708391308784,-0.9952884912490845,0.11762630194425583,-0.026863224804401398,-0.14670974016189575,0.6758656851170141,-0.03302202701127456,0.03557098390493045,0.7354249868335485,0.007682746498299888,0.0968068493156357,1.6547782110115286
1784890534259987712,2.823671579360962,0.8451219797134399,-0.6324213147163391,0.3793550431728363,0.0905948281288147,-0.015854807570576668,-0.9957616329193115,0.1101498007774353,-0.10912993550300598,-0.14173531532287598,0.6746177206570677,-0.028083530960986376,0.036476100325142036,0.7367303909729427,0.01585547234299358,0.09073064961006042,1.6580386209023692
1784890534269907712,2.8335916996002197,0.8230140209197998,-0.7992809414863586,0.24793830513954163,0.08387237787246704,-0.024394122883677483,-0.9961778521537781,0.09943144768476486,-0.009236248210072517,-0.15856146812438965,0.6737322256992709,-0.022761489577911485,0.03732263465491097,0.7376813128087234,0.024396542221797,0.08399607605423055,1.6603261107134646
1784890534279827712,2.8435115814208984,0.7657771110534668,-0.7108972668647766,0.3426746428012848,0.07677561044692993,-0.03266140818595886,-0.996513307094574,0.14623159170150757,-0.028190642595291138,-0.13431555032730103,0.6729395694722543,-0.017390829669439164,0.037959372216597835,0.7385180563831519,0.032667218532429154,0.07689234205481651,1.6623958968457542
1784890534289746688,2.85343074798584,0.743403971195221,-0.7659105658531189,0.3478941321372986,0.06894674897193909,-0.04037996754050255,-0.996802806854248,0.1576004922389984,-0.10993436723947525,-0.12267351150512695,0.671980711185185,-0.011944481288746808,0.038156704741679155,0.7394884925926756,0.040390947676901684,0.06905790761032113,1.6649840447119946
1784890534299666688,2.8633506298065186,0.6696927547454834,-0.7075713872909546,0.4664865732192993,0.06161675229668617,-0.04765907675027847,-0.9969613552093506,0.14648261666297913,-0.09162314236164093,-0.11728113889694214,0.6705352350485171,-0.006856350837079078,0.03837058435458388,0.7408529983704355,0.047677135800232966,0.061726040590404985,1.668885178962362
1784890534309585664,2.873269557952881,0.5484766960144043,-0.7919530272483826,0.4160483181476593,0.05392429232597351,-0.05409036576747894,-0.9970789551734924,0.129379540681839,-0.14586080610752106,-0.10141652822494507,0.6690108739122467,-0.0019224658920908978,0.03816852617197996,0.7422695028504661,0.054116775478794336,0.054029635581892686,1.6730593315743512
1784890534319505664,2.8831896781921387,0.3734140396118164,-0.745295524597168,0.32025280594825745,0.04619092121720314,-0.05856318399310112,-0.9972144961357117,0.11604052782058716,-0.16041569411754608,-0.05652695894241333,0.6679716163341115,0.0023968984593180803,0.03724253604609816,0.7432504470906652,0.05859671034856264,0.04628686217578043,1.6760246254297488
1784890534329424640,2.893108606338501,0.261896014213562,-0.7543928623199463,0.4369458556175232,0.03866467997431755,-0.06176473945379257,-0.9973415732383728,0.16714586317539215,-0.18146036565303802,-0.0661502480506897,0.6666476897759848,0.006203351991994039,0.0359269470906485,0.7444807060449398,0.06180407686471578,0.038748338743621775,1.6797997814396632
1784890534339344640,2.903028726577759,0.23139511048793793,-0.7436603307723999,0.221974179148674,0.03114750236272812,-0.06428885459899902,-0.9974451065063477,0.18857905268669128,-0.14287972450256348,-0.054663658142089844,0.6655958970361339,0.00979817136235428,0.03437199110257254,0.7454559272124683,0.0643332217914114,0.03121714007711046,1.6828632007682542
1784890534349263616,2.912947654724121,0.22163403034210205,-0.7466323375701904,0.31726789474487305,0.023549841716885567,-0.06657419353723526,-0.9975035190582275,0.19353695213794708,-0.13641348481178284,-0.05132460594177246,0.6646382859769142,0.013352575666400955,0.0327100346972577,0.746329475371206,0.06662346792230227,0.02360439509852679,1.6856750968372358
1784890534359183872,2.922867774963379,0.19313128292560577,-0.7206859588623047,0.2548644542694092,0.016439160332083702,-0.06866087019443512,-0.9975045919418335,0.16092900931835175,-0.10498414188623428,-0.011787950992584229,0.6637462192200263,0.016666450380887224,0.031143641651807125,0.747123334932157,0.06871493261359883,0.01647879385240482,1.6882851589827732
1784890534369103616,2.9327876567840576,0.25077545642852783,-0.6458037495613098,0.17873495817184448,0.009548742324113846,-0.07092313468456268,-0.9974361062049866,0.14731161296367645,-0.07060213387012482,0.022552073001861572,0.6630399462066053,0.01996810455854488,0.0297192782123922,0.7477273189123506,0.07098272767407744,0.009572995400382311,1.690371198724955
1784890534379022592,2.94270658493042,0.15714004635810852,-0.6692992448806763,0.26584669947624207,0.0029321571346372366,-0.07296030223369598,-0.9973305463790894,0.16549435257911682,-0.045844629406929016,0.046311259269714355,0.6623205056140016,0.02309526926050976,0.028307966032657856,0.7483293510285055,0.07302519053492044,0.002939996806103138,1.6924803250520368
1784890534388942592,2.9526267051696777,-0.05366412550210953,-0.638880729675293,0.15048278868198395,-0.0035283793695271015,-0.07379178702831268,-0.9972674250602722,0.18938042223453522,-0.08714266121387482,0.10217159986495972,0.6615985758959836,0.025766759995061127,0.026502078806972192,0.7489466007549344,0.07385892058733023,-0.0035380326348383993,1.6946190913644037
1784890534398861568,2.96254563331604,-0.18335367739200592,-0.5927388072013855,0.153188556432724,-0.009676309302449226,-0.07242237776517868,-0.9973270893096924,0.17889627814292908,-0.07169687747955322,0.19405871629714966,0.6612027704641746,0.027605137690437733,0.0239666522280383,0.74931600784524,0.07248583851409637,-0.009701938026688145,1.6959233484698486
1784890534408781824,2.972465753555298,-0.5353588461875916,-0.4984492361545563,0.10314403474330902,-0.015251848846673965,-0.06899823993444443,-0.9975001811981201,0.20368263125419617,-0.10272417217493057,0.22508502006530762,0.6608119948765556,0.02855041280826279,0.020851383041669207,0.7497183571570991,0.06905310469235877,-0.015288880068506533,1.6972187892361124
1784890534418700800,2.98238468170166,-0.8527432084083557,-0.2965230345726013,0.0854550451040268,-0.0190353412181139,-0.06187198683619499,-0.9979025721549988,0.17800140380859375,-0.09976436197757721,0.3277823328971863,0.6606369588540488,0.027604728090367753,0.01693223469850794,0.7500066719672901,0.06191152917712305,-0.019073036740227093,1.6979254712324354
1784890534428620544,2.992304563522339,-1.0793684720993042,-0.16155299544334412,0.1276497095823288,-0.02144315280020237,-0.05236077681183815,-0.9983980059623718,0.20258024334907532,-0.11200690269470215,0.3380739092826843,0.6603014591402869,0.02535344944512549,0.012578124591350033,0.7504671287275373,0.052384732815726226,-0.02147425859460848,1.699010142746249
1784890534438539776,3.0022237300872803,-1.2452075481414795,0.08898680657148361,0.12631119787693024,-0.02195570431649685,-0.04089745879173279,-0.9989221096038818,0.1265241801738739,-0.002620607614517212,0.39676451683044434,0.6600717241784907,0.021752004093356862,0.00811200375821582,0.7508437521430444,0.04090886982470696,-0.021975857560284463,1.6997399074229436
1784890534448459520,3.012143611907959,-1.1647089719772339,0.22043518722057343,0.06117294356226921,-0.020256439223885536,-0.028839411213994026,-0.9993788003921509,0.11010018736124039,0.08247405290603638,0.4781843423843384,0.6596898987793168,0.01712750193014793,0.004153781648208534,0.751331268602611,0.02884341127609479,-0.020266256201029224,1.7008001853682448
1784890534458378752,3.0220627784729004,-0.9915025234222412,0.4127497673034668,0.027550801634788513,-0.01668578013777733,-0.01794758252799511,-0.9996997117996216,0.06273680925369263,0.16128864884376526,0.5187884569168091,0.6596278138117975,0.01219081166786714,0.0012407214609282723,0.7514925857104345,0.017948546528591496,-0.016689243153771894,1.7009639350952905
1784890534468298752,3.031982660293579,-0.761690616607666,0.6110793948173523,0.04930376634001732,-0.011557797901332378,-0.009479707106947899,-0.9998882412910461,0.13408587872982025,0.24757784605026245,0.5353802442550659,0.6596049653848901,0.0074701257429966375,-0.0002494474153406262,0.7515753446379049,0.009479848997761602,-0.011558574892337437,1.7010124373342281
1784890534478218752,3.041902780532837,-0.47202983498573303,0.6123278737068176,-0.061198506504297256,-0.005258269142359495,-0.0034468434751033783,-0.9999802112579346,0.15018624067306519,0.3348372280597687,0.5620530247688293,0.6594811120686278,0.0031129534373347703,-0.0004383475410557922,0.7517145978820965,0.0034468503234341033,-0.005258324398805701,1.7013365810898544
1784890534488137728,3.051821708679199,-0.2193026840686798,0.7946348190307617,-0.06490599364042282,0.0018138712039217353,0.0001762221654644236,-0.9999983310699463,0.046800632029771805,0.29260942339897156,0.5628187656402588,0.6598089303118632,-0.000739638302981968,0.0005321950821126095,0.751432858584952,-0.00017622217217503993,0.0018138722071599088,1.700463158732663
1784890534498057728,3.061741590499878,0.0388934388756752,1.0508784055709839,-0.10359133780002594,0.010950054042041302,0.000629421032499522,-0.9999398589134216,0.047231707721948624,0.11768723279237747,0.5234994292259216,0.6599438528367714,-0.004321181250981377,0.0033768714904618066,0.7512949495192437,-0.0006294210567980991,0.010950275469808,1.7000817510477264
1784890534507976704,3.0716607570648193,0.007715944666415453,1.1866042613983154,-0.22230008244514465,0.022015219554305077,0.000602944171987474,-0.9997574687004089,-0.044659264385700226,0.11168648302555084,0.5754258036613464,0.6605516738669058,-0.008463574641787682,0.007045633668939421,0.7506998742535346,-0.000602944210974679,0.022017001808020305,1.6983860977199055
1784890534517896704,3.081580638885498,0.022445887327194214,1.4355120658874512,-0.2557232975959778,0.034846846014261246,0.0005167946219444275,-0.9993925094604492,-0.041560716927051544,0.06907854229211807,0.5998411774635315,0.6613686204222261,-0.01324002002865945,0.011332987275721091,0.7498584671040226,-0.000516794651875033,0.034853907517255575,1.6960496411734214
1784890534527815680,3.0914995670318604,0.08954642713069916,1.550072193145752,-0.26728323101997375,0.049611646682024,0.00013458110333885998,-0.9987685680389404,-0.0379386767745018,0.056017760187387466,0.6196792721748352,0.662280565408099,-0.018631752216244867,0.016388115485757086,0.7488449083068349,-0.0001345811085355897,0.049632021018563795,1.6933344451852674
1784890534537735680,3.101419687271118,0.06423921138048172,1.488063931465149,-0.27643197774887085,0.06451107561588287,-0.0004910092684440315,-0.9979168772697449,-0.032208219170570374,0.07332121580839157,0.6005932688713074,0.6631424055258333,-0.023982773059168423,0.021596093265878077,0.7477972174687288,0.0004910092892929486,0.06455590990782553,1.6906346641592063
1784890534547654656,3.1113386154174805,0.2056884914636612,1.7241206169128418,-0.23444898426532745,0.08044368028640747,-0.0016929036937654018,-0.9967577457427979,-0.01686030626296997,0.05526651442050934,0.6011126041412354,0.6638892205501705,-0.029521417337803477,0.02737931527584189,0.7467463087802582,0.001692904555093485,0.08053081367153328,1.6880682265649378
1784890534557574656,3.1212587356567383,0.2981819212436676,1.6867140531539917,-0.27458229660987854,0.0974656268954277,-0.0037505789659917355,-0.9952318072319031,0.0645827129483223,0.03423764184117317,0.5336534976959229,0.6646514964956968,-0.035170493935566365,0.03386921412362406,0.7455564456264737,0.0037505877359976913,0.09762128999626134,1.6852294557835121
1784890534567494656,3.131178617477417,0.4965362846851349,1.4926135540008545,-0.27437615394592285,0.11327368021011353,-0.007442105561494827,-0.9935359358787537,0.18325035274028778,0.021800629794597626,0.44406700134277344,0.665356162676428,-0.039810942143736545,0.04058463334471182,0.7443582958086523,0.007442174328867517,0.1135204829089686,1.6823389155105761
1784890534577413632,3.1410975456237793,0.7274150252342224,1.4615147113800049,-0.3304636776447296,0.12765620648860931,-0.01307571679353714,-0.9917322993278503,0.19441105425357819,0.0023182732984423637,0.33644360303878784,0.6663710840589496,-0.04323635145903751,0.047586516858739436,0.7428430382527631,0.013076089372138201,0.12801649136294643,1.678383254859409
1784890534587333632,3.151017665863037,0.9613053202629089,1.6173722743988037,-0.22382843494415283,0.14299644529819489,-0.02097831293940544,-0.9895008206367493,0.18529638648033142,-0.02630866877734661,0.30486953258514404,0.6671223848984028,-0.04625521688809544,0.05576764750787465,0.7414163728425914,0.02097985169343569,0.14352011608698909,1.6746814593273105
1784890534597252608,3.1609365940093994,1.2107186317443848,1.5373754501342773,-0.2607169449329376,0.15876024961471558,-0.03133779764175415,-0.9868196845054626,0.17539197206497192,-0.03902047500014305,0.27553123235702515,0.6677783647879878,-0.04859183438666481,0.06503062126524681,0.7399202658499722,0.03134292925402955,0.15951386595804912,1.6706977252056652
1784890534607172608,3.1708567142486572,1.366162657737732,1.540932297706604,-0.27583909034729004,0.17379115521907806,-0.04339291527867317,-0.9838260412216187,0.26485323905944824,-0.03966066613793373,0.27044713497161865,0.6686044115714032,-0.050041234222862094,0.07471847591041576,0.7381607762178762,0.04340654572679848,0.17484449785966313,1.6657994185372735
1784890534617091584,3.1807756423950195,1.502907156944275,1.5036795139312744,-0.22691364586353302,0.1885450929403305,-0.05701770260930061,-0.9804079532623291,0.2739030122756958,-0.06685315072536469,0.2789766788482666,0.6692688154056671,-0.0508401384055926,0.08491943749927905,0.7363987740638782,0.057048640474541765,0.1899933098362174,1.6607997693219867
1784890534627011840,3.1906957626342773,1.7983312606811523,1.410613775253296,-0.2270582914352417,0.20287197828292847,-0.07233639806509018,-0.9765297770500183,0.27057772874832153,-0.028951436281204224,0.2659127116203308,0.6698883744240827,-0.050874772483487235,0.09563926458613276,0.7345165170142999,0.07239963478968428,0.20483421711747773,1.6553236272266814
1784890534636930816,3.2006146907806396,1.9098469018936157,1.326429843902588,-0.15793141722679138,0.21628841757774353,-0.0899139940738678,-0.9721804261207581,0.2727557420730591,-0.023870788514614105,0.22794830799102783,0.670371331561885,-0.04978024352213287,0.10691917529171917,0.7325930419255179,0.090035586349808,0.21891234173162155,1.649537548522836
1784890534646850560,3.2105345726013184,1.8749927282333374,1.2296600341796875,-0.24522018432617188,0.22863218188285828,-0.10781632363796234,-0.9675241708755493,0.22852115333080292,-0.02983321249485016,0.22751867771148682,0.6708561669941439,-0.048131397089520106,0.11798853551798172,0.730557477562744,0.1080263075554682,0.23204965797479646,1.6433441788165903
1784890534656770816,3.220454692840576,1.867263674736023,1.2641034126281738,-0.16966763138771057,0.24074046313762665,-0.12528149783611298,-0.9624700546264648,0.20515187084674835,-0.024681881070137024,0.23566341400146484,0.671332068378806,-0.04649591220182832,0.12885305934381197,0.7283874357904815,0.12561156677429428,0.2450988880093244,1.6367839836360714
1784890534666689536,3.2303736209869385,1.8429415225982666,1.1931341886520386,-0.025687718763947487,0.25232943892478943,-0.14272111654281616,-0.9570582509040833,0.13496911525726318,-0.00954630970954895,0.20409810543060303,0.6712260912216604,-0.044735957786324804,0.13953335702108532,0.7266255597013278,0.14321014096316725,0.25778489549147476,1.6314257695474372
1784890534676609792,3.2402937412261963,1.6040434837341309,0.9364137053489685,-0.07880233228206635,0.2630418837070465,-0.1589592695236206,-0.95159912109375,0.06525096297264099,0.0150841623544693,0.1525726318359375,0.6710171296163161,-0.043054316086648524,0.14948830837488875,0.7249384314433972,0.1596364325520274,0.2696867263056389,1.6263091074839018
1784890534686528768,3.2502126693725586,1.5653998851776123,0.9272133111953735,0.10008655488491058,0.2712295353412628,-0.17391426861286163,-0.946672260761261,0.04978486895561218,0.03406746685504913,0.10293751955032349,0.6706623545368723,-0.04089789036034628,0.1580861433876881,0.723566328925775,0.1748031288359557,0.2790336531652062,1.6220410740896274
1784890534696448512,3.2601325511932373,1.3947455883026123,0.9598513841629028,-0.1289793848991394,0.28022944927215576,-0.18765771389007568,-0.9414117336273193,0.06303226947784424,0.004460692405700684,-0.015238046646118164,0.6702613832216452,-0.039445125554292845,0.16654794664639933,0.7221187938268062,0.18877695215706045,0.28931724381385143,1.6176688378948043
1784890534706367744,3.2700517177581787,0.9479736089706421,0.8198056817054749,-0.047839127480983734,0.2886025011539459,-0.19822879135608673,-0.9367037415504456,0.10333475470542908,-0.02586178481578827,-0.05650609731674194,0.6700202876590275,-0.03881943339504749,0.17361212642633544,0.7207111910068634,0.19955051851453984,0.2988752845486131,1.613520025560953
1784890534716287488,3.2799715995788574,0.49483272433280945,0.940019428730011,-0.20091335475444794,0.2968680262565613,-0.20482923090457916,-0.9326919913291931,0.11518031358718872,-0.012227043509483337,-0.07331997156143188,0.669758500264828,-0.03954527758387052,0.17913729828175584,0.7195620541645299,0.20628923804216398,0.3081524576491079,1.6103109485256086
1784890534726206720,3.289890766143799,0.09077713638544083,1.0651637315750122,-0.1572236716747284,0.3066592514514923,-0.20669801533222198,-0.9291049838066101,0.04557463526725769,0.13957460224628448,-0.05388146638870239,0.6696418418007153,-0.042453657654497566,0.18342629221084417,0.7184234785564292,0.2081988873381846,0.318800565063993,1.6074654590324233
1784890534736126720,3.2998106479644775,-0.12264619022607803,1.0369890928268433,-0.3833683729171753,0.3170108199119568,-0.20556996762752533,-0.9258753061294556,0.005376845598220825,0.24007008969783783,-0.08036553859710693,0.6695416774351881,-0.04661955564993002,0.18678583890536388,0.7173922789856995,0.2070460767625307,0.32987964722555635,1.6051876026309189
1784890534746046720,3.3097307682037354,-0.023390907794237137,1.000268578529358,-0.19613003730773926,0.32721012830734253,-0.20356296002864838,-0.9227651953697205,-0.14328068494796753,0.36185765266418457,-0.11571741104125977,0.6697772351027365,-0.050952242425075005,0.1897926691622236,0.7160873452192854,0.20499570322426297,0.3407645952308584,1.6022136402148883
1784890534755965696,3.3196496963500977,0.09171757102012634,0.8821424841880798,-0.21234123408794403,0.33628302812576294,-0.20335565507411957,-0.919543445110321,-0.08815988898277283,0.43461787700653076,-0.15620112419128418,0.6694736895002275,-0.05437949282886468,0.19305733771435474,0.7152459018388567,0.20478398147358007,0.3505981659247038,1.600488681177452
1784890534765885696,3.3295695781707764,0.05085369199514389,0.5810542702674866,-0.363504022359848,0.34362179040908813,-0.20304512977600098,-0.9168951511383057,-0.15145263075828552,0.40771129727363586,-0.14027947187423706,0.7892963834334122,-0.020219609507220095,0.20283881700155873,0.579188119605558,0.2044668418845398,0.3585661462278347,1.2289278915619612
1784890534775804672,3.3394887447357178,-0.17719677090644836,0.5521547198295593,-0.3213784098625183,0.3493894338607788,-0.20161430537700653,-0.9150293469429016,-0.028985410928726196,0.23680107295513153,-0.05910700559616089,0.8506653305656205,0.001324461223096677,0.2061154313311828,0.48361481900766556,0.20300578725514304,0.3647487420604457,0.9963282157069772
1784890534785724672,3.3494086265563965,-0.7210906147956848,0.669072151184082,-0.284587025642395,0.3556768000125885,-0.19648660719394684,-0.9137215614318848,-0.063577800989151,0.11175455152988434,0.08906030654907227,0.883823767293958,0.012836257927493972,0.2073028315841613,0.4191853714988539,0.1977733844362248,0.3712150828129803,0.8484786574838235
1784890534795643648,3.359327554702759,-1.4217684268951416,0.6466853618621826,-0.5985904932022095,0.36234110593795776,-0.18530593812465668,-0.9134389162063599,-0.06616801023483276,-0.13421308994293213,0.06357014179229736,0.8842230928953835,0.006444063810572659,0.2079399259031682,0.41817356705577624,0.18638318637810125,0.37763927885257415,0.8477956427872724
1784890534805563648,3.3692476749420166,-1.9161720275878906,0.649875283241272,-0.5569366216659546,0.3695381283760071,-0.16750334203243256,-0.9139935374259949,-0.06501847505569458,-0.08026887476444244,0.003928840160369873,0.9043228811065788,0.007108580326250613,0.2072503280452426,0.37309093547921723,0.16829668305376044,0.3842176856021542,0.7497707400986063
1784890534815483648,3.3791675567626953,-2.180480718612671,0.8019564151763916,-1.2199214696884155,0.3772818148136139,-0.14687015116214752,-0.91437828540802,-0.0825430154800415,0.21349002420902252,-0.20853126049041748,0.9180259489282061,0.0037675778729666645,0.2068735754383246,0.33825655580824304,0.14740336576646898,0.3913297592837416,0.6767843616401519
1784890534825402624,3.3890867233276367,-3.550748825073242,0.9590501189231873,-1.1374980211257935,0.3874795734882355,-0.11561360955238342,-0.9145999550819397,0.009554117918014526,0.2735573351383209,-0.1396145224571228,0.9190239310245276,-0.012444127328976665,0.20626479606605508,0.335700796284395,0.11587273092888381,0.40073525394468096,0.6768851507298541
1784890534835322624,3.3990066051483154,-4.355225086212158,0.940009593963623,-1.0568658113479614,0.39683425426483154,-0.0756986141204834,-0.9147635102272034,0.35072433948516846,0.2390744686126709,0.02706819772720337,0.9285737328094741,-0.02721286426258349,0.20464040354026602,0.3084359474160498,0.07577109435964974,0.4093097043188155,0.6256558836070912
1784890534845241856,3.408925771713257,-5.228199481964111,0.9326577186584473,-1.1407102346420288,0.4063531458377838,-0.02823932096362114,-0.9132795929908752,0.3946264684200287,0.12852008640766144,-0.15817731618881226,0.9348862492483295,-0.04725166421708547,0.20279909454794207,0.2874499588747712,0.028243075145952198,0.41863671123110385,0.5905925489243754
1784890534855161600,3.4188456535339355,-5.733736991882324,0.8580793738365173,-1.0649187564849854,0.41439467668533325,0.026796415448188782,-0.909702718257904,0.44232526421546936,0.0026377737522125244,-0.19575077295303345,0.9388865704011546,-0.07194051835674536,0.19993302650420533,0.270819580608046,-0.02679962421907694,0.4274411476374969,0.5674664535838201
1784890534865080576,3.428764581680298,-5.988926410675049,0.9656537771224976,-0.9355626106262207,0.4223480522632599,0.08383987098932266,-0.90254807472229,0.4709014594554901,-0.007790066301822662,-0.26868605613708496,0.9406852430373025,-0.09865000713057111,0.19746935397618898,0.257653502577444,-0.08393840258522883,0.43768109999009536,0.5533646891609161
1784890534875000832,3.4386847019195557,-6.04727840423584,0.9034218192100525,-1.2464635372161865,0.42923691868782043,0.1420237123966217,-0.8919556736946106,0.33744093775749207,0.2522786557674408,-0.2977873682975769,0.9410377536183702,-0.12641057287075788,0.19504493215002752,0.24581652139767182,-0.14250554985225738,0.4485201450861727,0.5435755254313062
1784890534884919552,3.448603630065918,-5.56680965423584,0.770758330821991,-1.2968082427978516,0.4343293607234955,0.19854652881622314,-0.8785995841026306,0.21381822228431702,0.39657676219940186,-0.3003402352333069,0.9403755749002781,-0.15360460097783643,0.1926287353063092,0.23450681333974288,-0.19987470128703388,0.45911160019273634,0.5356351718142336
1784890534894839808,3.458523750305176,-4.886950969696045,0.8636528253555298,-1.0799797773361206,0.43866753578186035,0.24930822849273682,-0.8633748888969421,0.29567694664001465,0.4442647695541382,-0.2754952907562256,0.9389242765113927,-0.17832009952884711,0.19108763735552936,0.22384992865409306,-0.2519658669761568,0.4700943780320726,0.5287259717364925
1784890534904759552,3.4684436321258545,-3.925802707672119,0.6677706837654114,-1.4156054258346558,0.44172632694244385,0.29220545291900635,-0.8482298254966736,0.34295690059661865,0.40637242794036865,-0.3371949791908264,0.9372991189112077,-0.19921528715784,0.19025864662464298,0.2135071961322523,-0.2965321219695158,0.48011933695144876,0.5210256525619837
1784890534914678528,3.478362560272217,-3.4077398777008057,0.5466524958610535,-1.4936858415603638,0.44212624430656433,0.32887911796569824,-0.8344836235046387,0.27767661213874817,0.49704864621162415,-0.34656190872192383,0.9360881488409577,-0.21660735255463032,0.18931305923723793,0.20243729708414313,-0.3351164066928282,0.48721814924714885,0.5099885539316477
1784890534924598784,3.4882826805114746,-3.2183752059936523,0.5842784643173218,-1.385984182357788,0.44197067618370056,0.3614739179611206,-0.8209741115570068,0.33531200885772705,0.4940558671951294,-0.16086792945861816,0.9347376871614547,-0.23208089586367775,0.18881575887815472,0.19170961422726543,-0.3698482284977327,0.49385420244610057,0.49881444151416077
1784890534934517504,3.498201608657837,-3.8801379203796387,0.6999736428260803,-1.6141475439071655,0.44177132844924927,0.39671429991722107,-0.8046464323997498,0.33203238248825073,0.3878926634788513,0.008213937282562256,0.9324077789028167,-0.2493989920120875,0.1883531852928272,0.18149104740857663,-0.4079346314478335,0.5020946352005271,0.4904818043417428
1784890534944437760,3.5081217288970947,-4.660061359405518,0.9485566020011902,-1.521942138671875,0.4418683350086212,0.4373130798339844,-0.7832686305046082,0.3058122992515564,0.21715164184570312,0.13524305820465088,0.9285279901435539,-0.2702410783586812,0.1879772829814201,0.17166895355293937,-0.45260874002863105,0.5136297497538738,0.486422965085058
1784890534954356736,3.518040657043457,-4.806702613830566,1.1092642545700073,-1.6979984045028687,0.44214051961898804,0.48097091913223267,-0.7570856809616089,0.2852764427661896,0.15992873907089233,0.12685197591781616,0.9232138565313919,-0.29345847775905476,0.18798744749300153,0.16192289292957218,-0.5017618052402227,0.5285741613169029,0.48573507018388196
1784890534964276736,3.527960777282715,-4.479917526245117,1.0968888998031616,-1.6604702472686768,0.4419635832309723,0.5228488445281982,-0.7289014458656311,0.27571824193000793,0.25573086738586426,-0.053645551204681396,0.9171896339686548,-0.31632200643094827,0.18838703303259743,0.15236108796090447,-0.5501895598602605,0.5450697392808818,0.486674331732748
1784890534974196736,3.5378806591033936,-4.0534868240356445,1.0483429431915283,-1.633195400238037,0.4407757520675659,0.560120701789856,-0.7014139294624329,0.3034716546535492,0.37432748079299927,-0.25567829608917236,0.911146970388807,-0.3370664763127448,0.18888946288222905,0.14324122294273536,-0.5945314718351326,0.5610479270599227,0.4879387955426751
1784890534984115712,3.547799587249756,-3.424609422683716,0.9180098176002502,-1.6493138074874878,0.438474178314209,0.5927178263664246,-0.6755931377410889,0.3023858070373535,0.31972724199295044,-0.26756787300109863,0.9054295911724926,-0.35538566226257984,0.18948473750526662,0.13414159801001757,-0.6344291205162261,0.5756867386472292,0.4879535913273369
1784890534994035712,3.5577197074890137,-3.224997043609619,0.8709924817085266,-1.664551854133606,0.43437403440475464,0.6218079328536987,-0.6516702175140381,0.31814366579055786,0.32716667652130127,-0.3347647190093994,0.9001558370201123,-0.3716832724051411,0.18977999417612804,0.12471761280145927,-0.6710490568812824,0.587925303903941,0.48570213940594764
1784890535003954688,3.567638635635376,-3.262402057647705,0.9506827592849731,-1.643554925918579,0.4291962683200836,0.6495650410652161,-0.6275793313980103,0.2957793176174164,0.36927950382232666,-0.26661622524261475,0.8947328472426942,-0.3874330200888018,0.19001577786380422,0.11507737969881533,-0.7070122412799126,0.5998329994129801,0.48307237551504156
1784890535013874688,3.577558755874634,-3.707494020462036,0.7667201161384583,-1.473559856414795,0.4243620038032532,0.6770657896995544,-0.6012477278709412,0.3819429278373718,0.23626428842544556,-0.17501264810562134,0.888305699645674,-0.4040736485372518,0.1900016283828717,0.10740979881681693,-0.7437681480011474,0.6146094784086302,0.48696945001438857
1784890535023793664,3.587477684020996,-4.744028568267822,1.0018965005874634,-1.4424991607666016,0.4195604920387268,0.7077304124832153,-0.5684072375297546,0.3818768858909607,0.11795318126678467,0.05980122089385986,0.8797860160078302,-0.4239866914862265,0.18982012306711177,0.10089740716003913,-0.7862804939765612,0.6358632940648065,0.49966589199131445
1784890535033713664,3.597397565841675,-5.240757942199707,1.296017050743103,-1.1766666173934937,0.4168294072151184,0.7405089735984802,-0.5271618366241455,0.252054899930954,-0.0189971923828125,0.244096040725708,0.8686139495387876,-0.44720802654800135,0.19085089870033545,0.0953447764359414,-0.8338274127267141,0.6690473993273126,0.5241358177639944
1784890535043632640,3.607316732406616,-5.470766067504883,1.5288267135620117,-1.3184560537338257,0.4144498109817505,0.7729213237762451,-0.4804415702819824,0.261865496635437,0.030240297317504883,0.15248441696166992,0.8556340356982444,-0.4719295627104309,0.1925141619062991,0.09006266743138858,-0.8834324358053748,0.7117886384147656,0.5577487949052241
1784890535053552640,3.617236614227295,-4.825243949890137,1.502581000328064,-1.1231731176376343,0.4124465882778168,0.8010322451591492,-0.4338606595993042,0.24685519933700562,0.19471049308776855,0.0428694486618042,0.8424892541701242,-0.4949696307610792,0.1951274709368841,0.08451123195427254,-0.9290176370034792,0.7601005901681007,0.5950636726603129
1784890535063472640,3.6271567344665527,-4.257952690124512,1.6236892938613892,-1.1436591148376465,0.40986549854278564,0.8244895935058594,-0.3901631534099579,0.31018146872520447,0.23935317993164062,-0.011112451553344727,0.8299967120756552,-0.5154523368464308,0.19805884727618964,0.07865821488892388,-0.9692996064288221,0.810020232136435,0.6329958100957517
1784890535073391616,3.637075662612915,-3.5013508796691895,1.5789817571640015,-1.0414166450500488,0.4076176881790161,0.8431280255317688,-0.35068920254707336,0.322286456823349,0.15275204181671143,-0.04111066460609436,0.81859971391461,-0.5328304715274669,0.2018590707527025,0.07238150953831213,-1.003074221030567,0.8603307594513436,0.6692982353767397
1784890535083311616,3.6469955444335938,-3.194715976715088,1.5196224451065063,-1.153839111328125,0.403132826089859,0.858741283416748,-0.3163028061389923,0.2933393120765686,0.08878374099731445,-0.08410310745239258,0.8086083704573999,-0.547619224896988,0.2048457617670768,0.06560474818440855,-1.0328080978722332,0.9055090943428403,0.7008902412342881
1784890535093230848,3.656914710998535,-3.008945941925049,1.689438819885254,-0.9370561242103577,0.39903175830841064,0.8721202611923218,-0.283160924911499,0.25114527344703674,0.04616904258728027,0.037143439054489136,0.7988305896810963,-0.5612039412752403,0.20849381445801485,0.05873914265906259,-1.059519042695165,0.9536430887046727,0.73430478397283
1784890535103150592,3.666834592819214,-2.8371665477752686,1.6748472452163696,-0.80536949634552,0.39571839570999146,0.8834044933319092,-0.2510054409503937,0.27270814776420593,-0.09246498346328735,0.11636188626289368,0.7891646578608715,-0.5737762924557956,0.2127863750171334,0.052173131186282085,-1.0830782234282579,1.0055350031480494,0.7709306575051282
1784890535113069824,3.6767537593841553,-3.0672268867492676,1.967788577079773,-0.6743710041046143,0.3938041627407074,0.892943263053894,-0.21810682117938995,0.23940503597259521,-0.18287557363510132,0.22665175795555115,0.7790569116323678,-0.5859925672617177,0.21808095378010434,0.046083527670118064,-1.1038414346664789,1.0650052072367016,0.8143245264696793
1784890535122989568,3.686673641204834,-3.030423164367676,2.2156713008880615,-0.4693645238876343,0.39290785789489746,0.9013973474502563,-0.18195146322250366,0.13788434863090515,-0.25370752811431885,0.5103816390037537,0.767711734065109,-0.5987575503338989,0.22475245615988018,0.03993074662202213,-1.122985890180166,1.1371107484091516,0.8682325583405842
1784890535132909824,3.696593761444092,-2.3488988876342773,2.146414279937744,-0.48614829778671265,0.3926832973957062,0.9074988961219788,-0.14914974570274353,0.2308976650238037,-0.28524547815322876,0.4470013380050659,0.757258599319232,-0.6095260131715203,0.23217054669455087,0.03367945040599399,-1.1372909458043254,1.2078048635696759,0.9193715809097581
1784890535142828800,3.706512689590454,-2.1001718044281006,2.218416452407837,-0.34789836406707764,0.3920316696166992,0.9121381640434265,-0.11964630335569382,0.2718324661254883,-0.16648685932159424,0.4561483860015869,0.7477267773214868,-0.6185940663916678,0.23982958646410316,0.026978642687524982,-1.1484706237210558,1.274579857851489,0.9654961921462856
1784890535152748544,3.716432571411133,-1.4982852935791016,2.2549259662628174,-0.05593070760369301,0.3932141959667206,0.9146374464035034,-0.09391909837722778,0.31018543243408203,-0.21834850311279297,0.4980023503303528,0.7392796624321483,-0.6255304614589952,0.24849968699642352,0.020616626361305172,-1.1546102096260398,1.3363392699331371,1.005450681866969
