time,seconds_elapsed,rotationRateX,rotationRateY,rotationRateZ,gravityX,gravityY,gravityZ,accelerationX,accelerationY,accelerationZ,quaternionW,quaternionX,quaternionY,quaternionZ,pitch,roll,yaw
1784028387024598272,0.030928373336791992,-0.6186863780021667,0.09475523978471756,-0.349303275346756,0.03380860388278961,0.6774850487709045,-0.7347592115402222,-0.06130494922399521,-0.05111175775527954,-0.05265533924102783,0.5902508993151934,-0.21647396467115249,0.29284710764720717,-0.7204051818632946,-0.7443380252809327,0.04598074624389462,-1.7508051302313639
1784028387034518272,0.0408482551574707,-0.5439229607582092,0.020762313157320023,-0.27664414048194885,0.0321294441819191,0.6818053722381592,-0.7308277487754822,-0.030435718595981598,-0.02541804313659668,-0.04614979028701782,0.5884649096669828,-0.21843257626568818,0.29474283770900694,-0.7205019390951134,-0.7502277503349725,0.043934798945363646,-1.7545567288061448
1784028387044438272,0.050768375396728516,-0.452037513256073,-0.05328688025474548,-0.26026836037635803,0.03019437938928604,0.6854186654090881,-0.7275228500366211,-0.018078889697790146,-0.01064455509185791,-0.02888578176498413,0.5870573087837567,-0.22032989802059677,0.29613056608466315,-0.7205033205730653,-0.7551785166417838,0.04147919402289331,-1.7577528974477432
1784028387054358272,0.06068825721740723,-0.4404265880584717,-0.09747949242591858,-0.24016720056533813,0.02787703461945057,0.6886758208274841,-0.7245332598686218,-0.023818183690309525,-0.012604713439941406,-0.0179288387298584,0.5858019350243454,-0.2222877271046764,0.29718938772714665,-0.7204878256481352,-0.7596612024037644,0.03845688193315855,-1.7609273446028635
1784028387064278272,0.07060837745666504,-0.40589550137519836,-0.0977596566081047,-0.18597319722175598,0.025697771459817886,0.6917518377304077,-0.7216778993606567,-0.04118543863296509,-0.021509528160095215,-0.005235552787780762,0.5847122099354678,-0.22417871796533345,0.2981693281384174,-0.720382213679832,-0.7639121435955777,0.03559332787152019,-1.7636620014106963
1784028387074198272,0.08052825927734375,-0.3435401916503906,-0.09380634129047394,-0.14975351095199585,0.023861557245254517,0.6944665908813477,-0.719129204750061,-0.06300035864114761,-0.026024818420410156,-0.007952094078063965,0.5838081294831681,-0.22584069903059237,0.299050769917075,-0.7202310857266352,-0.7676783038855082,0.033169012057421655,-1.7658725143908516
1784028387084118272,0.09044837951660156,-0.2436133474111557,-0.10796477645635605,-0.18807879090309143,0.022040948271751404,0.6965742111206055,-0.717146098613739,-0.0551220066845417,-0.022318899631500244,-0.010896444320678711,0.5830489962026094,-0.2272747519191674,0.299621652067283,-0.7201575545488714,-0.7706116583335433,0.030724578570423315,-1.7679802563004614
1784028387094038272,0.10036826133728027,-0.15758152306079865,-0.1256503015756607,-0.17969302833080292,0.0198591947555542,0.6980080604553223,-0.715814471244812,-0.0363539382815361,-0.020853519439697266,-0.008825421333312988,0.5823742644462366,-0.22857862581058003,0.2997408471599484,-0.7202412624514668,-0.7726120363415431,0.02773637949913845,-1.7704062419673814
1784028387103957504,0.11028742790222168,-0.08915692567825317,-0.07585716992616653,-0.15717041492462158,0.017992490902543068,0.6988983750343323,-0.7149946689605713,-0.032152652740478516,-0.029998838901519775,-0.005067586898803711,0.5818463077082594,-0.22955751261284196,0.29967651727972605,-0.7203834372022896,-0.7738560858257133,0.025159199888790885,-1.772516250425637
1784028387113877248,0.12020730972290039,-0.04860537126660347,-0.0009530270472168922,-0.19709084928035736,0.0164518803358078,0.6993603706359863,-0.7145798802375793,-0.06503589451313019,-0.014332294464111328,-0.006199479103088379,0.5811970116716986,-0.2301486244799802,0.29956912216225534,-0.7207635453286323,-0.7745022571142566,0.023019083104153,-1.7749867106502437
1784028387123797504,0.1301274299621582,-0.07832278311252594,0.08037884533405304,-0.21329165995121002,0.01529193390160799,0.6998096704483032,-0.7141656279563904,-0.08502458781003952,-0.009013831615447998,-0.0026617050170898438,0.5803363385519892,-0.23048807435074867,0.2996538572726715,-0.7213130485836718,-0.775131036982598,0.021409035382550737,-1.7778279355517326
1784028387133717248,0.14004731178283691,-0.1343929022550583,0.11518625169992447,-0.189443439245224,0.014585725031793118,0.7005394697189331,-0.7134645581245422,-0.0833875983953476,-0.006020486354827881,0.004526019096374512,0.5793678936201233,-0.23072633271082973,0.3000551223795,-0.7218484328929351,-0.7761532256137049,0.02044066978378737,-1.7805667478542573
1784028387143637504,0.14996743202209473,-0.2442253977060318,0.06312251091003418,-0.20818808674812317,0.013888232409954071,0.7018970251083374,-0.7121430039405823,-0.07766998559236526,-0.006920218467712402,0.0033723115921020508,0.5783660124735335,-0.2312443400613322,0.3007566101290894,-0.7221940446128294,-0.77805729710974,0.01949955446915602,-1.783086310244335
1784028387153557248,0.15988731384277344,-0.2753634750843048,-0.04832027480006218,-0.26530709862709045,0.012286641635000706,0.7037704586982727,-0.7103211879730225,-0.07344386726617813,-0.044758617877960205,0.012826681137084961,0.5771945454326891,-0.23231622401023216,0.3014441601871955,-0.7225005689661469,-0.7806909670721905,0.017295580012962858,-1.7863552769269277
1784028387163477248,0.16980719566345215,-0.28209859132766724,-0.14211627840995789,-0.2587011158466339,0.009714879095554352,0.7057338356971741,-0.7084104418754578,-0.05265312269330025,-0.06852680444717407,-0.001779317855834961,0.5760982523205933,-0.2338729181878271,0.30182483051240655,-0.7227143665066216,-0.783458413182971,0.013712770384998437,-1.7899495829409828
1784028387173397248,0.17972731590270996,-0.3312341868877411,-0.15496759116649628,-0.22088050842285156,0.006932906806468964,0.707858681678772,-0.7063201069831848,-0.05660025775432587,-0.04648172855377197,-0.0058533549308776855,0.5751475084674452,-0.23566057803085358,0.3021655903949893,-0.7227485162169137,-0.7864620365673269,0.009815215677799981,-1.7931982231194912
1784028387183316224,0.18964624404907227,-0.36643344163894653,-0.11375090479850769,-0.20410846173763275,0.004488236270844936,0.7103449106216431,-0.7038394212722778,-0.08091949671506882,-0.034319519996643066,-0.021593928337097168,0.5742328422270189,-0.23749898011530907,0.30277800541105937,-0.7226176569675881,-0.78998809694557,0.006376703441878516,-1.795985603037893
1784028387193236224,0.19956636428833008,-0.32041704654693604,-0.0768529623746872,-0.1762373149394989,0.002456055488437414,0.7127436995506287,-0.7014203071594238,-0.08889711648225784,-0.03375810384750366,-0.04433774948120117,0.5732849262005765,-0.23911232965803797,0.3035047441757265,-0.7225334942914805,-0.7934020517761737,0.0035015317412569373,-1.7986731913968086
1784028387203156224,0.2094862461090088,-0.22851800918579102,-0.03298697620630264,-0.1417136937379837,0.0009298694203607738,0.7146663665771484,-0.6994648575782776,-0.08329680562019348,-0.018667280673980713,-0.06359666585922241,0.5724037062443434,-0.24031438247210427,0.3041653874005555,-0.7225554232677937,-0.7961470358159547,0.00132940048288114,-1.8011080703243536
1784028387213076480,0.2194063663482666,-0.11610271781682968,-0.02029263600707054,-0.11086159944534302,-0.00017180040595121682,0.7158513069152832,-0.6982526779174805,-0.09464630484580994,-0.012909471988677979,-0.07271283864974976,0.5717340107708697,-0.2410717446050703,0.304562088057981,-0.7226662113569886,-0.7978425196043009,-0.0002460433120223316,-1.8030594145170529
1784028387222996224,0.2293262481689453,-0.00015241536311805248,-0.008733185939490795,-0.0844225361943245,-0.0009582260390743613,0.7162314653396606,-0.6978621482849121,-0.09834598749876022,-0.021315693855285645,-0.07504129409790039,0.5713271806043112,-0.24141837774728298,0.3046080873229634,-0.7228529757054628,-0.798387167127564,-0.001373086983180125,-1.8044793140678759
1784028387232916480,0.23924636840820312,0.11322926729917526,-0.03740987554192543,-0.07490280270576477,-0.0016957784537225962,0.7158194780349731,-0.698283314704895,-0.10662636905908585,-0.02563399076461792,-0.07034766674041748,0.5711392085790579,-0.24145491610196312,0.3042332392447696,-0.723147093136805,-0.7977969972065733,-0.00242849149281328,-1.8056395349746652
1784028387242836224,0.24916625022888184,0.2767132818698883,-0.04984737187623978,-0.06844436377286911,-0.002524637384340167,0.7144470810890198,-0.6996849775314331,-0.11118389666080475,-0.0278778076171875,-0.0676337480545044,0.5711792651510471,-0.24116475524859743,0.3033101720989367,-0.7235999294675136,-0.7958335134203727,-0.003608232836932403,-1.8066734124476511
1784028387252756480,0.25908637046813965,0.3982844650745392,-0.04067353904247284,-0.03513142094016075,-0.003272818634286523,0.7120235562324524,-0.7021480202674866,-0.12265799194574356,-0.03392297029495239,-0.05079692602157593,0.5715035947242773,-0.24045741595544715,0.301838079779393,-0.7241945783768118,-0.7923759356719706,-0.004661118379569431,-1.8073533969894775
1784028387262675200,0.26900529861450195,0.43798765540122986,-0.0616171732544899,0.00884216371923685,-0.003680433612316847,0.7091318964958191,-0.7050662040710449,-0.13021543622016907,-0.04157519340515137,-0.019482076168060303,0.5719837649513846,-0.2394508881288696,0.3002168580664828,-0.7248224758762914,-0.7882662218629773,-0.005219935483679924,-1.8076003671446736
1784028387272595456,0.27892541885375977,0.7233331203460693,-0.1708434522151947,0.18363463878631592,-0.003966961987316608,0.7051969170570374,-0.7090003490447998,-0.09436064958572388,-0.02814924716949463,0.04390031099319458,0.5730607769150264,-0.23814981864382828,0.2979672808988935,-0.7253284649449177,-0.7827008760585743,-0.0055950896608563064,-1.8065869998093749
1784028387282515200,0.2888453006744385,1.1671663522720337,-0.21055252850055695,0.22877894341945648,-0.003570015775039792,0.6985253095626831,-0.7155764102935791,-0.03572133556008339,0.053076863288879395,0.0962831974029541,0.575316642636543,-0.23576009820033178,0.29432801723284646,-0.7258090570553999,-0.7733345844583575,-0.004988965752328198,-1.8031305540013136
1784028387292435456,0.2987654209136963,1.5844520330429077,0.06579922139644623,0.13186116516590118,-0.0031175834592431784,0.6886878609657288,-0.72505122423172,-0.1767072230577469,0.13630902767181396,0.16940242052078247,0.5775838413846155,-0.23190173773999834,0.2893025849726468,-0.7272704886323461,-0.7596777868894635,-0.004299785092416824,-1.8009446291742321
1784028387302355200,0.308685302734375,2.206951379776001,0.34702610969543457,-0.10812000930309296,-0.001224155887030065,0.6747141480445862,-0.7380781769752502,-0.18571127951145172,0.17881673574447632,0.21427446603775024,0.5796048420618498,-0.22551419791721797,0.2830269447276759,-0.730135251254239,-0.7405773322354006,-0.0016585706133608418,-1.8002992552089832
1784028387312275456,0.3186054229736328,2.5757195949554443,0.4769584834575653,-0.6692237257957458,-0.0008667988004162908,0.6570872664451599,-0.7538139820098877,-0.2502623200416565,0.1490039825439453,0.27131587266921997,0.5801616928137255,-0.21772779189838085,0.27511382235514276,-0.735064177652002,-0.716948247218579,-0.0011498837281994692,-1.8056995802810671
1784028387322195200,0.3285253047943115,3.5344552993774414,0.6845090389251709,-1.015440821647644,-0.001781765604391694,0.6341672539710999,-0.773193895816803,-0.20294542610645294,0.12196677923202515,0.3635716438293457,0.5792313631195326,-0.2079029504036479,0.26491400017237376,-0.7423530062970033,-0.6869309914250448,-0.0023044187927497312,-1.8172359518069525
1784028387332115456,0.33844542503356934,4.7096476554870605,0.2737037241458893,-0.8037653565406799,-0.0036277128383517265,0.6020342111587524,-0.7984620928764343,0.0027579416055232286,0.19035470485687256,0.3608705401420593,0.5791428170640692,-0.19538232522557664,0.25018931791252386,-0.7508826736911187,-0.6460462762408081,-0.0045433437396000045,-1.829146738558968
1784028387342035200,0.34836530685424805,6.04771089553833,-0.2450273334980011,-0.4432593882083893,-0.00705009326338768,0.5585347414016724,-0.8294512033462524,0.2590489685535431,0.16062724590301514,0.42976248264312744,0.5816966339637265,-0.18051862773223065,0.22953741399957614,-0.7591803100690968,-0.5926182531773161,-0.008499503749235849,-1.8365891326854265
1784028387351954176,0.35828423500061035,7.48305082321167,-0.7660650610923767,-0.3487326502799988,-0.013384765014052391,0.5018317699432373,-0.8648617267608643,0.37677282094955444,0.1502373218536377,0.5058681964874268,0.5865592761880483,-0.1633477289290688,0.20220451336386738,-0.7670588144517065,-0.5257152043636877,-0.01547495513642868,-1.8400885603373416
1784028387361874432,0.36820435523986816,8.81330394744873,-0.9217297434806824,-0.4316413700580597,-0.022954322397708893,0.42954352498054504,-0.9027543663978577,0.3722585141658783,0.18466851115226746,0.49091964960098267,0.5921025189899521,-0.14301681942997832,0.16783624047336904,-0.7751075880398118,-0.4439872327353941,-0.02542150792676781,-1.8426586036169645
1784028387371794176,0.3781242370605469,7.9886603355407715,-0.7698000073432922,-0.6503002643585205,-0.03258784860372543,0.3519093990325928,-0.9354666471481323,0.25846371054649353,0.23540139198303223,0.6065939664840698,0.5963299765297124,-0.12159874283946198,0.13221358034801897,-0.7823834581031741,-0.3596101929375366,-0.03482184572792964,-1.8454001442806505
1784028387381714432,0.3880443572998047,7.746937274932861,-0.7679749131202698,-1.1016000509262085,-0.04227393493056297,0.27827581763267517,-0.9595704674720764,0.04540199041366577,-0.11470156908035278,0.9613099694252014,0.5974985140822031,-0.10187461821384841,0.0991782671476503,-0.7891645205137027,-0.2819985422614234,-0.04402659120038174,-1.8517478921755846
1784028387391634176,0.3979642391204834,7.802258014678955,-1.162244439125061,-0.9779552221298218,-0.054071199148893356,0.20288172364234924,-0.9777092337608337,0.13195204734802246,-0.30932703614234924,0.8482689261436462,0.5972789992769006,-0.08300843643737842,0.06523028315195283,-0.795055054199935,-0.20429995599462025,-0.05524768627474226,-1.8586660368095296
1784028387401554432,0.4078843593597412,8.101069450378418,-1.4075101613998413,-1.0116819143295288,-0.06835084408521652,0.12501299381256104,-0.9897978901863098,0.24671083688735962,0.09398111701011658,0.8272002935409546,0.5965918490431785,-0.06494061772308335,0.029728088515805596,-0.7993604047817551,-0.12534093409806676,-0.0689459012693283,-1.8636161467573906
1784028387411474176,0.4178042411804199,8.857305526733398,-1.4736839532852173,-1.2678812742233276,-0.08349790424108505,0.04077472165226936,-0.995673418045044,0.18615904450416565,0.40137919783592224,0.7129433155059814,0.5944531009779309,-0.045733659162144405,-0.008469469410449884,-0.8027839824604885,-0.04078602923804944,-0.08366497294541982,-1.8685268934814627
1784028387421394432,0.42772436141967773,9.427521705627441,-1.4514678716659546,-1.5927280187606812,-0.09814581274986267,-0.0512402318418026,-0.9938520193099976,0.15695318579673767,0.4109051525592804,0.7175000905990601,0.5901136791837786,-0.024480482508889935,-0.04974631588806154,-0.8054140721214034,0.05126267942914551,-0.09843379205482845,-1.874414670821275
1784028387431313152,0.43764328956604004,8.788833618164062,-1.2300201654434204,-1.9960370063781738,-0.10987930744886398,-0.14320214092731476,-0.9835749268531799,0.17009049654006958,0.35755762457847595,0.7866297960281372,0.5830283686971012,-0.0026334469599195217,-0.0905847103065208,-0.8073817538102426,0.14369614595914515,-0.11125293297077174,-1.8827385022936176
1784028387441233408,0.44756340980529785,8.343305587768555,-0.9946129322052002,-2.3276710510253906,-0.11662620306015015,-0.22820508480072021,-0.9666026830673218,0.28519004583358765,0.06987988948822021,0.9622386693954468,0.5732914300687589,0.018542674404211895,-0.12788596532497706,-0.8090972878286801,0.230233725575363,-0.12007534482055916,-1.894800697872961
1784028387451153152,0.45748329162597656,7.765567779541016,-0.8176826238632202,-2.4622139930725098,-0.11829203367233276,-0.3075886368751526,-0.9441378116607666,0.5637723803520203,-0.1785869002342224,0.6098330020904541,0.561714995151357,0.03956926808943845,-0.16237414605563663,-0.8102747085650485,0.3126577601051146,-0.12464156935459324,-1.909572850039339
1784028387461073408,0.4674034118652344,6.755264759063721,-0.7356098294258118,-2.723639488220215,-0.11681103706359863,-0.3782442510128021,-0.918306291103363,0.7228901386260986,-0.5444241762161255,0.36168092489242554,0.5488254779022569,0.05882286490818418,-0.19335644529205118,-0.811137358716917,0.3878988952534342,-0.12652321373958833,-1.9269964163099425
1784028387470993408,0.4773232936859131,5.215634346008301,-0.526854395866394,-2.5612995624542236,-0.11149892956018448,-0.43485933542251587,-0.8935688734054565,0.6312896013259888,-0.8719185590744019,0.4391011595726013,0.5354408638371517,0.075124423478914,-0.2181097765819241,-0.8124577891405578,0.44988207531812163,-0.1241377142408152,-1.9477480767390376
1784028387480913408,0.4872434139251709,4.947498798370361,-0.7069863677024841,-2.6956706047058105,-0.10502172261476517,-0.48123854398727417,-0.8702757358551025,0.6534683704376221,-0.8030478954315186,0.3901732563972473,0.5223461644673354,0.08870617442389529,-0.2387327653501458,-0.8138134962406318,0.502067087298815,-0.12009564653091619,-1.9695113804980477
1784028387490833408,0.4971632957458496,5.130934238433838,-0.7819511890411377,-3.030593156814575,-0.09723713994026184,-0.5271156430244446,-0.8442121148109436,0.38163045048713684,-0.2857200503349304,0.0714612603187561,0.5073299817874707,0.10201842488126947,-0.2597810419205248,-0.8153051046167169,0.555202777899952,-0.11467559423104971,-1.995631966462101
1784028387500753408,0.5070834159851074,5.451764106750488,-0.46224939823150635,-3.12782883644104,-0.08542545884847641,-0.5731694102287292,-0.8149719834327698,0.2575293481349945,0.15791672468185425,0.09808355569839478,0.4911755906974992,0.11669597880375049,-0.2808844149052897,-0.8162306979625475,0.6103684209201589,-0.10443872952985982,-2.0252385128611903
1784028387510673408,0.5170032978057861,5.946247100830078,-0.5588470101356506,-3.2803237438201904,-0.0702361986041069,-0.6209073066711426,-0.7807310223579407,0.3040008544921875,0.14457374811172485,0.09394824504852295,0.47396663633691255,0.13308154923621296,-0.3031893572733368,-0.8159173071409584,0.669899635935018,-0.08972057622295107,-2.057831079703149
1784028387520592128,0.5269222259521484,6.3500494956970215,-0.6605243682861328,-3.3349971771240234,-0.05365021899342537,-0.6693305969238281,-0.7410250902175903,0.3514407277107239,0.0479164719581604,0.12426489591598511,0.45526600659368965,0.1499293891655628,-0.3271217573480388,-0.8143987437788228,0.7333074432364457,-0.07227390187201792,-2.0943422606587534
1784028387530512384,0.5368423461914062,6.836437702178955,-0.680230438709259,-3.2880566120147705,-0.035546354949474335,-0.7175596356391907,-0.6955894231796265,0.29766184091567993,0.09327679872512817,0.10817182064056396,0.4356359332106714,0.16735194853698845,-0.35241823252395926,-0.8111818833013854,0.8002921680045573,-0.05105807800359635,-2.1343178731184387
1784028387540432128,0.546762228012085,7.531562805175781,-1.0652906894683838,-3.401700258255005,-0.016757279634475708,-0.7663186192512512,-0.6422422528266907,0.2458374947309494,0.24652796983718872,0.0800473690032959,0.41444050490703344,0.18516751841286805,-0.38025237786240446,-0.8058289521559303,0.8730912313865568,-0.02608591918559038,-2.179372065933558
1784028387550352384,0.5566823482513428,8.198616027832031,-1.5815914869308472,-3.575855255126953,0.002654735930263996,-0.8142122626304626,-0.580561101436615,0.24717740714550018,0.4208102226257324,0.10262542963027954,0.39034745939949,0.2024256205118534,-0.41078377811988737,-0.79869223947274,0.9513710984362624,0.004572675446806112,-2.234760740361824
1784028387560272128,0.5666022300720215,8.222698211669922,-1.5736994743347168,-3.645064353942871,0.02383497543632984,-0.8586997985839844,-0.5119243860244751,0.2737114131450653,0.3532371520996094,0.1642223596572876,0.36400893437531184,0.21918712032005508,-0.4427130125840176,-0.7895946591635613,1.0327271755656646,0.04652596163058502,-2.3040710610378503
1784028387570192384,0.5765223503112793,7.556468486785889,-1.337694525718689,-3.7497591972351074,0.04908141493797302,-0.8948371410369873,-0.4436863660812378,0.22568359971046448,0.039444684982299805,0.4255284070968628,0.3374614729801685,0.23567637704362718,-0.47181930748845796,-0.7797198387037615,1.1080662410985458,0.11017392088014878,-2.3928817380598364
1784028387580112128,0.586442232131958,6.64089298248291,-1.26676607131958,-3.9326331615448,0.07839063555002213,-0.9214600324630737,-0.3804819881916046,0.21508169174194336,-0.3236572742462158,0.5808451175689697,0.31099419220591124,0.25133335619671215,-0.49657885116387185,-0.770404932442821,1.1718222453834313,0.203186693544106,-2.509354450142528
1784028387590032384,0.5963623523712158,5.739632606506348,-1.1606969833374023,-4.084630966186523,0.11118686944246292,-0.9393863677978516,-0.32433098554611206,0.2415963113307953,-0.41080278158187866,0.5921075344085693,0.2847298296223829,0.26596721614635144,-0.5168132662289447,-0.7622954145222444,1.2208361468090099,0.3302633654062299,-2.6587622914782583
1784028387599952128,0.6062822341918945,4.7643656730651855,-0.8786897659301758,-4.266157150268555,0.14714671671390533,-0.9496088624000549,-0.27675074338912964,0.18717335164546967,-0.31926625967025757,0.49994105100631714,0.2592668265605684,0.279935597204836,-0.5322224007975024,-0.755748729538512,1.2519855426867565,0.4886801661696577,-2.837321891103372
1784028387609871360,0.6162014007568359,3.9630837440490723,-0.7611727714538574,-4.506895065307617,0.18650493025779724,-0.9534873962402344,-0.23680725693702698,0.12161579728126526,-0.4207038879394531,0.42708438634872437,0.23458081678982814,0.2940291353275865,-0.5432708719053018,-0.75058339589302,1.2646011942579152,0.6671224512953703,-3.0329969554580165
1784028387619791360,0.6261212825775146,3.250732421875,-0.5683897733688354,-4.598934650421143,0.22828733921051025,-0.9519519805908203,-0.20413756370544434,0.09608395397663116,-0.5476207137107849,0.39481139183044434,0.21031902755167517,0.3078698700653421,-0.5505881951729605,-0.746883237316312,1.2595478548635468,0.8411875439881107,3.060354672771076
1784028387629711360,0.6360414028167725,2.872380256652832,-0.31137463450431824,-4.514269828796387,0.2704426646232605,-0.9463642239570618,-0.17679251730442047,0.03955492377281189,-0.3249218463897705,0.3002666234970093,0.1876404764879163,0.32182578050012517,-0.555006225225653,-0.7437656821599027,1.2417911876079974,0.9918137334546644,2.897424936449647
1784028387639631360,0.6459612846374512,3.2513058185577393,-0.4193764925003052,-4.414186954498291,0.3114875555038452,-0.9384392499923706,-0.1493573784828186,-0.01503974199295044,-0.15790486335754395,0.1381879299879074,0.16524068596898583,0.33542354032471355,-0.559296309504384,-0.7398475406063956,1.2180840641827286,1.1236851708054811,2.7535878711711286
1784028387649551360,0.655881404876709,3.19706130027771,-0.39162588119506836,-4.408921241760254,0.35177314281463623,-0.9283102750778198,-0.12039830535650253,-0.04313361644744873,-0.14488613605499268,0.003958523273468018,0.14245156954989846,0.34872983906187843,-0.5640818610967154,-0.734783478517867,1.189842152164528,1.2410323162478758,2.62364031163184
1784028387659471360,0.6658012866973877,2.47556734085083,-0.25374072790145874,-4.407233238220215,0.39174777269363403,-0.9151248335838318,-0.09529006481170654,-0.13033419847488403,-0.3351803421974182,0.007445216178894043,0.12040183579476663,0.3617537021930809,-0.5670002010228147,-0.7301701348041753,1.155817472756566,1.3321868496458416,2.521150937707203
1784028387669391360,0.6757214069366455,1.5467336177825928,-0.01570587232708931,-4.3281049728393555,0.43102845549583435,-0.8989651799201965,-0.07794985920190811,-0.14373597502708435,-0.6156222224235535,0.0340503454208374,0.10062044781800812,0.3746994481076801,-0.566237928982003,-0.7272210962518985,1.1174012800406372,1.3918838574298222,2.4540315580244623
1784028387679311360,0.6856412887573242,1.0114188194274902,0.021271584555506706,-4.07275390625,0.4681690037250519,-0.8811107873916626,-0.06679517030715942,-0.13674810528755188,-0.6379932165145874,-0.005241572856903076,0.08311416302450979,0.38707932109518306,-0.5628250281600921,-0.7255960535963093,1.0782059179527486,1.4290795297500378,2.4123529957755343
1784028387689231360,0.695561408996582,0.8916870355606079,-0.04508613422513008,-3.8420774936676025,0.5023244619369507,-0.8626805543899536,-0.058756619691848755,-0.16225188970565796,-0.3831537365913391,-0.06979864835739136,0.06711020066297671,0.3984105795385102,-0.5584717536122491,-0.7244822342249976,1.040546119730211,1.4543559850254748,2.3833904701054864
1784028387699150336,0.7054803371429443,0.7613817453384399,-0.163141667842865,-3.807086229324341,0.5346130132675171,-0.8434908986091614,-0.052078962326049805,-0.23404532670974731,-0.2570341229438782,-0.11332631856203079,0.0514064996809024,0.40884091230743164,-0.5539039880476748,-0.723461776399536,1.0037494221865937,1.473688407970546,2.359564161466965
1784028387709070080,0.715400218963623,0.27158188819885254,-0.20809608697891235,-3.7484676837921143,0.565835177898407,-0.8230732083320618,-0.04879825562238693,-0.26049143075942993,-0.2543194890022278,-0.05877620726823807,0.03622134210402814,0.41862360261456333,-0.548046669265442,-0.7232477151503801,0.9668012072060256,1.4847680688194793,2.3440044504325415
1784028387718990336,0.7253203392028809,-0.16952040791511536,-0.25294479727745056,-3.6047375202178955,0.5953030586242676,-0.8019617199897766,-0.049715012311935425,-0.24067360162734985,-0.3459569215774536,-0.012067791074514389,0.022304265496992874,0.42769918176228494,-0.5405699802901809,-0.7241270467560782,0.9305719133315373,1.4874775568304606,2.3378139646023217
1784028387728910080,0.7352402210235596,-0.5806220173835754,-0.04155238717794418,-3.5102639198303223,0.6231387853622437,-0.780262291431427,-0.053750503808259964,-0.22355681657791138,-0.39788419008255005,-0.0009064748883247375,0.009922123977910433,0.43654748723032466,-0.5315553029875866,-0.7257940370456677,0.89508507621155,1.484751635971761,2.3392421395792224
1784028387738830336,0.7451603412628174,-0.6130265593528748,0.28483423590660095,-3.4159584045410156,0.6496493220329285,-0.7580418586730957,-0.0576934777200222,-0.2843691110610962,-0.35501062870025635,-6.104260683059692e-05,-0.0008697451199494331,0.4460434982038742,-0.5217264207830058,-0.7272180598048245,0.8603055236978638,1.4822215815444495,2.3441722774725964
1784028387748750336,0.7550802230834961,-0.41096264123916626,0.43061861395835876,-3.2505428791046143,0.6745824217796326,-0.7358353137969971,-0.05903269723057747,-0.33008480072021484,-0.30684345960617065,-0.005908723920583725,-0.010788436146049563,0.455969729518856,-0.5124209767347544,-0.72759874425632,0.826899415109708,1.4835087092917392,2.347444246575028
1784028387758670336,0.7650003433227539,-0.26482781767845154,0.398697167634964,-3.1518781185150146,0.6978406310081482,-0.7138472199440002,-0.05865471810102463,-0.31621837615966797,-0.21356666088104248,-0.012069754302501678,-0.020502735321388927,0.46556798844725167,-0.5039038492885296,-0.7272598344341265,0.7949766106383153,1.4869416852725112,2.3484157480291783
1784028387768590336,0.7749202251434326,0.06082725152373314,0.2622104287147522,-3.037886142730713,0.7196190357208252,-0.6920205354690552,-0.057062726467847824,-0.2912437915802002,-0.16283786296844482,-0.052510619163513184,-0.030555268994445623,0.47448179912193766,-0.4963221318463573,-0.7263592849423379,0.7642843161818313,1.4916661563924596,2.346479020675148
1784028387778510336,0.7848403453826904,0.4451616108417511,0.05631265789270401,-2.9105567932128906,0.7398223876953125,-0.6706169247627258,-0.05418556183576584,-0.2639769911766052,-0.11954426765441895,-0.13523703813552856,-0.04148716624995989,0.48228687813144344,-0.4902107572042712,-0.7248253168968816,0.7350401007755606,1.497685558781562,2.339949301265009
1784028387788430336,0.7947602272033691,0.8515828847885132,-0.05445992574095726,-2.8769800662994385,0.7587257623672485,-0.6494895219802856,-0.04998917132616043,-0.24572515487670898,0.05303865671157837,-0.20934921503067017,-0.05341391720911031,0.48910842285713,-0.48557014367977186,-0.7225937530246457,0.7069128758019124,1.5050057236556906,2.3288054793566966
1784028387798349312,0.8046793937683105,1.2706376314163208,-0.10369511693716049,-2.9651970863342285,0.777172863483429,-0.627755880355835,-0.043871209025382996,-0.261776864528656,0.12319356203079224,-0.3139016628265381,-0.06664776625155565,0.49549851213482815,-0.48222984091237764,-0.7193702826239472,0.6786669160088817,1.5144064299054432,2.3128026317472816
1784028387808269312,0.8145992755889893,1.5172621011734009,-0.12487363815307617,-2.9861254692077637,0.7953858971595764,-0.6050258874893188,-0.03612550348043442,-0.21510940790176392,0.030517220497131348,-0.3191143274307251,-0.08101237598906455,0.5017144305993244,-0.47981233585789745,-0.7151921312266378,0.6497983435010417,1.52540867923918,2.2931850086687326
1784028387818189312,0.8245193958282471,1.4605036973953247,-0.1796998679637909,-2.881932258605957,0.8126643896102905,-0.582037091255188,-0.028454329818487167,-0.11648201942443848,-0.10625642538070679,-0.22854942083358765,-0.09555271426657183,0.5075059183962196,-0.4777139076943747,-0.7107017365178344,0.6212315743877642,1.5357969947730432,2.27315385754178
1784028387828109312,0.8344392776489258,1.2385293245315552,-0.2101280838251114,-2.674341917037964,0.8283660411834717,-0.5597398281097412,-0.02238159440457821,-0.06968384981155396,-0.200483500957489,-0.13457030057907104,-0.10922644507120415,0.5126965177400927,-0.47534354243269855,-0.7065835548258976,0.5940717977881396,1.5437839312844912,2.2557340173147526
1784028387838029312,0.8443593978881836,0.9118263721466064,-0.2537575662136078,-2.5090906620025635,0.8424035310745239,-0.5385313034057617,-0.01845397800207138,-0.08303451538085938,-0.23571497201919556,-0.10561525821685791,-0.12156839276946281,0.5173375620720508,-0.4723715247866902,-0.703170133398297,0.5686930958396966,1.5488934893478783,2.2421998318929717
1784028387847949312,0.8542792797088623,0.6695275902748108,-0.2772223651409149,-2.4242122173309326,0.8552817702293396,-0.5178970694541931,-0.016603916883468628,-0.13022994995117188,-0.1450514793395996,-0.10038524866104126,-0.13278559342253932,0.5216752565679884,-0.46856479575459237,-0.7004783694558128,0.5443908472297294,1.5513853761707104,2.232489618449562
1784028387857869312,0.8641993999481201,0.44443270564079285,-0.2674733102321625,-2.3271145820617676,0.8672184944152832,-0.4976688325405121,-0.016052743420004845,-0.14726316928863525,-0.08803975582122803,-0.1387934684753418,-0.1431260553750724,0.5258572096629904,-0.4641635737273045,-0.6982415157339349,0.5209090440739769,1.5522878296107487,2.2254611684968317
1784028387867789312,0.8741192817687988,0.13465207815170288,-0.33119890093803406,-2.2205376625061035,0.8781819343566895,-0.47801509499549866,-0.01727016642689705,-0.13782542943954468,-0.10653385519981384,-0.15069854259490967,-0.15243942755290854,0.5298150039607183,-0.4589781889735059,-0.6967046576126464,0.4983935091207737,1.5511330414837459,2.221706336022142
1784028387877709312,0.8840394020080566,-0.20644745230674744,-0.3001789152622223,-2.0326478481292725,0.8880170583724976,-0.45936712622642517,-0.020189780741930008,-0.12016427516937256,-0.15093865990638733,-0.17223882675170898,-0.16042392729434302,0.5335576311921462,-0.45301364603575023,-0.6959591091268861,0.4772825687146674,1.548064439144943,2.221547362498982
1784028387887628288,0.893958330154419,-0.5753597021102905,-0.3265813887119293,-1.878981351852417,0.8966719508171082,-0.4420064091682434,-0.024689489975571632,-0.1141555905342102,-0.18538916110992432,-0.14631575345993042,-0.16681934031116025,0.5371509546626004,-0.44623324295168865,-0.6960718016037611,0.45783422467360657,1.5432686971741554,2.225334238232091
1784028387897548288,0.9038782119750977,-0.9565925598144531,-0.3595936596393585,-1.7877148389816284,0.9044402241706848,-0.4254675805568695,-0.031067650765180588,-0.12219846248626709,-0.1772240400314331,-0.10429304838180542,-0.17185015861842606,0.5406075492608009,-0.43841721211137574,-0.6971379632210019,0.4394784991467639,1.5364596839683073,2.233121935524522
1784028387907468288,0.9137983322143555,-1.4393310546875,-0.38595056533813477,-1.7149107456207275,0.9115591049194336,-0.40928444266319275,-0.039325978606939316,-0.12016189098358154,-0.15466517210006714,-0.07108664512634277,-0.17551950154912357,0.544110835229448,-0.429278941790309,-0.699182405917671,0.421669670331141,1.527681614949479,2.2453254689924798
1784028387917388288,0.9237182140350342,-1.9709504842758179,-0.37754005193710327,-1.6003870964050293,0.9180108904838562,-0.3934323191642761,-0.04966772347688675,-0.10752516984939575,-0.10012844204902649,-0.01226770132780075,-0.17747261732082825,0.5477627064134736,-0.4184759920258684,-0.7023796949245257,0.40436202608264143,1.5167453918034883,2.2629981846739207
1784028387927308288,0.933638334274292,-2.405212640762329,-0.30363595485687256,-1.4610304832458496,0.9236709475517273,-0.3782758116722107,-0.06115034222602844,-0.11570286750793457,-0.07848075032234192,-0.004767652601003647,-0.17751560357704074,0.551639190499861,-0.40634841146757383,-0.7064441602571649,0.3879329779870392,1.5046891918402687,2.2855644658756384
1784028387937228288,0.9435582160949707,-2.736908435821533,-0.24741476774215698,-1.3571724891662598,0.9286649823188782,-0.3636298179626465,-0.0731760710477829,-0.11215192079544067,-0.12114191055297852,-0.008244812488555908,-0.17592749567738034,0.5557190833001321,-0.39317714151779076,-0.7110819511518143,0.3721614929388188,1.4921617416161241,2.3119510699082535
1784028387947148288,0.9534783363342285,-2.9691600799560547,-0.20592144131660461,-1.2509263753890991,0.9330996870994568,-0.3493219017982483,-0.08543416112661362,-0.09272199869155884,-0.17312374711036682,-0.05056744068861008,-0.17310275666448738,0.5598623563632074,-0.37925857000410673,-0.7160673357644131,0.35684732942199554,1.4794913825811837,2.3409688277098413
1784028387957068288,0.9633982181549072,-3.323822259902954,-0.14712202548980713,-1.1901367902755737,0.9370537400245667,-0.3352048397064209,-0.09781574457883835,-0.07740414142608643,-0.1715090274810791,-0.08411478251218796,-0.16901108858435213,0.5641098267010319,-0.36451643355130336,-0.7213480788029919,0.3418226258372234,1.4667865300740024,2.372736624279395
1784028387966988288,0.973318338394165,-3.8731589317321777,-0.08063902705907822,-1.2352099418640137,0.9408767223358154,-0.32019364833831787,-0.11057541519403458,-0.1105697751045227,-0.17052897810935974,-0.15997815132141113,-0.16347619583423653,0.5688002058245998,-0.34810719251912997,-0.7270235202315788,0.325933887200524,1.4538091522059995,2.4088288705395535
1784028387976908288,0.9832382202148438,-4.217034816741943,-0.1422792226076126,-1.1713467836380005,0.9445483088493347,-0.3040316104888916,-0.12406881898641586,-0.09669381380081177,-0.1961209774017334,-0.22267191112041473,-0.15651617233350404,0.5737441732849228,-0.3298230065447941,-0.7331691171585955,0.30892174539717604,1.4401914922535595,2.4494551484563787
1784028387986827264,0.9931573867797852,-3.6650681495666504,-0.4062100052833557,-1.029634714126587,0.9474034905433655,-0.28856685757637024,-0.13840357959270477,0.02238398790359497,-0.07970398664474487,-0.29941684007644653,-0.1495185003084791,0.5775190403635139,-0.3118813320133183,-0.7394902859274335,0.2927296940789451,1.4257351943703198,2.4890603687621202
1784028387996747264,1.0030772686004639,-2.4476656913757324,-0.6597370505332947,-0.9099671840667725,0.9493968486785889,-0.2748403549194336,-0.15201418101787567,0.13171881437301636,0.07359221577644348,-0.48067623376846313,-0.14507543355610394,0.5793216997167381,-0.2972865271245592,-0.7449564835490468,0.278423662585166,1.4120273962343823,2.5191120152248803
1784028388006667264,1.0129973888397217,-0.9439815878868103,-0.7546190619468689,-0.7242648601531982,0.950410783290863,-0.264621764421463,-0.16338412463665009,0.15798747539520264,0.1435127556324005,-0.5565102696418762,-0.1442237417741126,0.5790207971559016,-0.28817156451755926,-0.7489268549407299,0.2678116743414643,1.4005514186674628,2.5350109771098412
1784028388016587264,1.0229172706604004,0.3113718628883362,-0.7698675394058228,-0.7216373682022095,0.95100998878479,-0.2573166489601135,-0.17137092351913452,0.08202522993087769,0.04172524809837341,-0.586792528629303,-0.14721277211471934,0.5773887496945338,-0.2844938788527867,-0.7510085054583757,0.2602443159241575,1.3925107624929183,2.536551031106955
1784028388026507264,1.0328373908996582,1.1184568405151367,-0.7864927053451538,-0.7112148404121399,0.9514778852462769,-0.25177001953125,-0.17692236602306366,0.022673606872558594,-0.1424102485179901,-0.5146517157554626,-0.15309611917395513,0.57494183108462,-0.2845710914256581,-0.7516799001640299,0.25450874936188117,1.3869511783066595,2.527845435409291
1784028388036427264,1.042757272720337,1.5299562215805054,-0.7377209067344666,-0.649264931678772,0.9518136978149414,-0.24767041206359863,-0.18085886538028717,0.07650649547576904,-0.27483630180358887,-0.449420690536499,-0.1606127973720553,0.5719849059442731,-0.2870606870478464,-0.7514205672110372,0.25027501668192575,1.3830199218948167,2.5129015870735114
1784028388046347264,1.0526773929595947,1.6450097560882568,-0.706534743309021,-0.5247660875320435,0.9519566297531128,-0.24504871666431427,-0.1836566925048828,0.13245505094528198,-0.35320261120796204,-0.3746776580810547,-0.168324570297037,0.5688735873363941,-0.29078256288112314,-0.7506631716596045,0.24756994183498815,1.3802123508408914,2.4957162270861057
1784028388056267264,1.0625972747802734,1.4797403812408447,-0.8516453504562378,-0.5069591403007507,0.9517854452133179,-0.24303317070007324,-0.18718749284744263,0.14457368850708008,-0.43732571601867676,-0.2544171214103699,-0.17585087066151547,0.5653778758375355,-0.2945405030987746,-0.7501133930069636,0.24549155248362675,1.3766048761523808,2.4788031249159728
1784028388066187264,1.0725173950195312,1.2898179292678833,-0.9782573580741882,-0.3901961147785187,0.9511504173278809,-0.2413274645805359,-0.19254623353481293,0.18089914321899414,-0.4470728039741516,-0.12045729160308838,-0.18272743914561698,0.5614113187111658,-0.29756380226446355,-0.7502558542195956,0.24373351287295741,1.3710604215878726,2.46412425397558
1784028388076107264,1.08243727684021,1.1658787727355957,-1.075258731842041,-0.1716800183057785,0.949825644493103,-0.2410079687833786,-0.19936484098434448,0.2201572060585022,-0.4220779538154602,-0.037924572825431824,-0.18876510810945776,0.556841626114561,-0.30040803124993837,-0.7510326939070384,0.2434042978821691,1.3639035066105938,2.4511611650631564
1784028388086026240,1.0923562049865723,0.8652660250663757,-1.1434036493301392,0.07123097032308578,0.9476763606071472,-0.24261339008808136,-0.20748062431812286,0.2179272174835205,-0.32409802079200745,0.08089371025562286,-0.193389493574524,0.5517776727905582,-0.30298694533430937,-0.752556178123222,0.245058817880936,1.3552609806705245,2.4409653063342316
1784028388095946240,1.10227632522583,0.5212897062301636,-1.1304705142974854,0.17429158091545105,0.9449848532676697,-0.24531732499599457,-0.21638619899749756,0.18032026290893555,-0.27482426166534424,0.08236826956272125,-0.19652534800565094,0.5466752734696508,-0.3048820221788497,-0.7546991679305126,0.24784700120494305,1.3456933203420332,2.434225139660537
1784028388105866240,1.1121962070465088,0.140415221452713,-1.1061564683914185,0.2580559253692627,0.9420806765556335,-0.24804271757602692,-0.22574031352996826,0.12264704704284668,-0.2929271161556244,0.048799410462379456,-0.19827131191229,0.5419519937648336,-0.3056433852373491,-0.7573365020915801,0.2506593098417221,1.3356117437762887,2.4314007265649447
1784028388115786240,1.1221163272857666,-0.3498131036758423,-0.8970266580581665,0.49789223074913025,0.938858687877655,-0.251321405172348,-0.23533326387405396,0.1572258472442627,-0.3395141363143921,0.07505495846271515,-0.19814599400516597,0.5376939708362106,-0.305317145560297,-0.7605292313173386,0.25404524805947426,1.3251976398473253,2.4332075491790097
1784028388125706240,1.1320362091064453,-0.9806100130081177,-0.7882651090621948,0.4664936661720276,0.9355630278587341,-0.2542998492717743,-0.24505792558193207,0.18182283639907837,-0.4515869915485382,0.08729732036590576,-0.19581916431249372,0.5343301541176511,-0.3032529038342915,-0.7643191646384618,0.25712367825345533,1.3146154198174091,2.441089971992637
1784028388135626240,1.1419563293457031,-1.51205313205719,-0.7848972678184509,0.5018057823181152,0.9324032664299011,-0.2556481957435608,-0.25547605752944946,0.2137300968170166,-0.5987829566001892,0.05164915323257446,-0.19176543169481514,0.5318723325229882,-0.29895448947438774,-0.7687418267175058,0.25851810926023394,1.303362470919657,2.4549910472526197
1784028388145546240,1.1518762111663818,-1.565961480140686,-0.8986838459968567,0.49492335319519043,0.929026186466217,-0.25617778301239014,-0.2669890820980072,0.3156636953353882,-0.5740681886672974,0.012274175882339478,-0.1869311413317598,0.5294944807989971,-0.2934979542106494,-0.7736609178662277,0.25906594454210896,1.2909518323426963,2.471869354408845
1784028388155466240,1.1617963314056396,-1.1009660959243774,-1.1868113279342651,0.6557955741882324,0.9247556924819946,-0.2576221525669098,-0.28010302782058716,0.42027604579925537,-0.3532481789588928,0.026929199695587158,-0.1827051515234543,0.5259064984174511,-0.28874009010239665,-0.7788904683777673,0.26056048138489657,1.2766865353934556,2.4869610855916675
1784028388165386240,1.1717162132263184,-0.19948874413967133,-1.3945392370224,0.8817638754844666,0.9191181063652039,-0.26274633407592773,-0.29357510805130005,0.5086162686347961,-0.12558984756469727,-0.01747530698776245,-0.17982114600413276,0.5204348666907858,-0.2869843104880901,-0.7838698704831024,0.265867430612014,1.261629072650645,2.495878256829203
1784028388175306240,1.1816363334655762,0.8478904366493225,-1.6865756511688232,1.2165520191192627,0.9117253422737122,-0.2731563150882721,-0.30682650208473206,0.47502386569976807,-0.06114846467971802,-0.027981847524642944,-0.17882437141210403,0.512597969684202,-0.28953423687938956,-0.7883115124046631,0.2766726167887463,1.246168016186117,2.496028803103156
1784028388185226240,1.1915562152862549,1.7374331951141357,-1.7867786884307861,1.7886945009231567,0.9021787643432617,-0.2906222343444824,-0.3187664747238159,0.4128541350364685,-0.1442837417125702,-0.019459813833236694,-0.17880273928497667,0.5024743437710856,-0.2968775673965996,-0.7920938962145624,0.2948770822304744,1.2311583315223773,2.48825562954557
1784028388195145472,1.2014753818511963,2.718336343765259,-1.9814008474349976,2.1286394596099854,0.890175461769104,-0.31534987688064575,-0.328849732875824,0.314780592918396,-0.35408371686935425,0.048988282680511475,-0.17928819473940438,0.4901186633552537,-0.3088022396492741,-0.7951607791895777,0.32082532200158764,1.216925552489962,2.4735743080801993
1784028388205065216,1.211395263671875,3.645045757293701,-2.050901412963867,2.5410592555999756,0.875846266746521,-0.34628114104270935,-0.3361288011074066,0.29547935724258423,-0.5543993711471558,0.06571254134178162,-0.180951663946082,0.4755910087534041,-0.3251903936762025,-0.797070137752431,0.35360406663815,1.204353891764208,2.4507318877044497
1784028388214985472,1.2213153839111328,4.273275375366211,-1.9082146883010864,2.865873098373413,0.859420120716095,-0.38297608494758606,-0.33871278166770935,0.35133427381515503,-0.6289105415344238,0.16793644428253174,-0.18270395573834086,0.4596951880249141,-0.3454329721813868,-0.7974808090344164,0.39301585515506526,1.195371050231993,2.421763224239035
1784028388224905216,1.2312352657318115,4.385829925537109,-1.8412631750106812,3.093592882156372,0.8411698937416077,-0.4228211045265198,-0.33712831139564514,0.34962600469589233,-0.6896361708641052,0.29988163709640503,-0.18399461771804154,0.4430033343980877,-0.36767362717989477,-0.7966869465218236,0.43655613236521396,1.1896133811134615,2.3897458012015744
1784028388234825472,1.2411553859710693,4.292699813842773,-1.5968760251998901,3.2975175380706787,0.8213419318199158,-0.4636024534702301,-0.3323703408241272,0.3623127341270447,-0.633977472782135,0.3416171967983246,-0.18397513640182933,0.4261858386847517,-0.3901031428953856,-0.7951969480223724,0.48205667927030454,1.18627277347231,2.35846040083659
1784028388244745216,1.251075267791748,3.9070065021514893,-1.6051486730575562,3.4326627254486084,0.8000369668006897,-0.5041808485984802,-0.3251805603504181,0.397793173789978,-0.5141448974609375,0.30899104475975037,-0.18241148978069036,0.4095265774796836,-0.4119438040758452,-0.793294543059528,0.5284331563486233,1.184736052952196,2.3293681063653686
1784028388254665472,1.2609953880310059,3.3085193634033203,-1.5560522079467773,3.621985912322998,0.7766092419624329,-0.5434011220932007,-0.3187367916107178,0.4825153946876526,-0.4378153085708618,0.27817896008491516,-0.17903919718334246,0.3926550512633758,-0.4318027459554685,-0.7920310716729727,0.5744832827516269,1.1813386692698833,2.305864821932228
1784028388264585216,1.2709152698516846,2.6175224781036377,-1.2864505052566528,3.587165594100952,0.7520689368247986,-0.5800701975822449,-0.312906950712204,0.45947879552841187,-0.4494250416755676,0.24602767825126648,-0.17359463889959068,0.3766393534567856,-0.4490983512283109,-0.7914027356246676,0.618814847152973,1.1765209668525158,2.289553395454381
1784028388274505472,1.2808353900909424,2.105083465576172,-1.1290653944015503,3.587862968444824,0.7270779013633728,-0.6136869788169861,-0.30780866742134094,0.4507023096084595,-0.3757386803627014,0.24140238761901855,-0.1665489801245725,0.36177494056660037,-0.4639122355605584,-0.791306404494812,0.6607218542993465,1.1703237915671414,2.279859443195132
1784028388284426496,1.2907564640045166,1.565930962562561,-1.0868780612945557,3.386457920074463,0.7019044756889343,-0.6440510153770447,-0.30418500304222107,0.5280454754829407,-0.24190479516983032,0.21231186389923096,-0.1586264611369048,0.3478010003509381,-0.4763842601323829,-0.7917892627214096,0.6997820838440462,1.1618568472529418,2.275893918623825
1784028388294345728,1.300675630569458,0.949140727519989,-1.1457970142364502,3.20147442817688,0.6772412657737732,-0.6702679991722107,-0.30345502495765686,0.584813117980957,-0.17499256134033203,0.060687750577926636,-0.15052985394691884,0.3346879071889865,-0.48606222746861233,-0.793138205450591,0.7345698594048269,1.1495442089422492,2.278010347389826
1784028388304265472,1.3105955123901367,0.3741154670715332,-1.086530327796936,3.0497684478759766,0.652622401714325,-0.6929581165313721,-0.30641964077949524,0.5981404781341553,-0.17247462272644043,-0.09575620293617249,-0.14192855659931464,0.3221870081957005,-0.4929358072586549,-0.7956544755885888,0.7655838899420523,1.1318281982087912,2.2877367025281874
1784028388314185728,1.3205156326293945,0.1661694496870041,-1.1358156204223633,2.939976692199707,0.6284131407737732,-0.7126628756523132,-0.31178292632102966,0.5983172059059143,-0.17634469270706177,-0.08670037984848022,-0.13322548121256364,0.3103071078456281,-0.49781325632785817,-0.7988381852568698,0.793286827061614,1.1102389055594737,2.302811270848483
1784028388324105472,1.3304355144500732,0.2563391625881195,-1.1748015880584717,2.9269540309906006,0.6038270592689514,-0.7312467098236084,-0.31728702783584595,0.6775907278060913,-0.14979571104049683,-0.025272756814956665,-0.12471215984383308,0.29836410390386575,-0.5023299169868352,-0.8019291323201804,0.820147904476686,1.0869886822431867,2.3193313323482676
1784028388334025728,1.340355634689331,0.46335384249687195,-1.2776530981063843,3.0830373764038086,0.5779181122779846,-0.7499117255210876,-0.32193639874458313,0.7057579755783081,-0.06965309381484985,0.0788792073726654,-0.11642568258248147,0.2857137974843612,-0.5073454758062897,-0.8046199188991768,0.8479285971764031,1.0625471844737102,2.33569521154413
1784028388343945472,1.3502755165100098,0.7072274088859558,-1.1687753200531006,3.215883731842041,0.5501880645751953,-0.7694603204727173,-0.3243822455406189,0.7187175154685974,-0.043177008628845215,0.1421465277671814,-0.10770789610780424,0.27250455253006733,-0.513371356038968,-0.806591652210927,0.8779957420574807,1.0380706619303552,2.3519354218183346
1784028388353865728,1.3601956367492676,0.7943599224090576,-1.0034153461456299,3.1893746852874756,0.5219437479972839,-0.7890286445617676,-0.3240499198436737,0.6829816699028015,-0.14728111028671265,0.22167876362800598,-0.09865238933118345,0.25958723072961254,-0.5201821872707181,-0.8076463155656753,0.9092263073143567,1.0151852828427101,2.367633581364532
1784028388363785472,1.3701155185699463,0.4045664370059967,-0.8972651958465576,3.250626802444458,0.49349090456962585,-0.8071605563163757,-0.3239729106426239,0.6766445636749268,-0.288191556930542,0.3394606411457062,-0.08900351790128407,0.24718562329383817,-0.5262250531302206,-0.8087426821531173,0.9393262401947031,0.9898706968297506,2.3876044966223575
1784028388373705728,1.380035638809204,-0.2631780803203583,-0.8119694590568542,3.3904824256896973,0.4638627767562866,-0.823255181312561,-0.3272339403629303,0.6681104302406311,-0.3544180989265442,0.3917329013347626,-0.0780406301184412,0.23499233540905903,-0.5302467607788538,-0.8108800701029054,0.9671216369871442,0.9564191978118557,2.4181726644282424
1784028388383625472,1.3899555206298828,-0.9746719002723694,-0.6221948266029358,3.366713285446167,0.43360617756843567,-0.8362749814987183,-0.33560359477996826,0.6164883971214294,-0.34271055459976196,0.41220274567604065,-0.06555652587207135,0.22340007257913258,-0.5313102739320928,-0.8145576195456583,0.9904540019028241,0.9121222462778379,2.462963935661274
1784028388393545728,1.3998756408691406,-1.7159701585769653,-0.5132038593292236,3.3682126998901367,0.40366873145103455,-0.8456659317016602,-0.34914278984069824,0.5538507699966431,-0.26851558685302734,0.45038485527038574,-0.05196407506250347,0.21267867835756726,-0.5293357939219939,-0.8196774354269175,1.0078116312982415,0.857701618419644,2.5210430584028134
1784028388403464448,1.409794569015503,-2.3794851303100586,-0.37882933020591736,3.2688252925872803,0.3739689588546753,-0.851227343082428,-0.36818361282348633,0.5674372911453247,-0.11051881313323975,0.5219464302062988,-0.037417338269705044,0.20256185976969918,-0.5242870213736724,-0.8262515894520746,1.0183195296329226,0.7931933599198354,2.591752002271551
1784028388413384448,1.4197144508361816,-2.722714900970459,-0.21530590951442719,3.166409730911255,0.34573134779930115,-0.852932870388031,-0.39112064242362976,0.550402045249939,-0.05298137664794922,0.5520246028900146,-0.02247987078781348,0.19341402759832987,-0.516750129706395,-0.8336995719333501,1.0215780900345501,0.7238769600417044,2.669528061882027
1784028388423304448,1.4296345710754395,-2.9395334720611572,-0.11727447062730789,3.197603702545166,0.31824755668640137,-0.8521564602851868,-0.4153890311717987,0.5105640888214111,-0.04298526048660278,0.553038477897644,-0.00704072990843669,0.18490691860313177,-0.508050116425814,-0.8412164330377405,1.0200925467998,0.6537530929537058,2.749977074931034
1784028388433224448,1.4395544528961182,-3.234853744506836,-0.07926236838102341,3.2808356285095215,0.29050570726394653,-0.8487812280654907,-0.4417884051799774,0.42008090019226074,0.05195194482803345,0.6246038675308228,0.009049907794877621,0.17639386788229988,-0.49798695302507406,-0.8490067372202869,1.013676026833819,0.5816767003147509,2.8335407882500196
1784028388443144448,1.449474573135376,-3.6403615474700928,0.024781327694654465,3.2223660945892334,0.2630307376384735,-0.8422041535377502,-0.4706454277038574,0.3194583058357239,0.011149466037750244,0.5961337089538574,0.02568318098536077,0.16800830668405495,-0.4862617598740729,-0.8571249777412712,1.001358438652862,0.5096295041221258,2.9183526650522196
1784028388453064448,1.4593944549560547,-4.107296466827393,0.14917731285095215,3.1784374713897705,0.23695750534534454,-0.8314810395240784,-0.5024842619895935,0.19366075098514557,-0.0016335844993591309,0.5359773635864258,0.042684531107894226,0.16015027283545444,-0.472344959055221,-0.8656905465996241,0.9817682202023292,0.4406476842657776,3.0018370471370677
1784028388462984448,1.4693145751953125,-4.75023889541626,0.2008257955312729,3.1670186519622803,0.2119288295507431,-0.8156418800354004,-0.5383442640304565,0.12062123417854309,0.07902383804321289,0.47827041149139404,0.0602230629973766,0.15246815646302453,-0.45561093070786024,-0.8749545224214291,0.9538377912905824,0.37503573378634775,3.083575479772849
1784028388472904448,1.4792344570159912,-4.985959529876709,0.2488282024860382,3.154649019241333,0.18782050907611847,-0.7948045134544373,-0.5770695209503174,0.07502740621566772,0.17448896169662476,0.4508183002471924,0.07811793542089407,0.14471492439376857,-0.43648919540755265,-0.8845520970491735,0.9186854113556133,0.3146595795526601,-3.1220388670186088
1784028388482824448,1.489154577255249,-4.743549346923828,0.24816188216209412,3.1134307384490967,0.164980947971344,-0.7713940739631653,-0.6145994663238525,0.0227479487657547,0.23829776048660278,0.40131211280822754,0.09588188304982463,0.1370936914441265,-0.417019881143007,-0.893368073111259,0.8810289978718507,0.26225402456700564,-3.051941186826434
1784028388492744448,1.4990744590759277,-4.279664039611816,0.1531408280134201,3.040914535522461,0.142978698015213,-0.7478130459785461,-0.6483307480812073,-0.04141618311405182,0.31154900789260864,0.3819580674171448,0.11299440507622428,0.12939786277385285,-0.39886190634492247,-0.9007761622306233,0.8447619105481,0.2170591838725702,-2.9898738301483254
1784028388502664448,1.5089945793151855,-3.915020227432251,0.06952060759067535,2.899923086166382,0.12203025072813034,-0.7248681783676147,-0.6779931783676147,-0.13942527770996094,0.32073915004730225,0.33740174770355225,0.12907778845947518,0.12170772460032085,-0.38234886097130955,-0.9068271596746511,0.8108430390996669,0.17808076815150192,-2.9354093706275477
1784028388512583424,1.5189135074615479,-3.7497363090515137,0.0026678070425987244,2.8524696826934814,0.10196051746606827,-0.7017973065376282,-0.7050422430038452,-0.26408517360687256,0.2814176678657532,0.2616828680038452,0.14429453133710915,0.11392742574658224,-0.3667416286676227,-0.9119759471106423,0.7779173308090933,0.1436204929354738,-2.886696052657539
1784028388522503680,1.5288336277008057,-3.4054977893829346,0.14313825964927673,2.761986494064331,0.0831022560596466,-0.6788277626037598,-0.7295799851417542,-0.3701811134815216,0.24576807022094727,0.22457504272460938,0.1591707065608851,0.10649362214397859,-0.3519504556437689,-0.9162176099439125,0.7461650179093611,0.11341544369426837,-2.842007080457954
1784028388532423424,1.5387535095214844,-3.2352182865142822,0.20438030362129211,2.4772965908050537,0.0669790506362915,-0.6564992070198059,-0.7513471245765686,-0.4478689432144165,0.2828877568244934,0.15713942050933838,0.1730897449546823,0.10005385202768115,-0.3381059752009931,-0.9196267986491159,0.7161684035611094,0.08891025855313914,-2.802801489410241
1784028388542343680,1.5486736297607422,-2.9988021850585938,0.2364673614501953,2.183319091796875,0.05386028811335564,-0.6343804597854614,-0.771142303943634,-0.44410383701324463,0.3807030916213989,0.07131320238113403,0.18557845267256762,0.09452495359038368,-0.32479822326385405,-0.9225679729762619,0.6872068111811167,0.06973156565670131,-2.7695408203746066
1784028388552263424,1.558593511581421,-2.9184470176696777,0.22327938675880432,2.0359654426574707,0.04262840375304222,-0.6124581098556519,-0.7893528342247009,-0.457865834236145,0.31874167919158936,-0.016418039798736572,0.19695713479232066,0.08945425824076622,-0.3119639577340898,-0.9251401907440395,0.6591663974970843,0.05395183609570547,-2.740525977185486
1784028388562183680,1.5685136318206787,-2.566131591796875,0.22633258998394012,1.8646361827850342,0.03267675265669823,-0.591400682926178,-0.8057155013084412,-0.530586302280426,0.22963005304336548,-0.028879165649414062,0.20743130502241644,0.08471720851068303,-0.2999420489612025,-0.9272702588815139,0.6327947449528503,0.040533979441217984,-2.714709563954976
1784028388572103424,1.5784335136413574,-2.2546987533569336,0.21502988040447235,1.6642314195632935,0.024285268038511276,-0.572579026222229,-0.8194897174835205,-0.5858392119407654,0.21881932020187378,-0.07134884595870972,0.21688170480590793,0.08064820198652649,-0.2893976409462027,-0.9288203120595787,0.6096481767455723,0.029625951359248438,-2.6921300723954595
1784028388582023680,1.5883536338806152,-2.054020643234253,0.11650006473064423,1.48506760597229,0.01680414378643036,-0.5552657246589661,-0.83150315284729,-0.623722493648529,0.23979032039642334,-0.06382149457931519,0.22520863373779534,0.0768110670341754,-0.27990797506150694,-0.9300712391161837,0.5886824631056278,0.020206605048458767,-2.672581037134668
1784028388591943424,1.598273515701294,-1.905699610710144,0.015465056523680687,1.2602847814559937,0.009952251799404621,-0.5390881896018982,-0.8421905040740967,-0.6826054453849792,0.26214122772216797,-0.08505553007125854,0.23241779576192556,0.07304397536596063,-0.2712366420007998,-0.931169858160225,0.5693541689198905,0.011816552121911485,-2.655850685418338
1784028388601863680,1.6081936359405518,-1.6964865922927856,-0.19653062522411346,0.9096512198448181,0.0035909719299525023,-0.5240142345428467,-0.8517019748687744,-0.7664083242416382,0.3910949230194092,-0.09190154075622559,0.2379770056133931,0.06915327551735936,-0.26337586776828714,-0.932318618770875,0.5515572980702125,0.004216205692543247,-2.642953044287572
1784028388611783424,1.6181135177612305,-1.454310417175293,-0.3824506998062134,0.6018068790435791,-0.00287028425373137,-0.5104844570159912,-0.8598822355270386,-0.8376142978668213,0.6037309169769287,-0.055416226387023926,0.24163579753776243,0.06488135743455048,-0.25661117611040424,-0.9335702345034459,0.5357480594716579,-0.0033379845410688755,-2.634133259212619
1784028388621703680,1.6280336380004883,-0.7046604752540588,-0.4418323338031769,0.40663790702819824,-0.008612517267465591,-0.5011909008026123,-0.8652939200401306,-0.9290400743484497,0.7604987621307373,0.040098607540130615,0.2437435995992345,0.061177443928926205,-0.2522109575301596,-0.9344710110865235,0.52497442953647,-0.0099529571047759,-2.628616676492702
1784028388631622656,1.6379525661468506,0.056975919753313065,-0.5008261203765869,-0.13173741102218628,-0.01379905641078949,-0.49837055802345276,-0.8668543100357056,-1.0036722421646118,0.8214143514633179,0.11722052097320557,0.24395131829472327,0.05821467218243399,-0.2513640667404875,-0.9348342109459381,0.5217182685746967,-0.015917197390522383,-2.626815579873277
1784028388641542400,1.6478724479675293,0.34718164801597595,-0.06083725020289421,0.02540506236255169,-0.015365821309387684,-0.5003232955932617,-0.8657023310661316,-1.064574956893921,0.8396940231323242,0.2245585322380066,0.24323144266737304,0.05752884374449634,-0.2526643398412852,-0.9347137487372488,0.5239721442149577,-0.017747680193882214,-2.627684907037287
1784028388651462656,1.657792568206787,-0.038695480674505234,-0.4050601124763489,-0.7642086148262024,-0.015978535637259483,-0.5025511980056763,-0.8643997311592102,-1.0663883686065674,0.7446014285087585,0.261067271232605,0.2411616835371233,0.05699300926703682,-0.25407069561190154,-0.934901482843944,0.5265471616509987,-0.018483017747505822,-2.63170918906089
1784028388661382400,1.6677124500274658,0.049472928047180176,-0.4239485561847687,-0.9389731287956238,-0.01506015844643116,-0.5019915699958801,-0.8647413849830627,-1.157013177871704,0.8190692067146301,0.33309465646743774,0.23667675965059778,0.05615327870621417,-0.25392147837950835,-0.9361382724271178,0.5258999851720159,-0.01741403464531991,-2.6416384091585914
1784028388671302656,1.6776325702667236,0.25662824511528015,-0.38318514823913574,-0.6340987086296082,-0.014482025988399982,-0.5031296014785767,-0.8640896081924438,-1.0643296241760254,0.6692520380020142,0.08959925174713135,0.23262664015399093,0.05550805084608056,-0.25470382359495325,-0.9369790674181339,0.5272163177720336,-0.01675829641138153,-2.650364482748456
1784028388681222400,1.6875524520874023,-0.34520918130874634,-0.5295090675354004,-0.7017806768417358,-0.015283482149243355,-0.502590537071228,-0.8643894791603088,-0.861761212348938,0.6449397802352905,0.07048994302749634,0.22889125210824102,0.054013926318475174,-0.25473075499183395,-0.9379784767376551,0.5265926904251875,-0.017679402978632554,-2.658130355296703
1784028388691142656,1.6974725723266602,0.126071497797966,-0.24640676379203796,-1.0886768102645874,-0.014524081721901894,-0.5026688575744629,-0.864357054233551,-0.853533148765564,0.6900010108947754,0.08943945169448853,0.2237431778476305,0.053008915784876626,-0.2549736011992425,-0.9392111184556613,0.5266832481516331,-0.016801754492862944,-2.6693315953923884
1784028388701062400,1.7073924541473389,0.8538833260536194,-0.6247174739837646,-1.4275094270706177,-0.012156623415648937,-0.5073950290679932,-0.8616278171539307,-0.7917526960372925,0.5184271335601807,-0.08156371116638184,0.21714251950757305,0.053044648872852054,-0.25762831575377004,-0.9400335535410195,0.5321590669596088,-0.014107967047398664,-2.6837222926441395
1784028388710982656,1.7173125743865967,1.7491016387939453,-0.4864528477191925,-0.9339748024940491,-0.009560581296682358,-0.5175807476043701,-0.8555809259414673,-0.5394506454467773,0.5287044644355774,-0.16878730058670044,0.21061224776627596,0.053903739841731316,-0.2632563597670615,-0.9399110925587367,0.5440210566848702,-0.011173908677028199,-2.697604842778811
1784028388720902400,1.7272324562072754,1.300427794456482,-0.8145459890365601,-1.009478211402893,-0.011083943769335747,-0.5304211974143982,-0.8476617932319641,-0.1410919576883316,0.2121381163597107,-0.1933996081352234,0.20533401550835365,0.053313866251979584,-0.2707890940939727,-0.9389722357856595,0.5590973215660059,-0.013075158170996687,-2.7072582739459374
1784028388730822656,1.7371525764465332,1.053789496421814,-0.48819929361343384,-1.2365241050720215,-0.010334768332540989,-0.5408265590667725,-0.8410706520080566,0.06845550239086151,0.31163954734802246,0.15251779556274414,0.19779868729596375,0.05283454668476774,-0.276899225429093,-0.938834956355005,0.571419463506609,-0.012287015059927435,-2.7226865370218105
1784028388740742400,1.747072458267212,0.1591450423002243,-0.06175642088055611,-1.8834643363952637,-0.004158772062510252,-0.5463292002677917,-0.8375601768493652,0.20064620673656464,0.24161124229431152,0.25845867395401,0.19041781962923413,0.05448744480646828,-0.2797338321843363,-0.9394259620440628,0.5779752772817387,-0.004965300520406198,-2.740143502601842
1784028388750661632,1.7569916248321533,-1.1861979961395264,0.5357069969177246,-1.4451658725738525,0.007690269500017166,-0.5422938466072083,-0.840153694152832,0.3733674883842468,-0.14813584089279175,0.23564624786376953,0.18353898999218812,0.058023586840429936,-0.2766882928951076,-0.9414830673026123,0.5731648909125471,0.009153152080035216,-2.7592262853181895
1784028388760581376,1.766911506652832,-2.00700044631958,0.48023703694343567,-1.2699719667434692,0.018639039248228073,-0.527326226234436,-0.8494583964347839,0.8881602883338928,-0.11895978450775146,0.2290818691253662,0.17828065040048865,0.060355601930060135,-0.2676340608210887,-0.9449577580237563,0.5554506285643138,0.021938742094364652,-2.774900755919471
1784028388770501632,1.7768316268920898,-1.5766533613204956,-0.0650571808218956,-0.3808334767818451,0.024770574644207954,-0.5118303894996643,-0.858729362487793,0.8643438220024109,-0.0799664855003357,-0.03525257110595703,0.17466028581483847,0.0607301751530989,-0.2587415157722665,-0.9480814808743118,0.5373140513443027,0.028837616657175096,-2.7851679748141493
1784028388780421376,1.7867515087127686,-0.3530605435371399,-0.4587804973125458,-0.7788876891136169,0.026042131707072258,-0.5033237338066101,-0.8637053966522217,0.86839759349823,0.11967200040817261,-0.20091557502746582,0.1720234287024909,0.05973057927793163,-0.2541250652853746,-0.949874112859609,0.5274409940908348,0.030142504424536334,-2.791413124582274
1784028388790341632,1.7966716289520264,0.8129888772964478,-0.25803142786026,-0.48208847641944885,0.02525334618985653,-0.5060364603996277,-0.8621423244476318,0.3011016249656677,0.3832947611808777,-0.26319336891174316,0.16808144482232068,0.058561727709618296,-0.2559284523760933,-0.9501683001027142,0.530583246846169,0.029283017140471428,-2.7993788253585103
1784028388800261376,1.806591510772705,2.083418607711792,-0.3286900222301483,-0.44472363591194153,0.025274008512496948,-0.5179550051689148,-0.8550344109535217,0.33075931668281555,0.44938206672668457,-0.13593238592147827,0.1653160338584631,0.059085591423868614,-0.2626627045218185,-0.9487822525931132,0.5444585620852838,0.029550449731250896,-2.804825737083529
1784028388810181632,1.816511631011963,2.4188132286071777,-0.15801683068275452,-0.4255765974521637,0.02483532950282097,-0.5375604033470154,-0.8428594470024109,0.12999559938907623,0.25252628326416016,-0.2042902112007141,0.16253003240387265,0.06015934428106609,-0.27377205895275253,-0.9460516465950204,0.5675412725806888,0.02945704309873149,-2.8099093312012378
1784028388820101376,1.8264315128326416,1.9005975723266602,-0.45725980401039124,-0.8386630415916443,0.026070119813084602,-0.5545873641967773,-0.8317170143127441,-0.018547529354691505,0.20398616790771484,0.15621042251586914,0.1584871735815229,0.061417623323003635,-0.2834949034476975,-0.9437904363344817,0.5878670073909742,0.031334678922123015,-2.8183305343572536
1784028388830021632,1.8363516330718994,1.5352566242218018,-0.17070260643959045,-0.7224770188331604,0.027263853698968887,-0.5694507956504822,-0.8215731978416443,-0.08304999023675919,-0.0015025734901428223,0.3125247359275818,0.15390018466595132,0.06220849736506343,-0.2921361215090703,-0.9418605545799267,0.605837567006147,0.033172762765148446,-2.828023626403656
1784028388839941376,1.8462715148925781,1.3965238332748413,-0.01919134333729744,-0.3606354892253876,0.03004152700304985,-0.5805586576461792,-0.8136640191078186,0.04236142337322235,-0.2210770845413208,0.3641248345375061,0.15064430446834037,0.06379654308354014,-0.29849286704316086,-0.9402862685737539,0.6194146533748623,0.03690452812394348,-2.835681284866417
1784028388849861632,1.856191635131836,0.829166054725647,0.09473443031311035,-0.07073734700679779,0.031156860291957855,-0.5897755026817322,-0.8069660067558289,0.05812230706214905,-0.2741771340370178,0.19983404874801636,0.1499727419019907,0.06513373146857966,-0.3037673552930529,-0.9386112526004876,0.6307807976816644,0.038590712208996174,-2.837300975051489
1784028388859780608,1.8661105632781982,0.9276688694953918,0.3193402588367462,-0.019522132351994514,0.0317654013633728,-0.5966877341270447,-0.8018445372581482,0.1408572643995285,-0.13378095626831055,0.30657482147216797,0.14975975215957193,0.06611719210098545,-0.30774379002137,-0.9372801988630057,0.6393671431679413,0.039594707777953674,-2.8378176733274985
1784028388869700352,1.876030445098877,0.045692238956689835,-0.01177295483648777,-0.06665582209825516,0.033360015600919724,-0.6009830832481384,-0.7985652089118958,0.055919140577316284,-0.3300623893737793,0.23986470699310303,0.1496820837647783,0.06738444683342913,-0.3101237437808628,-0.9364175128923892,0.6447305490629923,0.041750667458119874,-2.8385306831715806
1784028388879620608,1.8859505653381348,-0.6932500004768372,0.6043334603309631,-0.3741016685962677,0.037580132484436035,-0.5977252125740051,-0.8008197546005249,0.032228827476501465,-0.3834301829338074,0.4405139684677124,0.14888254857629815,0.06897355936173338,-0.3079492907129931,-0.9371466684139292,0.6406606583668707,0.04689267747023543,-2.8420496186439648
1784028388889540352,1.8958704471588135,-1.6230474710464478,0.5336182713508606,0.3246963620185852,0.041751839220523834,-0.5886257290840149,-0.8073268532752991,0.22668078541755676,-0.6092655062675476,0.3054652214050293,0.15042416975368675,0.0706752433841015,-0.30222772485154675,-0.9386352299134871,0.6293577856465554,0.05167012071674226,-2.84059998262379
1784028388899460608,1.9057905673980713,-2.0699753761291504,0.35455241799354553,-0.002041675616055727,0.044451382011175156,-0.5737556219100952,-0.8178194165229797,0.31564077734947205,-0.5939079523086548,0.21289998292922974,0.15243059837820627,0.07112435422603851,-0.2933114730393389,-0.9411028745278721,0.6110839691882397,0.054300110947642574,-2.8375723967741227
1784028388909380352,1.91571044921875,-2.4493143558502197,0.47936201095581055,0.13056164979934692,0.047474607825279236,-0.5552449822425842,-0.8303307294845581,0.17699742317199707,-0.4110788106918335,0.03106015920639038,0.1540458316784127,0.07122031895180851,-0.28242218669993596,-0.9441584340381304,0.5886574778466566,0.05711335809818127,-2.835446440371608
1784028388919300608,1.9256305694580078,-2.210974931716919,0.535617470741272,0.36451101303100586,0.050164416432380676,-0.5359938740730286,-0.8427301645278931,0.21965675055980682,-0.10579079389572144,-0.027982115745544434,0.1568573418948543,0.07140438049250804,-0.27117584920717164,-0.9469745580350858,0.5656845605549394,0.05945591634409893,-2.830577060711468
1784028388929220352,1.9355504512786865,-1.8828577995300293,0.6268225312232971,0.11912892013788223,0.05387753248214722,-0.5187614560127258,-0.8532196283340454,0.21582156419754028,-0.008078694343566895,-0.09248954057693481,0.15983505489150465,0.07233850237904231,-0.2610695587314452,-0.9492432234964595,0.5454016095468132,0.0630624147484427,-2.8256011053452466
1784028388939140608,1.9454705715179443,-1.6530938148498535,0.42445626854896545,0.12996143102645874,0.0571477934718132,-0.5037434697151184,-0.8619609475135803,0.0980035811662674,0.07282000780105591,-0.19152110815048218,0.1614672072913541,0.0728806128635579,-0.25240432839336735,-0.951266963694391,0.5279267673564741,0.06620286128405954,-2.823218195057781
1784028388949060352,1.955390453338623,-1.3398773670196533,0.17343361675739288,0.08043808490037918,0.058052100241184235,-0.49063804745674133,-0.8694275617599487,0.25302883982658386,0.03188255429267883,-0.28457939624786377,0.16279006267503188,0.07231880565120338,-0.2450636831844571,-0.9530022335315661,0.512821834629778,0.06667152417114111,-2.820708387166098
1784028388958980608,1.9653105735778809,-0.8036172986030579,0.1548132747411728,-0.028289159759879112,0.05995100736618042,-0.4812978506088257,-0.874504566192627,0.18052752315998077,-0.028696656227111816,-0.37917280197143555,0.16354748175755884,0.0725100947313129,-0.23977070025902017,-0.9542036510360727,0.50213472472046,0.06844715642111007,-2.8196594800724197
1784028388968900352,1.9752304553985596,-0.4610314667224884,0.03268471360206604,-0.03435717150568962,0.06028268486261368,-0.47611552476882935,-0.8773140907287598,0.10153676569461823,-0.013081252574920654,-0.35327672958374023,0.16375114086687875,0.07219286291134941,-0.23692014606588319,-0.9549044667544478,0.4962321442752539,0.06860494116906583,-2.819314270581405
1784028388978820608,1.9851505756378174,-0.6664381623268127,-0.06702958792448044,0.2593933641910553,0.060268353670835495,-0.4710848927497864,-0.8800265192985535,0.1940956562757492,-0.06631439924240112,-0.16771817207336426,0.16437329637759274,0.07181848452383892,-0.23415557192270062,-0.9555074802816936,0.4905202783387656,0.0683779299554884,-2.8179942435452316
1784028388988739584,1.9950695037841797,-0.6819489002227783,-0.03559310734272003,-0.27279916405677795,0.05969566851854324,-0.46539178490638733,-0.8830894231796265,0.16871313750743866,-0.11389288306236267,-0.055661797523498535,0.16444453372876203,0.07095674652701148,-0.23112862570797515,-0.9562962975198664,0.4840772149208489,0.06749598675285129,-2.8176732659146215
1784028388998659584,2.0049896240234375,-0.9260756969451904,0.07869329303503036,0.2532559335231781,0.06026715785264969,-0.4583289921283722,-0.8867369294166565,0.0012867897748947144,-0.08143541216850281,0.042010366916656494,0.16477177228005124,0.07060178748223332,-0.22725958873186988,-0.9571931174728833,0.4761141760143757,0.06786073447196399,-2.817125825790172
1784028389008579584,2.014909505844116,-0.6820113658905029,0.13861975073814392,-0.2772979438304901,0.06043744459748268,-0.45092111825942993,-0.8905152678489685,0.13162493705749512,0.04633432626724243,0.034115731716156006,0.16528351561233565,0.07005202405424592,-0.2232377074051444,-0.9580913159060482,0.4677970495928028,0.06776403481142737,-2.8160801609897277
1784028389018499584,2.024829626083374,-0.6942999958992004,0.01787320151925087,0.0985797718167305,0.06199873983860016,-0.44483068585395813,-0.8934661746025085,-0.046938322484493256,-0.05272790789604187,-0.044598400592803955,0.16511229500820504,0.07018716657334063,-0.21986513032586044,-0.9588904862496588,0.4609852105738162,0.06928020050226658,-2.8168186363126986
1784028389028419584,2.0347495079040527,-0.48273158073425293,0.1490357369184494,0.1327071189880371,0.06216054782271385,-0.43981894850730896,-0.895932674407959,0.18846505880355835,0.00860556960105896,-0.013460636138916016,0.1659136678845484,0.0699436743381908,-0.21712102962687987,-0.9593951170796102,0.4553970507691975,0.06926981691274228,-2.8151657051114505
1784028389038339584,2.0446696281433105,-0.5493014454841614,0.03303202986717224,0.04226713255047798,0.06285516917705536,-0.435742050409317,-0.8978742361068726,0.16694219410419464,0.008328109979629517,-0.03071463108062744,0.16662626193524463,0.07004312629148934,-0.21484146481927727,-0.9597774853741563,0.4508625471953249,0.06989040838103544,-2.8138348886827425
1784028389048259584,2.0545895099639893,-0.6459230780601501,0.11281473934650421,0.30099403858184814,0.06275077164173126,-0.4302116334438324,-0.9005444645881653,0.15090279281139374,-0.0941719114780426,0.03259402513504028,0.16760092987415517,0.06964511385500785,-0.21184271425670487,-0.9603031606513046,0.44472719525080845,0.06956848006094575,-2.811750674072268
1784028389058179584,2.064509630203247,-0.7028883695602417,0.14261330664157867,0.24472355842590332,0.06295396387577057,-0.4247777760028839,-0.9031060934066772,0.16576002538204193,-0.2243005931377411,0.037093520164489746,0.16956361577710485,0.06962408839137021,-0.2088047667911815,-0.9606254976897025,0.43871641671077344,0.06959569042911629,-2.807686571705898
1784028389068099584,2.074429512023926,-0.7185459136962891,0.08033475279808044,0.2048158347606659,0.06289882957935333,-0.41840073466300964,-0.9060819745063782,0.12972812354564667,-0.018137961626052856,0.07994061708450317,0.17096855361169783,0.06924603586021913,-0.20533872135750025,-0.9611507608517559,0.43168379827787556,0.06930729060365542,-2.8047190714083894
1784028389078019584,2.0843496322631836,-0.6857596635818481,0.1260477602481842,0.3200702667236328,0.06272731721401215,-0.4122765362262726,-0.908896803855896,0.14718785881996155,0.006560593843460083,0.037268996238708496,0.17249241450642697,0.06885328076138984,-0.20201690844567166,-0.961610584502301,0.4249514300045897,0.06890552589375765,-2.8014813844096
1784028389087939584,2.0942695140838623,-0.4712718725204468,0.17678870260715485,0.17823031544685364,0.06284883618354797,-0.40733182430267334,-0.9111151695251465,0.17364713549613953,0.06356656551361084,0.030972957611083984,0.17389513815828314,0.06869784320428114,-0.19930637916245827,-0.961934564815502,0.4195306305219061,0.06887103051111317,-2.798570767242631
1784028389097859584,2.10418963432312,-0.2645740807056427,0.13006845116615295,0.34181326627731323,0.0631285309791565,-0.40421655774116516,-0.9124822020530701,0.1168031170964241,0.05109766125679016,-0.04953867197036743,0.17529464129780972,0.06880528832001281,-0.19754676637291574,-0.9620358695228036,0.41612212036311286,0.06907323880941699,-2.7957110154296023
1784028389107778560,2.1141085624694824,-0.1297752559185028,-0.07024946808815002,0.1864718794822693,0.0622546449303627,-0.4023301899433136,-0.9133754968643188,0.2309429943561554,0.0875108540058136,-0.04789769649505615,0.17660714043499354,0.06843668392778098,-0.19654178207777567,-0.9620279784040812,0.4140607183278283,0.06805361997520239,-2.792779072175742
1784028389117698304,2.124028444290161,-0.14485308527946472,-0.06647169589996338,0.33240705728530884,0.060509681701660156,-0.40159204602241516,-0.9138174653053284,0.14055538177490234,0.03808191418647766,-0.07472318410873413,0.1778230722397624,0.06772732194271311,-0.1962250408464526,-0.961918742491095,0.4132545748526779,0.0661198513140117,-2.789859083893834
1784028389127618560,2.133948564529419,-0.2414158433675766,-0.0003786971792578697,0.16364789009094238,0.05926284193992615,-0.39950141310691833,-0.9148150086402893,0.10331954807043076,-0.051594167947769165,-0.05074590444564819,0.17904408846714512,0.06712729717668665,-0.19515741212681195,-0.961951472776756,0.41097290595858277,0.06469083763955813,-2.787040141469667
1784028389137538560,2.1438684463500977,-0.23164702951908112,-0.09187060594558716,0.1308688074350357,0.05824696272611618,-0.3978661000728607,-0.915592610836029,0.10990488529205322,-0.08570018410682678,-0.14329105615615845,0.17997069491268866,0.06663039685905503,-0.19432982151400985,-0.9619806818521162,0.4091897565225045,0.06353106754622195,-2.784888378079821
1784028389147458560,2.1537885665893555,-0.179166778922081,-0.09697561711072922,0.26825037598609924,0.0567886047065258,-0.3960566520690918,-0.9164683222770691,0.1124923974275589,-0.0614781379699707,-0.10194903612136841,0.18084907380627566,0.06588138935724196,-0.19345666947190798,-0.962043497311601,0.40721830452456886,0.0618854892880612,-2.782742520530108
1784028389157378560,2.163708448410034,0.10399722307920456,-0.09152185171842575,0.14921262860298157,0.05561422184109688,-0.3958328664302826,-0.9166370034217834,0.11893106997013092,0.004566997289657593,-0.09698909521102905,0.18173002356897244,0.06544339074580913,-0.19338733685893097,-0.961921360083881,0.4069746298777261,0.060597739520593594,-2.7806538037632995
1784028389167298560,2.173628568649292,0.32657650113105774,-0.0906270295381546,0.1007247120141983,0.05429082736372948,-0.3980596363544464,-0.9157516360282898,0.06462091207504272,0.005313664674758911,-0.1110122799873352,0.18223788643398348,0.06511665801827436,-0.19463815529535708,-0.9615951091466796,0.40940071602712164,0.059216225972337305,-2.7792998712114185
1784028389177218560,2.1835484504699707,0.3671993613243103,0.003448416944593191,0.0031317477114498615,0.0532633438706398,-0.40116506814956665,-0.9144559502601624,0.1478322446346283,-0.06737130880355835,-0.07852500677108765,0.1825042291365393,0.06498527239030764,-0.1963388721552566,-0.9612077395136219,0.41278838505069515,0.05818020522321386,-2.778505141032515
1784028389187138560,2.1934685707092285,0.17374494671821594,-0.13715901970863342,0.12826968729496002,0.05205053836107254,-0.4038166105747223,-0.9133580327033997,0.11362938582897186,-0.12490043044090271,-0.06466931104660034,0.1825797363857274,0.06467399144109821,-0.1978339300167724,-0.9609076973849421,0.4156849152944382,0.0569265281592928,-2.7780623469132153
1784028389197058560,2.2033884525299072,-0.07224631309509277,0.006289515644311905,0.17037513852119446,0.0506523996591568,-0.40435925126075745,-0.9131965637207031,0.0945197120308876,-0.17463549971580505,-0.020687103271484375,0.18312327396317515,0.0641400444513691,-0.19821146220918892,-0.9607622231833374,0.41627813184571255,0.05541036040497871,-2.776612065081632
1784028389206978560,2.213308572769165,-0.24947835505008698,-0.040896639227867126,0.17494644224643707,0.049671996384859085,-0.40308457612991333,-0.9138137102127075,0.10236656665802002,-0.17545238137245178,0.002162158489227295,0.18418827484748793,0.06372841093846783,-0.19756476009571314,-0.9607192362379926,0.41488488379065286,0.05430336681627879,-2.7741832002156714
1784028389216898560,2.2232284545898438,-0.384603887796402,-0.09874913841485977,0.05846860632300377,0.048710502684116364,-0.40048348903656006,-0.9150083661079407,0.07306990027427673,-0.15530264377593994,-0.005188167095184326,0.18467890710124601,0.0630642221596113,-0.19626188774899814,-0.960936003622895,0.41204443920592454,0.05318483129377197,-2.772967379307032
1784028389226817536,2.233147621154785,-0.3615790009498596,-0.11799605935811996,0.2576996684074402,0.046750541776418686,-0.39738062024116516,-0.916462242603302,0.1581902652978897,-0.15295812487602234,0.007694542407989502,0.1855081135769407,0.0619118918009974,-0.19477112449412057,-0.9611545223120771,0.4086606344225552,0.05096778736908017,-2.7708343054651103
1784028389236737536,2.243067502975464,-0.18959583342075348,-0.08395843207836151,0.03302832692861557,0.04522807151079178,-0.39511725306510925,-0.9175166487693787,0.09104816615581512,-0.08478692173957825,-0.04465681314468384,0.18630567602225967,0.061062930005898054,-0.19368274082544987,-0.9612743648740603,0.4061954812789897,0.049254138034017556,-2.7688624168471314
1784028389246657536,2.2529876232147217,-0.20622621476650238,-0.2050483673810959,0.2790223956108093,0.043652068823575974,-0.3938860297203064,-0.9181221723556519,0.012301906943321228,-0.1132856011390686,-0.034697651863098145,0.18689749769976766,0.06025674321816125,-0.19315291128756595,-0.9613169843401499,0.40485557777078757,0.04750917063700162,-2.7672996980387747
1784028389256577536,2.2629075050354004,-0.18765991926193237,-0.03704060986638069,0.07736679911613464,0.041504546999931335,-0.3919573128223419,-0.9190467000007629,0.17835934460163116,-0.12652108073234558,0.02944403886795044,0.18799112118032768,0.05918806326481217,-0.1922847505752727,-0.9613441591083909,0.4027581741409483,0.045129768823275934,-2.764580494362363
1784028389266497536,2.272827625274658,-0.23879927396774292,-0.11530318856239319,0.12912613153457642,0.040635187178850174,-0.3901367485523224,-0.9198598265647888,0.06155291944742203,-0.1346130073070526,-0.03732401132583618,0.18802114533998585,0.05855985757450481,-0.19141794840724927,-0.9615497327408029,0.40078009329248715,0.04414671029043577,-2.7643546250882434
1784028389276417536,2.282747507095337,-0.6145913600921631,-0.19801542162895203,0.32932040095329285,0.038099680095911026,-0.38658368587493896,-0.9214670062065125,0.15970000624656677,-0.19062578678131104,-0.017909765243530273,0.18915493835526692,0.0571263440759871,-0.18974473494885427,-0.9617453169837754,0.39692439017138065,0.04132322722562696,-2.7615041497040607
1784028389286338048,2.292668104171753,-0.5562795996665955,-0.2328152060508728,0.16695226728916168,0.03511374071240425,-0.38116970658302307,-0.9238380193710327,0.12435586750507355,-0.12041720747947693,0.022577643394470215,0.19037233961450994,0.05527900029843997,-0.18715026299603438,-0.9621213083754169,0.3910611812551279,0.03799026031260928,-2.7584298443980533
1784028389296258048,2.3025879859924316,-0.730350911617279,-0.23033173382282257,0.24437256157398224,0.0321025587618351,-0.3757175803184509,-0.9261780381202698,0.0848713219165802,-0.12332111597061157,-0.022705018520355225,0.1912256892416159,0.05334267671931534,-0.18456854383373328,-0.9625599854648973,0.38517095273206214,0.034647455047689804,-2.7561290531879234
1784028389306178048,2.3125081062316895,-0.7038492560386658,-0.0915280431509018,0.1930294781923294,0.029924873262643814,-0.36903098225593567,-0.9289352297782898,0.05235052853822708,-0.15587136149406433,0.016749560832977295,0.19228519438517122,0.05172738695344222,-0.1812640716232649,-0.9630649580967481,0.37796618595133935,0.03220302882248283,-2.7536160117807755
1784028389316098048,2.322427988052368,-0.7684905529022217,-0.0910746231675148,0.30327731370925903,0.027956504374742508,-0.36252114176750183,-0.9315561652183533,0.06515263020992279,-0.20838645100593567,-0.05963951349258423,0.19361934131912428,0.050284104409252,-0.1780264913795494,-0.9634779093300163,0.37097162510877096,0.030001535747674137,-2.7505880727700074
1784028389326018048,2.332348108291626,-0.7105734944343567,-0.2031116932630539,0.20202922821044922,0.025867465883493423,-0.3555033206939697,-0.9343169927597046,0.10822676867246628,-0.13473102450370789,-0.06328731775283813,0.19475234817171866,0.04868408897642925,-0.1745604724039284,-0.9639657595619556,0.36345250738645785,0.027678892238631275,-2.747980932043463
1784028389335938048,2.3422679901123047,-0.5934464335441589,-0.21685001254081726,0.30964377522468567,0.023219486698508263,-0.34962698817253113,-0.9366012215614319,0.10852488875389099,-0.17388680577278137,-0.12553256750106812,0.1960170849909192,0.0469500213232601,-0.17174136602315695,-0.9643017012018043,0.3571729430898325,0.024786143632936044,-2.744984422669394
1784028389345858048,2.3521881103515625,-0.48336923122406006,-0.2316092550754547,0.17154821753501892,0.01998017355799675,-0.34463658928871155,-0.938523530960083,0.13686493039131165,-0.09370264410972595,-0.12194705009460449,0.19705303212470915,0.04497460376577234,-0.16945652734375932,-0.9645890365253715,0.35185162108221524,0.021285727916894377,-2.742348097732903
1784028389355777024,2.362107038497925,-0.4262550473213196,-0.26378244161605835,0.33857089281082153,0.01662108115851879,-0.340687096118927,-0.9400297999382019,0.07079651951789856,-0.0952717661857605,-0.1290314793586731,0.19806081919252624,0.043046936026470875,-0.1677261384293626,-0.9647728982089261,0.34764760831681735,0.017679598873694864,-2.7397382438461086
1784028389365697024,2.3720271587371826,-0.328079491853714,-0.29338639974594116,0.25304773449897766,0.013163878582417965,-0.3371675908565521,-0.9413526058197021,0.15382830798625946,-0.13269630074501038,-0.08026909828186035,0.19953397784866264,0.04119656740647651,-0.16621233636173072,-0.9648121273018168,0.34390668731545876,0.013983092368569287,-2.7361487834715637
1784028389375617024,2.3819470405578613,-0.4434002935886383,-0.33006951212882996,0.3149334490299225,0.009244578890502453,-0.3334830105304718,-0.9427107572555542,0.10437236726284027,-0.1625497043132782,-0.0616227388381958,0.2006339262001374,0.03903228305342651,-0.16468482314058122,-0.9649359194318032,0.33999566241838164,0.00980606400895014,-2.7332686110720603
1784028389385537024,2.391867160797119,-0.5089367032051086,-0.2502002418041229,0.48931217193603516,0.00529696699231863,-0.32909414172172546,-0.9442822337150574,0.1215646043419838,-0.11190009117126465,-0.06113457679748535,0.20234672874164766,0.03687871028810622,-0.16278462045544134,-0.9649854507401171,0.3353441333268147,0.005609457627985841,-2.7291537023838592
1784028389395457024,2.401787042617798,-0.5028343200683594,-0.2667432129383087,0.5224881172180176,0.001291385036893189,-0.32433924078941345,-0.9459399580955505,0.1256464719772339,-0.11877599358558655,-0.04716306924819946,0.20477719122042556,0.034771547364594785,-0.1606890322810269,-0.9649021610038306,0.33031311082310394,0.0013651862420988408,-2.7235739887215353
1784028389405377024,2.4117071628570557,-0.5729739665985107,-0.4587398171424866,0.48799699544906616,-0.003852252382785082,-0.3192345201969147,-0.9476678967475891,0.12340486794710159,-0.15110239386558533,-0.07062739133834839,0.20706744873254007,0.03203122278959018,-0.15855611333005043,-0.9648611889809461,0.3249216402695831,-0.004064958862657388,-2.7181224933050063
1784028389415297024,2.4216270446777344,-0.5570036172866821,-0.3194968104362488,0.3928680419921875,-0.008056849241256714,-0.3139703571796417,-0.9493985772132874,0.11270162463188171,-0.11443537473678589,-0.09843766689300537,0.20891166568299321,0.029659364617644842,-0.15627227222390006,-0.9649119690455054,0.31937196581702404,-0.008486062828240349,-2.7137906862262837
1784028389425217024,2.431547164916992,-0.48457202315330505,-0.45863258838653564,0.4583596885204315,-0.012823701836168766,-0.30877119302749634,-0.9510498642921448,0.10780966281890869,-0.11112013459205627,-0.11383044719696045,0.21081157605072853,0.027020638123826487,-0.15409392875085776,-0.9649266242549188,0.313900828072836,-0.013482914747522048,-2.709269942215703
1784028389435137024,2.441467046737671,-0.5936711430549622,-0.4834575355052948,0.5894972681999207,-0.018626060336828232,-0.3036267161369324,-0.9526090025901794,0.12383541464805603,-0.12690001726150513,-0.13779932260513306,0.21304242389185013,0.023923984601654038,-0.15206296722358598,-0.9648406655804691,0.3084967704511258,-0.019550189875354732,-2.7039153005113437
1784028389445057280,2.4513871669769287,-0.4306076467037201,-0.4395148456096649,0.4374723434448242,-0.02444731630384922,-0.2982666790485382,-0.9541694521903992,0.16191373765468597,-0.018231123685836792,-0.10950547456741333,0.21537059554897686,0.020803144066564153,-0.14994170254368158,-0.9647279879541086,0.3028761640959233,-0.025615963630014543,-2.6983966656242666
1784028389454977024,2.4613070487976074,-0.2646675407886505,-0.4814463257789612,0.37346240878105164,-0.03037625551223755,-0.2952141761779785,-0.9549480676651001,0.04212552309036255,-0.029279202222824097,-0.17845946550369263,0.2167761894031861,0.017746770009780567,-0.14903356543093638,-0.964615005040433,0.2996796833190437,-0.031798604137421756,-2.694680127415125
1784028389464897280,2.4712271690368652,-0.4029351472854614,-0.40110647678375244,0.46339014172554016,-0.03575856611132622,-0.2918587327003479,-0.9557927846908569,0.09012562036514282,-0.0242576003074646,-0.12098944187164307,0.218640123510816,0.014994430976163785,-0.14791479591465334,-0.9644131859538587,0.296169600881795,-0.03739502579361543,-2.69013453674671
1784028389474817024,2.481147050857544,-0.3992878198623657,-0.43984028697013855,0.3058980703353882,-0.04104014113545418,-0.28789523243904114,-0.9567821025848389,0.11217662692070007,-0.07289880514144897,-0.11563605070114136,0.2201388836611497,0.012163205127895415,-0.14649570115504518,-0.964328786066664,0.2920282900733574,-0.0428676489310132,-2.686415447261815
1784028389484736000,2.4910659790039062,-0.4534394443035126,-0.5033125281333923,0.3823739290237427,-0.04658271744847298,-0.2837268114089966,-0.9577730298042297,0.14964057505130768,-0.15371215343475342,-0.12944620847702026,0.22141647759193456,0.009144264822917872,-0.1450168095288827,-0.964293119068467,0.2876784077845883,-0.04859819575624293,-2.6831463268511397
1784028389494656000,2.500986099243164,-0.5707114338874817,-0.40694767236709595,0.2844111919403076,-0.05194852128624916,-0.2786397337913513,-0.958989679813385,0.12599942088127136,-0.13183695077896118,-0.07491534948348999,0.22270661634162223,0.006105368995995629,-0.14306597269917062,-0.9643115097415946,0.28237746431484523,-0.054117159734887746,-2.679960214411956
1784028389504576000,2.5109059810638428,-0.6342893838882446,-0.4742308259010315,0.2626124322414398,-0.05663009360432625,-0.2729395627975464,-0.96036297082901,0.11436934769153595,-0.1336308717727661,-0.07023090124130249,0.2236581480778698,0.0032791983970927095,-0.1407400547361874,-0.9644472921397547,0.2764472981251935,-0.05889918012738127,-2.677646946930507
1784028389514496000,2.5208261013031006,-0.6198101043701172,-0.466693252325058,0.329276442527771,-0.0620175339281559,-0.26664257049560547,-0.9617980718612671,0.1327267736196518,-0.11633774638175964,-0.046517908573150635,0.22474540220853853,5.436566763157536e-05,-0.13820619203947182,-0.9645665274649775,0.2699077942398851,-0.06439168106574823,-2.675012322659871
1784028389524416000,2.5307459831237793,-0.5398856997489929,-0.4307674765586853,0.23675772547721863,-0.06719668209552765,-0.26113396883010864,-0.9629608988761902,0.07891543209552765,-0.07919806241989136,-0.060201942920684814,0.22572778001916732,-0.0029930873923807006,-0.13605367800358223,-0.9646384728989961,0.264196755418113,-0.0696683875729632,-2.6725991315996414
1784028389534336000,2.540666103363037,-0.3682311773300171,-0.41641756892204285,0.21087126433849335,-0.07161659747362137,-0.2565898299217224,-0.9638634324073792,0.051185086369514465,-0.026445448398590088,-0.03964608907699585,0.22648241142549824,-0.005588541929496074,-0.13430207962599308,-0.9646955289397948,0.2594922337738227,-0.07416532314192703,-2.6707216520632113
1784028389544256000,2.550585985183716,-0.19835051894187927,-0.4397428631782532,0.21512512862682343,-0.07613976299762726,-0.2539093494415283,-0.9642265439033508,0.09620507061481476,-0.08367609977722168,-0.06510084867477417,0.22721108176217003,-0.008020860989643419,-0.13350058328351286,-0.9646182778245943,0.25671993063249376,-0.07880108647804591,-2.6687597812572714
1784028389554176000,2.5605061054229736,-0.23165607452392578,-0.4283212125301361,0.25033074617385864,-0.08086307346820831,-0.25150179862976074,-0.9644728899002075,0.1251746118068695,-0.10941430926322937,-0.004521191120147705,0.22808903526701876,-0.010499307744457101,-0.132865739784405,-0.9644749246162777,0.2542316134452255,-0.08364609779185382,-2.6664484168927007
1784028389564096000,2.5704259872436523,-0.21218277513980865,-0.36569300293922424,0.1589590311050415,-0.08482272922992706,-0.24930785596370697,-0.9647023677825928,0.09983738511800766,-0.08989500999450684,0.02686673402786255,0.22860981418356993,-0.01262774318096495,-0.13224729337544405,-0.9644110590304028,0.25196547414647996,-0.08770077588467755,-2.6649779487933487
1784028389574016000,2.58034610748291,-0.287602961063385,-0.3143327534198761,0.29123786091804504,-0.0885218009352684,-0.24675633013248444,-0.9650260210037231,0.1325281411409378,-0.11889003217220306,0.08496010303497314,0.22954022417501052,-0.01461495242604678,-0.13142829815256551,-0.9642739353383749,0.2493316440225633,-0.0914739674395235,-2.662731062473735
1784028389583936000,2.590265989303589,-0.359558641910553,-0.29506638646125793,0.1729745715856552,-0.09174767136573792,-0.24345412850379944,-0.9655632972717285,0.12472190707921982,-0.14385971426963806,0.15941095352172852,0.23038176446530145,-0.016472052897927143,-0.13018076625655803,-0.9642125061324286,0.24592554296176247,-0.09473540826857071,-2.6608050962557117
1784028389593856000,2.6001861095428467,-0.531101644039154,-0.18109256029129028,0.18714964389801025,-0.09454136341810226,-0.23904365301132202,-0.966395378112793,0.15357762575149536,-0.12666372954845428,0.21499162912368774,0.23113449576372422,-0.018261894203114252,-0.1283308391734322,-0.9642481888387989,0.24138082904188654,-0.0975185544959269,-2.6592255392360005
1784028389603776000,2.6101059913635254,-0.511598527431488,-0.11351510137319565,0.20908956229686737,-0.09661506861448288,-0.23391009867191315,-0.9674459099769592,0.14783883094787598,-0.05350446701049805,0.30085045099258423,0.231835769754866,-0.01979328969767593,-0.1260367681327014,-0.9643522321984173,0.23609741022163552,-0.09953609466957197,-2.6579209951215486
1784028389613695232,2.620025157928467,-0.6222661733627319,0.1631356179714203,0.20805613696575165,-0.09700479358434677,-0.22824382781982422,-0.9687594175338745,0.12379922717809677,-0.014279365539550781,0.332147479057312,0.23296545459889442,-0.020510621580449268,-0.12328665874869452,-0.964420484041414,0.23027351323644107,-0.099800338368954,-2.6560024148918444
1784028389623614976,2.6299450397491455,-0.8539614677429199,0.3495768904685974,0.08335548639297485,-0.09492707997560501,-0.2210806906223297,-0.9706246256828308,0.08349825441837311,-0.03946313261985779,0.3808877468109131,0.2336933190110713,-0.020254346225929937,-0.11948825712965458,-0.9647278330393253,0.22292243498503403,-0.09748995181054321,-2.655353354443865
1784028389633535232,2.6398651599884033,-1.0592912435531616,0.5661249160766602,-0.03520448878407478,-0.09081607311964035,-0.2119830697774887,-0.9730445146560669,0.13634830713272095,-0.11363948881626129,0.4301062822341919,0.23396185072887363,-0.019293972921159443,-0.11447919926817267,-0.9652896818515032,0.2136037039162316,-0.09306229108318446,-2.6560299971520047
1784028389643454976,2.649785041809082,-1.370226263999939,0.6425853371620178,-0.005003443919122219,-0.08497636765241623,-0.20012514293193817,-0.9760783314704895,0.15226763486862183,-0.12250669300556183,0.4926798939704895,0.2340499223997083,-0.017839607707438164,-0.10790075412265406,-0.9660537856634922,0.20148564945842096,-0.08684000852675201,-2.6574205720838155
1784028389653375232,2.65970516204834,-1.4623044729232788,0.6765884160995483,0.04151955246925354,-0.07862576097249985,-0.18646281957626343,-0.9793108105659485,0.15630826354026794,-0.022613108158111572,0.545427143573761,0.23435137820181434,-0.016328355714116557,-0.10038920333147434,-0.9668169410494776,0.18756058506321627,-0.08011498478796746,-2.658437233412455
1784028389663294976,2.6696250438690186,-1.3503577709197998,0.8643237352371216,-0.10360195487737656,-0.07119017094373703,-0.1724810153245926,-0.9824368953704834,0.06211119145154953,0.1656908392906189,0.5427396297454834,0.23454582606934538,-0.014339586647080023,-0.09260629298266299,-0.967577816355688,0.17334787470919308,-0.07233641014668488,-2.659668812329956
1784028389673215232,2.6795451641082764,-1.0099093914031982,1.1334673166275024,-0.19367174804210663,-0.061228472739458084,-0.16134344041347504,-0.9849971532821655,-0.10809831321239471,0.25553596019744873,0.4917720556259155,0.23415079880584316,-0.010836769611321012,-0.08593016456876536,-0.9683346394275644,0.16205177015674668,-0.062081187446357926,-2.662042720616683
1784028389683134976,2.689465045928955,-0.7082077860832214,1.411006212234497,-0.29934653639793396,-0.04832640290260315,-0.1530015766620636,-0.9870436191558838,-0.10154542326927185,0.3014848530292511,0.4812910556793213,0.23351225895643649,-0.005586872010269393,-0.08029311716618436,-0.9690169373139107,0.153604900145599,-0.04892169046338757,-2.6648872076471934
1784028389693055232,2.699385166168213,-0.2913624346256256,1.5150033235549927,-0.4148193597793579,-0.033287763595581055,-0.14824716746807098,-0.9883899688720703,-0.04007649049162865,0.2911152243614197,0.4434375762939453,0.232382798378172,0.0010928883125351535,-0.07618285785060783,-0.9696356226821399,0.1487956141754344,-0.03366605176928534,-2.6686363186244826
1784028389702974976,2.7093050479888916,-0.1399260312318802,1.6665470600128174,-0.6182819604873657,-0.016827523708343506,-0.14650271832942963,-0.9890671372413635,0.018872205168008804,0.24460147321224213,0.429847776889801,0.23045705514003925,0.008765589663873625,-0.07341388513824824,-0.9702696487953529,0.14703190602530442,-0.017011889738370485,-2.6739450072503077
1784028389712895232,2.7192251682281494,-0.04283057153224945,1.6674696207046509,-0.6440640687942505,0.0004696731048170477,-0.14560268819332123,-0.9893430471420288,0.05995513126254082,0.19517849385738373,0.5180600881576538,0.2279383028801708,0.016912342312430342,-0.07101025349323963,-0.9709354814440304,0.1461221277416333,0.00047473228519321893,-2.6804555033299597
1784028389722814976,2.729145050048828,-0.027031367644667625,1.6408576965332031,-0.7411664128303528,0.017672793939709663,-0.14524605870246887,-0.9892377257347107,0.14530633389949799,0.10914376378059387,0.5763959288597107,0.22528319154303555,0.02508051190190543,-0.06893554859846952,-0.9715279194596623,0.14576166096314488,0.01786316293387103,-2.6871802044394055
1784028389732735232,2.739065170288086,0.09382794052362442,1.6071116924285889,-0.7239951491355896,0.034510184079408646,-0.14514002203941345,-0.9888091087341309,0.08717866241931915,0.06890711188316345,0.6196532249450684,0.22216452536746545,0.03308187462429231,-0.06708980832128175,-0.9721355753121651,0.14565448629161748,0.034886594558226694,-2.6947899010497975
1784028389742654208,2.7489840984344482,0.20655208826065063,1.7628419399261475,-0.7019162178039551,0.05217793211340904,-0.14648275077342987,-0.9878361821174622,0.01116129755973816,0.05850057303905487,0.5693944096565247,0.21929637875999533,0.0416875802183469,-0.06590955121268,-0.9725364866940315,0.14701173284555308,0.05277139254066215,-2.7019197220182702
1784028389752573952,2.758903980255127,0.20267705619335175,1.833372712135315,-0.6266342997550964,0.07079178094863892,-0.14813412725925446,-0.9864303469657898,-0.026358187198638916,0.034059420228004456,0.5560409426689148,0.21659586559614138,0.05081984432365674,-0.06482419228052934,-0.9727802650166307,0.14868131591247252,0.07164278896013843,-2.7087652180311492
1784028389762494208,2.7688241004943848,0.060599811375141144,1.7910250425338745,-0.464152991771698,0.08938337117433548,-0.14902137219905853,-0.9847859144210815,0.03567766398191452,-0.04816795885562897,0.5382221937179565,0.21452201674184185,0.05991681099915253,-0.06338006097864529,-0.9728172077693579,0.1495785262548807,0.09051625185755582,-2.714294220112559
1784028389772413952,2.7787439823150635,0.12574446201324463,1.7755861282348633,-0.3963494300842285,0.10737137496471405,-0.14939185976982117,-0.9829310774803162,0.12134261429309845,-0.09194114804267883,0.5201167464256287,0.21297706669246716,0.06871394808992427,-0.06174840468366655,-0.9726799975157552,0.14995320871298276,0.10880451839390959,-2.7186594801679487
1784028389782334208,2.7886641025543213,0.17755386233329773,1.9260272979736328,-0.24424618482589722,0.12567982077598572,-0.1505097895860672,-0.9805872440338135,0.12222972512245178,-0.1055784672498703,0.480022668838501,0.21192238791237683,0.07780311725754917,-0.06044039731458591,-0.9723078587491788,0.15108391813664304,0.12747293917836108,-2.722049889074077
1784028389792253952,2.798583984375,0.17149071395397186,2.035008668899536,-0.2463853508234024,0.1453402042388916,-0.1518796980381012,-0.977654755115509,0.0702054500579834,-0.0674806535243988,0.45777255296707153,0.21128784264168188,0.08763723983271399,-0.05909607402440959,-0.9716917638976195,0.15246976203497012,0.1475812299741684,-2.7246651255883028
1784028389802174208,2.808504104614258,-0.023171449080109596,1.9413511753082275,-0.1465436965227127,0.16507206857204437,-0.152450829744339,-0.9744279980659485,0.08939874172210693,-0.16767854988574982,0.44445979595184326,0.21081539863440998,0.09745505610169627,-0.057345475519069655,-0.9709639072967508,0.1530476145578167,0.16781090238350738,-2.726886766470936
1784028389812093952,2.8184239864349365,-0.17937695980072021,1.8786026239395142,-0.09135617315769196,0.18353191018104553,-0.1511913239955902,-0.9713172912597656,0.18533405661582947,-0.1812671720981598,0.4540596008300781,0.21083631664813127,0.10649304633877123,-0.05477772805296436,-0.9701581051827641,0.15177333301896864,0.18674984533815253,-2.727844683385245
1784028389822014208,2.8283441066741943,-0.21344971656799316,1.672400951385498,-0.10055127739906311,0.20062069594860077,-0.14904770255088806,-0.9682645201683044,0.15199467539787292,-0.12736526131629944,0.38698095083236694,0.2110141074981344,0.11478096068568419,-0.051894936784900675,-0.9693324405752035,0.1496051407301683,0.2043052772156663,-2.7282649752107124
1784028389831933952,2.838263988494873,-0.1864810734987259,1.8022418022155762,-0.1445932388305664,0.2173530012369156,-0.1468886137008667,-0.9649773836135864,0.08281788229942322,-0.030418500304222107,0.3358423113822937,0.21089103564606776,0.12289519285276684,-0.04907203891585251,-0.9685110690244038,0.14742202816873143,0.2215443360390043,-2.729217532731079
1784028389841854208,2.848184108734131,0.19692890346050262,1.9155864715576172,-0.13322021067142487,0.23526805639266968,-0.1463225930929184,-0.960853099822998,-0.005028203129768372,0.1536620706319809,0.27997541427612305,0.2108013967203158,0.1318093283576097,-0.04690163580936801,-0.9674653802503865,0.14684982972012153,0.2401288918668659,-2.7302663625880137
1784028389851773952,2.8581039905548096,0.5581798553466797,1.84274423122406,-0.0621502548456192,0.25344541668891907,-0.14994388818740845,-0.9556580185890198,-0.024197369813919067,0.24720339477062225,0.18562322854995728,0.21045254880678582,0.14135116886198087,-0.046806374996270196,-0.9661980395184234,0.15051151389243328,0.2592373839229577,-2.7323175237869997
1784028389861694208,2.8680241107940674,0.8337070345878601,1.7884844541549683,-0.06677722930908203,0.27067500352859497,-0.15634188055992126,-0.949890673160553,0.01976078748703003,0.2997439503669739,0.18318229913711548,0.2100916184567916,0.15077196455563266,-0.04819218072579216,-0.9647833104714653,0.15698588961554633,0.2775964773720273,-2.734741063357176
1784028389871613952,2.877943992614746,0.7876992225646973,1.5624463558197021,-0.2570635974407196,0.2868044972419739,-0.16382215917110443,-0.9438778758049011,0.011214882135391235,0.22398757934570312,0.1257016658782959,0.2091590219269048,0.15977344273094757,-0.0503338905962521,-0.9634269157995572,0.1645639259884522,0.29499213246372763,-2.738533730245705
1784028389881533184,2.8878631591796875,0.8263795375823975,1.4147186279296875,-0.12155155837535858,0.30104392766952515,-0.17076018452644348,-0.9381969571113586,0.06599098443984985,0.18237212300300598,0.14062005281448364,0.20787638893029434,0.16776953164494654,-0.052487224791652194,-0.9622296789097524,0.1716011288499001,0.3104964549647328,-2.742981412685894
1784028389891452928,2.897783041000366,0.7723827958106995,1.2890032529830933,-0.3886924684047699,0.31385016441345215,-0.17749722301959991,-0.9327340722084045,0.04669976234436035,0.12111599743366241,0.04369598627090454,0.20644181964861877,0.17503186160379716,-0.054743209775194215,-0.9611185275671382,0.178442701205342,0.32458353477570656,-2.7477279146739684
1784028389901373184,2.907703161239624,0.7620553374290466,1.1023420095443726,-0.28791072964668274,0.32555365562438965,-0.18347492814064026,-0.9275515079498291,0.05902886390686035,0.09541647136211395,0.0254061222076416,0.2043839369417659,0.18162894284385828,-0.05687863428796133,-0.960209904503754,0.1845202338117688,0.33754917517938315,-2.7536740313650654
1784028389911292928,2.9176230430603027,0.3862532079219818,0.8216931819915771,-0.42949235439300537,0.33508768677711487,-0.18782930076122284,-0.92327481508255,0.15745076537132263,0.02645234763622284,0.007350742816925049,0.20240232204052136,0.1869410504706857,-0.05844337080465214,-0.9595159112402895,0.18895163629956374,0.34815038336637427,-2.759128202188229
1784028389921213184,2.9275431632995605,0.3646073043346405,0.6319965124130249,-0.4325299561023712,0.3422330915927887,-0.18928442895412445,-0.920352041721344,0.15750747919082642,0.00048744678497314453,0.0045195817947387695,0.20034812723038173,0.19068784397994454,-0.058839787255865576,-0.9591853686502557,0.19043335218881718,0.35600634924791413,-2.7641280115417284
1784028389931132928,2.9374630451202393,0.20941199362277985,0.6700344085693359,-0.5849147439002991,0.34890758991241455,-0.19039218127727509,-0.9176133871078491,0.0016783475875854492,-0.09001858532428741,-0.20370924472808838,0.19764853599163223,0.1941184707165701,-0.059256502695537026,-0.9590316113016439,0.19156162008827746,0.36335125326042755,-2.7703948092271737
1784028389941053184,2.947383165359497,-0.13277782499790192,0.4040714204311371,-0.3826436996459961,0.35470613837242126,-0.18928305804729462,-0.9156175255775452,-0.03816258907318115,0.030393287539482117,-0.24543899297714233,0.19552100950008244,0.19688346638539284,-0.0585503157766337,-0.9589474215280146,0.19043195286830747,0.3695934694772479,-2.7750254267511414
1784028389950972928,2.957303047180176,-0.48848021030426025,0.4448617398738861,-0.2870868146419525,0.35877418518066406,-0.18566815555095673,-0.9147723317146301,-0.017099380493164062,0.07887189090251923,-0.24228638410568237,0.19452623168543165,0.198538736501639,-0.05653501384095987,-0.9589294156594801,0.18675180199541194,0.37376465891315225,-2.77672089284554
1784028389960893184,2.9672231674194336,-0.6633571982383728,0.3190082013607025,-0.5574802160263062,0.36355873942375183,-0.17863331735134125,-0.9142839908599854,-0.15513893961906433,0.16180287301540375,-0.22945380210876465,0.193267463773476,0.20017793383966337,-0.05279018058863265,-0.9590566996750055,0.17959725002549518,0.3784729274405846,-2.778369899753899
1784028389970812928,2.9771430492401123,-0.6980218291282654,0.2803855538368225,-0.5167669057846069,0.3670657277107239,-0.17042984068393707,-0.9144486784934998,-0.21577483415603638,0.18889299035072327,-0.24784374237060547,0.19118854303836175,0.200992440767236,-0.048761523151682945,-0.9595162006754936,0.17126588148787159,0.38171834800764176,-2.7814026812020574
1784028389980733184,2.98706316947937,-0.4850904047489166,0.502415657043457,-0.14465861022472382,0.3710157871246338,-0.1639174520969391,-0.9140450954437256,-0.0905592143535614,0.23792259395122528,-0.18611359596252441,0.19034320179496036,0.20230428110985235,-0.04528181108536029,-0.9595791639804633,0.16466052185235847,0.38558679902679505,-2.7821690161581016
1784028389990652928,2.996983051300049,-0.33694514632225037,0.3523145020008087,-0.037523768842220306,0.3753543198108673,-0.15973666310310364,-0.9130133390426636,-0.10557892918586731,0.37551119923591614,-0.14707577228546143,0.19044028439968472,0.2041252315276767,-0.04273433177674587,-0.9592910279164186,0.16042387819232273,0.3900521982487201,-2.781399968221979
1784028390000571904,3.006901979446411,0.13215894997119904,0.31090420484542847,0.05676118656992912,0.37800565361976624,-0.15896646678447723,-0.9120534062385559,-0.09422269463539124,0.5477299094200134,-0.09891766309738159,0.19070942152228482,0.20544353813634805,-0.04202684875895985,-0.9589873049631229,0.15964371828645169,0.3929056762293041,-2.7808211039273667
1784028390010492160,3.016822099685669,0.18722306191921234,0.4425947666168213,0.022562770172953606,0.3818039298057556,-0.16066956520080566,-0.9101709127426147,-0.14323276281356812,0.5153295993804932,-0.11708128452301025,0.19085665282216485,0.2076313488696684,-0.04247089915395933,-0.95846708360039,0.16136899511992822,0.39719095989313546,-2.7810237015300205
1784028390020411904,3.0267419815063477,-0.14969396591186523,0.4970899522304535,0.25672200322151184,0.38528814911842346,-0.16141442954540253,-0.9085694551467896,-0.08806219696998596,0.2818215489387512,-0.18020617961883545,0.19145008961571428,0.20957174939607473,-0.042367029170679256,-0.9579308519676425,0.16212370887006122,0.40107436867091745,-2.7800988620336136
1784028390030332160,3.0366621017456055,-0.197154238820076,0.6512960195541382,0.37910088896751404,0.3900279700756073,-0.1611364781856537,-0.9065942764282227,0.06895637512207031,-0.049938350915908813,-0.19705861806869507,0.1934894167691681,0.2121253664506955,-0.0412999034975218,-0.9570051892250965,0.16184206366672296,0.4062771674943388,-2.776012764293356
1784028390040251904,3.046581983566284,-0.5811375975608826,0.43191948533058167,0.2510491907596588,0.39478927850723267,-0.15847526490688324,-0.9050011038780212,0.07031387090682983,-0.20630134642124176,-0.27901989221572876,0.19509040004627262,0.21440389656171166,-0.03912047513387772,-0.9562637046657998,0.15914621100949064,0.41134456607754627,-2.7723584897484037
1784028390050172160,3.056502103805542,-0.8797765374183655,0.5595346093177795,0.39072367548942566,0.3985689580440521,-0.1540113091468811,-0.9041146636009216,0.2898160517215729,-0.2591356635093689,-0.21913057565689087,0.19796928590409665,0.2160049618659545,-0.03584035329702206,-0.9554399706206449,0.15462674500530904,0.4152095466509747,-2.765603179755489
1784028390060091904,3.0664219856262207,-0.9304722547531128,0.609129011631012,0.5339516997337341,0.40305113792419434,-0.1474761664867401,-0.9032167792320251,0.20855164527893066,-0.1710052788257599,-0.17376381158828735,0.20110876523440793,0.21773178953796526,-0.03137640439044583,-0.9545489207569119,0.1480160513212773,0.41972242929402903,-2.757879146997208
1784028390070012160,3.0763421058654785,-2.8985595703125,1.3547165393829346,-1.405144214630127,0.41210731863975525,-0.132128044962883,-0.9015041589736938,0.25979819893836975,-0.031491950154304504,-0.32005345821380615,0.20202784681290326,0.220775346797511,-0.022498288797009405,-0.9539060830592441,0.13251554154633813,0.42876990709290275,-2.7530735717115085
1784028390079931904,3.0862619876861572,-5.621228218078613,-0.27452552318573,-1.4741206169128418,0.4188905358314514,-0.08595369011163712,-0.9039594531059265,0.3411039710044861,-0.4589987099170685,0.1634809374809265,0.19848650189127218,0.21913462273495968,0.0005426800140841319,-0.955291988284322,0.08605988529192979,0.4339374257639656,-2.7508528476934435
1784028390089852160,3.096182107925415,-6.342345714569092,0.16419677436351776,-0.11525178700685501,0.4179438352584839,-0.028158605098724365,-0.9080363512039185,0.8787022829055786,0.10338442772626877,0.36164969205856323,0.2019540981802831,0.21230586940305032,0.030133707927126867,-0.9556320632391195,0.028162328349834297,0.4313633362901449,-2.731230977215891
1784028390099771904,3.1061019897460938,-5.599384307861328,0.6203177571296692,-0.5001025199890137,0.421545147895813,0.026344822719693184,-0.9064246416091919,0.2814425230026245,0.5512155890464783,-0.2136315107345581,0.20695149799146662,0.2081178822878652,0.058945974091353506,-0.9541401208409935,-0.026347871076803565,0.4353100121765903,-2.708585254179768
1784028390109692160,3.1160221099853516,-5.301200866699219,0.703025221824646,-0.9349436163902283,0.42755964398384094,0.07823140919208527,-0.9005956649780273,-0.00200730562210083,0.27583351731300354,-0.3726128935813904,0.2087256730494598,0.2056217863597612,0.08615012416043433,-0.952224396637115,-0.07831142710301985,0.44324601717263457,-2.692368185785013
1784028390119611904,3.1259419918060303,-5.625716209411621,0.8998972773551941,-1.270774483680725,0.43336570262908936,0.13077616691589355,-0.8916791677474976,0.041869282722473145,-0.10958170890808105,-0.10903799533843994,0.20869427681696343,0.2031826749205304,0.11347779811711341,-0.9498875230800621,-0.13115182923134366,0.45239374672793164,-2.678832678006714
1784028390129532160,3.135862112045288,-6.227087020874023,0.6293020844459534,-1.386824607849121,0.4384620189666748,0.18886761367321014,-0.8786808848381042,0.1716911792755127,-0.13321880996227264,-0.009807884693145752,0.20791686969669196,0.20003032161294293,0.1436921286651571,-0.9466314384169265,-0.19000888112010103,0.46284752196520157,-2.6642790053284457
1784028390139451904,3.145781993865967,-5.832551002502441,0.7812841534614563,-1.4730311632156372,0.4411645233631134,0.24762310087680817,-0.8625872135162354,0.3417028784751892,0.254970908164978,-0.14511847496032715,0.20660272374272587,0.19580762487029355,0.17425776791862943,-0.9426606298409125,-0.2502261755929221,0.47276036518064385,-2.649502880484433
1784028390149371136,3.155701160430908,-5.400684833526611,0.7739786505699158,-1.3913518190383911,0.4436858892440796,0.3010844886302948,-0.8440918326377869,0.3282104730606079,0.2945423424243927,-0.31467586755752563,0.2045811063845381,0.19232424726128564,0.20239930332552133,-0.9381857629779355,-0.3058296963097133,0.4839462340860658,-2.6361550640883555
1784028390159291136,3.165621042251587,-5.243452072143555,0.8371691107749939,-1.395990252494812,0.4458429217338562,0.3513745963573456,-0.8232617974281311,0.2302282452583313,0.3696489632129669,-0.2096208930015564,0.20236709117332152,0.1891719822040839,0.22930996902661108,-0.933101532351474,-0.3590389204521025,0.4963377028538603,-2.6225529451280774
1784028390169211136,3.1755411624908447,-5.133087158203125,1.1490236520767212,-1.6316591501235962,0.44819021224975586,0.399711936712265,-0.7995973229408264,0.05724191665649414,0.24947324395179749,-0.11155068874359131,0.19908460144295337,0.18676268613167518,0.2555797829766936,-0.9274502947840687,-0.41120256867135374,0.510884007242716,-2.609878347699751
1784028390179131136,3.1854610443115234,-4.95156192779541,1.5147477388381958,-1.6797646284103394,0.45150086283683777,0.4465220272541046,-0.7725057005882263,-0.05289551615715027,0.20182392001152039,-0.09590250253677368,0.19435808651907024,0.18567226262724693,0.28155453330786373,-0.9211285652021975,-0.4628745704185663,0.5289167444454099,-2.598232132808735
1784028390189051136,3.1953811645507812,-4.593883037567139,1.7290996313095093,-1.4857360124588013,0.4566207230091095,0.489420622587204,-0.7429434657096863,0.130278080701828,0.2244618535041809,-0.15631794929504395,0.1890930783566257,0.1864002381399491,0.3062404361773611,-0.9141748465140822,-0.5114252363082122,0.5510931494671034,-2.586086636758899
1784028390198971136,3.20530104637146,-4.378222942352295,1.291830062866211,-1.411319613456726,0.46004876494407654,0.5284571051597595,-0.7135042548179626,0.38405218720436096,0.18925535678863525,-0.18882423639297485,0.18436188243023102,0.186673443585848,0.3292429167593602,-0.9070628146554867,-0.5567821099201846,0.5726924057926244,-2.572639869322941
1784028390208891136,3.2152211666107178,-3.738388776779175,0.8927245140075684,-1.221381664276123,0.46045753359794617,0.563023030757904,-0.6862826943397522,0.49411702156066895,0.15421634912490845,-0.2641109228134155,0.1804053349677388,0.1856104352568398,0.3498677012644733,-0.9003306892993657,-0.5980391526719543,0.5909582640039859,-2.5589612835966116
1784028390218811136,3.2251410484313965,-2.82791805267334,0.9115908741950989,-1.139483094215393,0.45981329679489136,0.5902182459831238,-0.6634863615036011,0.42234304547309875,0.09146815538406372,-0.4054986238479614,0.1765515993819193,0.1846800411439145,0.3662650602484971,-0.8947473221387693,-0.6313291790363287,0.6060300760058519,-2.5484543986089387
1784028390228731136,3.2350611686706543,-1.8757827281951904,0.576057493686676,-1.270229458808899,0.45736250281333923,0.6107810735702515,-0.6463481783866882,0.29927507042884827,0.27459484338760376,-0.360609769821167,0.17213620005061675,0.18360985572705352,0.3783032230495239,-0.8908103779683127,-0.6570466633701217,0.6158151594423181,-2.5438582388682267
1784028390238651136,3.244981050491333,-1.3938965797424316,0.6337855458259583,-1.3526118993759155,0.45309919118881226,0.6271301507949829,-0.6335683465003967,0.26774123311042786,0.4880736470222473,-0.290213942527771,0.1666209608491302,0.18241103855483262,0.3872234917188923,-0.888268895976753,-0.6778633149719914,0.620824463768232,-2.545526106459886
1784028390248571136,3.254901170730591,-0.6798105835914612,0.7543591856956482,-1.2059983015060425,0.44921404123306274,0.6393189430236816,-0.6240816712379456,0.28656473755836487,0.4955381751060486,-0.18211638927459717,0.16062815517132403,0.1820266352820269,0.393478668440087,-0.8867013682038424,-0.6936122309990533,0.6238913681282012,-2.5511284161556844
1784028390258491136,3.2648210525512695,-0.13474644720554352,0.6734818816184998,-1.2916297912597656,0.4458816647529602,0.6470504403114319,-0.6184782385826111,0.2669631540775299,0.43643033504486084,-0.15476089715957642,0.15418765480759253,0.18251837533036708,0.3967970856983284,-0.8862648517078885,-0.7037095388745747,0.6246375623154925,-2.5611091835550215
1784028390268411136,3.2747411727905273,0.2758673131465912,0.6154917478561401,-1.4898418188095093,0.4408409893512726,0.6529588103294373,-0.6158765554428101,0.19374153017997742,0.41608715057373047,-0.15757620334625244,0.14670622957382104,0.18265318983054163,0.3983711065047593,-0.886800704925747,-0.7114844920314509,0.6212477863947601,-2.576271285203296
1784028390278331136,3.284661054611206,0.7431748509407043,0.5886356830596924,-1.697134017944336,0.43441513180732727,0.6563666462898254,-0.6168195009231567,0.20413464307785034,0.3509727716445923,-0.271867573261261,0.13808651890583046,0.18265512931157707,0.39777803162484376,-0.8884491030071314,-0.7159926658791222,0.6135943159961174,-2.597271861434463
1784028390288249600,3.29457950592041,0.5930942893028259,0.6358566880226135,-1.8888717889785767,0.42632633447647095,0.6598837971687317,-0.6187077760696411,0.20817989110946655,0.4243752360343933,-0.2432764768600464,0.12830578654189095,0.18221512419899027,0.3967918334698078,-0.890444628449681,-0.7206641040935199,0.6033453938045575,-2.6219583194200826
1784028390298169344,3.304499387741089,0.4994455575942993,0.5602045655250549,-1.9155867099761963,0.41743940114974976,0.6644222140312195,-0.6199092864990234,0.26632219552993774,0.3291996121406555,-0.11924171447753906,0.1182221865375687,0.18141755301959547,0.39640007723825965,-0.8921761240633322,-0.7267204405715493,0.5926413022373865,-2.646958496588999
1784028390308089600,3.3144195079803467,-0.13450103998184204,0.6275659799575806,-2.0119664669036865,0.4080897867679596,0.6710314154624939,-0.619015097618103,0.2779911458492279,0.1369519829750061,0.06440389156341553,0.10820634045916577,0.18029125231967943,0.39747644623521217,-0.8931959735545489,-0.7355990236442734,0.5828550077633601,-2.670323210767744
1784028390318009344,3.3243393898010254,-0.901789128780365,0.8082199692726135,-2.1366405487060547,0.39835813641548157,0.6826032996177673,-0.6126692295074463,0.21588441729545593,-0.012971341609954834,0.3364851474761963,0.09808321164294106,0.1789691094468781,0.4020391021481072,-0.8925885658016144,-0.751319022809428,0.5765164897291781,-2.6898702481739365
1784028390327929600,3.334259510040283,-1.373384952545166,1.1360657215118408,-2.043919324874878,0.389945387840271,0.6977143883705139,-0.6009470224380493,0.199104905128479,-0.02763986587524414,0.4531503915786743,0.08796831076252641,0.17852790957279924,0.4094560781723859,-0.8903567412906404,-0.7722019619402779,0.5755908416055564,-2.705119589792776
