time,seconds_elapsed,rotationRateX,rotationRateY,rotationRateZ,gravityX,gravityY,gravityZ,accelerationX,accelerationY,accelerationZ,quaternionW,quaternionX,quaternionY,quaternionZ,pitch,roll,yaw
1783116156028833536,0.21186065673828125,-0.5686293840408325,0.28421440720558167,-0.4622330069541931,0.09065281599760056,0.8058977723121643,-0.5850734710693359,0.017593033611774445,-0.1697893738746643,0.08885765075683594,0.7956228890041797,-0.3816755635158129,0.24856997164504882,-0.3994008683350073,-0.9371902433717555,0.1537202643373418,-0.8525618616302174
1783116156038753536,0.22178053855895996,-0.22969123721122742,0.32412534952163696,-0.5384305715560913,0.08916083723306656,0.8085262179374695,-0.5816664099693298,0.008785329759120941,-0.11840170621871948,0.049088895320892334,0.7935925337523564,-0.38305153999876707,0.2498766029117245,-0.40130314991256627,-0.9416433200437219,0.1521012697586487,-0.858831010475556
1783116156048673536,0.23170065879821777,0.12611021101474762,0.3104185163974762,-0.57120281457901,0.08715616911649704,0.8090741634368896,-0.5812079906463623,0.015443943440914154,-0.037574589252471924,0.03970414400100708,0.7921121733345361,-0.3830440229689067,0.25034633575488074,-0.4039334526300331,-0.9425751037212231,0.14884783657520054,-0.8671886657376565
1783116156058593536,0.24162054061889648,0.4791111350059509,0.2793724536895752,-0.5809968709945679,0.08500821143388748,0.8076305985450745,-0.5835292935371399,0.04572908580303192,-0.018278181552886963,0.07519799470901489,0.7912744693811593,-0.3817163569653352,0.2500559353284094,-0.4070005619884943,-0.940122982728031,0.14466178827962564,-0.8765507416650167
1783116156068512512,0.2515394687652588,0.7796395421028137,0.17088989913463593,-0.6834217309951782,0.08207381516695023,0.8044026494026184,-0.5883879065513611,0.036761634051799774,0.028528869152069092,0.19208663702011108,0.7909962083845457,-0.37937028925312266,0.24876540695321292,-0.41051076271928133,-0.9346693273926383,0.13859501671426727,-0.8874104356881138
1783116156078432512,0.2614595890045166,1.0257905721664429,0.234282985329628,-0.9046449661254883,0.07776568084955215,0.7999378442764282,-0.5950226187705994,0.016442082822322845,0.12797963619232178,0.33095407485961914,0.7908417295341764,-0.37639906071734686,0.24660176474223247,-0.4148260247481106,-0.9271916049473207,0.12995706612648272,-0.9011296510587116
1783116156088352512,0.2713794708251953,1.183298110961914,0.27122771739959717,-1.2079963684082031,0.0715537890791893,0.7949286699295044,-0.6024686694145203,-0.036626413464546204,0.1157463788986206,0.43897074460983276,0.7901590819908876,-0.37319068025015434,0.2439147056306871,-0.4205746153876784,-0.9188900131428908,0.11821389110923221,-0.9197129404797222
1783116156098271488,0.2812986373901367,1.258257269859314,0.2729009687900543,-1.3720192909240723,0.06345212459564209,0.789831280708313,-0.6100331544876099,-0.019674688577651978,0.02619349956512451,0.5033589601516724,0.7889590191787764,-0.3701993121377391,0.24069873621713134,-0.4272708501474309,-0.9105338571338909,0.10364153290467391,-0.9419109706698913
1783116156108191488,0.29121851921081543,1.3947302103042603,0.237998366355896,-1.508066177368164,0.05396967753767967,0.7843956351280212,-0.6179084777832031,0.05345216765999794,0.03220897912979126,0.5423927307128906,0.7874311131401747,-0.3672645073685346,0.23698637256747468,-0.4346338960792438,-0.9017211301893309,0.08712141920161318,-0.9665030047487735
1783116156118111488,0.30113863945007324,1.9491353034973145,0.35120829939842224,-1.5229073762893677,0.0442754402756691,0.7769734859466553,-0.6279745697975159,0.12465459108352661,0.200336754322052,0.5209799408912659,0.7861518838418418,-0.36316280948809837,0.23264885885369627,-0.44266542206616216,-0.8898438640904707,0.07038867037614521,-0.9920857056591396
1783116156128031488,0.31105852127075195,3.2013814449310303,0.885642945766449,-1.4585195779800415,0.03703457489609718,0.7641732692718506,-0.6439470052719116,0.15612640976905823,0.3365347385406494,0.4403184652328491,0.7859387373285591,-0.3551543355450584,0.22779794862603092,-0.4519667318747117,-0.8697586545391587,0.05744855589815776,-1.0170752039780984
1783116156137950464,0.32097744941711426,4.6029887199401855,1.4242876768112183,-1.1123665571212769,0.03537967801094055,0.7414343357086182,-0.6700921058654785,0.08765193074941635,0.5263421535491943,0.3393731117248535,0.7822530880118385,-0.3372731765375366,0.22627585549482676,-0.4723623438875708,-0.8352053979856048,0.052749252448392986,-1.0630797674944727
1783116156147870464,0.33089756965637207,5.665239334106445,1.5771642923355103,-1.2879422903060913,0.037506721913814545,0.7099413275718689,-0.7032613158226013,0.049727797508239746,0.6797375679016113,0.3915395736694336,0.7843490700199817,-0.3162196626243887,0.21994195531791574,-0.4862376567277469,-0.7894148823754371,0.0532820719314212,-1.0876830555213841
1783116156157790464,0.3408174514770508,6.4818220138549805,1.2186176776885986,-1.6944175958633423,0.03731219843029976,0.6705650687217712,-0.7409118413925171,0.11104898899793625,0.6518684029579163,0.4275420904159546,0.7874683236671208,-0.29259355021491984,0.20960224560103266,-0.5003494752853332,-0.7349702046284458,0.05031732962498336,-1.1126975570651425
1783116156167710464,0.3507375717163086,6.3769659996032715,0.9186483025550842,-1.9099267721176147,0.033314842730760574,0.6268393397331238,-0.7784359455108643,0.37531551718711853,0.632758378982544,0.5022671818733215,0.7894581074518406,-0.2685966980194799,0.19656507331738948,-0.5157266257937155,-0.677490035909693,0.04277105345242451,-1.1422651087715128
1783116156177629440,0.3606564998626709,5.075751304626465,0.6606830358505249,-2.3548693656921387,0.026937542483210564,0.5883802175521851,-0.8081355690956116,0.4811038374900818,0.6412035226821899,0.7359767556190491,0.7886491254238837,-0.2487192793920908,0.18458315026994573,-0.5311311975112704,-0.629054152374833,0.03332061344054244,-1.1745541194585698
1783116156187549696,0.3705766201019287,4.002581596374512,0.5565453767776489,-2.817275047302246,0.018020328134298325,0.5589667558670044,-0.8289942741394043,0.3914187550544739,0.4107750654220581,0.7429652214050293,0.7853134306468692,-0.2346265034061176,0.17450867990082036,-0.5456921720866387,-0.5931391560145927,0.02173415572470022,-1.2079100815543256
1783116156197469440,0.3804965019226074,2.9935004711151123,0.6713230609893799,-3.207179307937622,0.008137242868542671,0.5361775159835815,-0.8440660238265991,0.34899473190307617,0.19551193714141846,0.5284990072250366,0.7793819324473528,-0.2241367822489552,0.16652237544331328,-0.5608892395517472,-0.5659021386174177,0.009640230423272472,-1.2447938942206465
1783116156207388672,0.39041566848754883,1.9657883644104004,0.7689588069915771,-3.686342239379883,-0.002252779435366392,0.5203179717063904,-0.8539696335792542,0.3389074206352234,0.2524939179420471,0.35734182596206665,0.7710448359018652,-0.21709492965652452,0.16088806330480385,-0.5766062815136758,-0.5472232678102008,-0.00263800276450185,-1.2849552642833673
1783116156217308416,0.40033555030822754,1.320717215538025,0.8210318684577942,-4.085326194763184,-0.013740788213908672,0.510776937007904,-0.8596034646034241,0.39707210659980774,0.41106754541397095,0.22112995386123657,0.7602110687924138,-0.21319021296822535,0.15731561720636,-0.5931954645870262,-0.5360882684991178,-0.015983669611172355,-1.3296201578078994
1783116156227228672,0.41025567054748535,1.1270147562026978,0.8825454115867615,-4.259398937225342,-0.025346897542476654,0.5045713186264038,-0.8629978895187378,0.49527183175086975,0.5124727487564087,0.11833846569061279,0.7476139255507256,-0.2107871277339837,0.15514462366439372,-0.6103870358455787,-0.5288853714496876,-0.029362312819306784,-1.3773300924511171
1783116156237148416,0.42017555236816406,1.3761802911758423,0.9998096823692322,-4.309593200683594,-0.03529330715537071,0.49887534976005554,-0.8659548163414001,0.5489193797111511,0.5611374378204346,0.049395978450775146,0.7337803583183402,-0.2080616374590109,0.154054990980291,-0.6281272293375745,-0.522300633599648,-0.04073397732601956,-1.4268395567688836
1783116156247067392,0.43009448051452637,2.0034444332122803,1.0357853174209595,-4.339189529418945,-0.04178285971283913,0.4923628270626068,-0.869386613368988,0.5694928169250488,0.5477830171585083,-0.007886946201324463,0.7193991684753357,-0.20391289780196623,0.1540332341402448,-0.6458777858578933,-0.5148023507010925,-0.04802321111067365,-1.475842379292856
1783116156256987648,0.4400146007537842,3.0425264835357666,0.982918381690979,-4.325599670410156,-0.03856528177857399,0.49460968375205994,-0.8682591319084167,0.5725466012954712,0.4695321321487427,-0.0022242069244384766,0.7042485297370568,-0.20010930126787585,0.1607068432731571,-0.6619392378769373,-0.5173856889048083,-0.0443876106375535,-1.5206260883599458
1783116156266907392,0.4499344825744629,3.870159149169922,0.8458399772644043,-4.294903755187988,-0.03685984015464783,0.48946163058280945,-0.8712455034255981,0.5790198445320129,0.5071356296539307,0.008559346199035645,0.6885986215860511,-0.1934976619647112,0.16412163982735026,-0.6793046147895209,-0.511472256660258,-0.042281850665880506,-1.5682645268872282
1783116156276827648,0.4598546028137207,4.805708408355713,0.9004507064819336,-4.382318019866943,-0.045076265931129456,0.4583624005317688,-0.8876215815544128,0.5338762998580933,0.6439477801322937,0.07419079542160034,0.672995322425144,-0.18015141248344976,0.1540606417623639,-0.700634111570167,-0.47615176247682184,-0.05073961549631843,-1.6233488580358677
1783116156286746624,0.469773530960083,5.787059307098389,1.0236276388168335,-4.458032131195068,-0.05278133600950241,0.4136103689670563,-0.9089227318763733,0.4777538776397705,0.5027562379837036,0.018725037574768066,0.6569910775507404,-0.1623442973168796,0.13850252863239848,-0.723065699517345,-0.4264159630544214,-0.05800506723178219,-1.6790409033695937
1783116156296666624,0.4796936511993408,6.550564765930176,1.0707365274429321,-4.606254577636719,-0.05827935412526131,0.3584476113319397,-0.9317289590835571,0.5116637349128723,0.3070034384727478,0.04394209384918213,0.6403914392652886,-0.14132094822534338,0.11901225312075851,-0.7454953213289872,-0.36660446860313023,-0.06246830491616555,-1.7337681872489838
1783116156306586624,0.48961353302001953,7.320279121398926,0.8794982433319092,-4.697860240936279,-0.06190367415547371,0.2943764626979828,-0.9536826014518738,0.6047045588493347,0.1833457052707672,0.06116551160812378,0.622602001423763,-0.11813410342588515,0.09593251375291621,-0.7675989341097983,-0.2988029912316565,-0.0648192117216357,-1.7884035678680397
1783116156316505344,0.49953246116638184,7.657451152801514,0.6495121717453003,-4.673867225646973,-0.06435340642929077,0.22278380393981934,-0.9727414846420288,0.7386850714683533,0.16437745094299316,0.03821694850921631,0.6040290796742298,-0.0939311455807895,0.0693267017474248,-0.7883652270592716,-0.22466911868096237,-0.0660604802144177,-1.8414963419346515
1783116156326425600,0.5094525814056396,6.556138515472412,0.6010756492614746,-4.940336227416992,-0.06450814753770828,0.15407492220401764,-0.9859511256217957,0.7747132182121277,0.15891335904598236,0.27310627698898315,0.5832728440661037,-0.07149545234568233,0.04373600390274443,-0.8079408520997441,-0.15469112530965043,-0.06533420701783481,-1.896078331028599
1783116156336345344,0.5193724632263184,5.878833293914795,0.3951222002506256,-5.076778888702393,-0.062285516411066055,0.0951981395483017,-0.9935078620910645,0.6864768266677856,-0.1732773631811142,0.6028218269348145,0.5600753988717199,-0.052568580801656765,0.021968707862676524,-0.8264801969770277,-0.09534252313464661,-0.06261058484715563,-1.9534263557629281
1783116156346265600,0.5292925834655762,5.327395439147949,0.15111881494522095,-4.930149078369141,-0.052472252398729324,0.05272236466407776,-0.9972296953201294,0.7460757493972778,-0.5596498250961304,0.6751319169998169,0.5361604642556875,-0.036308915122485796,0.008174809759064714,-0.8432952375071402,-0.05274682138969076,-0.05256954018371389,-2.0103351422222
1783116156356184576,0.5392115116119385,5.031730651855469,-0.2078864723443985,-4.830170631408691,-0.04903426393866539,0.006596709601581097,-0.9987753033638,0.8319474458694458,-0.5433245897293091,0.8484304547309875,0.5113808156952707,-0.022760816915952577,-0.009710257256506155,-0.8589978715809959,-0.006596757454363616,-0.049055003966363434,-2.0678082891928216
1783116156366104576,0.5491316318511963,5.126855373382568,-0.544543981552124,-4.494287014007568,-0.05018741264939308,-0.04315558820962906,-0.9978070259094238,0.9380505681037903,-0.28220757842063904,0.8795971870422363,0.4864156143006708,-0.011426064330128749,-0.031079614155937994,-0.8730999492074241,0.04316899364835073,-0.050255363092449254,-2.1239314902589843
1783116156376024576,0.559051513671875,5.452940464019775,-0.6528028249740601,-4.079699516296387,-0.05180354043841362,-0.09574760496616364,-0.994056761264801,0.9633635878562927,-0.10368476808071136,0.8164597153663635,0.4625863776502443,-0.0007769333884715488,-0.054507149383027316,-0.8848967705938701,0.09589450618100144,-0.052066164714790655,-2.1757190623192004
1783116156385944576,0.5689716339111328,5.953839302062988,-0.4912295639514923,-3.84342622756958,-0.05157022550702095,-0.15248237550258636,-0.9869598150253296,0.8281968235969543,-0.20484794676303864,0.6560271978378296,0.4410015001325337,0.01064342295443756,-0.0800426144184808,-0.8938666521239728,0.1530795393832671,-0.052204120710469155,-2.220939019322164
1783116156395863552,0.5788905620574951,6.205957889556885,-0.1783614158630371,-3.6965410709381104,-0.047193922102451324,-0.21251362562179565,-0.9760177731513977,0.6873611807823181,-0.34186869859695435,0.5716446042060852,0.42025358290839065,0.023683235503291662,-0.10691219055485011,-0.9007751853825974,0.2141466272484511,-0.04831591435319119,-2.263341455273536
1783116156405783552,0.5888106822967529,6.1164140701293945,0.15341241657733917,-3.65408992767334,-0.037528734654188156,-0.27248427271842957,-0.9614280462265015,0.6431653499603271,-0.42995408177375793,0.6033958196640015,0.39981350883838446,0.0382075098651436,-0.13351461924982855,-0.9060150830817212,0.27597406727098694,-0.03901456021582944,-2.305003393127648
1783116156415703552,0.5987305641174316,5.024287700653076,0.07503318786621094,-3.486546039581299,-0.024856101721525192,-0.3263092041015625,-0.944936215877533,0.6664576530456543,-0.6611785888671875,0.827596127986908,0.3794822612810481,0.05203489805928717,-0.1575571383585772,-0.9101985364636636,0.3323964035944765,-0.026298464118908658,-2.347162792346407
1783116156425622528,0.608649492263794,3.99393630027771,-0.5239742398262024,-2.614039897918701,-0.013388654217123985,-0.36743155121803284,-0.9299541711807251,0.7831335067749023,-1.239914059638977,1.0601269006729126,0.36094539262623576,0.06238004342382317,-0.17644158583343372,-0.9136167160905234,0.3762458774606319,-0.014396116769279613,-2.386348246285191
1783116156435542528,0.6185696125030518,5.153406143188477,-1.1818653345108032,-1.2297370433807373,-0.010466351173818111,-0.41479942202568054,-0.9098526835441589,1.003371000289917,-2.609065294265747,1.2969834804534912,0.3477800403192807,0.07052945591358023,-0.2002480032119451,-0.913222455907759,0.42772235387786284,-0.011502840120648963,-2.4113548804415186
1783116156445462528,0.6284894943237305,1.446626901626587,-0.48002004623413086,-1.3187298774719238,-0.012539776973426342,-0.443286269903183,-0.8962923884391785,0.5808228850364685,-2.585217237472534,2.1559054851531982,0.3371854359981886,0.07278138394553002,-0.2157699577307758,-0.9134835757467435,0.4592615214352952,-0.013989808325081026,-2.4311104240358405
1783116156455382528,0.6384096145629883,0.6161020398139954,-0.06976355612277985,-1.5558760166168213,-0.008534117601811886,-0.45148414373397827,-0.8922383189201355,-0.07111677527427673,-0.6308370232582092,1.9092977046966553,0.3274840380648366,0.07400625030336698,-0.22000890117747493,-0.9159002667051103,0.46842796961707156,-0.009564549692675683,-2.4525330521904265
1783116156465301504,0.6483285427093506,0.9181807041168213,0.7499372959136963,-1.4289230108261108,0.002155064372345805,-0.45827755331993103,-0.8888065218925476,-0.19868825376033783,-0.5945178270339966,0.9620334506034851,0.31815935462782946,0.07824208545134465,-0.2224295597514693,-0.9182472181833954,0.4760563000303805,0.0024246671846473214,-2.475100098085555
1783116156475221760,0.6582486629486084,0.7880157828330994,0.7002062201499939,-1.191770076751709,0.015220015309751034,-0.465975821018219,-0.8846665620803833,0.04119172692298889,-0.7818726897239685,0.5955277681350708,0.31061048618228077,0.08422438272891358,-0.22488438178980874,-0.919703445738004,0.48473718170146507,0.017202543219741084,-2.4944429638368097
1783116156485141504,0.6681685447692871,0.5372927784919739,0.08839304745197296,-1.6597365140914917,0.025278761982917786,-0.47153010964393616,-0.8814875483512878,0.21979264914989471,-0.6743592023849487,0.5736720561981201,0.3019483106939186,0.08805676039745054,-0.22694100197137934,-0.9217217669061466,0.49102508024967,0.028669530464515744,-2.515628515612819
1783116156495061760,0.6780886650085449,0.527190089225769,-0.01224700640887022,-1.6477971076965332,0.03353921324014664,-0.47567495703697205,-0.8789814710617065,0.15617330372333527,-0.5906854867935181,0.4883870482444763,0.29181587198661,0.09037335408330685,-0.22878354833296,-0.9243020665159303,0.4957312158303998,0.03813840453827429,-2.5396234679078593
1783116156504980480,0.6880075931549072,0.7864311933517456,0.10431814193725586,-1.7376363277435303,0.04200579226016998,-0.481063574552536,-0.8756788372993469,0.10440228879451752,-0.4759524166584015,0.3556287884712219,0.28176491478789517,0.09301497856965822,-0.23131971315097732,-0.9265247044186052,0.50186748363584,0.047932663442390416,-2.5634365077688868
1783116156514900480,0.6979274749755859,1.0912550687789917,0.17504237592220306,-2.10634446144104,0.052776142954826355,-0.48852285742759705,-0.8709535598754883,-0.04758814722299576,-0.42665353417396545,0.18717670440673828,0.2704824336697933,0.09681976110258504,-0.2348385563018058,-0.9286097656191425,0.5103960312306339,0.06052181316428444,-2.590517041073721
1783116156524820480,0.7078475952148438,1.136712908744812,0.16476407647132874,-2.124450445175171,0.0648118257522583,-0.49749794602394104,-0.8650406002998352,-0.0835496187210083,-0.39448508620262146,0.0934799313545227,0.25851050498933387,0.10129058948146184,-0.2392068602099504,-0.930426019583499,0.5207120430878357,0.07478372799731577,-2.619512755144924
1783116156534740480,0.7177674770355225,1.3195040225982666,0.13967442512512207,-2.1414477825164795,0.07679243385791779,-0.5067784190177917,-0.8586492538452148,-0.06997174024581909,-0.32683974504470825,0.18364620208740234,0.2465118272098955,0.10571904442637647,-0.24392385756860582,-0.9319638839391371,0.5314436912872517,0.0891966843562022,-2.6487114307700748
1783116156544659712,0.7276866436004639,1.8325079679489136,-0.015125350095331669,-2.0781826972961426,0.08824049681425095,-0.518627941608429,-0.850434422492981,-0.034651629626750946,-0.32205504179000854,0.18853867053985596,0.2342931555146167,0.11015335060191425,-0.2502978921821594,-0.9329115327699364,0.5452454111881246,0.10338934986021941,-2.678416232913875
1783116156554579456,0.7376065254211426,2.5636661052703857,-0.34090715646743774,-1.8696929216384888,0.09740855544805527,-0.5354894995689392,-0.8389055728912354,0.07585499435663223,-0.2080865502357483,0.17615532875061035,0.22206998907766587,0.11407871651158562,-0.25987162384782947,-0.9328117314952215,0.5650872655668393,0.11559619563512387,-2.7077562261204653
1783116156564499712,0.7475266456604004,3.7960073947906494,-0.6037900447845459,-1.6659201383590698,0.10312671214342117,-0.5599342584609985,-0.8220939636230469,0.14167001843452454,-0.03894263505935669,0.23469167947769165,0.20983099791765303,0.11718208648250214,-0.27426514466950025,-0.931137940660184,0.5943064197616732,0.12479209003815468,-2.7365582443087315
1783116156574418432,0.7574455738067627,5.313311576843262,-0.9979831576347351,-1.52992582321167,0.10607673972845078,-0.5953637361526489,-0.796423077583313,0.15591666102409363,0.10763180255889893,0.12164890766143799,0.19718682540505283,0.12008920602663098,-0.2955791629354352,-0.9269999413714155,0.6377183068613715,0.13241211874737263,-2.766179769851125
1783116156584338432,0.7673654556274414,6.488411903381348,-1.1209869384765625,-1.5371716022491455,0.1075628474354744,-0.6398671269416809,-0.7609206438064575,0.1524621546268463,0.2817891836166382,0.0683853030204773,0.1833730479666729,0.12284348001759647,-0.3231859356491381,-0.9202361797256453,0.6943253784051816,0.1404283945644419,-2.799092601176363
1783116156594258432,0.7772853374481201,7.2318878173828125,-1.2536635398864746,-1.7071164846420288,0.10956387966871262,-0.6907153129577637,-0.7147783637046814,0.1804293841123581,0.43673282861709595,-0.0025525689125061035,0.1694099641837681,0.12640273884974323,-0.3558555552362499,-0.910323765012933,0.762477768860561,0.15209984854825184,-2.834673105496949
1783116156604178176,0.7872052192687988,6.5350446701049805,-0.6689952611923218,-2.363569498062134,0.11746560037136078,-0.733443021774292,-0.6695244908332825,-0.16826212406158447,1.034529447555542,0.46556031703948975,0.1540147589939002,0.13102417954863044,-0.38479918177771794,-0.9005784699157056,0.8233733431286572,0.17367868062595573,-2.878823958995072
1783116156614097408,0.7971243858337402,7.23112154006958,-1.066166639328003,-2.434081792831421,0.12985563278198242,-0.775966227054596,-0.6172633171081543,-0.019855007529258728,-0.37642329931259155,-0.0471806526184082,0.13558805872935992,0.13643296777215624,-0.41563734101956945,-0.8889586987727729,0.8882454579682469,0.20734956187795955,-2.9378132447627463
1783116156624017152,0.807044267654419,6.359121322631836,-0.8722519278526306,-2.033154249191284,0.14191287755966187,-0.8131124377250671,-0.5645430684089661,0.10802608728408813,-0.40875035524368286,0.18807828426361084,0.11832059170729146,0.1409971842355915,-0.4448013554331468,-0.8765111355332408,0.9494791465267035,0.2462738011658649,-3.0002771832477424
1783116156633937408,0.8169643878936768,5.93148946762085,-0.775383472442627,-2.113417863845825,0.153925359249115,-0.8429839611053467,-0.5154463052749634,-0.016779392957687378,-0.058779895305633545,0.32005757093429565,0.102511462721747,0.14482270654128618,-0.4704287638192188,-0.8644156853238469,1.0028064110852504,0.2901952032055731,-3.0653623614841474
1783116156643857152,0.8268842697143555,5.872201919555664,-0.6948081851005554,-2.3754143714904785,0.16936282813549042,-0.8685162663459778,-0.4658278822898865,-0.031240299344062805,0.11659371852874756,0.28459927439689636,0.08607458598991559,0.14941363566552743,-0.49473388775038774,-0.8517658357160013,1.052201005773528,0.34871577338655224,3.1391530890845365
1783116156653776128,0.8368031978607178,5.775744915008545,-0.705890953540802,-2.4740376472473145,0.18775101006031036,-0.8894988298416138,-0.4165831506252289,-0.029746219515800476,0.16611015796661377,0.30301201343536377,0.06919497962582087,0.15461515118097532,-0.5174964511136124,-0.838751292765946,1.096247170108103,0.4234298578732231,3.0452581371240806
1783116156663696384,0.8467233180999756,5.494050025939941,-0.4694231450557709,-2.297011137008667,0.20715421438217163,-0.9069864153862,-0.3666917085647583,0.0006399750709533691,0.13322848081588745,0.23072057962417603,0.05278196075012761,0.1600701669808112,-0.5394735339833769,-0.8249605777246188,1.136072597566266,0.5142315628528661,2.936867123503815
1783116156673616128,0.8566431999206543,5.18046760559082,-0.4002446234226227,-2.41086483001709,0.2269952893257141,-0.9201852679252625,-0.31895482540130615,-0.002187564969062805,0.3250620365142822,0.2920841872692108,0.03737268210543316,0.1656867282019867,-0.559527023008664,-0.811221704820079,1.1685534121047483,0.6185250969070363,2.8172034931331464
1783116156683535360,0.8665623664855957,4.833847999572754,-0.36604827642440796,-2.6323366165161133,0.2492058128118515,-0.9292135238647461,-0.2728709578514099,-0.09387136995792389,0.28748995065689087,0.2872447669506073,0.02142648656261214,0.1717744951309001,-0.5779775420689208,-0.7974812389213654,1.1922789242136203,0.7401003042352553,2.680592061938841
1783116156693455104,0.8764822483062744,4.125423431396484,-0.3024602234363556,-2.596686601638794,0.27278316020965576,-0.9336492419242859,-0.23213855922222137,-0.12695494294166565,0.26809144020080566,0.3833531141281128,0.005961342083972297,0.17828137697091245,-0.5934193059661443,-0.7848781188876676,1.2044692781615378,0.8657217997286271,2.5416432985880175
1783116156703375360,0.8864023685455322,3.5482096672058105,-0.397996723651886,-2.6357498168945312,0.2964094579219818,-0.9344944953918457,-0.1971326470375061,-0.1117476224899292,0.23101866245269775,0.338413804769516,-0.00860663505406196,0.1848302031062793,-0.6060292653421985,-0.7736227441594603,1.206836414412254,0.9839008051766801,2.4117764728132776
1783116156713295104,0.8963222503662109,3.425165891647339,-0.4406810700893402,-2.6789798736572266,0.32051098346710205,-0.932607114315033,-0.16588130593299866,-0.10157790780067444,0.20624303817749023,0.32835692167282104,-0.023280057295160514,0.19117467872005495,-0.6168562151748211,-0.7631504640631823,1.2015707206476267,1.0932054192495526,2.290521335194408
1783116156723214336,0.9062414169311523,3.2619831562042236,-0.43513381481170654,-2.556203603744507,0.3443671464920044,-0.9289397597312927,-0.13594985008239746,-0.06220155954360962,0.18283069133758545,0.27640700340270996,-0.03784365563816472,0.1972334706151105,-0.6269960393860048,-0.7526904464351962,1.1915388227490438,1.1947965544655543,2.176829174954161
1783116156733134336,0.916161298751831,3.3260796070098877,-0.6331957578659058,-2.561835289001465,0.367276132106781,-0.9239175915718079,-0.10716626793146133,0.069705069065094,0.13868504762649536,0.2512245178222656,-0.05239196044038843,0.20248168994622806,-0.6367244560986579,-0.7421847882728828,1.1781966953223078,1.286891673630985,2.0715409545326167
1783116156743054336,0.9260814189910889,3.096593141555786,-0.6952467560768127,-2.476402997970581,0.38994330167770386,-0.9173734784126282,-0.07981317490339279,0.07772332429885864,0.11477643251419067,0.2005407214164734,-0.06727259567709805,0.2070787690443555,-0.6459193416540795,-0.731697352966099,1.1614306675672432,1.3689058844849447,1.9749625754217943
1783116156752974336,0.9360013008117676,2.850032329559326,-0.6578873991966248,-2.3681888580322266,0.4114472568035126,-0.9097456336021423,-0.0554439015686512,0.13130787014961243,0.22317641973495483,0.2697383165359497,-0.08124614748042003,0.21138512949449273,-0.6539070087094158,-0.7218871177192293,1.1426709716466923,1.4368498274142,1.8933653720625347
1783116156762893312,0.9459202289581299,2.8615996837615967,-0.7134991884231567,-2.3735904693603516,0.4326002597808838,-0.9010083675384521,-0.032259661704301834,0.17581334710121155,0.1828688383102417,0.21231335401535034,-0.09505499103232681,0.21546103581961193,-0.6613975444303817,-0.712105509666478,1.1220884447235846,1.4963625717472366,1.8201094072657962
1783116156772813312,0.9558403491973877,2.6530191898345947,-0.6932938098907471,-2.4733147621154785,0.4541150629520416,-0.8908833861351013,-0.010326885618269444,0.20135682821273804,0.21305733919143677,0.17713594436645508,-0.10896109992477235,0.21960671915738217,-0.6682884451735981,-0.7023468453520951,1.0992862595017574,1.5480595642577846,1.7546360700729757
1783116156782733312,0.9657602310180664,2.1399145126342773,-0.6404351592063904,-2.518141746520996,0.4763306677341461,-0.8792252540588379,0.008505388163030148,0.18344417214393616,0.20306241512298584,0.12784719467163086,-0.12258906197614879,0.22438378336843223,-0.6737244332677766,-0.6933392844225408,1.074233488565353,1.5886504879687355,1.7015930191012905
1783116156792653312,0.9756803512573242,1.111396074295044,-0.6481106281280518,-2.503955841064453,0.498365193605423,-0.8667386770248413,0.019912170246243477,0.1933615803718567,0.16591769456863403,0.11021482944488525,-0.1352313980010777,0.22966252799302636,-0.6761739481240165,-0.6868453587863428,1.0486259241097833,1.6107300637370427,1.669203876861419
1783116156802572288,0.9855992794036865,0.404457151889801,-0.6297885179519653,-2.5005295276641846,0.5199646949768066,-0.85387122631073,0.023250199854373932,0.1619504690170288,0.08041852712631226,0.12640798091888428,-0.1467282729325826,0.23545908238594268,-0.6754140364590129,-0.6832610637275668,1.0233782495431447,1.6154815186621758,1.6565395223362849
1783116156812492288,0.9955193996429443,0.18824708461761475,-0.4991205334663391,-2.533541440963745,0.5414282083511353,-0.8404306173324585,0.0230659581720829,0.15565431118011475,-0.019631028175354004,0.13925707340240479,-0.15752018147583996,0.2418642788537333,-0.6730784869613929,-0.680921799607505,0.9980773520413393,1.613372643091581,1.6526445991682246
1783116156822412288,1.005439281463623,0.3382650315761566,-0.5599943399429321,-2.4159042835235596,0.562254011631012,-0.826654314994812,0.02265699952840805,0.2085437774658203,-0.013937234878540039,0.24554669857025146,-0.1679348564681166,0.24833621758619412,-0.6705651515541314,-0.6785790486261514,0.9731357822260569,1.611071266226764,1.64956977175069
1783116156832331264,1.0153582096099854,0.712161660194397,-0.544302225112915,-2.2055447101593018,0.5813916325569153,-0.813262939453125,0.024229949340224266,0.2757098078727722,0.0055999755859375,0.3143472671508789,-0.1781912984660121,0.25389347156361336,-0.6690688152669876,-0.6753761050315363,0.9497378114141631,1.6124480007541182,1.6416406141970419
1783116156842251264,1.0252783298492432,1.0752499103546143,-0.5299670696258545,-1.8634718656539917,0.598059356212616,-0.8009417653083801,0.028583498671650887,0.265572726726532,0.06588023900985718,0.3343009948730469,-0.18796269090697765,0.25819186379981257,-0.6690506043228711,-0.6711021941211714,0.9288665014324984,1.6185537357258357,1.6277504382513288
1783116156852171264,1.0351982116699219,1.2442026138305664,-0.5649210214614868,-1.6906750202178955,0.612339973449707,-0.7898086309432983,0.03524445742368698,0.27591991424560547,0.05756986141204834,0.24052762985229492,-0.1972352726115179,0.261209724199968,-0.6703668466418746,-0.665939981203334,0.9104969256117341,1.6282899047355561,1.6089779791128087
1783116156862091264,1.0451183319091797,1.0026264190673828,-0.6323922276496887,-1.520859718322754,0.6252047419548035,-0.7793933749198914,0.04080840200185776,0.2542051672935486,-0.03251165151596069,0.1388334035873413,-0.2059491837894162,0.26362585893283247,-0.6714950541185742,-0.6611965418049799,0.8936969780353451,1.6359759299838776,1.5921198448599252
1783116156872010240,1.055037260055542,0.7803824543952942,-0.6531947255134583,-1.2035740613937378,0.6362558603286743,-0.7702106833457947,0.04420134797692299,0.22905468940734863,-0.14064741134643555,-0.07941865921020508,-0.21374302728940575,0.26539699185527066,-0.67206034752932,-0.6574291883938771,0.8791713902403087,1.6401559127442735,1.5791023020800175
1783116156881930240,1.0649573802947998,0.480949729681015,-0.7675157189369202,-1.0576987266540527,0.6452566981315613,-0.76264888048172,0.04483521357178688,0.23807448148727417,-0.16825920343399048,-0.14575684070587158,-0.22063849859961662,0.26624974587183475,-0.6719588377229087,-0.6549052868712575,0.8673986022906016,1.6401691287937987,1.5701465617970904
1783116156891850240,1.0748772621154785,0.43431538343429565,-0.6843902468681335,-0.8780280351638794,0.6530943512916565,-0.75600266456604,0.04390483349561691,0.14950263500213623,-0.09620070457458496,-0.06407690048217773,-0.22688827245684084,0.26673354190925513,-0.6714206096896062,-0.6531226886049483,0.8571845284187488,1.6379211943648995,1.5638177147135173
1783116156901770240,1.0847973823547363,0.7231800556182861,-0.5875076055526733,-0.6948891282081604,0.6593807935714722,-0.7504971623420715,0.044393740594387054,0.07211017608642578,-0.07243978977203369,-0.0026303566992282867,-0.2323599635640504,0.26671757393379825,-0.671608968153171,-0.6510083671640696,0.8488140105907618,1.6380212821749482,1.555513408951018
1783116156911689216,1.0947163105010986,1.12626314163208,-0.5641237497329712,-0.59404057264328,0.6645010709762573,-0.7457461953163147,0.047966521233320236,0.0405922532081604,-0.08776509761810303,0.02487897127866745,-0.2375031930111204,0.2660917804386213,-0.6731852824358526,-0.6477722457654377,0.8416541576743741,1.6428556092718145,1.5420146588252464
1783116156921609472,1.1046364307403564,1.7095129489898682,-0.5055066347122192,-0.4758712947368622,0.6690142750740051,-0.7411942481994629,0.05523679405450821,0.03498047590255737,-0.1269545555114746,-0.004119873046875,-0.24289999200856885,0.26472752181223635,-0.6764153575932983,-0.6429473003974454,0.8348476219252461,1.6531739282052123,1.521503799061404
1783116156931529216,1.1145563125610352,2.249542713165283,-0.5379860401153564,-0.3942805528640747,0.6727105975151062,-0.7368809580802917,0.06683476269245148,0.0738409161567688,-0.13167983293533325,-0.06800973415374756,-0.24872355418235018,0.2622068579014261,-0.681663366678673,-0.6361754600918812,0.8284448831914677,1.669822793694445,1.492231909133205
1783116156941448192,1.1244752407073975,2.400033950805664,-0.45220109820365906,-0.3124473989009857,0.675714910030365,-0.7326799631118774,0.08117428421974182,0.08583587408065796,-0.10397464036941528,-0.028409376740455627,-0.25452732624323043,0.2590192252593403,-0.688110590207812,-0.628194719152377,0.8222514117276913,1.6903543594007369,1.4580630111450956
1783116156951368448,1.1343953609466553,2.194018602371216,-0.4056263864040375,-0.1726226806640625,0.6781363487243652,-0.72870934009552,0.09546633064746857,0.09273767471313477,-0.13507544994354248,0.04077935218811035,-0.2597511851897976,0.255798143400131,-0.6944785636128624,-0.6203194033079091,0.8164353569019103,1.710654724881884,1.4249248089249023
1783116156961288192,1.144315242767334,1.776329517364502,-0.39650118350982666,-0.18808352947235107,0.6798972487449646,-0.725362241268158,0.10765337944030762,0.12024301290512085,-0.21062707901000977,0.07053875178098679,-0.26423144336154736,0.2526354589867197,-0.7000014394630429,-0.6134778009123558,0.8115604551536291,1.7278303774557815,1.396105717416477
1783116156971208448,1.1542353630065918,1.0981107950210571,-0.26399508118629456,-0.24348606169223785,0.6820748448371887,-0.7219796776771545,0.11627238988876343,0.10129612684249878,-0.31479400396347046,0.1228938102722168,-0.2679238882251842,0.2506422970657064,-0.7037859282111739,-0.6083425205116902,0.8066592476082455,1.739641945591432,1.3756109947013542
1783116156981127168,1.164154291152954,0.26062360405921936,-0.07157538831233978,-0.1550537645816803,0.6839410066604614,-0.7195303440093994,0.1204187422990799,0.1302831768989563,-0.4317299723625183,0.16492056846618652,-0.2700111195025817,0.25010619474486806,-0.7054475629966395,-0.6057099801491006,0.803125804036907,1.745076112349693,1.3661563839473294
1783116156991047424,1.174074411392212,-0.4150376617908478,-0.089454784989357,-0.038193996995687485,0.6850142478942871,-0.718636155128479,0.11965551227331161,0.18520969152450562,-0.4811013340950012,0.17416775226593018,-0.2705544467342096,0.2505149877705928,-0.7050319119225054,-0.6057825580699059,0.8018390886205303,1.7437275488315553,1.367291824005598
1783116157000967168,1.1839942932128906,-1.078686237335205,-0.03876524046063423,0.019529985263943672,0.6851270794868469,-0.7193916440010071,0.11435207724571228,0.2461777925491333,-0.43971168994903564,0.14053070545196533,-0.26979935139731576,0.25142420227597156,-0.7028242372036274,-0.6083027401470287,0.8029260925061389,1.7361782157745336,1.3773865862573134
1783116157010887424,1.1939144134521484,-1.5003045797348022,0.0138612175360322,0.03697262331843376,0.6852872967720032,-0.7206121683120728,0.10535386204719543,0.2745820879936218,-0.37271058559417725,0.1856158971786499,-0.2682717005626816,0.2532049945189631,-0.6989736484126428,-0.6126608724174363,0.8046848043148371,1.7233388090131996,1.3952808595514572
1783116157020806400,1.2038333415985107,-1.8241660594940186,0.043962735682725906,0.4059270918369293,0.6839534044265747,-0.7234317660331726,0.09409688413143158,0.3392857313156128,-0.3628719449043274,0.17961525917053223,-0.26543375000215674,0.2549684214500508,-0.6942906791925177,-0.6184629990763634,0.8087601494687597,1.707515957660205,1.4181329480673168
1783116157030726144,1.2137532234191895,-2.1202526092529297,-0.20238818228244781,0.6130280494689941,0.6804249882698059,-0.7284460663795471,0.07992656528949738,0.37523913383483887,-0.4026116728782654,0.1484060287475586,-0.2616532676632719,0.25561192005915373,-0.6889309309869383,-0.6257589816098802,0.8160510044494825,1.6877261375692738,1.4446761010813698
1783116157040646400,1.2236733436584473,-2.4815053939819336,-0.16827401518821716,0.7548694014549255,0.6758732795715332,-0.734359860420227,0.06253942102193832,0.3430629372596741,-0.45613086223602295,0.1321474313735962,-0.2572418626112076,0.2559208853578636,-0.682476526445098,-0.6344738192514716,0.8247230770759779,1.6630648679317719,1.4765219991300456
1783116157050566144,1.233593225479126,-2.7618751525878906,-0.22795012593269348,0.9513619542121887,0.6699369549751282,-0.7412015199661255,0.04248480498790741,0.3579256534576416,-0.5240725874900818,0.11992979049682617,-0.2519673900729051,0.2558272421949033,-0.6751257840880988,-0.644414545201513,0.8348584590315379,1.6341276428286278,1.5133155119706114
1783116157060485376,1.2435123920440674,-2.999328136444092,-0.2351086586713791,1.0842440128326416,0.662715494632721,-0.7485997080802917,0.020168770104646683,0.37544673681259155,-0.5591853260993958,0.18852567672729492,-0.24582543099756451,0.2554385624112513,-0.6669599133719598,-0.65535146525633,0.8459475933175266,1.6012204642385361,1.554912037192938
1783116157070405120,1.253432273864746,-2.8844738006591797,-0.36410632729530334,1.4131615161895752,0.6538581848144531,-0.7566101551055908,-0.0032464039977639914,0.4300498962402344,-0.5179717540740967,0.23836910724639893,-0.23914142490317225,0.2541387620394908,-0.6586275788662608,-0.6666592693857193,0.858113129722681,1.5658313706241538,1.5983929090097102
1783116157080325376,1.263352394104004,-3.1300101280212402,-0.3782486319541931,1.4800256490707397,0.6429851651191711,-0.7654014825820923,-0.027034170925617218,0.44836926460266113,-0.5072274208068848,0.11527574062347412,-0.2316666898242908,0.2518937473049578,-0.6504094513152845,-0.6781207292619756,0.8716649508253478,1.5287762923072021,1.6432645762636178
1783116157090245120,1.2732722759246826,-3.746307134628296,-0.46882832050323486,1.5716407299041748,0.6316466927528381,-0.7732850313186646,-0.05525343120098114,0.43968820571899414,-0.3878326416015625,0.024308614432811737,-0.2237225360625188,0.2497120706906696,-0.6403258288265498,-0.6910680534826827,0.8840058385348727,1.4835432137624227,1.6970859270533978
1783116157100164096,1.283191204071045,-3.9399542808532715,-0.4096141457557678,1.8361444473266602,0.618638813495636,-0.7808604836463928,-0.08685130625963211,0.5207960605621338,-0.24150896072387695,0.013960056006908417,-0.21448779266762585,0.24734650625275503,-0.6288036669911526,-0.7052806497121648,0.8960420915563712,1.4313169469120741,1.759526559992582
1783116157110084352,1.2931113243103027,-3.9324793815612793,-0.37296026945114136,1.8549585342407227,0.6042764782905579,-0.7878767848014832,-0.1187434121966362,0.5363026857376099,-0.27849888801574707,-0.008484356105327606,-0.20444895312457215,0.24460569351262218,-0.6170869869061741,-0.7194249618242828,0.9073536776880087,1.376763488248928,1.824902771656129
1783116157120004096,1.3030312061309814,-4.015519618988037,-0.32758286595344543,1.873986005783081,0.5898321270942688,-0.7933448553085327,-0.15067146718502045,0.5330773591995239,-0.4615378975868225,0.09282542765140533,-0.19411802474442505,0.24202497014355656,-0.60505221460062,-0.7332488442175329,0.916283920136021,1.3206967082145649,1.8924588857821765
1783116157129923328,1.3129503726959229,-3.8408331871032715,-0.4485588073730469,2.1686861515045166,0.5740971565246582,-0.7981417775154114,-0.18270792067050934,0.5316004753112793,-0.6097866892814636,0.19540327787399292,-0.1833302811219859,0.2387953575234158,-0.5929779212673704,-0.7468225769662407,0.9242045121164459,1.2626792491869465,1.9616621504270466
1783116157139843328,1.3228702545166016,-3.3353006839752197,-0.34976324439048767,2.381676435470581,0.5561993718147278,-0.8037521839141846,-0.21124514937400818,0.5252062082290649,-0.6514478921890259,0.22551211714744568,-0.17190916228668257,0.23445200907753092,-0.5825887726561796,-0.7589925560170898,0.9335751952302762,1.2078230872253637,2.026939251874236
1783116157149763328,1.3327903747558594,-2.9823453426361084,-0.32722651958465576,2.451042890548706,0.5381770133972168,-0.8096794486045837,-0.23406176269054413,0.4765477776527405,-0.6304298043251038,0.23792225122451782,-0.16037321767522905,0.23012608644617583,-0.5744659269131801,-0.7689677691092457,0.9436056960173569,1.1605568311523582,2.0847856784444008
1783116157159683328,1.342710256576538,-2.671900987625122,-0.35651087760925293,2.506963014602661,0.5275532007217407,-0.8144682049751282,-0.24151459336280823,0.4663890600204468,-0.5025026202201843,0.17356717586517334,-0.1503834715960835,0.22998137801779342,-0.5712716271984241,-0.773396528544626,0.9518120206744024,1.141473749113719,2.118371579374574
1783116157169602304,1.3526294231414795,-2.519134998321533,-0.3513251543045044,2.553987503051758,0.508768618106842,-0.8206229209899902,-0.26025477051734924,0.5571340918540955,-0.39936304092407227,0.11814963817596436,-0.13922219432278768,0.22483904994157922,-0.5650840804382186,-0.7815014835672874,0.9625002026361237,1.0979605156882815,2.1706226199849943
1783116157179522304,1.3625493049621582,-2.578599214553833,-0.3913709223270416,2.531984806060791,0.48817116022109985,-0.8262637257575989,-0.2810288071632385,0.6154207587242126,-0.41096460819244385,0.1762009561061859,-0.1277286426036088,0.21869023681957078,-0.5582653289831435,-0.7900631644296937,0.9724420297195148,1.0484535593135116,2.2278599579953324
1783116157189442304,1.372469425201416,-2.71962833404541,-0.35313379764556885,2.5625128746032715,0.46695294976234436,-0.8305705189704895,-0.3034925162792206,0.560360312461853,-0.46747952699661255,0.2593793570995331,-0.1159660898446512,0.2123121650110257,-0.5506153721028645,-0.7989356831517356,0.9801313239368311,0.9944616136975956,2.289671909336859
1783116157199362304,1.3823893070220947,-2.9117770195007324,-0.3797707259654999,2.587801456451416,0.44511276483535767,-0.8335368633270264,-0.3272475302219391,0.5216535925865173,-0.5778095722198486,0.3532637357711792,-0.10369443814837422,0.20585457537048632,-0.5422177909278366,-0.8080044718976258,0.9854790620921623,0.9368338079824555,2.3557945166547083
1783116157209281280,1.392308235168457,-3.1717779636383057,-0.3988006114959717,2.6086132526397705,0.42273208498954773,-0.8345469832420349,-0.3533114194869995,0.5291569828987122,-0.6249561905860901,0.5052889585494995,-0.0912202316048826,0.19911398150358972,-0.5326330040879035,-0.8175173437352138,0.9873100190305066,0.8746153037000607,2.426463311545377
1783116157219201280,1.4022283554077148,-3.4377493858337402,-0.4179595112800598,2.6254191398620605,0.40012127161026,-0.8331956267356873,-0.3816908597946167,0.5426276922225952,-0.647212028503418,0.5501021146774292,-0.07854677820094945,0.19225435843251718,-0.5217210278364731,-0.8274513698587536,0.984861728837737,0.8089677663436186,2.5007863384923836
1783116157229121280,1.4121482372283936,-3.548696517944336,-0.41910600662231445,2.8216214179992676,0.3764062225818634,-0.829900860786438,-0.4118044376373291,0.5788702368736267,-0.6224153637886047,0.5722963809967041,-0.06517668594816503,0.18501552999256243,-0.5097715581759883,-0.8376480007748237,0.97892995315697,0.7405187439921755,2.5784860507729386
1783116157239041280,1.4220683574676514,-3.8174703121185303,-0.5019909143447876,2.6436591148376465,0.35207948088645935,-0.8244811296463013,-0.44302454590797424,0.5879992246627808,-0.551708996295929,0.5594034194946289,-0.05151344269042289,0.17743329580247952,-0.49699612321602166,-0.8478552614407258,0.9692847221758505,0.671511733944505,2.6567984685736343
1783116157248960256,1.4319872856140137,-4.125683307647705,-0.4617137312889099,2.598442316055298,0.3289780616760254,-0.8151926398277283,-0.47669097781181335,0.48372024297714233,-0.44881486892700195,0.6009585857391357,-0.03843975885858781,0.1700168116798156,-0.48244045159370524,-0.8584100430921064,0.9530617320351404,0.6040700685890578,2.7331552138181507
1783116157258880256,1.4419074058532715,-4.130060195922852,-0.5356936454772949,2.833224058151245,0.30500248074531555,-0.8036282658576965,-0.5110333561897278,0.49863213300704956,-0.41983669996261597,0.6124432682991028,-0.024460856526664243,0.16237043395600984,-0.46703230345042734,-0.8688603252309489,0.9333668960147411,0.5380888905959509,2.8092429119259554
1783116157268800256,1.4518272876739502,-3.7830309867858887,-0.4788135886192322,2.8746800422668457,0.2800283133983612,-0.7913163304328918,-0.5435094237327576,0.4266977310180664,-0.4587446451187134,0.6668614745140076,-0.010185679542614717,0.1541468072768296,-0.45219913733530936,-0.8784365925466276,0.9129590071151066,0.475751357548759,2.8813822802584967
1783116157278719232,1.4617462158203125,-3.163398504257202,-0.4470404386520386,2.9833366870880127,0.2551724910736084,-0.7799721360206604,-0.5714283585548401,0.3743440806865692,-0.4387320876121521,0.7652913331985474,0.004200598342918939,0.14602005205072088,-0.43927662314691873,-0.8863952183896221,0.894621297665406,0.4199828904113168,2.9472803041992166
1783116157288639232,1.4716663360595703,-2.559664487838745,-0.49844664335250854,3.056069850921631,0.2292230874300003,-0.771099865436554,-0.5940216183662415,0.3747808337211609,-0.39908140897750854,0.7579926252365112,0.018555610984281604,0.1373281203682689,-0.4291039075217586,-0.8925617351996927,0.8805667663446687,0.3682779570415787,3.008119681328453
1783116157298559232,1.481586217880249,-2.5562124252319336,-0.5320796966552734,2.9553327560424805,0.20329399406909943,-0.7629068493843079,-0.6137138605117798,0.29711800813674927,-0.32405298948287964,0.6229606866836548,0.0324060579496701,0.12840763715823053,-0.4203029168590995,-0.897667435971221,0.8677975003961823,0.319876244080942,3.0645484328199784
1783116157308479232,1.4915063381195068,-3.2273313999176025,-0.4653733968734741,2.8997936248779297,0.17847773432731628,-0.7508943676948547,-0.6358485221862793,0.17075017094612122,-0.23489969968795776,0.4720606803894043,0.04609415671929684,0.11970291365077146,-0.40956923510230764,-0.9032162544638856,0.8494153091962481,0.2736504950779904,3.119200143280315
1783116157318398208,1.5014252662658691,-4.027865409851074,-0.35810476541519165,2.758877992630005,0.154952734708786,-0.7327393889427185,-0.6626331806182861,0.08865386247634888,-0.1705504059791565,0.37981152534484863,0.06014365602212854,0.11129482497520395,-0.3953439743665146,-0.9097799090986881,0.8223387381495777,0.229716074270036,-3.1100882556081055
1783116157328318464,1.511345386505127,-4.9675445556640625,-0.22579839825630188,2.4687585830688477,0.13457809388637543,-0.7065991759300232,-0.694698691368103,0.006977662444114685,-0.10194873809814453,0.3961605429649353,0.07378163479492815,0.10362712007976972,-0.376712189803547,-0.9175541256769459,0.7846805990235698,0.19135135517347088,-3.0604962135358855
1783116157338238208,1.5212652683258057,-5.934620380401611,-0.17861022055149078,2.341116428375244,0.11674131453037262,-0.671377420425415,-0.731863260269165,-0.022518306970596313,-0.007669210433959961,0.46265244483947754,0.08701196074695738,0.09618315768341773,-0.3532947518602637,-0.9264774642913753,0.7360658055973918,0.1581798723390739,-3.0154109878773436
1783116157348158464,1.5311853885650635,-6.632657527923584,-0.0473715141415596,2.2283830642700195,0.10144229978322983,-0.6272821426391602,-0.7721570730209351,-0.11998173594474792,0.051537513732910156,0.5128034353256226,0.10025724254056237,0.08906425140053159,-0.3255595494427191,-0.9359631018262456,0.678058424908375,0.13062712368913118,-2.9742955334535806
1783116157358077184,1.5411043167114258,-7.108732223510742,0.02641710825264454,2.102473020553589,0.08871029317378998,-0.5757570862770081,-0.8127940893173218,-0.19883298873901367,0.09716522693634033,0.553440511226654,0.11322300124667178,0.08221899330595743,-0.2946913341040385,-0.9452923257930207,0.6135297959928547,0.10871209167418033,-2.9376437763051673
1783116157367997184,1.5510241985321045,-7.371401786804199,0.2458365559577942,2.03037166595459,0.07853370904922485,-0.5182051062583923,-0.8516430854797363,-0.22428566217422485,0.13791030645370483,0.5632061958312988,0.1259849169988232,0.07571671364001925,-0.261620795229659,-0.9539126139995942,0.5447509220525925,0.09195428890481547,-2.9046701757317073
1783116157377917184,1.5609443187713623,-7.678467273712158,0.42600059509277344,1.8761396408081055,0.07212474197149277,-0.4556927978992462,-0.8872103095054626,-0.27357128262519836,0.046558886766433716,0.5293459296226501,0.13832110057946706,0.07014560079882759,-0.22687981428403112,-0.9614948802642842,0.4731503585775521,0.08111547559269276,-2.875398526583802
1783116157387837184,1.570864200592041,-8.178899765014648,0.6899190545082092,1.8164435625076294,0.06974903494119644,-0.38661977648735046,-0.919597864151001,-0.35081592202186584,-0.051475316286087036,0.508953332901001,0.15039742493679567,0.06546646178600482,-0.18951308112373333,-0.9680803936895027,0.39696352309100535,0.07570237862127416,-2.8485771556025177
1783116157397756416,1.5807833671569824,-7.580896377563477,0.6041144728660583,1.7195898294448853,0.06983376294374466,-0.31511473655700684,-0.9464808106422424,-0.39304542541503906,0.009404897689819336,0.38794809579849243,0.1619137923389201,0.061125835620054844,-0.15173404194748066,-0.9731517618499272,0.32057754281446926,0.07364908992853093,-2.8237640802114012
1783116157407676160,1.5907032489776611,-6.033204078674316,0.434363454580307,1.6979305744171143,0.07029418647289276,-0.25267159938812256,-0.9649952054023743,-0.39648133516311646,0.24878060817718506,0.16624337434768677,0.17253845035851548,0.05710353453086316,-0.1193380631003238,-0.9760778974923614,0.25544046106668,0.07271564281744726,-2.8010153165670393
1783116157417596416,1.600623369216919,-4.150962829589844,-0.0758797749876976,1.5433584451675415,0.06859391182661057,-0.20615547895431519,-0.9761120676994324,-0.46076005697250366,0.4639984965324402,0.11428040266036987,0.1819336914136619,0.05290078145606503,-0.09563193489898704,-0.9772185867298498,0.20764440351207622,0.07015724493909178,-2.7807704544305634
1783116157427516160,1.6105432510375977,-2.014848232269287,-0.27118510007858276,1.3797320127487183,0.06397175788879395,-0.1783779412508011,-0.9818803071975708,-0.573584794998169,0.5186031460762024,0.1872636079788208,0.1897772893141766,0.048623241277852995,-0.08182682997353911,-0.9772025351967937,0.1793377108931357,0.06506034886893033,-2.7638103751741663
1783116157437435392,1.620462417602539,-0.455361932516098,-0.22345861792564392,0.9343951940536499,0.0598025918006897,-0.169597327709198,-0.9836972951889038,-0.6341891884803772,0.544261634349823,0.3012326955795288,0.1956905255706057,0.046169272928069,-0.07758699940708062,-0.9765008848544336,0.17042106135772053,0.06071896135102432,-2.7512209332239634
1783116157447355392,1.6303822994232178,0.17213928699493408,-0.19279924035072327,0.883121907711029,0.05667134374380112,-0.1710357367992401,-0.9836336374282837,-0.7615358233451843,0.6583251953125,0.5158144235610962,0.20002346388368153,0.045119253371714525,-0.07840556542009094,-0.9756062425326755,0.17188080027458627,0.05755065923911773,-2.7421074206974647
1783116157457275392,1.6403024196624756,0.5673964619636536,-0.12108248472213745,0.35037457942962646,0.05380004271864891,-0.17941436171531677,-0.9823014140129089,-0.7828192114830017,0.6421524286270142,0.46563881635665894,0.20302757427138932,0.044827660621511285,-0.08270295863927554,-0.9746438256049451,0.1803911176813057,0.05471471910331355,-2.73579725438299
1783116157467195392,1.6502223014831543,0.6293338537216187,-0.1891760528087616,0.1434893161058426,0.053058091551065445,-0.2009558081626892,-0.9781623482704163,-0.9326204657554626,0.7102178931236267,0.35854870080947876,0.20409674098591252,0.04684091827890255,-0.09340636255523474,-0.9733579470728478,0.20233353567964174,0.054189517673119005,-2.7337175642385376
1783116157477114112,1.6601412296295166,0.8647463321685791,-0.25802940130233765,-0.04291561618447304,0.051441337913274765,-0.21152913570404053,-0.9760169982910156,-0.9037209749221802,0.914486289024353,0.2327614426612854,0.20415445029334894,0.04717898190704848,-0.09882123122131488,-0.9727946954173259,0.21313923578669303,0.05265664899281996,-2.7335032977447398
1783116157487034368,1.6700613498687744,0.9783951640129089,-0.5225734710693359,-0.5720348358154297,0.048057056963443756,-0.2219236046075821,-0.9738790392875671,-0.8590922355651855,1.059051275253296,0.18670868873596191,0.2021932776820183,0.04641337535950493,-0.1044330712789765,-0.9726548184931114,0.22378682763137014,0.04930602604451029,-2.73721651645946
1783116157496954112,1.6799812316894531,1.4887869358062744,-0.16380925476551056,-0.5324394106864929,0.046347569674253464,-0.23329028487205505,-0.9713019728660583,-0.8200902342796326,1.1137224435806274,0.3059272766113281,0.19875088727138826,0.04639016517121725,-0.11043985181434417,-0.9727019222694211,0.23545996691504215,0.04768078413507307,-2.7441247186901356
1783116157506873344,1.6899003982543945,2.0072338581085205,-0.49358129501342773,-0.9751124382019043,0.044610608369112015,-0.2521740794181824,-0.966653048992157,-0.6511627435684204,0.8261029124259949,0.08136862516403198,0.19538570297488345,0.04710599061852355,-0.12022686606901076,-0.9721887691511485,0.2549263009333947,0.04611683436573918,-2.75083804588927
1783116157516793344,1.6998202800750732,1.4219050407409668,-0.1944127380847931,-1.2442885637283325,0.04411596432328224,-0.26731276512145996,-0.9625994563102722,-0.7758511900901794,0.64866042137146,0.2772814631462097,0.1891587374241495,0.04762150221009166,-0.1281892230943988,-0.9723778285102347,0.2706032295901691,0.04579798526367919,-2.763563310660145
1783116157526713344,1.709740400314331,2.1827571392059326,-0.4453088641166687,-1.1300785541534424,0.043824225664138794,-0.28503984212875366,-0.9575132727622986,-0.7209024429321289,0.35190385580062866,0.09530019760131836,0.1830132943719772,0.048415517378873014,-0.1374746779556068,-0.9722462638545332,0.2890480033479057,0.04573687067703591,-2.776129489088672
1783116157536633344,1.7196602821350098,1.6284384727478027,-0.4558394253253937,-0.7993032336235046,0.04242463782429695,-0.302657812833786,-0.9521546363830566,-0.705983579158783,0.234267920255661,0.05444955825805664,0.17713159701036127,0.04858488952199653,-0.14684074516090143,-0.9719576395264755,0.30748001729443,0.04452700833610616,-2.7879661458168465
1783116157546552064,1.729579210281372,1.561174988746643,-0.7147138714790344,-1.1905301809310913,0.03937162831425667,-0.3180089592933655,-0.947269856929779,-0.6102486848831177,0.2694554924964905,-0.005641520023345947,0.17177543694923095,0.047698607076343755,-0.15520925477860484,-0.9716625850852669,0.32362867574125653,0.041539356583960796,-2.7984202399069136
1783116157556472320,1.7394993305206299,0.6756383180618286,-0.7080690264701843,-1.2680168151855469,0.037469539791345596,-0.32759976387023926,-0.9440733194351196,-0.9018188714981079,0.33670926094055176,0.10586225986480713,0.16439669089799278,0.0464391241348622,-0.16064477321406134,-0.9721165222827719,0.33376201579697307,0.0396684075544132,-2.813221411013446
1783116157566392064,1.7494192123413086,-0.27678078413009644,0.13932806253433228,-1.4623383283615112,0.039932142943143845,-0.3292076289653778,-0.9434128403663635,-0.5568236112594604,0.2156669795513153,0.258461058139801,0.1578832205447483,0.04673807188599319,-0.16158322498689368,-0.9730258389460046,0.3354642963992695,0.042302076275745656,-2.827040165580479
1783116157576312320,1.7593393325805664,0.7434313893318176,0.17001409828662872,-1.9541105031967163,0.04750432074069977,-0.3294796347618103,-0.942966878414154,-0.27855291962623596,0.3629269003868103,0.26263850927352905,0.15005897096660953,0.04926365607436435,-0.16152294241638732,-0.9741486984663295,0.3357523833324528,0.05033495432966315,-2.8444451242160076
1783116157586231296,1.7692582607269287,0.5375754237174988,0.6783942580223083,-2.4547441005706787,0.05674069747328758,-0.3359116315841675,-0.9401828646659851,0.06893069297075272,0.4138840436935425,-0.12588763236999512,0.13789850801146009,0.05239557251097134,-0.16481279386938033,-0.9752310197237901,0.3425729440347187,0.06027759264042004,-2.8710834287942197
1783116157596150784,1.7791779041290283,-0.3185765743255615,1.3106764554977417,-1.077526569366455,0.07235653698444366,-0.3347994387149811,-0.939507246017456,0.646561324596405,-0.001092284917831421,0.41147685050964355,0.13035047315992632,0.05891607361496423,-0.1636315103936375,-0.9760954803864392,0.3413923698592003,0.07686368128163538,-2.889333690561789
1783116157606070784,1.789097785949707,-1.2324695587158203,2.0241334438323975,-1.0954248905181885,0.09045588970184326,-0.3285916745662689,-0.9401304125785828,1.2670270204544067,-0.3135744333267212,0.29016709327697754,0.12753123394577162,0.06713332041606872,-0.15946127010463396,-0.9766273789258053,0.33481206350773574,0.0959210493795059,-2.8981170624829105
1783116157615990784,1.7990179061889648,-0.4435594975948334,0.24702930450439453,-0.47588449716567993,0.10397759079933167,-0.3169749081134796,-0.9427171349525452,1.1910053491592407,0.034122735261917114,0.44090133905410767,0.12418690118087931,0.07259167196840088,-0.1528786676209337,-0.9777199021071349,0.3225382077929643,0.10985162319823881,-2.906800405589723
1783116157625909760,1.8089368343353271,0.32454168796539307,-0.2868806719779968,-0.9127475619316101,0.10449105501174927,-0.31869253516197205,-0.9420810341835022,1.348405122756958,0.33520254492759705,-0.4690975546836853,0.12068304021727158,0.07242365229545801,-0.15399445051676436,-0.9779960290520193,0.32434977825158706,0.11046363631033237,-2.91412849487452
1783116157635829760,1.8188567161560059,-0.1504521369934082,-0.7683820724487305,-1.3350930213928223,0.10239255428314209,-0.31766945123672485,-0.9426568150520325,0.4917541742324829,0.17284828424453735,-0.26538151502609253,0.11449422017045068,0.07031712346226973,-0.1540360004432676,-0.9788868476104222,0.32327059599895347,0.10819704475791138,-2.926382484073265
1783116157645749760,1.8287768363952637,-0.09874501079320908,0.03885772451758385,-0.8990102410316467,0.10405268520116806,-0.31600621342658997,-0.9430339932441711,-0.05260005593299866,-0.27592799067497253,-0.27725714445114136,0.10856739734478663,0.07011922893272551,-0.153513190975294,-0.9796581021350463,0.3215170198010334,0.10989368534203743,-2.9386875329671422
1783116157655669760,1.8386967182159424,-1.0082627534866333,0.31766992807388306,-1.2426282167434692,0.10797711461782455,-0.3082507252693176,-0.9451573491096497,-0.11089155077934265,-0.13869446516036987,-0.08082836866378784,0.10395732134868023,0.07091356215738684,-0.14964155037893576,-0.9806994450861308,0.31335368188536156,0.11374932318298651,-2.948362990805089
1783116157665588736,1.8486158847808838,-0.06614138931035995,-0.2683650553226471,-1.363664150238037,0.11179207265377045,-0.3010059893131256,-0.9470469355583191,0.36202386021614075,0.2185169756412506,-0.03613787889480591,0.09882738797144247,0.07164446750548512,-0.14609445904033583,-0.9817111086217533,0.30574738048070643,0.1174990620097164,-2.9590558058549368
1783116157675508736,1.8585357666015625,0.4355452358722687,-0.20528391003608704,-1.0608978271484375,0.11382391303777695,-0.30271074175834656,-0.9462612271308899,0.46994686126708984,0.18132707476615906,-0.1633731722831726,0.09227105086166658,0.07179070774928896,-0.14736171512022608,-0.9821490490561162,0.3075355614083038,0.11971286783317307,-2.972822440504833
1783116157685428736,1.8684558868408203,0.6834253668785095,-0.28836148977279663,-0.8565449714660645,0.1142192855477333,-0.30651888251304626,-0.9449868202209473,0.2969745695590973,0.18893468379974365,0.14397674798965454,0.08730039901583654,0.07144234727134288,-0.14967487841185614,-0.9822790044529899,0.31153370092528054,0.12028515499491328,-2.983219440973008
1783116157695348736,1.878375768661499,0.6449542045593262,-0.13655564188957214,-1.3235117197036743,0.11913492530584335,-0.3120152950286865,-0.9425780177116394,0.16179463267326355,0.17460989952087402,0.013653457164764404,0.08190219931846657,0.07338744344187827,-0.1527261507621103,-0.9821308224115424,0.31731349849296,0.12572597528083204,-2.9953351647327593
1783116157705267712,1.8882946968078613,0.8106009364128113,0.6036273837089539,-0.793779194355011,0.12458211183547974,-0.31811800599098206,-0.9398298859596252,0.22652262449264526,0.23828402161598206,0.010127127170562744,0.07715733897459648,0.07570858495168856,-0.1560553041479599,-0.9818155527853214,0.3237436944489341,0.13178980676752217,-3.0062939761096787
1783116157715187712,1.8982148170471191,0.33800095319747925,0.20210056006908417,-0.960932195186615,0.13196805119514465,-0.323394238948822,-0.9370168447494507,0.48163360357284546,-0.09637501835823059,0.03134673833847046,0.0730613488582884,0.07906111277990224,-0.15887386784587773,-0.981412521887131,0.32931427745059155,0.13991823178507778,-3.016262587051989
1783116157725107712,1.9081346988677979,0.7758097648620605,-0.4052991271018982,-0.5976261496543884,0.1334880292415619,-0.3279917240142822,-0.9352017641067505,0.6356312036514282,-0.16042682528495789,0.11301249265670776,0.06949469185858884,0.0794611520531063,-0.1615086289489286,-0.9812091102111186,0.33417691936293703,0.14177945082176613,-3.0241293105289957
1783116157735027712,1.9180548191070557,0.8957347273826599,-0.6591352224349976,-0.74073326587677,0.132840096950531,-0.3333623707294464,-0.9333932995796204,0.5322752594947815,0.1376836597919464,0.06408482789993286,0.06479135490025782,0.07857918035330212,-0.16470781636500206,-0.9810702081091739,0.3398677039250756,0.1413701600493442,-3.0339979774201242
1783116157744946688,1.927973747253418,1.2912529706954956,-0.10797938704490662,-0.2047417312860489,0.13166925311088562,-0.34404799342155457,-0.9296742081642151,0.4660327434539795,0.09117940068244934,-0.012906908988952637,0.06232562775403943,0.07800072725372234,-0.17052498371729588,-0.9802819274747593,0.35122470878628514,0.14069371242122286,-3.0396096794899528
1783116157754866944,1.9378938674926758,0.9875867962837219,0.03861617669463158,-0.24138690531253815,0.13249485194683075,-0.3540349006652832,-0.9257993102073669,0.11036401987075806,0.006729602813720703,0.10823339223861694,0.05992118281429214,0.07840141703041083,-0.175936226162996,-0.97944320197005,0.3618819213921329,0.142148778074188,-3.045434673844536
1783116157764786688,1.9478137493133545,0.4224621057510376,0.09940335899591446,-0.2092590630054474,0.13478244841098785,-0.36093205213546753,-0.9228010177612305,0.29063260555267334,-0.25476008653640747,0.20576000213623047,0.05919918257880057,0.07971774324908422,-0.17956770136090597,-0.9787216696614389,0.36926712065867645,0.14503244572512028,-3.047899668176918
1783116157774706944,1.9577338695526123,-0.23866043984889984,0.2133002132177353,-0.3496161699295044,0.1362098604440689,-0.36215102672576904,-0.9221135973930359,0.2750755548477173,-0.40538132190704346,0.19574952125549316,0.0577808384244182,0.0802369536364074,-0.1802920395155389,-0.9786308531836092,0.37057452949638786,0.14665432659780483,-3.051180642481239
1783116157784625664,1.9676527976989746,-0.7021838426589966,-0.08445370942354202,-0.27064836025238037,0.1370786428451538,-0.35656437277793884,-0.9241597652435303,0.3951021432876587,-0.42688289284706116,0.21892905235290527,0.056503806342684565,0.08023162741221469,-0.17743448909106177,-0.9792278408095662,0.3645879601272918,0.14725419952231805,-3.0535080481755763
1783116157794545920,1.9775729179382324,-0.7829231023788452,-0.07067763060331345,-0.35437238216400146,0.13754190504550934,-0.34930193424224854,-0.926860511302948,0.28468406200408936,-0.20949020981788635,-0.001468956470489502,0.05479673371075948,0.07988830024795544,-0.17374582343817238,-0.980014019493947,0.35682599374017365,0.14732035928043927,-3.0564934318002694
1783116157804465664,1.9874927997589111,-0.5163323879241943,0.060193829238414764,-0.4305419921875,0.13796676695346832,-0.3429909944534302,-0.9291514158248901,0.26942765712738037,-0.11323153972625732,-0.006075024604797363,0.053122868267544386,0.07958076540130928,-0.17056139859282973,-0.980690433220256,0.35009918855168215,0.14740976821709226,-3.0594774265024687
1783116157814385920,1.997412919998169,-0.1080174669623375,-0.11489246040582657,-0.15833182632923126,0.13856451213359833,-0.33970922231674194,-0.9302674531936646,0.2944188714027405,-0.028775274753570557,-0.03906238079071045,0.0517693865469704,0.07953553766779962,-0.1689389638522993,-0.9810472569819401,0.34660772086471936,0.1478641279143717,-3.0620823303087925
1783116157824304896,2.0073318481445312,-0.4442561864852905,-0.10809554159641266,-0.19933491945266724,0.1395525187253952,-0.33799347281455994,-0.9307445883750916,0.339268296957016,-0.06352630257606506,-0.06632572412490845,0.05057406704039913,0.07977594302301126,-0.1681175011746949,-0.9812312107115527,0.34478407348261475,0.14882777040274062,-3.0645613424098768
1783116157834224640,2.01725172996521,-0.321125328540802,0.04014749079942703,-0.2538328468799591,0.14028610289096832,-0.33381909132003784,-0.9321398138999939,0.25740373134613037,-0.16540271043777466,0.1064714789390564,0.0499403092407119,0.0799002906886154,-0.16596998525838338,-0.981619041241016,0.34035217498039594,0.1493779300180269,-3.0656446499242906
1783116157844144896,2.0271718502044678,-0.35588863492012024,-0.19666637480258942,-0.04879927262663841,0.13960234820842743,-0.33010491728782654,-0.9335640668869019,0.3592227101325989,-0.17630374431610107,0.04344266653060913,0.049025806586727005,0.0792717649902824,-0.16411562707675809,-0.9820277507369535,0.3364147285783745,0.14843707357646652,-3.0670808353768573
1783116157854064640,2.0370917320251465,-0.430656760931015,-0.04687734693288803,-0.02842002920806408,0.13831886649131775,-0.3265111744403839,-0.9350178241729736,0.33131614327430725,-0.12032720446586609,0.09285473823547363,0.04901718950289271,0.07849481122382124,-0.1622641363271009,-0.9823982054499738,0.3326100955834016,0.14686663549405407,-3.0665799732580936
1783116157863983872,2.047010898590088,-0.4340650737285614,0.11433817446231842,-0.1413646936416626,0.13943877816200256,-0.32235652208328247,-0.9362922310829163,0.13175567984580994,-0.09785526990890503,0.11926037073135376,0.048621681781250925,0.0788650991313017,-0.16010680825548304,-0.9827421244628809,0.3282178414897296,0.14783997115986322,-3.0672477208730475
1783116157873903872,2.0569307804107666,-0.5331524610519409,0.04818057268857956,-0.0921088233590126,0.1404450684785843,-0.31807100772857666,-0.9376065731048584,0.2409331202507019,-0.16909635066986084,0.0750272274017334,0.0484140782168276,0.07920533436542462,-0.15787096238054105,-0.9830866987151965,0.3236941169936223,0.14868558690925446,-3.0674984424035023
1783116157883823872,2.0668509006500244,-0.818117618560791,0.06312650442123413,-0.07678738981485367,0.14170317351818085,-0.31149613857269287,-0.9396224617958069,0.25143951177597046,-0.16207563877105713,0.10710293054580688,0.0486304193513226,0.07966797557639241,-0.15440785075696467,-0.9835884962591386,0.3167671070341006,0.1496806854902904,-3.066740232688094
1783116157893742848,2.0767698287963867,-1.0069468021392822,0.01799159124493599,0.008489519357681274,0.14214567840099335,-0.30327731370925903,-0.9422406554222107,0.22104400396347046,-0.13594689965248108,0.09296703338623047,0.04867620165125916,0.07963456110932228,-0.15012662435009416,-0.9842514588356065,0.30813007727671937,0.14973014012796246,-3.066058010806921
1783116157903662592,2.0866897106170654,-0.8640643954277039,-0.08498778939247131,0.16850288212299347,0.14171014726161957,-0.2942834198474884,-0.9451537132263184,0.27621281147003174,-0.0645727813243866,0.05242300033569336,0.049299990533947756,0.0792158549722091,-0.14542352525713995,-0.9849600569217407,0.2987056390735077,0.14882485643200952,-3.0640052157731152
1783116157913582848,2.0966098308563232,-0.9268651604652405,-0.2090773582458496,0.14784212410449982,0.14022770524024963,-0.2860700786113739,-0.947892427444458,0.2924657464027405,-0.09642195701599121,-0.010313689708709717,0.050398769172179954,0.07835439188765456,-0.1411182694245944,-0.9855993967431924,0.290123005542896,0.14687105809970263,-3.0609052317467436
1783116157923502592,2.106529712677002,-0.7999255657196045,-0.1674063503742218,0.23266460001468658,0.13767096400260925,-0.2788579761981964,-0.9504130482673645,0.28820183873176575,-0.08053228259086609,-0.0462605357170105,0.05177327706450502,0.07701138268007544,-0.13734165951230912,-0.9861673202623693,0.28260470684810624,0.1438532530839443,-3.0571878066311102
1783116157933421824,2.1164488792419434,-0.8302759528160095,-0.3132237195968628,0.14066320657730103,0.13546016812324524,-0.2710675299167633,-0.9529810547828674,0.18773624300956726,-0.1454821527004242,-0.06339156627655029,0.05246931348850385,0.0757264348913293,-0.1333227885306538,-0.9867814136085012,0.27450190859090196,0.1411977177993374,-3.0548823382500867
1783116157943341824,2.126368761062622,-0.7894009947776794,-0.38821619749069214,0.23890721797943115,0.131497323513031,-0.2640205919742584,-0.9555111527442932,0.2946959137916565,-0.06456214189529419,-0.01981532573699951,0.05358733755423591,0.07362966429795952,-0.12970384788913325,-0.9873621960595069,0.2671883375739748,0.13676080992897882,-3.0515606889615396
1783116157953261824,2.13628888130188,-0.4947960674762726,-0.3067162036895752,0.21542245149612427,0.12791958451271057,-0.2582131624221802,-0.957581639289856,0.18862399458885193,0.06764614582061768,-0.029784083366394043,0.054732405497845166,0.07176946447582185,-0.12672149209159772,-0.9878234696337387,0.2611721808612552,0.13279986050195244,-3.0483580025210015
1783116157963181824,2.1462087631225586,-0.4470227062702179,-0.25152990221977234,0.19222979247570038,0.12468061596155167,-0.25414732098579407,-0.9590953588485718,0.13877762854099274,0.05221250653266907,-0.11834299564361572,0.055775477017699436,0.07012324188289362,-0.1246397209284993,-0.988148097302913,0.2569659738777021,0.12927318089163004,-3.0455477182439226
1783116157973100800,2.1561279296875,-0.2559400200843811,-0.30762234330177307,0.19733881950378418,0.12204177677631378,-0.25080421566963196,-0.9603140354156494,0.22176925837993622,0.007869035005569458,-0.11167693138122559,0.05640591895851151,0.068751972975722,-0.12294773791255771,-0.9884206513215253,0.2535109214014321,0.12640766452231753,-3.0437132437422174
1783116157983020800,2.1660478115081787,-0.23834291100502014,-0.20961163938045502,0.11786743998527527,0.11895051598548889,-0.24928811192512512,-0.9610963463783264,0.2210610806941986,-0.034479573369026184,-0.12439858913421631,0.057283470718401924,0.06724338905688984,-0.12218897729690831,-0.9885680827321544,0.25194509364843776,0.12313924876800045,-3.0414444638170717
1783116157992940800,2.1759679317474365,-0.2137962281703949,-0.20455847680568695,0.30996593832969666,0.11628741770982742,-0.2474939227104187,-0.9618856310844421,0.19631940126419067,0.033626750111579895,-0.054731130599975586,0.058195971851001005,0.06594583040878692,-0.12127787294835522,-0.9887143829992154,0.2500928462030779,0.1203113825115044,-3.0391492302244165
1783116158002860800,2.1858878135681152,-0.3555421531200409,-0.06793537735939026,0.11535278707742691,0.11468450725078583,-0.24513450264930725,-0.9626819491386414,0.22618158161640167,-0.06204017996788025,-0.08582574129104614,0.0592522091496185,0.06518166348066978,-0.12004322482593924,-0.9888529368763228,0.2476584291129434,0.11857139860275662,-3.036670642663221
1783116158012779776,2.1958067417144775,-0.4167167842388153,-0.28995364904403687,0.2578449845314026,0.1132846474647522,-0.24183166027069092,-0.9636825323104858,0.2338222861289978,-0.1304217278957367,-0.017762720584869385,0.06004283538039764,0.06445306906097137,-0.11834074495483506,-0.9890582384335878,0.2442531060587739,0.11701686598583413,-3.034705831227813
1783116158022699776,2.2057268619537354,-0.4901350736618042,-0.16281326115131378,0.18858841061592102,0.11063916981220245,-0.23816519975662231,-0.9649022221565247,0.30368274450302124,-0.12403267621994019,2.7954578399658203e-05,0.061461190912259336,0.06315375274196135,-0.11644949726936465,-0.9892794443020219,0.24047624839475917,0.11416501026261301,-3.031306010951479
1783116158032619776,2.215646743774414,-0.5963581204414368,-0.0712578222155571,0.28789040446281433,0.10902627557516098,-0.23324835300445557,-0.9662859439849854,0.18971028923988342,-0.16109979152679443,0.04993462562561035,0.06255956833429532,0.06229001012355398,-0.11391661615791421,-0.9895601423566877,0.23541685022600012,0.1123550649498835,-3.0286219120505393
1783116158042539776,2.225566864013672,-0.630632221698761,-0.27014267444610596,0.26322314143180847,0.10740327090024948,-0.22832641005516052,-0.9676423072814941,0.2523684501647949,-0.15746155381202698,0.00881052017211914,0.06389882146114607,0.06144378557250294,-0.11137108397478997,-0.9898172203201766,0.2303583317723047,0.11054233731911425,-3.025460844850032
1783116158052458752,2.235485792160034,-0.321780800819397,-0.21802006661891937,0.10729256272315979,0.10501418262720108,-0.22383566200733185,-0.9689528346061707,0.20118394494056702,0.030888274312019348,0.037007033824920654,0.06496189413217361,0.06019093950624243,-0.10908999694001448,-0.9900789742477055,0.22574821934604267,0.10795766740388149,-3.0228041854508807
1783116158062379008,2.245405912399292,-0.14758212864398956,-0.1736997365951538,0.2560780346393585,0.10319512337446213,-0.22215071320533752,-0.9695358872413635,0.11911016702651978,0.11517134308815002,-0.042777955532073975,0.06561594995314106,0.05928234211898152,-0.1082481570064858,-0.9901830165518754,0.22401974435690156,0.10603842188139934,-3.0211914764769188
1783116158072298752,2.2553257942199707,0.11407285183668137,-0.16505230963230133,0.27526742219924927,0.10095077753067017,-0.22265851497650146,-0.9696556925773621,0.21515029668807983,0.09115827083587646,-0.05167609453201294,0.06702379314011174,0.058323237856051285,-0.10849221612708344,-0.9901190639255056,0.22454059386289685,0.10373620726938823,-3.0181196120211364
1783116158082219008,2.2652459144592285,0.012457281351089478,-0.23981761932373047,0.17104195058345795,0.09877220541238785,-0.22384990751743317,-0.9696057438850403,0.20898231863975525,0.012897148728370667,-0.023878753185272217,0.0677682507165663,0.05735153045774592,-0.10912349703513471,-0.9900557197692188,0.22576284155043802,0.10151822995249404,-3.01642621424328
1783116158092137728,2.275164842605591,-0.07282685488462448,-0.20622853934764862,0.21445752680301666,0.09686566144227982,-0.22390836477279663,-0.9697845578193665,0.20834064483642578,-0.04794222116470337,0.011990368366241455,0.06864106729257158,0.05648853816341332,-0.1091639311400405,-0.9900408082659912,0.225822813570927,0.09955349058433031,-3.0144490500433903
1783116158102057728,2.2850847244262695,-0.25137290358543396,-0.23510174453258514,0.18418671190738678,0.09483074396848679,-0.2228255271911621,-0.9702349901199341,0.20233416557312012,-0.09144449234008789,0.001317143440246582,0.06958535404045682,0.055524457652441905,-0.10862571133085021,-0.9900885408498672,0.22471190764592058,0.097430505644277,-3.012261292928639
1783116158111977728,2.2950048446655273,-0.1875954568386078,-0.2571558356285095,0.1116691306233406,0.09212914109230042,-0.22057896852493286,-0.97100830078125,0.22870215773582458,-0.10248011350631714,-0.0121307373046875,0.0702926507830064,0.054152224333685224,-0.10753316753572287,-0.9902338082788918,0.22240801397314447,0.09459669090284577,-3.0104294583225677
1783116158121897728,2.304924726486206,-0.32269468903541565,-0.5266495943069458,0.07891064882278442,0.0885913074016571,-0.21894699335098267,-0.9717066287994385,0.2551739513874054,-0.16540662944316864,-0.10202378034591675,0.070411804835166,0.0523188506558171,-0.10681487094966645,-0.9904017208639077,0.22073514831148408,0.09091947745866048,-3.0097254888000906
1783116158131816960,2.3148438930511475,-0.15475468337535858,-0.3093302845954895,0.03129519894719124,0.08511932939291,-0.21703845262527466,-0.9724448323249817,0.2059725821018219,-0.05473582446575165,-0.061826348304748535,0.07073518740906456,0.050530428364986966,-0.10594453818684042,-0.9905649483844683,0.21877957441562487,0.08730874026338521,-3.0086117782538278
1783116158141736704,2.324763774871826,-0.24445873498916626,-0.24761129915714264,0.12045276910066605,0.08291776478290558,-0.21519801020622253,-0.9730439186096191,0.10328523814678192,-0.08849766850471497,-0.05735158920288086,0.07082535749086234,0.04935972872530603,-0.10507929976346543,-0.9907097059720309,0.2168945810011933,0.08500945438459025,-3.0081173218593036
1783116158151656960,2.334683895111084,-0.23711392283439636,-0.30364346504211426,0.051161348819732666,0.08080802857875824,-0.21392790973186493,-0.9735013842582703,0.25519052147865295,-0.03630097210407257,-0.07984334230422974,0.07115197617341483,0.048282774389453935,-0.10448965369149063,-0.9908017961260461,0.21559419258610524,0.08281775259869453,-3.0071810753938806
1783116158161576704,2.3446037769317627,-0.35391858220100403,-0.4195580780506134,0.13563495874404907,0.07783148437738419,-0.21106763184070587,-0.9743678569793701,0.2557256519794464,-0.06047777831554413,-0.010861635208129883,0.07145187125242854,0.046704612149779584,-0.10312493420782934,-0.990998766049465,0.21266706663969293,0.07970971032438653,-3.006152381175255
1783116158171495680,2.354522705078125,-0.4414287805557251,-0.35501447319984436,0.18267099559307098,0.07444779574871063,-0.20818328857421875,-0.9752523899078369,0.22285445034503937,-0.13448333740234375,-0.037320852279663086,0.07210474322621113,0.044957173148044725,-0.10174797673260484,-0.9911746608735515,0.20971717867867296,0.07618919043550308,-3.0043773323264307
1783116158181415680,2.364442825317383,-0.301342248916626,-0.32161712646484375,0.16006715595722198,0.0715976282954216,-0.2047194540500641,-0.9761986136436462,0.1695827841758728,-0.05527505278587341,0.02858203649520874,0.0728508260298428,0.04346370671827859,-0.10005799776511343,-0.991358668829594,0.20617708929120726,0.07321221450631572,-3.002462206936682
1783116158191335680,2.3743627071380615,-0.36881935596466064,-0.3434215188026428,0.045820314437150955,0.06873708963394165,-0.20193786919116974,-0.9769832491874695,0.20674508810043335,-0.06725767254829407,-0.04181551933288574,0.07323214218425338,0.041954383243423925,-0.09873293688862077,-0.9915285362541003,0.20333614922842422,0.07024071757242081,-3.001313602493531
1783116158201255680,2.3842828273773193,-0.28094807267189026,-0.4205847382545471,0.15464478731155396,0.06572750955820084,-0.19919387996196747,-0.9777534008026123,0.21684999763965607,-0.04982955753803253,-0.013274431228637695,0.07348105498074264,0.04035853455270294,-0.09743969676099655,-0.9917041865111248,0.20053525292478006,0.06712201077381322,-3.0004268002194103
1783116158211174656,2.3942017555236816,-0.4322516918182373,-0.21686962246894836,0.10201936960220337,0.06291679292917252,-0.1963980495929718,-0.9785035848617554,0.21644112467765808,-0.1242196261882782,-0.05988752841949463,0.07420577899346419,0.03890679074966081,-0.09609613136953761,-0.991839288324263,0.19768307061405446,0.06421059555828094,-2.9986078153754008
1783116158221094912,2.4041218757629395,-0.1891612559556961,-0.4593048691749573,0.08510270714759827,0.06038703769445419,-0.19353286921977997,-0.9792336225509644,0.1839366853237152,-0.015237882733345032,-0.036925435066223145,0.07441575560888437,0.03754296354974924,-0.09472976196031692,-0.9920076274837091,0.19476182539690068,0.061589660099011866,-2.997861095624551
1783116158231014656,2.414041757583618,-0.013231038115918636,-0.33107951283454895,0.133342906832695,0.056756481528282166,-0.19292333722114563,-0.9795709848403931,0.22728587687015533,0.07689550518989563,-0.12295281887054443,0.07486772953087155,0.0357398111753072,-0.09453666277010381,-0.9920585980895968,0.19414058385732993,0.057875438351442376,-2.9965813784122375
1783116158240934912,2.423961877822876,0.2813188135623932,-0.3103169798851013,0.013535809703171253,0.054523080587387085,-0.1948441118001938,-0.9793176054954529,0.13363304734230042,0.018406733870506287,-0.11200624704360962,0.07488025550624854,0.034697078534379304,-0.09558923418394893,-0.9919938154052691,0.1960985120001103,0.055617147186813924,-2.996381371624857
1783116158250853888,2.4338808059692383,0.36226630210876465,-0.3450438678264618,0.19117550551891327,0.05199850723147392,-0.1987595558166504,-0.9786678552627563,0.19008219242095947,-0.00964498519897461,-0.11312901973724365,0.07530240840750667,0.03362822687219796,-0.09764839075227723,-0.991798144719771,0.20009206370556892,0.053082012617828786,-2.995362848533719
1783116158260773888,2.443800926208496,-0.02233172580599785,-0.3787112832069397,0.20581810176372528,0.04935234412550926,-0.20088307559490204,-0.978371262550354,0.22413092851638794,-0.08798104524612427,-0.03784877061843872,0.07599548544888697,0.03245471330975714,-0.09879807250032759,-0.9916704315034401,0.20225929130172116,0.0504006506900823,-2.9937395191893694
1783116158270693888,2.453720808029175,-0.036672115325927734,-0.3315093219280243,0.1168622374534607,0.04674689099192619,-0.20155078172683716,-0.9783619046211243,0.2251342087984085,-0.12694042921066284,-0.008073031902313232,0.0766759603189473,0.031242541423108696,-0.09921166237694834,-0.9916157054253337,0.20294094448970237,0.0477444642829998,-2.992113487628348
1783116158280613888,2.4636409282684326,-0.20777729153633118,-0.424060583114624,0.14778979122638702,0.04434467479586601,-0.2009473294019699,-0.9785978198051453,0.1791813224554062,-0.11478753387928009,-0.010980427265167236,0.07686331866722439,0.030031545218633174,-0.09899085648505102,-0.9916606902620366,0.20232488161896922,0.04528352460055096,-2.991480044216142
1783116158290532864,2.473559856414795,-0.1677488386631012,-0.3514387905597687,0.11022873222827911,0.04212687537074089,-0.1997697502374649,-0.9789368510246277,0.2037990242242813,-0.0533888041973114,-0.05054306983947754,0.07728152461268951,0.028912651065819354,-0.09846638586803855,-0.9917136445412845,0.20112292268260015,0.04300675812815522,-2.990392593665272
1783116158300452608,2.4834797382354736,-0.14483952522277832,-0.3941657543182373,0.1737579107284546,0.03988968953490257,-0.19923944771289825,-0.9791386127471924,0.18073713779449463,-0.09375980496406555,-0.06660717725753784,0.07777373945028908,0.027817776815489775,-0.0982693013404312,-0.9917260928712403,0.2005817446026952,0.040717055121676504,-2.9891656767472865
1783116158310372864,2.4933998584747314,-0.1377042531967163,-0.41712686419487,0.25385668873786926,0.037925392389297485,-0.1992526650428772,-0.9792140126228333,0.19339784979820251,-0.0373806357383728,-0.05020493268966675,0.07842887661058637,0.026898314443722912,-0.09833352909682853,-0.991693545239753,0.2005952307606775,0.03871109595312695,-2.9876457985311213
1783116158320292608,2.50331974029541,0.019241951406002045,-0.41996604204177856,0.09274101257324219,0.036581870168447495,-0.19944076240062714,-0.97922682762146,0.2385035753250122,0.017845913767814636,-0.02254319190979004,0.07900458558644634,0.0262896513072037,-0.09846546994352201,-0.9916510014295536,0.200787192035547,0.03734054926977653,-2.9863508368650256
1783116158330211840,2.5132389068603516,0.03437196835875511,-0.4311768412590027,0.22538870573043823,0.0354776568710804,-0.20168398320674896,-0.9788079261779785,0.1853628009557724,-0.06630612909793854,-0.09516668319702148,0.07933250035760274,0.025862475587889115,-0.09963524353685037,-0.991519176556487,0.2030769270605357,0.036229918933354505,-2.9856025235787644
1783116158340131840,2.5231587886810303,-0.05011042580008507,-0.4367303252220154,0.2634812295436859,0.03363243117928505,-0.20280396938323975,-0.9786416292190552,0.24329933524131775,-0.07347166538238525,-0.032634615898132324,0.0802963308433857,0.025081650538946173,-0.10025020416660686,-0.9913996559679711,0.20422054571361983,0.034352924116039095,-2.9834800385378086
1783116158350051840,2.533078908920288,-0.11040286719799042,-0.500995934009552,0.250177800655365,0.031232386827468872,-0.20341350138187408,-0.9785946607589722,0.20433279871940613,-0.12611530721187592,-0.05656158924102783,0.08121015128418313,0.023996993667897017,-0.1006321017315766,-0.9913134223259031,0.20484306176844735,0.03190472120289346,-2.9813936605323996
1783116158359971840,2.542998790740967,-0.1779014766216278,-0.5576959848403931,0.21482804417610168,0.027889324352145195,-0.2028501182794571,-0.978812575340271,0.21689216792583466,-0.09106467664241791,-0.032280564308166504,0.08208444500071661,0.022385861331655352,-0.10046191128657078,-0.9912963452722314,0.20426767342175853,0.028485311896627088,-2.9792789836083102
1783116158369890816,2.552917718887329,-0.25487715005874634,-0.49944016337394714,0.17265838384628296,0.024268891662359238,-0.2014443576335907,-0.9791992902755737,0.13999196887016296,-0.1046164333820343,-0.05169975757598877,0.08274031742999442,0.02057714659946032,-0.09988468015788589,-0.9913393692054522,0.20283227766943895,0.024779352183986154,-2.9775741449270634
1783116158379810816,2.562837839126587,-0.1670176088809967,-0.550247073173523,0.2145211547613144,0.020099593326449394,-0.1998670995235443,-0.9796168208122253,0.15583424270153046,-0.0652696043252945,-0.07813763618469238,0.08328510856812772,0.01847462046656582,-0.09924852655956388,-0.9913990259081759,0.20122228896065367,0.02051493226268616,-2.9760420186181897
1783116158389730816,2.5727577209472656,0.020565874874591827,-0.5190414190292358,0.2762773036956787,0.015436532907187939,-0.199544295668602,-0.9797672033309937,0.17590868473052979,-0.00635780394077301,-0.12928736209869385,0.08425349057734488,0.016221801319156147,-0.09926352874725272,-0.9913550972377305,0.20089284308172392,0.015754003648569107,-2.9736115297287844
1783116158399650816,2.5826778411865234,0.00806206651031971,-0.6373475193977356,0.35257023572921753,0.009782887063920498,-0.20013834536075592,-0.979718804359436,0.18493451178073883,-0.09244893491268158,-0.13524091243743896,0.08547715207368732,0.013539512580645754,-0.09978616686560549,-0.9912380981255333,0.20149911394324824,0.00998507072084579,-2.9705622176476196
1783116158409569792,2.5925967693328857,-0.07136591523885727,-0.6813104748725891,0.3114921748638153,0.0032776640728116035,-0.19999931752681732,-0.9797905683517456,0.22400200366973877,-0.12711860239505768,-0.0822516679763794,0.08686067814745545,0.010415590021368734,-0.09998118986285963,-0.9911359746323044,0.20135722528263983,0.003345257602752038,-2.9671022644749856
1783116158419489792,2.6025168895721436,-0.2369396984577179,-0.6793320178985596,0.3083632290363312,-0.0034623481333255768,-0.19854728877544403,-0.9800851941108704,0.14207318425178528,-0.13079841434955597,-0.06311243772506714,0.08790097055624735,0.007080959940091402,-0.09953524376158969,-0.9911185073567608,0.19987547958194424,-0.0035326865457466165,-2.9643239682156977
1783116158429409792,2.6124367713928223,-0.4003646969795227,-0.6745961308479309,0.3234984278678894,-0.010210422798991203,-0.19574928283691406,-0.9806008338928223,0.18286362290382385,-0.14850425720214844,-0.07211828231811523,0.0893177779589199,0.0037181235492852243,-0.09841629840389073,-0.9911219153664967,0.19702146314281474,-0.010412038795379105,-2.9608134432625994
1783116158439329792,2.62235689163208,-0.581663966178894,-0.6342210173606873,0.26206356287002563,-0.016872921958565712,-0.1910867691040039,-0.9814281463623047,0.14275793731212616,-0.0845022201538086,-0.09784126281738281,0.09038774190311476,0.00027600952851216846,-0.09636318981211484,-0.991233637978772,0.19226919524581257,-0.017190520611152556,-2.9580636379126455
1783116158449248768,2.6322758197784424,-0.850492537021637,-0.5848291516304016,0.3200852870941162,-0.023494254797697067,-0.18407508730888367,-0.9826313853263855,0.14603759348392487,-0.12917259335517883,-0.1118205189704895,0.0914476816747032,-0.0032582464326699765,-0.09313272861494863,-0.9914399001708267,0.18513078793419996,-0.023904976857198376,-2.955419462100068
1783116158459168768,2.642195701599121,-0.7814822793006897,-0.5367777347564697,0.1786876767873764,-0.029234183952212334,-0.17612417042255402,-0.9839337468147278,0.14576555788516998,-0.11731760203838348,-0.11993283033370972,0.09230811684436079,-0.006418315649458872,-0.08939757623094982,-0.9916884852179871,0.17704767252391987,-0.02970279778233513,-2.9533274993069263
1783116158469088768,2.652115821838379,-0.806749165058136,-0.6396076083183289,0.24525971710681915,-0.035043224692344666,-0.16830652952194214,-0.9851115942001343,0.13991688191890717,-0.06277257204055786,-0.12113535404205322,0.09301071157306437,-0.009624525329129767,-0.08574125723639936,-0.9919198009741178,0.16911144257050356,-0.035557854026307706,-2.951588548378706
1783116158479008768,2.6620357036590576,-0.7695661187171936,-0.666788637638092,0.12329466640949249,-0.04171032831072807,-0.16076959669589996,-0.9861102104187012,0.21698804199695587,-0.05219732224941254,-0.13307619094848633,0.0936690460287982,-0.013253079391796398,-0.08227539640524288,-0.992109452280606,0.16147033663654997,-0.04227263556736256,-2.9499018535295107
1783116158488927744,2.671954870223999,-0.7535694241523743,-0.6754639744758606,0.19220829010009766,-0.04845752567052841,-0.15334683656692505,-0.986983597278595,0.1979478895664215,-0.005970180034637451,-0.11837834119796753,0.09404286015212662,-0.016941733250847524,-0.07887446201047449,-0.992294168829708,0.1539542877836891,-0.049057195611575434,-2.94882626334017
1783116158498847744,2.6818747520446777,-0.7695713043212891,-0.7078986167907715,0.19267940521240234,-0.055314213037490845,-0.14585378766059875,-0.9877585768699646,0.19822803139686584,0.027933865785598755,-0.1295662522315979,0.09458289995243457,-0.020676886337981124,-0.07545314061593686,-0.9924380832840685,0.1463759273627276,-0.0559413008789649,-2.9474568308194122
1783116158508767744,2.6917948722839355,-0.8660284876823425,-0.7231976389884949,0.1794467568397522,-0.06245492771267891,-0.13789421319961548,-0.9884758591651917,0.2281959056854248,-0.018706724047660828,-0.12137210369110107,0.09509906788992582,-0.02458025207914832,-0.07181830878703725,-0.9925695181275469,0.13833499779758002,-0.06309917841740215,-2.9461810115461384
1783116158518687744,2.7017147541046143,-1.1492422819137573,-0.6747766137123108,0.16482466459274292,-0.06925991177558899,-0.1280360370874405,-0.9893481731414795,0.2086489498615265,-0.04461716115474701,-0.08836483955383301,0.09556596141017905,-0.02841206753498541,-0.0672209789329783,-0.9927443473295108,0.12838846735330467,-0.0698915746005774,-2.9451606233534715
1783116158528606976,2.7116339206695557,-1.1709434986114502,-0.6803103685379028,0.19702209532260895,-0.07596073299646378,-0.11617530137300491,-0.9903197884559631,0.19217166304588318,-0.020146720111370087,-0.06725162267684937,0.09602706126498146,-0.03229069683796921,-0.06162321500120927,-0.9929444651228686,0.11643822966298269,-0.07655333789301294,-2.9443094138622574
1783116158538526720,2.7215538024902344,-0.9649155139923096,-0.6438905596733093,0.25697624683380127,-0.0827387347817421,-0.10569899529218674,-0.9909500479698181,0.2030542939901352,-0.003645479679107666,-0.1343703269958496,0.09686649692641496,-0.036124791296847404,-0.05674476730172691,-0.9930216211219154,0.1058968102253107,-0.0833011359685641,-2.9426961816592745
1783116158548446976,2.731473922729492,-0.6055927276611328,-0.5774946808815002,0.13627710938453674,-0.08893826603889465,-0.09755568206310272,-0.9912481307983398,0.12195829302072525,0.07973340898752213,-0.12947940826416016,0.09756871678114248,-0.039573067069617766,-0.05300850941856228,-0.9930279736485587,0.09771108649263091,-0.08948390624356173,-2.941335722869054
1783116158558366720,2.741393804550171,-0.3127443790435791,-0.5750246047973633,0.17425058782100677,-0.09442410618066788,-0.09320629388093948,-0.9911592602729797,0.10165677219629288,0.04625499248504639,-0.16686075925827026,0.09794148085136066,-0.04250359543003577,-0.05112547970696172,-0.9929688774959996,0.09334177414194633,-0.09497968741672926,-2.9405193733172728
1783116158568285696,2.751312732696533,-0.21807372570037842,-0.5860098600387573,0.11218538880348206,-0.10022255778312683,-0.09047113358974457,-0.9908432960510254,0.19273659586906433,0.013200625777244568,-0.11471700668334961,0.09862440520790976,-0.045498542445078075,-0.05008234083191284,-0.9928216612002564,0.09059500716997086,-0.10080589845173367,-2.938994098372144
1783116158578205696,2.761232852935791,-0.24697968363761902,-0.3682064712047577,0.20478776097297668,-0.10512543469667435,-0.08812278509140015,-0.9905468225479126,0.14064788818359375,-0.016232065856456757,-0.0609973669052124,0.09917857929335883,-0.04803567803080396,-0.049184959696025696,-0.9926917504467802,0.08823724204881271,-0.10573290258138936,-2.937763881004351
1783116158588125696,2.7711527347564697,-0.5548869967460632,-0.29074621200561523,0.13811984658241272,-0.10846281051635742,-0.0840805321931839,-0.9905383586883545,0.13142728805541992,-0.067576564848423,0.03127938508987427,0.0999091955381857,-0.04986668285131423,-0.04737218445545267,-0.9926164116136394,0.0841799200518892,-0.10906433702487407,-2.9363658309005145
1783116158598045440,2.7810723781585693,-0.9389137625694275,-0.16586822271347046,0.2178705930709839,-0.1106366440653801,-0.07647157460451126,-0.990914523601532,0.1559857726097107,-0.13414548337459564,0.11158108711242676,0.10041642414171999,-0.05130584712391714,-0.043708558801407046,-0.992660018684257,0.07654630805741057,-0.11119053521768515,-2.9356986483600083
1783116158607964416,2.7909915447235107,-1.351477861404419,0.07933594286441803,0.18913482129573822,-0.11117573827505112,-0.0651492029428482,-0.9916630387306213,0.1863710582256317,-0.1935940831899643,0.09891706705093384,0.10109938651367063,-0.0521104286118974,-0.03811818152503577,-0.9927790851296507,0.06519537703006749,-0.11164421459365467,-2.9349784523596973
1783116158617884416,2.8009114265441895,-1.6316568851470947,0.20928089320659637,0.30324727296829224,-0.11007416248321533,-0.05009366571903229,-0.9926602244377136,0.15685760974884033,-0.1854715198278427,0.12832611799240112,0.10197799389019409,-0.05228620161833529,-0.030594864222493426,-0.9929403652912845,0.05011464174622212,-0.110436885368593,-2.934133587059335
1783116158627804416,2.8108315467834473,-1.6062417030334473,0.3094799518585205,0.19363637268543243,-0.10742279142141342,-0.03384124115109444,-0.9936373233795166,0.20777985453605652,-0.12343110144138336,0.1371462345123291,0.10282169905417171,-0.05176562925423447,-0.022397808858630654,-0.9930993615324842,0.033847702111401284,-0.10769239549199441,-2.933431011394109
1783116158637724416,2.820751428604126,-1.444563627243042,0.44485509395599365,0.2757256329059601,-0.10372389107942581,-0.01863083429634571,-0.9944316148757935,0.21473157405853271,-0.09725967049598694,0.18319809436798096,0.10362212730037434,-0.0506859571430279,-0.01466710341799623,-0.9932161271291445,0.018631911886100472,-0.10392889142396337,-2.9327159444312527
1783116158647643392,2.8306703567504883,-1.2670402526855469,0.532916247844696,0.2616787850856781,-0.09845674782991409,-0.005068857688456774,-0.9951283931732178,0.1997445970773697,-0.035199087113142014,0.28971463441848755,0.10467546580641154,-0.04875106722153842,-0.007689132418819231,-0.9932810364268604,0.005068879202638651,-0.09861778604186612,-2.9313505128848103
1783116158657563392,2.840590476989746,-0.9388852715492249,0.7112505435943604,0.27976831793785095,-0.09222625195980072,0.00608763936907053,-0.9957194924354553,0.12358306348323822,0.021881723776459694,0.3718028664588928,0.10576155479031762,-0.04622570610121444,-0.0018575008193824978,-0.9933147317257358,-0.006087676842206403,-0.09235921453687562,-2.9297265165639277
1783116158667483392,2.850510358810425,-0.7206039428710938,0.9057740569114685,0.29758402705192566,-0.08408838510513306,0.01428710762411356,-0.9963558912277222,0.03497034311294556,-0.030278321355581284,0.46361052989959717,0.10691937985661017,-0.04260605268143332,0.002605464927419273,-0.9933510277227235,-0.014287594083897784,-0.08419640975918036,-2.927750025989632
1783116158677403392,2.8604304790496826,-0.789177656173706,1.067767858505249,0.24290718138217926,-0.07397979497909546,0.0215776264667511,-0.997026264667511,-0.021463923156261444,-0.2043474018573761,0.5526446104049683,0.10809949748041826,-0.03796818529625282,0.006728936447293029,-0.9933919847087004,-0.02157930131929005,-0.0740647169998436,-2.9256080340680315
1783116158687322368,2.870349407196045,-1.074652075767517,1.1510326862335205,0.114879310131073,-0.061761192977428436,0.030442014336586,-0.9976266026496887,-0.042288489639759064,-0.2938849925994873,0.6321938633918762,0.10879951473944684,-0.03237329676339947,0.011775742611834526,-0.9934666902304597,-0.03044671784513076,-0.06182921771628143,-2.9243736754466005
1783116158697242624,2.8802695274353027,-1.3790558576583862,1.2154146432876587,0.028613662347197533,-0.04882345348596573,0.042245905846357346,-0.9979135990142822,-0.04600992053747177,-0.23696331679821014,0.6357767581939697,0.10887760667786474,-0.026581335634083228,0.018347542400239728,-0.9935303611902474,-0.042258481531689096,-0.04888655134294087,-2.924323886149077
1783116158707162368,2.8901894092559814,-1.286267638206482,1.324860692024231,-0.1037190780043602,-0.035730376839637756,0.05549875274300575,-0.9978192448616028,-0.003927215933799744,-0.09479013085365295,0.5909283757209778,0.10831166005965284,-0.020778524280205803,0.02566387824939671,-0.9935684471251,-0.05552728218817203,-0.035793174160344055,-2.9254187629820687
1783116158717082624,2.9001095294952393,-1.1388561725616455,1.345266580581665,-0.05466844141483307,-0.02249741367995739,0.0674978569149971,-0.9974657297134399,0.05489182099699974,-0.0157095268368721,0.5567308664321899,0.10772510151553175,-0.014830474252817133,0.032360253759570135,-0.9935433189917665,-0.06754921482948475,-0.022550749684166125,-2.926348135767157
1783116158727001344,2.9100284576416016,-0.6407724022865295,1.341910719871521,-0.15207833051681519,-0.009067605249583721,0.0763360932469368,-0.9970409274101257,0.095310278236866,0.0918462797999382,0.5636913180351257,0.10685628620763438,-0.00859568259945659,0.03749211105998004,-0.993530229032838,-0.07641042951341244,-0.009094266258256692,-2.9276597465455056
1783116158736921344,2.9199483394622803,-0.2577055096626282,1.3083090782165527,-0.006641497369855642,0.00394898746162653,0.08046422153711319,-0.9967496991157532,0.10325926542282104,0.04555811733007431,0.5235593914985657,0.1061711597936772,-0.002313530053353876,0.04024686278149845,-0.9935303760734346,-0.08055130320078223,0.003961844049657546,-2.9285160013641773
1783116158746841344,2.929868459701538,-0.2855531573295593,1.2666205167770386,-0.14697255194187164,0.016830841079354286,0.08309648931026459,-0.9963993430137634,0.12220723927021027,0.009829536080360413,0.6016544699668884,0.10552946349016122,0.003983416229266448,0.0422427428343141,-0.9935106263282599,-0.0831924211909747,0.016890055087890585,-2.9292457590775003
1783116158756761344,2.939788341522217,-0.004372365307062864,1.3508433103561401,0.09737808257341385,0.02939091995358467,0.08464094251394272,-0.9959779381752014,0.11953485757112503,-0.04872175306081772,0.6215273141860962,0.10508905288117776,0.010172260784134843,0.04367548181810762,-0.9934512678157735,-0.08474232880261369,0.02950104841511456,-2.9295621355075876
1783116158766680576,2.949707508087158,-0.05229681357741356,1.5308811664581299,0.0630636140704155,0.043989282101392746,0.08479129523038864,-0.9954272508621216,0.09036435931921005,-0.14576542377471924,0.5315142869949341,0.10524988079789392,0.017424882822497954,0.044528151873846525,-0.9932955153221085,-0.08489322563489488,0.04416262491563363,-2.928583885753952
1783116158776600320,2.959627389907837,0.22463065385818481,1.5564217567443848,0.13259874284267426,0.05942718684673309,0.0839732363820076,-0.9946943521499634,0.0920925885438919,-0.024586036801338196,0.5145766139030457,0.10529540314841894,0.025154490377378335,0.04494511123237027,-0.9931062064951818,-0.0840722375003215,0.059673237184372105,-2.9278186038834475
1783116158786520576,2.9695475101470947,0.5690867900848389,1.607136845588684,0.03763372078537941,0.07508393377065659,0.08016175031661987,-0.9939499497413635,0.14542081952095032,0.10250121355056763,0.3911972641944885,0.10546649935774312,0.03314853343143416,0.043888515559740354,-0.9929006525577643,-0.08024785311343645,0.07539776412316151,-2.9269167437316965
1783116158796440320,2.9794673919677734,1.1158329248428345,1.691862940788269,0.013341698795557022,0.09136335551738739,0.07171851396560669,-0.9932317137718201,0.10211808979511261,0.1627480387687683,0.32062429189682007,0.10492551006829341,0.04173039621466127,0.04053058679818263,-0.9927771680222218,-0.07178014012714812,0.09172780894959343,-2.9277008589393647
1783116158806359552,2.989386558532715,1.2832489013671875,1.844440221786499,0.0950341671705246,0.10922824591398239,0.059735365211963654,-0.9922201633453369,0.1473177671432495,0.15489475429058075,0.3459494709968567,0.10462890329007263,0.05128190926365923,0.03549757758541633,-0.99255369587625,-0.05977094672371306,0.10964319547118312,-2.9282596973532797
1783116158816279296,2.9993064403533936,1.2966229915618896,2.0117392539978027,0.13842903077602386,0.12778732180595398,0.046516116708517075,-0.9907101988792419,0.11525467038154602,0.010505978018045425,0.42433446645736694,0.10459318206892372,0.061245669577352474,0.029897826501248028,-0.9921770689589263,-0.04653290801677663,0.12827730269196824,-2.928543571740108
1783116158826199296,3.0092263221740723,0.9592869877815247,2.0618858337402344,-0.002888037823140621,0.14809635281562805,0.03541700169444084,-0.9883385300636292,0.11501094698905945,-0.14167921245098114,0.49569326639175415,0.10423955900592824,0.07200129545051641,0.025427051159452433,-0.991616501037133,-0.03542440891745311,0.14873713125534152,-2.92948067005904
1783116158836119296,3.01914644241333,0.6995187997817993,1.8500908613204956,-0.014004871249198914,0.16729649901390076,0.02738245576620102,-0.9855263233184814,0.14613428711891174,-0.19010218977928162,0.5389320850372314,0.10356302642338562,0.08206962211004501,0.022392628452330726,-0.9909781747872711,-0.027385878302511858,0.16815053912964373,-2.9310288103284967
1783116158846038272,3.0290653705596924,0.37220773100852966,1.9197890758514404,-0.03249453380703926,0.1854923814535141,0.022229934111237526,-0.9823942184448242,0.2260524183511734,-0.285535603761673,0.5152311325073242,0.10318939967461452,0.09149825550983896,0.020759503476314313,-0.9902268209813724,-0.02223176545192703,0.18661956813657532,-2.931845960035081
1783116158855958528,3.03898549079895,0.17013132572174072,1.7715586423873901,0.08469893783330917,0.20320455729961395,0.019240526482462883,-0.9789472222328186,0.17852455377578735,-0.24418559670448303,0.4929853677749634,0.10306542596852089,0.10058947756553144,0.020202330180244508,-0.9893690875179023,-0.019241714577410546,0.20466808735560488,-2.932019647359188
1783116158865878272,3.048905372619629,0.057028740644454956,1.5784906148910522,0.10681462287902832,0.2194857895374298,0.018325472250580788,-0.9754436016082764,0.2009548842906952,-0.05885281786322594,0.48119616508483887,0.10315053018178823,0.10886963422982636,0.020630474141978102,-0.9884744637742698,-0.018326498587550463,0.22132516756233564,-2.9316023730242877
1783116158875798528,3.0588254928588867,0.237335667014122,1.4968544244766235,0.23877400159835815,0.23442605137825012,0.016627009958028793,-0.971991777420044,0.2670998275279999,0.1209157183766365,0.42899250984191895,0.10381873837725795,0.11652016265978163,0.020668191031317666,-0.9875310736446,-0.016627775398570504,0.2366614674828824,-2.9301261440330073
1783116158885717504,3.068744421005249,0.2867196500301361,1.3774082660675049,0.3591146171092987,0.24843299388885498,0.01304613146930933,-0.9685612320899963,0.19413292407989502,0.22447218000888824,0.34925276041030884,0.10505537760406856,0.12380430981265696,0.019796001696866832,-0.9865312454308397,-0.013046501491327704,0.25108402392646295,-2.927766379914662
1783116158895637504,3.078664541244507,0.19252578914165497,1.1118232011795044,0.35741952061653137,0.2605172097682953,0.009938469156622887,-0.9654180407524109,0.1530417501926422,0.21831776201725006,0.3178808093070984,0.10644623672852384,0.13010158772673752,0.019093284414973214,-0.9855852113610687,-0.009938632315848352,0.26357120852913485,-2.925103129558313
1783116158905557504,3.0885844230651855,-0.2058289796113968,0.95345139503479,0.4181031584739685,0.2703896164894104,0.00866049062460661,-0.9627120494842529,0.1961326003074646,0.01311380323022604,0.17828822135925293,0.10838467085816328,0.13517546301061306,0.01927636924050456,-0.9846871578644195,-0.00866059861543648,0.27380822632839164,-2.92114182498824
1783116158915477504,3.0985045433044434,-1.0272523164749146,0.9946150779724121,0.28532618284225464,0.27968302369117737,0.013437285088002682,-0.959998369216919,0.05370625853538513,-0.12565042078495026,0.033789873123168945,0.11035313064258145,0.13962433146936373,0.02249145546847678,-0.983779135472118,-0.01343768945649961,0.28349023341749724,-2.916263623346627
1783116158925396480,3.1084234714508057,-1.8067231178283691,1.1188335418701172,0.2618565857410431,0.2899419963359833,0.026103554293513298,-0.9566881656646729,-0.012582987546920776,-0.23168522119522095,-0.10185980796813965,0.1126073107453944,0.1441115236529496,0.02979579729766004,-0.9826818219911632,-0.02610651988403315,0.2942695045061209,-2.9095349390152045
1783116158935316224,3.1183433532714844,-2.5286481380462646,0.7992246747016907,-0.04953433573246002,0.29911112785339355,0.04672184959053993,-0.9530737400054932,0.010367631912231445,-0.22970524430274963,-0.20326781272888184,0.11456913044414906,0.14758025699190455,0.041026623490274354,-0.9815349715730449,-0.04673886316260273,0.3041037185600663,-2.902032125617701
1783116158945236480,3.128263473510742,-2.923717975616455,0.5889325737953186,-0.23388630151748657,0.3057619631290436,0.07318037748336792,-0.949291467666626,0.09403356909751892,0.024597950279712677,-0.280505895614624,0.11554180223992432,0.14945484241339166,0.05493200618320964,-0.9804569937471002,-0.07324585147425854,0.31160213633124517,-2.895474985390171
1783116158955156224,3.138183355331421,-2.844175338745117,0.07689458876848221,0.011977793648838997,0.30890029668807983,0.10097383707761765,-0.9457192420959473,0.026808321475982666,0.38625454902648926,-0.34506750106811523,0.11694341549628635,0.14941638788074724,0.06939107303258392,-0.9793793144590855,-0.1011462130875083,0.31570549086281124,-2.887793174028336
1783116158965075456,3.1481025218963623,-2.5618960857391357,0.07166052609682083,-0.04631740599870682,0.3098623752593994,0.12594647705554962,-0.9424026608467102,-0.08597016334533691,0.7404628396034241,-0.4520370364189148,0.1189987118865613,0.14834519535249044,0.08241582619301381,-0.9782845353841576,-0.1262818529841263,0.31766538245146436,-2.8792473168133417
1783116158974995456,3.158022403717041,-2.110905647277832,0.027889873832464218,-0.40471151471138,0.30954328179359436,0.14868609607219696,-0.9391887187957764,-0.35330548882484436,1.0340684652328491,-0.45267224311828613,0.11949230153406618,0.1468560388253023,0.09401571435170002,-0.9774026795687135,-0.14923946074792782,0.31837401154091444,-2.874287036214914
1783116158984915456,3.167942523956299,-1.1553605794906616,0.06883925199508667,0.022074071690440178,0.30996981263160706,0.16512830555438995,-0.9362966418266296,-0.40483370423316956,1.2721734046936035,-0.45672398805618286,0.11944752060748451,0.1461622421992444,0.10241233394556513,-0.9766681794490276,-0.1658880963287947,0.31970264101216944,-2.871393838787444
1783116158994835456,3.1778624057769775,-0.25064966082572937,0.5118395686149597,0.18096384406089783,0.312697172164917,0.17080901563167572,-0.9343686699867249,-0.3066394329071045,1.1907174587249756,-0.4873995780944824,0.12074401859408658,0.14711412528343557,0.10570295045453736,-0.976014948198612,-0.17165069539154265,0.32294538719010946,-2.867393574974622
1783116159004754432,3.18778133392334,0.02863205596804619,0.47489041090011597,-0.40705689787864685,0.3178558051586151,0.1728181391954422,-0.9322561621665955,-0.3860321044921875,0.944613516330719,-0.30333948135375977,0.11961636712879294,0.14978978743430585,0.10693421452554358,-0.9756126847896919,-0.17369013710632394,0.3285927516931581,-2.8687307720908146
1783116159014674432,3.1977014541625977,0.7614918947219849,0.4494657516479492,-0.24612689018249512,0.32211095094680786,0.17009255290031433,-0.9312964677810669,-0.14173680543899536,0.3174257278442383,-0.2823876142501831,0.11756092191989322,0.15236424948924104,0.10553158647838608,-0.9756165428263506,-0.17092359692922093,0.3329941098381885,-2.872958475154275
1783116159024594432,3.2076213359832764,0.4921824038028717,0.1749337613582611,-0.04474717006087303,0.3237482011318207,0.16419680416584015,-0.9317867159843445,0.046170592308044434,-0.33482059836387634,-0.5421512126922607,0.1160129352396214,0.15369491186352696,0.10239387952476152,-0.9759274603820985,-0.16494370660604687,0.3344002453931523,-2.8770540743600663
1783116159034514432,3.217541456222534,-2.3125555515289307,0.6109033823013306,-1.3188782930374146,0.32490724325180054,0.17089463770389557,-0.9301775693893433,0.03234678506851196,-0.7326316833496094,-0.42228519916534424,0.11368224659797854,0.15418965736731527,0.10553090720158187,-0.975789423875087,-0.17173758790311308,0.33604746817482645,-2.8804322230814847
1783116159044433408,3.2274603843688965,-4.526184558868408,-1.349623680114746,-0.9194105267524719,0.3187013864517212,0.21014665067195892,-0.9242660999298096,0.1786130666732788,-0.9359614849090576,0.12815403938293457,0.10995795990648946,0.14942386917191433,0.12465735744241037,-0.9747011702025551,-0.2117249637176731,0.3320487623066436,-2.881311184172984
1783116159054353408,3.2373805046081543,-4.32674503326416,-0.9366562962532043,-0.24378365278244019,0.3073088824748993,0.25248998403549194,-0.9175020456314087,0.7532837390899658,0.008862495422363281,-0.10668307542800903,0.11184499178499348,0.1411705650945147,0.14601314417539568,-0.9727495421605279,-0.25525277008351066,0.32319658269474516,-2.8708090444089827
1783116159064273408,3.247300386428833,-3.2702598571777344,-0.37941282987594604,-0.4123094379901886,0.30059847235679626,0.28810638189315796,-0.909194827079773,0.20620694756507874,0.9312081933021545,-0.11640942096710205,0.11334820861662362,0.1356885138119668,0.16429000956818138,-0.9704377990023342,-0.292248770294988,0.3193070496977014,-2.8616560866391327
1783116159074193408,3.257220506668091,-3.3619213104248047,0.461378812789917,-1.5634064674377441,0.2976875305175781,0.31953421235084534,-0.8995999097824097,-0.11987686157226562,1.0601502656936646,-0.19241058826446533,0.11098435395460668,0.13306418092171302,0.1802608218949986,-0.968236749425507,-0.32523789709337325,0.3195688851504438,-2.8604689460451898
1783116159084112384,3.267139434814453,-3.6209983825683594,0.4261472523212433,-1.8262872695922852,0.2955491840839386,0.35631728172302246,-0.8863908052444458,-0.08082753419876099,0.30701279640197754,0.1653367280960083,0.10411121408966047,0.13161721726537126,0.19869950673353587,-0.9655860407403583,-0.3643235056907411,0.3218374455920938,-2.86699608674944
1783116159094032640,3.277059555053711,-3.2825520038604736,0.837220311164856,-1.0603868961334229,0.2962769567966461,0.39024680852890015,-0.8717381358146667,0.4182768762111664,-0.034121930599212646,-0.04244643449783325,0.09933548145936659,0.1316097179793921,0.2163557449782497,-0.9622897367216142,-0.40089962742816215,0.3276212754415939,-2.8687226580139176
1783116159103952384,3.2869794368743896,-3.117342233657837,0.7778683304786682,-1.1422938108444214,0.29965367913246155,0.42078763246536255,-0.8562391400337219,0.47489771246910095,0.04591768980026245,-0.08361071348190308,0.09542847095857052,0.13312314110809947,0.23272015271773616,-0.9586516222429332,-0.4343133814130608,0.33664360069737453,-2.8682073686602414
1783116159113872640,3.2968995571136475,-2.585132598876953,0.767499566078186,-1.086364984512329,0.3009345829486847,0.4487285614013672,-0.8414755463600159,0.4652397334575653,0.3395404815673828,-0.09387296438217163,0.09079695399410699,0.13398123490964137,0.24761110857022994,-0.9552453822984549,-0.46534210954877364,0.3434534709255223,-2.869911278953477
1783116159123791360,3.3068184852600098,-2.176302433013916,0.5100139379501343,-1.1876122951507568,0.3007969856262207,0.47140124440193176,-0.8290368318557739,0.5913233757019043,0.22735974192619324,-0.12973392009735107,0.08651791679650701,0.13432710186814803,0.2596879172778853,-0.9523828768144541,-0.490878968902646,0.3480560130769455,-2.8723842567610824
1783116159133711360,3.3167383670806885,-2.1257801055908203,0.49437105655670166,-1.32672119140625,0.29910027980804443,0.4924274682998657,-0.8173458576202393,0.38168585300445557,0.31436577439308167,-0.04884982109069824,0.0812578103509822,0.13429693764156414,0.2707238371006192,-0.9497737888295882,-0.5148766087728599,0.3508048786825995,-2.8776471627283184
1783116159143631360,3.3266584873199463,-2.555940628051758,0.6264175176620483,-1.6787530183792114,0.2957729697227478,0.5156697034835815,-0.8041163682937622,0.2407718002796173,0.27467453479766846,0.12387955188751221,0.07500517248810287,0.1337831107535862,0.28292029532035806,-0.9468011745197604,-0.5417890890526275,0.35246424193694603,-2.8846512798791175
1783116159153551360,3.336578369140625,-2.862572193145752,0.9327143430709839,-1.8298780918121338,0.2930881381034851,0.5425640940666199,-0.7872252464294434,0.06187707185745239,0.2605365514755249,0.31688833236694336,0.06752509824678306,0.13412688086848618,0.2973169106494477,-0.9428961290354723,-0.5734865189726959,0.3564061040430539,-2.892487339451885
1783116159163470592,3.3464975357055664,-3.274721145629883,1.2302180528640747,-1.9154789447784424,0.2908456325531006,0.5718321800231934,-0.7670833468437195,0.008470743894577026,0.15877389907836914,0.339272677898407,0.059106774190232046,0.13527696875072662,0.31330253236816874,-0.9381088321106917,-0.6087374716955694,0.3624108893960571,-2.9007667143468354
1783116159173390336,3.356417417526245,-3.319777727127075,1.2956210374832153,-1.7150516510009766,0.2899366617202759,0.6019911170005798,-0.744005024433136,0.15293443202972412,0.24493271112442017,0.2836625576019287,0.050910204866266774,0.13743986738844796,0.33031466995618675,-0.9324219482879934,-0.6459923294443188,0.3715932298536371,-2.906836541781504
1783116159183310592,3.366337537765503,-3.280419111251831,1.2598882913589478,-1.6952580213546753,0.28936052322387695,0.6308315992355347,-0.7199457883834839,0.31465861201286316,0.22965723276138306,0.16495317220687866,0.04327095257010506,0.13997460352932947,0.34703633106091364,-0.9263370912679136,-0.6826244824515177,0.3821603420063302,-2.91102700800594
1783116159193230336,3.3762574195861816,-3.350123167037964,1.1806275844573975,-1.8443255424499512,0.28658801317214966,0.6592140197753906,-0.6952008605003357,0.28583019971847534,0.17472457885742188,0.0871381163597107,0.035224703074648506,0.1418322027323409,0.3637075770468001,-0.9199780762043778,-0.7197730060188328,0.39101142203449424,-2.9162969226173843
1783116159203149312,3.386176347732544,-3.2400827407836914,1.1982308626174927,-1.503934621810913,0.28341981768608093,0.6862004399299622,-0.6699270606040955,0.27999570965766907,0.19307202100753784,-0.028010010719299316,0.02773010071084628,0.14361761663285327,0.38001376096010786,-0.9133425875148263,-0.7562527069052787,0.4002269057094982,-2.9200928711037775
1783116159213069312,3.3960964679718018,-3.2109358310699463,1.1975525617599487,-1.3756150007247925,0.28173142671585083,0.7114890217781067,-0.6437475681304932,0.32269972562789917,0.09396141767501831,-0.009908437728881836,0.02127589851708089,0.1461307313314582,0.39594449008696103,-0.9063229259162343,-0.7916149381869019,0.4125302122425494,-2.9202281761979836
1783116159222989312,3.4060163497924805,-2.4641411304473877,1.1186195611953735,-1.331023931503296,0.2790146768093109,0.7333430647850037,-0.6199667453765869,0.3020400106906891,0.13343244791030884,0.005602121353149414,0.01506224914538636,0.14816950013983624,0.4099541593974411,-0.8998647238929278,-0.8232262560439562,0.4228936676908711,-2.921248923476165
1783116159232909568,3.4159364700317383,-1.396699070930481,1.0521236658096313,-1.2319812774658203,0.2763369679450989,0.7487155199050903,-0.6025469899177551,0.328262060880661,0.33932769298553467,-0.0603710412979126,0.008643901685935233,0.1503085943715817,0.4196829981978987,-0.8950970479169719,-0.8461222600091259,0.42999482592796795,-2.9262652414334966
1783116159242828288,3.4258553981781006,-0.45387381315231323,1.0490368604660034,-1.03584885597229,0.27415990829467773,0.7570450305938721,-0.5930591225624084,0.32973718643188477,0.48375385999679565,-0.10585445165634155,0.0021835215764018797,0.15255546233694045,0.42449650273590595,-0.8924823046080806,-0.8587784578800158,0.4330196633182102,-2.9359471379374553
1783116159252748544,3.4357755184173584,0.36099115014076233,1.1225703954696655,-1.0889099836349487,0.27271464467048645,0.7601288557052612,-0.5897718667984009,0.35193443298339844,0.48805534839630127,0.07130873203277588,-0.0047197506808186,0.15519629357313816,0.42547406450933833,-0.8915512487942397,-0.8635113810167537,0.43312355128362884,-2.9501303789838307
1783116159262668288,3.445695400238037,0.21602153778076172,1.3244094848632812,-1.3520258665084839,0.2713373601436615,0.7612687945365906,-0.5889363288879395,0.2869511842727661,0.5006635785102844,0.22264909744262695,-0.012965111830006884,0.1584048936474234,0.4247819671589175,-0.8912352293447018,-0.8652675532606978,0.4317364774908762,-2.9688363825914683
1783116159272588544,3.455615520477295,-0.953683078289032,1.58330500125885,-1.5670276880264282,0.26867252588272095,0.7675842642784119,-0.5819188356399536,0.16315120458602905,0.48284298181533813,0.6044713258743286,-0.022297283884531886,0.16182008109265522,0.4276152916305563,-0.8890795023562412,-0.8750636153748382,0.43254176446733344,-2.986915253486696
1783116159282507520,3.4655344486236572,-1.724826455116272,1.9554684162139893,-1.5186710357666016,0.267202764749527,0.7796447277069092,-0.5663537979125977,0.19194942712783813,0.18008720874786377,0.8447352051734924,-0.031623260047507484,0.16661057351371064,0.43481491706022507,-0.8844075699899878,-0.894098321750274,0.44082992315464486,-2.999062114755859
1783116159292427264,3.475454330444336,-2.2325916290283203,2.288059711456299,-1.6028610467910767,0.26699239015579224,0.7947946786880493,-0.5449921488761902,0.16852396726608276,-0.019983887672424316,0.7179505228996277,-0.04136545290473174,0.17299850018799556,0.4444945906240847,-0.8779435720816271,-0.91866915000286,0.45553611416753087,-3.007455999333403
1783116159302347520,3.4853744506835938,-2.5646262168884277,2.300701379776001,-1.4540785551071167,0.26705777645111084,0.8117051720619202,-0.5194370746612549,0.20048677921295166,-0.07160812616348267,0.5668461322784424,-0.05094815073702971,0.18015181014279535,0.45588023871292116,-0.8701280450540109,-0.9470656866227486,0.4748869885839612,-3.0118043511187103
1783116159312267264,3.4952943325042725,-2.788069248199463,2.3718113899230957,-1.4419376850128174,0.2669919431209564,0.8288116455078125,-0.4917179048061371,0.3311220705509186,-0.282012939453125,0.4799991846084595,-0.05998634257304445,0.18753081596514995,0.46794576094829105,-0.86154545642816,-0.9769805115241664,0.49743594181676926,-3.012290710341463
1783116159322186496,3.505213499069214,-3.6555275917053223,2.1416542530059814,-1.2632509469985962,0.26669034361839294,0.8476500511169434,-0.45865634083747864,0.38740816712379456,-0.35854482650756836,0.630744993686676,-0.06781655284210053,0.19505684880932936,0.48231177640210876,-0.8513102255068618,-1.011540291814317,0.5266756101437818,-3.0041519798047234
1783116159332106240,3.5151333808898926,-3.9918386936187744,2.446162462234497,-1.2857462167739868,0.26576629281044006,0.8677436113357544,-0.41998714208602905,0.28466400504112244,-0.43591994047164917,0.7615094184875488,-0.07501761830211102,0.20292046394386343,0.49882834802069426,-0.8392650686037791,-1.0506443094792406,0.5641859817943912,-2.987006268152297
1783116159342026496,3.5250535011291504,-4.490340232849121,2.6926937103271484,-0.875495195388794,0.2664617896080017,0.8873723745346069,-0.37625589966773987,0.2594323754310608,-0.43301135301589966,0.907063364982605,-0.08152469629046157,0.21239656180185348,0.5164879057285,-0.8255190570578849,-1.0916142983332995,0.6162034727872366,-2.9566127046932267
