time,seconds_elapsed,rotationRateX,rotationRateY,rotationRateZ,gravityX,gravityY,gravityZ,accelerationX,accelerationY,accelerationZ,quaternionW,quaternionX,quaternionY,quaternionZ,pitch,roll,yaw
1784373840278884864,0.19218993186950684,-0.06478767096996307,-0.18741720914840698,0.026843544095754623,0.06247151643037796,0.8209397196769714,-0.5675871968269348,0.04244790971279144,-0.01587080955505371,-0.01081240177154541,0.391702303878792,-0.17349242048540217,0.43140095409407486,-0.7939539327224502,-0.9630547958325479,0.10962380435607091,-2.167629162638234
1784373840288804096,0.20210909843444824,-0.059269338846206665,-0.2174251675605774,0.04519752040505409,0.06165709346532822,0.8212516903877258,-0.5672248601913452,0.049442142248153687,-0.02500230073928833,-0.019338250160217285,0.3921011204184593,-0.1742442854462085,0.43130787961827444,-0.7936429976655563,-0.963601382237274,0.10827444665433317,-2.1671794116338683
1784373840298723840,0.21202898025512695,-0.0326642245054245,-0.2400500625371933,0.04301698878407478,0.06072390079498291,0.82147616147995,-0.5670005083084106,0.0514586940407753,-0.02254122495651245,-0.025254130363464355,0.392554854060197,-0.17504731901126913,0.4311127212223113,-0.7933480062984193,-0.9639949085984773,0.10669006622384075,-2.1667686034521414
1784373840308644096,0.22194910049438477,0.013290749862790108,-0.2308027595281601,0.044707030057907104,0.05974514037370682,0.8214865922927856,-0.5670893788337708,0.049812961369752884,-0.014357686042785645,-0.03303879499435425,0.39307767900129253,-0.17581838493442795,0.43074725864957497,-0.793117067952627,-0.9640131215869616,0.10496679474871773,-2.1663804799213118
1784373840318563072,0.23186802864074707,0.026283247396349907,-0.19497050344944,0.019749348983168602,0.05880425497889519,0.8213227987289429,-0.5674248933792114,0.033129919320344925,-0.02215898036956787,-0.031558871269226074,0.39357798196500793,-0.17648323790352252,0.43028037969261557,-0.7929747778253547,-0.9637259962248493,0.10326490901096874,-2.166136200138332
1784373840328482816,0.24178791046142578,0.02053028531372547,-0.13575272262096405,-0.009686303324997425,0.057885702699422836,0.8211734294891357,-0.5677354335784912,0.020468145608901978,-0.025580167770385742,-0.04040360450744629,0.39384641450085744,-0.17701730973495167,0.42988038311423915,-0.7929393796985814,-0.9634641952872313,0.10160781537462497,-2.166442658127005
1784373840338403072,0.2517080307006836,-0.006279556546360254,-0.026426564902067184,-0.02562016248703003,0.05728917196393013,0.8210855722427368,-0.567922830581665,0.013603176921606064,-0.019343078136444092,-0.054193198680877686,0.39383114311723433,-0.17726539020140522,0.4296691329466177,-0.7930059013126723,-0.9633102630901188,0.10053483458247567,-2.1671119029194945
1784373840348322816,0.2616279125213623,-0.09135689586400986,0.044037748128175735,-0.059154950082302094,0.057020511478185654,0.8213633894920349,-0.5675480961799622,-0.014601092785596848,-0.013761460781097412,-0.047899842262268066,0.3934703466355328,-0.17732217955503354,0.42986367955785904,-0.7930669205898958,-0.9637970962781837,0.1001321497304912,-2.1680831889934433
1784373840358242048,0.2715470790863037,-0.12621960043907166,0.04798942431807518,-0.04609111696481705,0.056820470839738846,0.8220243453979492,-0.5666105151176453,-0.025967203080654144,-0.03473186492919922,-0.018823444843292236,0.3929298244351651,-0.17741294925719944,0.4303712207871707,-0.7930393682036717,-0.9649568056666046,0.09994721371501178,-2.169172825503833
1784373840368161792,0.2814669609069824,-0.08658138662576675,0.02644524723291397,0.0009208678384311497,0.05685299634933472,0.8226244449615479,-0.5657355189323425,-0.009596522897481918,-0.006447136402130127,-0.00605696439743042,0.3925078973218196,-0.17742700809215173,0.43087340354552955,-0.7929723771036642,-0.9660114241619076,0.10015768109283027,-2.1697821556066814
1784373840378082048,0.29138708114624023,0.005866521969437599,-0.029018163681030273,0.0386555939912796,0.057035043835639954,0.8228420615196228,-0.5654007196426392,-0.0013099350035190582,-0.004772603511810303,0.00341951847076416,0.39241377353063717,-0.1773799466709763,0.4310869912548733,-0.7929134802069012,-0.9663942760982216,0.10053534547831602,-2.16969102242377
1784373840388001024,0.30130600929260254,0.14798079431056976,-0.07173047214746475,0.0749124065041542,0.05719108134508133,0.8223709464073181,-0.566070020198822,0.0013568848371505737,3.2007694244384766e-05,0.016662001609802246,0.3927296191242207,-0.17727094114484995,0.4307435634983795,-0.7929681750384402,-0.9655658218451874,0.10069015238093813,-2.1690780149718623
1784373840397920768,0.31122589111328125,0.27757787704467773,-0.06971210241317749,0.08828769624233246,0.05746688321232796,0.8210995197296143,-0.5678847432136536,-0.008211493492126465,0.010000884532928467,0.02313077449798584,0.39334156173154977,-0.17691846496815203,0.42983426749998604,-0.7932368169147329,-0.9633346577131621,0.10085131429656051,-2.1681670194511
1784373840407841024,0.32114601135253906,0.3523176312446594,-0.00028508901596069336,0.054465021938085556,0.0578693225979805,0.8191751837730408,-0.5706165432929993,-0.036964789032936096,0.02791649103164673,0.027449369430541992,0.3939469667155464,-0.17622063412926897,0.4285300719487774,-0.7937972790005223,-0.9599714234457242,0.10106987688364259,-2.167606954206777
1784373840417760768,0.3310658931732178,0.3197105824947357,0.08633589744567871,-0.04069109261035919,0.05816974118351936,0.8172461986541748,-0.573345422744751,-0.06358662247657776,0.049697160720825195,0.04954171180725098,0.3940911345394872,-0.17532620119042266,0.4273031877624447,-0.7945847627650373,-0.9566162035933268,0.10111073127338936,-2.16829926539456
1784373840427680000,0.3409850597381592,0.2647344172000885,0.14956200122833252,-0.12149032950401306,0.058162424713373184,0.8156010508537292,-0.5756839513778687,-0.07970784604549408,0.016247034072875977,0.06413310766220093,0.3937010523999877,-0.1744220452563742,0.4263038398720559,-0.7955133038346344,-0.9537671887871525,0.10069019704571233,-2.1704164696462787
1784373840437600000,0.3509049415588379,0.24731117486953735,0.23174133896827698,-0.2199787199497223,0.05786818638443947,0.8142420053482056,-0.5776341557502747,-0.07163160294294357,-0.0024133920669555664,0.03919726610183716,0.39275225776211364,-0.17348629757166198,0.4255413296715614,-0.7965944695510249,-0.9514223001088513,0.09984823012938107,-2.1739953944898724
1784373840447520000,0.3608250617980957,0.33905893564224243,0.3420470654964447,-0.3168184757232666,0.05734408274292946,0.8127443194389343,-0.5797917246818542,-0.08011020720005035,0.024902164936065674,-0.004497826099395752,0.3912430687560936,-0.172313349518669,0.4247496275347556,-0.7980130746814139,-0.9488470620117254,0.09858400627874143,-2.1792663760816704
1784373840457438976,0.370743989944458,0.5470353364944458,0.46247583627700806,-0.4221506118774414,0.05668175593018532,0.8104196190834045,-0.5831013917922974,-0.10259544849395752,0.05190032720565796,-0.017103075981140137,0.3891663268837141,-0.17057598074844074,0.42350105949929706,-0.8000626691739791,-0.9448680396347167,0.09690292059828545,-2.1865944640953416
1784373840467358976,0.3806641101837158,0.8760132193565369,0.5381777882575989,-0.4842747151851654,0.055935658514499664,0.8065625429153442,-0.5884963870048523,-0.11382749676704407,0.09947377443313599,-0.01546168327331543,0.3867689021913161,-0.16811007123301583,0.42129656853392106,-0.8029059844843356,-0.9383139951751908,0.09476373963591474,-2.195709810064492
1784373840477278976,0.39058399200439453,1.2859355211257935,0.578281044960022,-0.45575207471847534,0.05542867258191109,0.8004640340805054,-0.59681236743927,-0.08429829776287079,0.14059126377105713,0.00866234302520752,0.38443193060715775,-0.16471232202365255,0.4176884892925208,-0.8066090852810194,-0.9280689713115612,0.09260887991902648,-2.2057084122198694
1784373840487198976,0.40050411224365234,1.7735652923583984,0.6453069448471069,-0.3344075381755829,0.055955395102500916,0.7915436029434204,-0.6085456013679504,-0.04528951644897461,0.1588500738143921,0.055368781089782715,0.3826915773536801,-0.16010350759808348,0.41242460233196776,-0.8110610872640908,-0.913330799508783,0.09169155232242322,-2.214785736575734
1784373840497117952,0.41042304039001465,2.1783337593078613,0.7593610286712646,-0.2000267207622528,0.05816754698753357,0.7794824838638306,-0.6237174868583679,-0.040070608258247375,0.20385485887527466,0.0698082447052002,0.38162045473811645,-0.15396068197952725,0.40550877612254843,-0.8162257344286732,-0.8938392554113156,0.0929904771177676,-2.2223082519013113
1784373840507037952,0.42034292221069336,2.3968777656555176,0.9562954306602478,-0.20403797924518585,0.06208265572786331,0.7651309967041016,-0.6408746838569641,-0.06884229928255081,0.20363426208496094,0.11150145530700684,0.38066746921406935,-0.14640627702597633,0.3976529510641208,-0.8219061138986077,-0.8712447573733813,0.09657043526299977,-2.229142939736421
1784373840516957952,0.43026304244995117,2.4583165645599365,1.0224379301071167,-0.3116203844547272,0.06671571731567383,0.7495431900024414,-0.6585848927497864,-0.10646486282348633,0.1347951889038086,0.1957094669342041,0.3791617471838679,-0.13804521670576245,0.38942404379338214,-0.8279666958805753,-0.8473717457076458,0.1009572245228724,-2.2371503907585653
1784373840526877952,0.4401829242706299,2.6206488609313965,0.7077211141586304,-0.10083891451358795,0.07082827389240265,0.7327816486358643,-0.6767675876617432,-0.011853054165840149,0.11131924390792847,0.24187690019607544,0.3781792174462359,-0.13004793054577343,0.3803994429603577,-0.8338850499740922,-0.822400900651787,0.10427710902150084,-2.2445422768061225
1784373840536796928,0.4501020908355713,2.6402604579925537,0.4003027081489563,-0.015677716583013535,0.07428260892629623,0.7148156762123108,-0.6953564882278442,0.14848044514656067,0.02709716558456421,0.21125614643096924,0.37847822154309685,-0.1228039190309278,0.3704604671900801,-0.8393047705951552,-0.7963605160256422,0.10642304962500726,-2.2495161120607876
1784373840546716928,0.46002197265625,2.7681243419647217,0.12596860527992249,-0.02358517423272133,0.07595551759004593,0.6960029006004333,-0.7140102982521057,0.13290677964687347,0.05857473611831665,0.1892605423927307,0.3793704034640462,-0.11662872214787623,0.3597118042503292,-0.8444425432597612,-0.7698156394570769,0.10598016273221138,-2.254155706882258
1784373840556636928,0.4699420928955078,3.203742027282715,-0.05745319277048111,0.07079292833805084,0.07625360786914825,0.6746382713317871,-0.7341992855072021,0.12682560086250305,0.1291489601135254,0.10382819175720215,0.3809065775772634,-0.11081803373568995,0.3473034802626115,-0.8497116512170773,-0.7404745328726534,0.10348851229853726,-2.2585535423297296
1784373840566555904,0.4798610210418701,3.8955025672912598,-0.15636324882507324,0.2093135267496109,0.07633289694786072,0.6483214497566223,-0.7575305700302124,0.1276160478591919,0.2165619134902954,0.03948253393173218,0.3833744589855825,-0.10426625870550972,0.3322096448710054,-0.8554468839225232,-0.7053777106160097,0.1004264425502231,-2.261960638674842
1784373840576475904,0.48978090286254883,4.692229747772217,-0.16934342682361603,0.3021146357059479,0.07667085528373718,0.6152313947677612,-0.7846093773841858,0.10889127105474472,0.282595694065094,0.005098938941955566,0.386642445986731,-0.09626454302675068,0.3137330787545145,-0.8618656022595147,-0.6626794770050051,0.09740923621482206,-2.2646617382309002
1784373840586395904,0.49970102310180664,5.483489036560059,-0.15563346445560455,0.36546191573143005,0.07738504558801651,0.5744879841804504,-0.8148466944694519,0.07813253998756409,0.30786675214767456,0.021771132946014404,0.3903770572850498,-0.08652256948032899,0.2917027627321114,-0.8689240731809896,-0.6119784342899609,0.09468486540711087,-2.2671756552500564
1784373840596315904,0.5096209049224854,6.221837997436523,-0.16750246286392212,0.4047367572784424,0.0781647264957428,0.5257874727249146,-0.8470169901847839,0.0654357299208641,0.30090320110321045,0.06979531049728394,0.39435873498198337,-0.07517484114665822,0.266158299913587,-0.8763502080134078,-0.5536406170326283,0.09202172742887509,-2.269720919751735
1784373840606235136,0.5195400714874268,6.805183410644531,-0.21119321882724762,0.4557240307331085,0.07868675887584686,0.4694425165653229,-0.8794499039649963,0.06706518679857254,0.2815798223018646,0.15175825357437134,0.39871758029136123,-0.06259669148335227,0.23739566739845155,-0.8836001732471375,-0.4886592847277569,0.0892350863926937,-2.2715588520088374
1784373840616154880,0.5294599533081055,7.142858505249023,-0.22211423516273499,0.47632381319999695,0.07874412089586258,0.40689125657081604,-0.9100763201713562,0.04683569818735123,0.23336753249168396,0.2436029314994812,0.4027744280687316,-0.049093146887999796,0.2062806437176459,-0.8903993925690077,-0.4190482630690571,0.08630978516136284,-2.273611405891789
1784373840626075136,0.5393800735473633,7.184301376342773,-0.15955711901187897,0.4944216012954712,0.0788583755493164,0.34062981605529785,-0.9368845820426941,0.02336025983095169,0.16789981722831726,0.3358408808708191,0.4064142326323536,-0.03498388763260358,0.17416615958268403,-0.8962531019482777,-0.34758669817803695,0.0839729225894612,-2.275387702569669
1784373840635993856,0.5492990016937256,7.094280242919922,-0.22368139028549194,0.29043617844581604,0.07828640192747116,0.27296707034111023,-0.9588327407836914,0.02214694768190384,0.11994674801826477,0.3027048110961914,0.40916015954128665,-0.021003515018261268,0.1419242242262501,-0.9011128334073695,-0.2764758986673915,0.0814669037534682,-2.2778006257398684
1784373840645913856,0.5592188835144043,6.669410228729248,-0.12521953880786896,0.10677050054073334,0.0770065188407898,0.20653383433818817,-0.9754044413566589,-0.011637866497039795,0.10473020374774933,0.27450722455978394,0.4103964977927647,-0.007623321898177231,0.11063307613104824,-0.9051392068211664,-0.20803108651324936,0.07878488530041426,-2.2819967238171808
1784373840655833856,0.5691390037536621,6.076661109924316,-0.23783612251281738,0.12555015087127686,0.07565252482891083,0.1443670243024826,-0.9866280555725098,0.06510980427265167,0.021129801869392395,0.33739709854125977,0.4108037472441228,0.004726474067389413,0.08163116535958974,-0.9080498164087524,-0.14487326439391524,0.07652811159603898,-2.286337311902647
1784373840665753856,0.5790588855743408,5.489009857177734,-0.56205815076828,-0.00880020298063755,0.07184596359729767,0.08751697838306427,-0.9935687780380249,0.16817480325698853,-0.08332081139087677,0.3329242467880249,0.4107148136494958,0.014765086307969395,0.05475032439491561,-0.9099987911689791,-0.08762908416271935,0.0721853660410514,-2.2904984890537743
1784373840675673088,0.5889780521392822,4.917351722717285,-0.8459705114364624,-0.08673068135976791,0.06478513032197952,0.036192115396261215,-0.9972426891326904,0.19284427165985107,-0.1319562792778015,0.31442713737487793,0.40984811129944243,0.022136394730629727,0.029809835623328118,-0.9113977711131048,-0.036200022163875654,0.06487309674436773,-2.2952227157246243
1784373840685592832,0.5988979339599609,4.47602653503418,-1.0606926679611206,-0.09919027984142303,0.05529448390007019,-0.010127821005880833,-0.9984187483787537,0.1866793930530548,-0.14688512682914734,0.32103532552719116,0.4086544216951159,0.027312344481012052,0.006683869713881479,-0.9122559516967526,0.010127993972082427,0.05532553965885276,-2.299560112527298
1784373840695513088,0.6088180541992188,4.303181171417236,-1.2618050575256348,-0.1933860182762146,0.04379851743578911,-0.05336322635412216,-0.9976142048835754,0.1338443011045456,-0.10409221053123474,0.32259589433670044,0.4070121607386294,0.030885560678713793,-0.01545934079172282,-0.912769520391008,0.053388586735291906,0.04387508740072289,-2.303871019769414
1784373840705432832,0.6187379360198975,4.417298316955566,-1.314096450805664,-0.2514437437057495,0.03114757314324379,-0.09618637710809708,-0.9948758482933044,0.06637135148048401,0.0012156739830970764,0.32083410024642944,0.4047482819942233,0.03377143533157931,-0.037703475169341895,-0.913026138500585,0.09633531495279679,0.03129777558689722,-2.3085580020981444
1784373840715352064,0.6286571025848389,4.749509334564209,-1.2849791049957275,-0.2346051037311554,0.018592696636915207,-0.1412782222032547,-0.9897953271865845,0.028251785784959793,0.0853242427110672,0.3380314111709595,0.4021771261867074,0.03708409019393714,-0.061050063761702925,-0.9127711422699201,0.1417524651612629,0.018782176068531976,-2.312888557744941
1784373840725272064,0.6385769844055176,5.229577541351318,-1.2459917068481445,-0.22032895684242249,0.006528941914439201,-0.1901332587003708,-0.9817366003990173,0.01022520661354065,0.1438991278409958,0.36753982305526733,0.3993251316420962,0.04131637915957528,-0.08616649846854581,-0.9118156056142279,0.1912978737393683,0.006650302887821802,-2.316662810790819
1784373840735192064,0.6484971046447754,5.322394847869873,-1.165950894355774,-0.2480814903974533,-0.0045747519470751286,-0.24161016941070557,-0.9703626036643982,0.00936601310968399,0.12555181980133057,0.3752393126487732,0.39614415082828475,0.046463048278634955,-0.11251613147424895,-0.9100830233869847,0.24402484137828148,-0.0047144416587257525,-2.3199174612579103
1784373840745110528,0.6584155559539795,5.603869438171387,-1.0268447399139404,-0.25537556409835815,-0.01428411528468132,-0.29396283626556396,-0.9557101130485535,0.01634405180811882,0.07574689388275146,0.39137905836105347,0.3925480289957282,0.0523748819047586,-0.13929040779542745,-0.9076128835623464,0.29837024520897054,-0.014944962174793673,-2.3229242133966035
1784373840755030528,0.6683356761932373,5.406929969787598,-1.002626895904541,-0.28679656982421875,-0.022945594042539597,-0.3459680676460266,-0.9379656910896301,0.0502130463719368,0.011953175067901611,0.2934802174568176,0.38858968245028275,0.05866311595792492,-0.1660596424576978,-0.9044229248225291,0.3532703632186971,-0.02445827052073687,-2.3256132649437897
1784373840764950528,0.678255558013916,5.336432456970215,-1.0111854076385498,-0.28863149881362915,-0.03120211884379387,-0.3952975571155548,-0.9180229902267456,0.08938388526439667,-0.0522884726524353,0.3368768095970154,0.38434787142033205,0.06455998980043119,-0.19188668020200955,-0.9007154096298563,0.4063917823557655,-0.033975305109453756,-2.3279487353707427
1784373840774870528,0.6881756782531738,5.552316665649414,-1.0786608457565308,-0.3138366639614105,-0.039407696574926376,-0.44413813948631287,-0.8950912356376648,0.08663363754749298,-0.10682621598243713,0.2671310305595398,0.3796909297030817,0.07034676236685129,-0.21795805699423296,-0.8963148555568339,0.46021209357203025,-0.04399804684364738,-2.329893133604556
1784373840784789504,0.6980946063995361,6.037339210510254,-1.1670117378234863,-0.3765658140182495,-0.04770049452781677,-0.49490535259246826,-0.8676366209983826,0.07164153456687927,-0.0006848275661468506,0.22930049896240234,0.3742797405996137,0.07642594063084704,-0.2456435626294106,-0.8909168929920144,0.517725916730636,-0.05492221195074003,-2.3316089545964798
1784373840794709760,0.708014726638794,6.7468132972717285,-1.177840232849121,-0.4890287518501282,-0.05540056526660919,-0.5490118265151978,-0.8339765071868896,0.03594561666250229,0.12806761264801025,0.25968146324157715,0.3679063657190039,0.08342815856845204,-0.2757743441638125,-0.8841002360810807,0.5811814905694166,-0.06633194933296681,-2.3330705393971045
1784373840804629504,0.7179346084594727,7.4080939292907715,-1.2475759983062744,-0.6241548657417297,-0.06186754256486893,-0.6064658164978027,-0.7926989197731018,-0.020346809178590775,0.17033910751342773,0.2939043641090393,0.3602535140046063,0.09165736346527831,-0.3086251094988255,-0.8755380495649168,0.6516081280980368,-0.07788881545748776,-2.334564637591401
1784373840814549760,0.7278547286987305,7.833443641662598,-1.2708749771118164,-0.8612231016159058,-0.06678292155265808,-0.6652840375900269,-0.7435974478721619,-0.04008962959051132,0.14874351024627686,0.36859750747680664,0.3509229752617763,0.10075705512199351,-0.3435830000932298,-0.8652466847098921,0.7278741959527713,-0.08957027417183538,-2.3368480475674027
1784373840824468736,0.7377736568450928,8.00269603729248,-1.2144447565078735,-1.0860718488693237,-0.06883877515792847,-0.7222207188606262,-0.6882284879684448,-0.034585289657115936,0.0969613790512085,0.4308738112449646,0.3399449608720254,0.11062353654421318,-0.3790094920969473,-0.8535523344340695,0.8070076311807662,-0.09969157049578121,-2.3409728723336696
1784373840834388480,0.7476935386657715,7.995631694793701,-1.1553248167037964,-1.2083699703216553,-0.06805295497179031,-0.7752143144607544,-0.6280219554901123,-0.014024071395397186,0.026389241218566895,0.4323585033416748,0.32777501347259036,0.12093935928195755,-0.41395976997465633,-0.8405798615902699,0.8870542568054217,-0.10793963134295811,-2.346665754304304
1784373840844308736,0.7576136589050293,7.910076141357422,-1.130759596824646,-1.3332858085632324,-0.0647239089012146,-0.8232673406600952,-0.5639517903327942,0.008022233843803406,-0.034307122230529785,0.38066327571868896,0.3145601958373113,0.13138241184362517,-0.448065569501743,-0.8264549070922023,0.9671430764412992,-0.1142685508000536,-2.354169458079817
1784373840854227456,0.7675325870513916,7.317132949829102,-1.1832200288772583,-1.3325620889663696,-0.059665847569704056,-0.8643134236335754,-0.4994019567966461,0.04646700248122215,0.0041602253913879395,0.43385016918182373,0.30085841709941735,0.14111834901724873,-0.47998399252932195,-0.811902222016732,1.0437836827818439,-0.11891094657152804,-2.3634111870604873
1784373840864147712,0.7774527072906494,7.061048984527588,-1.151202917098999,-1.3745545148849487,-0.053187139332294464,-0.8983177542686462,-0.43611499667167664,0.055720094591379166,0.07252734899520874,0.4983861446380615,0.2870533691942147,0.1500297845344033,-0.5093462084650291,-0.7972815200293032,1.115925412216293,-0.12135738720719727,-2.374612538389388
1784373840874067456,0.7873725891113281,6.957057476043701,-1.2903647422790527,-1.4385955333709717,-0.04530610889196396,-0.9271866083145142,-0.3718497157096863,0.030215151607990265,0.012254416942596436,0.42865821719169617,0.2726174037946956,0.15842517769576955,-0.537565444830855,-0.782051460136329,1.1868312292783854,-0.12124225039814703,-2.3889171372512132
1784373840883987712,0.7972927093505859,6.557638645172119,-1.391066312789917,-1.5626338720321655,-0.03579626977443695,-0.9506414532661438,-0.3082197904586792,0.03625403717160225,-0.033641934394836426,0.4569319486618042,0.25727566888596226,0.16597349219922408,-0.5642188452601986,-0.7667588619043232,1.2552967455100312,-0.11562079526716537,-2.410198977456964
1784373840893906688,0.8072116374969482,5.933679103851318,-1.4573311805725098,-1.6321343183517456,-0.024454062804579735,-0.9683868288993835,-0.24825230240821838,0.029077500104904175,-0.1137208342552185,0.541770339012146,0.2414541334925513,0.17258229589377588,-0.5882934631291058,-0.7522142214385457,1.318680687260947,-0.09818811194150533,-2.444264669338854
1784373840903826432,0.817131519317627,5.287990570068359,-1.4632720947265625,-1.6805814504623413,-0.011693990789353848,-0.9809855222702026,-0.19372817873954773,-0.015665030106902122,-0.1421528458595276,0.5981471538543701,0.22567500264040757,0.17821773923287387,-0.6094049109182904,-0.7388740316654788,1.3754757621224938,-0.06028972372044965,-2.4991934732789844
1784373840913746688,0.8270516395568848,4.768853664398193,-1.433554768562317,-1.777392864227295,0.0028216131031513214,-0.9894620776176453,-0.14476478099822998,-0.08834711462259293,-0.17131978273391724,0.57304847240448,0.2100791661413682,0.18337053559630948,-0.6276885009171103,-0.7268075155663091,1.425493457907367,0.019488550637007804,-2.5956869010196133
1784373840923666432,0.8369715213775635,4.075098991394043,-1.3455321788787842,-1.9393515586853027,0.019403478130698204,-0.9946722984313965,-0.1012454628944397,-0.13356973230838776,-0.20367670059204102,0.4488711953163147,0.19458039391375553,0.18836674411554427,-0.6433469046030673,-0.7160734966027674,1.4675253053647028,0.18935193061594052,-2.7817780015035436
1784373840933585664,0.8468906879425049,3.7243361473083496,-1.4132745265960693,-2.0369534492492676,0.03802281245589256,-0.9972487092018127,-0.0636342391371727,-0.16587620973587036,-0.16156476736068726,0.4104970097541809,0.17916384055699344,0.19325204515057984,-0.6563813897414019,-0.7069069676847155,1.496599971355052,0.53859495027141,3.136334777969449
1784373840943505408,0.8568105697631836,4.368032932281494,-1.6466715335845947,-2.022383689880371,0.057460345327854156,-0.9980396628379822,-0.024802640080451965,-0.10192446410655975,-0.12503772974014282,0.19876813888549805,0.16295215980665123,0.19777874885456412,-0.6696881710311994,-0.6970279069515869,1.5081703907730093,1.1633083200789127,2.494393943020905
1784373840953425664,0.8667306900024414,5.0041351318359375,-1.721410870552063,-2.104116439819336,0.07779265195131302,-0.9967535734176636,0.02076007053256035,-0.045794934034347534,-0.012523889541625977,-0.015022752806544304,0.14528592741569282,0.20226061614689753,-0.6851793037047829,-0.6844794520251754,1.4901959915196932,1.8315830897487648,1.8070172284637316
1784373840963344640,0.8766496181488037,5.336647987365723,-1.7568968534469604,-2.246647834777832,0.10002928227186203,-0.9925014972686768,0.07025104016065598,-0.10405756533145905,0.08689224720001221,-0.02935754507780075,0.12652266415523242,0.20714302171448676,-0.7015819901811637,-0.6699750776276329,1.4482571942404736,2.1830674488055917,1.4358056298292572
1784373840973264640,0.8865697383880615,5.459888458251953,-1.7499604225158691,-2.372459650039673,0.12437285482883453,-0.984758734703064,0.12158061563968658,-0.19346462190151215,0.036180734634399414,-0.08199940621852875,0.10685571233368643,0.21239751520681138,-0.7181069591476682,-0.6540578226761538,1.395981279700272,2.3448422903571466,1.2539451717700034
1784373840983184640,0.8964896202087402,5.167654991149902,-1.7425965070724487,-2.466888666152954,0.15042531490325928,-0.9737342000007629,0.17092083394527435,-0.23935353755950928,-0.04082268476486206,-0.05643415451049805,0.08695995820363546,0.21787955884238563,-0.7334772753698362,-0.6379479275494347,1.3410939800067303,2.419888385235481,1.1591511146556939
1784373840993104640,0.906409740447998,5.287714958190918,-1.9147213697433472,-2.436234712600708,0.1775730848312378,-0.9597588181495667,0.21755577623844147,-0.23740284144878387,-0.09427237510681152,-0.062160298228263855,0.06671065141307567,0.22296875324018683,-0.7477050358740366,-0.6219097176225376,1.2861421890131912,2.457040201893248,1.1014169061204107
1784373841003023616,0.9163286685943604,5.890390396118164,-1.9605016708374023,-2.353466510772705,0.2047674059867859,-0.9417912364006042,0.26664578914642334,-0.1919041872024536,-0.0503658652305603,-0.16018518805503845,0.04568104763883633,0.22726156209645534,-0.7626762643004344,-0.6038133055376819,1.2279190949507495,2.486709806853576,1.0491746542846905
1784373841012943616,0.9262485504150391,6.330748558044434,-1.890159249305725,-2.387939929962158,0.23222456872463226,-0.9189037084579468,0.318884938955307,-0.21429552137851715,0.09640926122665405,-0.18198314309120178,0.02421423185117949,0.23146435582779049,-0.7783744094026095,-0.583070444378047,1.1652923109126856,2.5121644087404658,1.0007024507792444
1784373841022863616,0.9361686706542969,6.758983612060547,-1.856473445892334,-2.397468090057373,0.26018351316452026,-0.8905239701271057,0.3731914460659027,-0.2737637758255005,0.11467546224594116,-0.13889262080192566,0.0023289107498709843,0.23568592803161767,-0.7943852169672054,-0.5598204536329069,1.0984956136533552,2.532758424811142,0.9567999893538934
1784373841032783616,0.9460885524749756,6.731989860534668,-1.7975869178771973,-2.3357245922088623,0.28802525997161865,-0.8571344017982483,0.4270388185977936,-0.26365697383880615,-0.007474362850189209,-0.06326925754547119,-0.01953838645023734,0.23965415670514098,-0.8099909249147967,-0.534882106725993,1.0296803695860504,2.5482065461242995,0.9178499520093136
1784373841042702592,0.956007719039917,6.34478235244751,-1.8541830778121948,-2.1945786476135254,0.31505876779556274,-0.8210371136665344,0.4760633111000061,-0.22214797139167786,-0.13828307390213013,0.050410687923431396,-0.040754677959619456,0.24293565243564993,-0.8240230129398125,-0.5102033662344686,0.9632253407958438,2.5569667665797584,0.8854062305236017
1784373841052622592,0.9659276008605957,5.982058525085449,-1.9131265878677368,-1.9893848896026611,0.3410717844963074,-0.7837823033332825,0.5189948081970215,-0.17276731133460999,-0.22926408052444458,0.07837158441543579,-0.06134198957361283,0.24505515656243199,-0.8363285125702277,-0.48655919744380804,0.9007329658256236,2.5601881796965515,0.8573852379538659
1784373841062542592,0.9758477210998535,5.500127792358398,-1.8556017875671387,-1.841145396232605,0.36563682556152344,-0.7463704347610474,0.5560943484306335,-0.15949061512947083,-0.20919597148895264,0.02473139762878418,-0.08087268311564895,0.24631446559132605,-0.8469807255645738,-0.46412546432617896,0.8425916113780775,2.5599570336877893,0.832678583445482
1784373841072461568,0.9857666492462158,4.810244560241699,-1.8460389375686646,-1.752556324005127,0.38908851146698,-0.7104071974754333,0.5864570140838623,-0.21516883373260498,-0.09334951639175415,-0.039307355880737305,-0.09914583641564378,0.24722022273903704,-0.855634654767978,-0.4437810454369795,0.7900765812454577,2.555815986241638,0.812706977126822
1784373841082381568,0.9956865310668945,4.018328666687012,-1.784982442855835,-1.693447470664978,0.411715030670166,-0.6773294806480408,0.6096850037574768,-0.26594772934913635,-0.003121018409729004,-0.1173906922340393,-0.11615516653029088,0.24802228476285257,-0.8621643999779796,-0.4262224209856119,0.7441265047644265,2.5476428582429076,0.7979407325796167
1784373841092301568,1.0056066513061523,3.173800468444824,-1.7886449098587036,-1.5821175575256348,0.4334120750427246,-0.6483892202377319,0.6258957386016846,-0.30954116582870483,-0.015963256359100342,-0.18654948472976685,-0.131773128410345,0.24885050256115349,-0.8666148557854576,-0.41193202266939755,0.7054666991068226,2.5359403896022252,0.7882842909591152
1784373841102221568,1.015526533126831,2.4565627574920654,-1.86604905128479,-1.4011828899383545,0.45426368713378906,-0.6243239045143127,0.6355032324790955,-0.32126808166503906,-0.06709760427474976,-0.20091760158538818,-0.14624243077278049,0.24936130243009794,-0.8692356173350534,-0.4010755384811598,0.6742657068736297,2.5209964779586045,0.7825932048367813
1784373841112140544,1.0254456996917725,2.0928919315338135,-1.906365990638733,-1.2816510200500488,0.47436511516571045,-0.6038704514503479,0.6405611038208008,-0.3419034779071808,-0.08109664916992188,-0.212552011013031,-0.15996694546452944,0.24937084147722843,-0.8706863542177511,-0.39259408955618774,0.6483479991936514,2.5041694522153666,0.7787301786142262
1784373841122060544,1.0353655815124512,2.0378737449645996,-1.8455692529678345,-1.2125684022903442,0.4937501847743988,-0.58485347032547,0.6435506343841553,-0.37480786442756653,-0.025223493576049805,-0.2231404185295105,-0.1731956949796639,0.24912826025558585,-0.8716136967894301,-0.3850039153220104,0.6246994203180386,2.4871563826840655,0.7751419489875249
1784373841131980544,1.045285701751709,2.053936243057251,-1.6755305528640747,-1.1796129941940308,0.5117661952972412,-0.5658153891563416,0.6464894413948059,-0.39360207319259644,-0.011378824710845947,-0.22141003608703613,-0.1857163624383968,0.2487811910228852,-0.8725552324548781,-0.3771800404125629,0.6014217945896074,2.471989808399361,0.7704425117231126
1784373841141900544,1.0552055835723877,2.147465467453003,-1.6182187795639038,-1.1163023710250854,0.5287027359008789,-0.5464169383049011,0.6495400667190552,-0.38049405813217163,-0.04248082637786865,-0.2097511887550354,-0.1977142773760626,0.24836270290589568,-0.8735479311959818,-0.3689703747114259,0.5780799892130397,2.45839438051857,0.7646787506632314
1784373841151819520,1.06512451171875,2.266108512878418,-1.609763741493225,-1.0538424253463745,0.5448867678642273,-0.5263068079948425,0.652763307094574,-0.30317223072052,-0.06846553087234497,-0.24878674745559692,-0.2095467555487533,0.2475414693928287,-0.8747027341334649,-0.36015084520355684,0.5542513027476761,2.446025565639517,0.7570850736088642
1784373841161739520,1.0750446319580078,2.2089433670043945,-1.6701443195343018,-0.9518172144889832,0.5605619549751282,-0.5062239170074463,0.6553686261177063,-0.2507779002189636,-0.07788258790969849,-0.3100927472114563,-0.2213036406692396,0.24617419534490143,-0.8758325097979205,-0.3511986696037305,0.5308005891904894,2.4340075412998905,0.7481175288762499
1784373841171659520,1.0849645137786865,2.0348081588745117,-1.6838860511779785,-0.9117626547813416,0.5760857462882996,-0.487181693315506,0.6563376188278198,-0.24007201194763184,-0.07371613383293152,-0.3566398024559021,-0.23297910831136015,0.24446287412894463,-0.8765881047139789,-0.3428583852602848,0.5088596315580901,2.4212198257204527,0.7392065693209905
1784373841181579520,1.0948846340179443,1.9604177474975586,-1.7154974937438965,-0.926518440246582,0.5914806723594666,-0.468956857919693,0.6559191942214966,-0.26617854833602905,-0.05965334177017212,-0.39957159757614136,-0.24448322570280306,0.2427691140575202,-0.8769394163122821,-0.3350646497358449,0.48810932635290977,2.4078068806091375,0.7309571412397672
1784373841191498496,1.1048035621643066,2.0542523860931396,-1.7054425477981567,-0.9262057542800903,0.6068947911262512,-0.4505164623260498,0.6547621488571167,-0.2321237325668335,-0.07278367877006531,-0.370963990688324,-0.2560519934877303,0.24104261711006617,-0.8770858153918051,-0.3271945275010864,0.46734376169882913,2.3941163683181124,0.7225507903558611
1784373841201418752,1.1147236824035645,2.1619985103607178,-1.6657140254974365,-0.8853440880775452,0.6218590140342712,-0.43125444650650024,0.6536905765533447,-0.1377738118171692,-0.14056873321533203,-0.3116493821144104,-0.2676033564669687,0.23896402904996894,-0.8773491248026657,-0.31865855476784943,0.4458827097995522,2.381144501771539,0.7125659438943689
1784373841211338496,1.1246435642242432,2.1710364818573,-1.6391499042510986,-0.6310405135154724,0.6357808113098145,-0.4124568700790405,0.6524279117584229,-0.05544334650039673,-0.18027076125144958,-0.21352404356002808,-0.27876629827664695,0.23617473646523762,-0.8777445188172026,-0.3099603417503997,0.4251493798616668,2.369116450656559,0.7007861521099206
1784373841221258752,1.134563684463501,1.9848909378051758,-1.7349637746810913,-0.5508820414543152,0.6489047408103943,-0.3953101634979248,0.650117039680481,-0.017404615879058838,-0.2062523066997528,-0.10548520088195801,-0.2895590882281461,0.23261646849134113,-0.8780364979621625,-0.3018226369821356,0.4064054870775666,2.3571277298133664,0.6880151535506316
1784373841231177472,1.1444826126098633,1.698659896850586,-1.7974793910980225,-0.39167702198028564,0.6620407700538635,-0.38043612241744995,0.6457325220108032,0.015937745571136475,-0.17049777507781982,-0.05337101221084595,-0.30023212434185453,0.22877793151406023,-0.8777966292370311,-0.2949482150367273,0.3902678400320826,2.3437248942016407,0.676160240909592
1784373841241097728,1.154402732849121,1.3806145191192627,-1.881326675415039,-0.3261004090309143,0.674994170665741,-0.3682156503200531,0.6393747329711914,0.03751492500305176,-0.1761873960494995,-0.07907205820083618,-0.31065080055207805,0.2246723526448854,-0.87704600445685,-0.28949733235437053,0.3770891139672873,2.3291010734305058,0.6653504009083212
1784373841251017472,1.1643226146697998,1.076141119003296,-1.8891466856002808,-0.29924896359443665,0.6881013512611389,-0.3584282696247101,0.6309085488319397,-0.02345907688140869,-0.20762699842453003,-0.09578293561935425,-0.32070271670437145,0.22142779899492787,-0.8754564615911721,-0.2858241876041492,0.36658375615641936,2.3128612329489955,0.6581711893525943
1784373841260936448,1.174241542816162,0.9238876104354858,-1.7832069396972656,-0.13513994216918945,0.700275182723999,-0.3507188558578491,0.6217806339263916,-0.030978858470916748,-0.21526014804840088,-0.1193697452545166,-0.33024117798078206,0.21762082887261583,-0.8738028933594477,-0.28293198650264517,0.3583386109715107,2.296891021223052,0.6505924025248608
1784373841270856704,1.18416166305542,0.8884460926055908,-1.7143715620040894,0.06702371686697006,0.711087167263031,-0.3449057638645172,0.612695038318634,0.03529655933380127,-0.17958462238311768,-0.14031344652175903,-0.33902633060669807,0.2131916222186872,-0.8722940137780689,-0.280559590031221,0.35213837704174095,2.282004364901908,0.6421478746399925
1784373841280776448,1.1940815448760986,0.9617141485214233,-1.7761467695236206,0.1877189725637436,0.7212361097335815,-0.34028321504592896,0.603345513343811,0.07493698596954346,-0.10164183378219604,-0.09583818912506104,-0.34759974582592673,0.2079982407304802,-0.8708670930021489,-0.2783912111369365,0.34721807369040064,2.267426246363305,0.6324089282917223
1784373841290696704,1.2040016651153564,1.1045347452163696,-1.6966643333435059,0.27872398495674133,0.730817973613739,-0.33578187227249146,0.5942689180374146,0.05085921287536621,-0.05893245339393616,-0.017578303813934326,-0.35611089598534945,0.2020156098705197,-0.8696689911879429,-0.27577261941348685,0.3424351729981022,2.253507829676361,0.6206322255436686
1784373841300615424,1.2139205932617188,1.251583218574524,-1.6370805501937866,0.4325862526893616,0.7393184900283813,-0.33148473501205444,0.586111307144165,0.03100639581680298,-0.04279816150665283,0.04508388042449951,-0.36415333199074806,0.195371968445128,-0.8688414426404801,-0.2726478156418032,0.33787685417646235,2.241114648951153,0.606884130235663
1784373841310535680,1.2238407135009766,1.2868565320968628,-1.5336666107177734,0.4268985390663147,0.7470223307609558,-0.3271843194961548,0.5787122845649719,0.047441720962524414,-0.10886606574058533,0.0011064410209655762,-0.3718422015034,0.18825747617537086,-0.8682829415437716,-0.26903008610128887,0.33332235239932223,2.229913995237483,0.5916001614729481
1784373841320455424,1.2337605953216553,0.9959163665771484,-1.436951994895935,0.5089704990386963,0.7539893984794617,-0.3241412043571472,0.5713430643081665,0.005166053771972656,-0.17729312181472778,-0.04346519708633423,-0.3789150656150048,0.18134181014612538,-0.8676328107977296,-0.2659924198701783,0.33010378750637337,2.2192454491438633,0.5772448052250921
1784373841330375680,1.243680715560913,0.8115189075469971,-1.3701281547546387,0.5615768432617188,0.760085940361023,-0.32306593656539917,0.5638243556022644,0.03657543659210205,-0.20491868257522583,-0.09579145908355713,-0.385243063972601,0.17464173397146443,-0.8668404969438631,-0.2639614574496508,0.3289673535354057,2.2090224716955826,0.5643080015999842
1784373841340294656,1.2535996437072754,0.6713855266571045,-1.296802043914795,0.5495436191558838,0.7656627893447876,-0.3231799602508545,0.5561609268188477,0.08004027605056763,-0.13865777850151062,-0.12291830778121948,-0.391114367848989,0.16818823950901565,-0.8659059961403373,-0.26258141176905747,0.32908785286906284,2.199007479942435,0.5525188862793018
1784373841350214400,1.263519525527954,0.4867870807647705,-1.2604166269302368,0.5372120141983032,0.7708352208137512,-0.3242126703262329,0.5483605861663818,0.10404276847839355,-0.07831418514251709,-0.13821953535079956,-0.39660401618061913,0.1620754217521636,-0.8648189740007203,-0.26177281950777515,0.33017932898190094,2.189122411747696,0.5419824525167262
1784373841360134656,1.273439645767212,0.12895356118679047,-1.1582610607147217,0.47398242354393005,0.7756811380386353,-0.32630810141563416,0.5402241349220276,0.08407539129257202,-0.08764758706092834,-0.08262825012207031,-0.4016320125129712,0.15676664308099333,-0.8634444322247623,-0.2618773679430104,0.3323952513146536,2.1791366494193873,0.5339441330828432
1784373841370054400,1.2833595275878906,-0.09454377740621567,-1.141458511352539,0.3951656222343445,0.7804304957389832,-0.32963132858276367,0.5312920212745667,0.08385765552520752,-0.15153932571411133,-0.0027886033058166504,-0.4063320822702974,0.1523995543569604,-0.8616381975704464,-0.26315046049773916,0.33591304351975937,2.168497871046124,0.5290188752112217
1784373841379973632,1.293278694152832,-0.39284735918045044,-1.076162338256836,0.4253717064857483,0.7848308682441711,-0.3340555429458618,0.5219653844833374,0.09729516506195068,-0.18652856349945068,-0.003929436206817627,-0.410639186872789,0.14863428776242413,-0.859587420335655,-0.2653166350485686,0.34060304785987777,2.1576908859385644,0.5262352346659529
1784373841389893632,1.3031985759735107,-0.7300848364830017,-0.9446059465408325,0.2873690724372864,0.7888479232788086,-0.3397359549999237,0.5121508240699768,0.1025857925415039,-0.1950235664844513,0.04040050506591797,-0.41442851639096867,0.1458009336073613,-0.8572149647896692,-0.2686514527483979,0.34663614736477544,2.146636372671512,0.5265216378395412
1784373841399813632,1.3131186962127686,-1.268838882446289,-0.8895019888877869,0.22569505870342255,0.7926083207130432,-0.3467195928096771,0.501555323600769,0.08379548788070679,-0.24049964547157288,0.08088791370391846,-0.41760730192486906,0.14449130430143875,-0.8543418069725124,-0.27354439750415827,0.35407146956711005,2.134978465512531,0.5314632449494749
1784373841409733632,1.3230385780334473,-1.9614579677581787,-0.6837531328201294,0.20881721377372742,0.7957159876823425,-0.35632944107055664,0.48976022005081177,0.15205299854278564,-0.30700063705444336,0.12425333261489868,-0.41983756807088296,0.14473062139449153,-0.8508426146651243,-0.2808134693660647,0.3643365042353585,2.122532275212789,0.5421098153941284
1784373841419652608,1.3329577445983887,-2.862070083618164,-0.4654996395111084,0.11414901912212372,0.7979368567466736,-0.3690936267375946,0.4765150249004364,0.17288827896118164,-0.358384370803833,0.20195171236991882,-0.4206895259480481,0.14716350362777597,-0.8465225430141112,-0.2911404603332672,0.3780336099301193,2.1091425870965654,0.5605507707515104
1784373841429572608,1.3428776264190674,-4.043272018432617,-0.1710290163755417,0.06448759883642197,0.7991425395011902,-0.38578835129737854,0.46101880073547363,0.18161600828170776,-0.4035335183143616,0.2778880000114441,-0.4197845278251604,0.15234890406055288,-0.8410108313188754,-0.3054037755277046,0.39606215912197107,2.094051220814854,0.5891785674903168
1784373841439492608,1.3527977466583252,-5.093311786651611,0.04137192294001579,0.03830445557832718,0.7991750240325928,-0.4067728817462921,0.4425555169582367,0.17468678951263428,-0.42924097180366516,0.3717603087425232,-0.4167037653476961,0.16065727321410128,-0.8339466445315857,-0.32416094002243334,0.41891868169748014,2.07652588615663,0.6298866478760091
1784373841449411584,1.3627166748046875,-4.974295616149902,0.027573630213737488,0.23433688282966614,0.798528790473938,-0.429514080286026,0.42174556851387024,0.20711690187454224,-0.4369867444038391,0.3804546296596527,-0.41266381594194945,0.16952475730623207,-0.825914126377196,-0.3447256310285826,0.4439546157470227,2.0567120351222083,0.6753085422872372
1784373841459331584,1.3726365566253662,-4.547931671142578,-0.010824625380337238,0.5177297592163086,0.7968494892120361,-0.4519900381565094,0.40091854333877563,0.3141428232192993,-0.3378658592700958,0.24863272905349731,-0.40838634570534155,0.17653170301876775,-0.8181050191411036,-0.3643641779281872,0.46899502313342073,2.0369444410668613,0.7174074577252957
1784373841469251584,1.382556676864624,-4.088087558746338,0.07525448501110077,0.6431747674942017,0.794097363948822,-0.47328412532806396,0.3813280761241913,0.26786839962005615,-0.21330028772354126,0.18245357275009155,-0.40390458387289235,0.1817880089465515,-0.810935977721858,-0.3823570309010122,0.493015166314712,2.01848142308812,0.755048169257166
1784373841479171584,1.3924765586853027,-3.3898656368255615,0.30027079582214355,0.8619018197059631,0.7897643446922302,-0.4930369555950165,0.3649481534957886,0.16003435850143433,-0.2646687924861908,0.1408044397830963,-0.39884506258043534,0.18537875207294396,-0.8050520480198431,-0.39805609663291436,0.515577029631377,2.0036649014608523,0.7867248955146317
1784373841489090560,1.4023957252502441,-2.9213857650756836,0.3993358314037323,1.0624911785125732,0.7837563157081604,-0.5115595459938049,0.3521825075149536,0.15822958946228027,-0.3434818983078003,0.1541803777217865,-0.39316877720063553,0.1873698718629954,-0.80061463034929,-0.41149354404748006,0.5369988136709302,1.9931112804633175,0.8121169712282739
1784373841499010560,1.4123156070709229,-2.724777936935425,0.5051664113998413,1.1785997152328491,0.7762883901596069,-0.5300166606903076,0.3412611484527588,0.22320818901062012,-0.3815433979034424,0.18840232491493225,-0.386980190733366,0.1880770872059191,-0.7970304805091719,-0.4238112005414067,0.5586202299833465,1.9849732013851922,0.8336119501919951
1784373841508930560,1.4222357273101807,-2.7814323902130127,0.5935649275779724,1.1914297342300415,0.768080472946167,-0.5483929514884949,0.3306325376033783,0.19204843044281006,-0.4657062292098999,0.24283865094184875,-0.38036488465655993,0.1885581438170014,-0.7935755124351942,-0.43589721962806127,0.5804411938535812,1.977287614723801,0.8547855716949638
1784373841518850560,1.4321556091308594,-2.882869243621826,0.579239547252655,1.2453086376190186,0.7594766616821289,-0.5668153166770935,0.31924256682395935,0.19863808155059814,-0.5499907732009888,0.35199156403541565,-0.3727526252777067,0.19034985901331708,-0.7895493733393769,-0.448814325704528,0.6026350605327911,1.968717923535024,0.8803912675281061
1784373841528769536,1.4420745372772217,-2.933332681655884,0.525840163230896,1.4330583810806274,0.7502174973487854,-0.5857771039009094,0.3066577911376953,0.2462729811668396,-0.5494462847709656,0.4102764129638672,-0.364853714653496,0.19177535117931482,-0.7852076874387599,-0.4621178712071452,0.6258385637716164,1.9588302675064335,0.9070041999486119
1784373841538689536,1.4519946575164795,-2.8286542892456055,0.5123171210289001,1.5435212850570679,0.7398506999015808,-0.6054494380950928,0.29334574937820435,0.30398768186569214,-0.36626070737838745,0.40329429507255554,-0.3566636191183869,0.19227388406822535,-0.7808352082929481,-0.47551878232971695,0.6503304218648254,1.9482759062055823,0.9331015458997536
1784373841548609536,1.4619145393371582,-2.809417724609375,0.6411235928535461,1.704017162322998,0.7283977270126343,-0.6251919269561768,0.28030723333358765,0.3659932017326355,-0.22286111116409302,0.3385588228702545,-0.34794342839673775,0.1923075546658777,-0.77664111588143,-0.4886531382131672,0.6753774337050721,1.938154643016488,0.9586604678286783
1784373841558529536,1.471834659576416,-2.778273344039917,0.7835180163383484,1.8669216632843018,0.7150999307632446,-0.6457110643386841,0.2677490711212158,0.37271445989608765,-0.2277325987815857,0.35639646649360657,-0.3381073437282754,0.1919035312181911,-0.7726885350954819,-0.5018057187390287,0.701954140094205,1.9290600810045937,0.9841009961602964
1784373841568448512,1.4817535877227783,-2.750088691711426,0.6838116645812988,1.9837844371795654,0.7007321119308472,-0.6663089394569397,0.2549649477005005,0.3792087435722351,-0.3468441367149353,0.3666476011276245,-0.32786501379385713,0.19097032042742473,-0.76877357874874,-0.5148030024789114,0.7292477912002263,1.919760514694818,1.009333629385637
1784373841578368768,1.4916737079620361,-2.8124852180480957,0.6643481850624084,2.1560356616973877,0.6851829290390015,-0.6874410510063171,0.24072608351707458,0.46915966272354126,-0.4391610622406006,0.4007076025009155,-0.317466375967177,0.1891034295833438,-0.7645933145786686,-0.5280643833071712,0.7579595678769961,1.9086565179121266,1.0349817868026
1784373841588288512,1.5015935897827148,-3.173232316970825,0.5015593767166138,2.2933642864227295,0.6684348583221436,-0.7092432975769043,0.2239837497472763,0.5143501162528992,-0.5128330588340759,0.5076600313186646,-0.30649311860627204,0.18698343748098215,-0.7596242929143507,-0.542282256067362,0.7884242076808424,1.8941242425225049,1.0643895697218346
1784373841598208768,1.5115137100219727,-3.0217044353485107,0.5212383270263672,2.399385690689087,0.6506376266479492,-0.7312107682228088,0.2049434930086136,0.5440645813941956,-0.43503379821777344,0.5515109300613403,-0.2953773613153461,0.18418874886196426,-0.7540200618756896,-0.557028386459104,0.8200952142646368,1.8759468641422306,1.0964332773237009
1784373841608127488,1.521432638168335,-2.9192183017730713,0.5047710537910461,2.609308958053589,0.6312415599822998,-0.7527742385864258,0.18672257661819458,0.5028679966926575,-0.315585196018219,0.5664970874786377,-0.28370794278033484,0.18066448415492614,-0.7488134825038988,-0.5710942576239145,0.8522664020537527,1.8583973931415834,1.127374327234181
1784373841618047488,1.5313525199890137,-2.7372779846191406,0.2540557384490967,2.968489408493042,0.6094560027122498,-0.7749313116073608,0.16746528446674347,0.502100944519043,-0.2108778953552246,0.6994627714157104,-0.27176847481886957,0.17539907589144496,-0.7436180525592649,-0.5851573745663015,0.8866063866402432,1.8389564140906998,1.1578395181621797
1784373841627967488,1.5412726402282715,-2.390249490737915,0.24956728518009186,3.217696189880371,0.584854781627655,-0.7973247766494751,0.14905837178230286,0.5576013326644897,-0.23395586013793945,0.670353889465332,-0.25957429527371817,0.1680687808444276,-0.7391089713982854,-0.598407985355699,0.9228496294668744,1.8203475176648583,1.1846294469251106
1784373841637887488,1.5511925220489502,-2.2226555347442627,0.22133564949035645,3.3708608150482178,0.5580713152885437,-0.8192651867866516,0.13176114857196808,0.5559423565864563,-0.2768194079399109,0.5489792823791504,-0.24700760483532377,0.15954016382493927,-0.7351377499619056,-0.6108246016184654,0.9601283607845901,1.8026513226162384,1.2091537973953033
1784373841647806720,1.5611116886138916,-2.3162307739257812,0.404518187046051,3.4126412868499756,0.5297644138336182,-0.840264618396759,0.11534745246171951,0.5490166544914246,-0.2762666940689087,0.44591665267944336,-0.23367861867940998,0.15092664634978786,-0.7313650757625092,-0.6226720991459994,0.9977710588103099,1.785183740007853,1.2343306470396274
1784373841657726464,1.5710315704345703,-2.871269702911377,0.4271574318408966,3.270289421081543,0.5010432600975037,-0.860116183757782,0.09568459540605545,0.536218523979187,-0.24710720777511597,0.4319949150085449,-0.21978507193567343,0.1430575408562014,-0.7262071599525121,-0.6354935837766487,1.0354973446681712,1.7594950072449438,1.2695225240574204
1784373841667646720,1.5809516906738281,-3.5917704105377197,0.5174528956413269,3.140174150466919,0.4730623960494995,-0.8782356977462769,0.07009998708963394,0.537450909614563,-0.28190523386001587,0.35076797008514404,-0.20581296563041684,0.13632796816904996,-0.7186547714174933,-0.6500700012127244,1.0721603427838362,1.717909173129774,1.322238020798668
1784373841677566464,1.5908715724945068,-4.637996196746826,0.7424436211585999,2.768446683883667,0.44669339060783386,-0.8939288854598999,0.03682975098490715,0.5147477388381958,-0.34595465660095215,0.3441363573074341,-0.19109715573089145,0.13203982939067846,-0.707799660260845,-0.6671335096088032,1.1060356795158657,1.653059988652092,1.402680218924371
1784373841687485696,1.6007907390594482,-5.5612053871154785,0.45895054936408997,2.7246077060699463,0.4224506616592407,-0.9063654541969299,-0.006097220815718174,0.4995921850204468,-0.34630483388900757,0.5068448781967163,-0.17662703553609913,0.12931039702003364,-0.6929864434946171,-0.6869144980678074,1.1346004660716507,1.5563643515698855,1.5166755281196582
1784373841697405696,1.610710620880127,-6.707679748535156,0.33141735196113586,2.7967312335968018,0.3972753584384918,-0.9157403707504272,-0.05993332341313362,0.5845667123794556,-0.22265684604644775,0.6128966212272644,-0.1618260218216883,0.12622026957359472,-0.6738707451595972,-0.709773966363182,1.1573468486500171,1.4210645164584512,1.6690732882033779
1784373841707325696,1.6206307411193848,-7.796380519866943,0.3532412052154541,2.5060789585113525,0.3736439347267151,-0.9191487431526184,-0.12472246587276459,0.5118387937545776,-0.15029388666152954,0.713040292263031,-0.1466765831348181,0.12444741498881746,-0.6497319508620705,-0.735423128636095,1.1659140220403317,1.2486255450609904,1.8608734072870161
1784373841717245696,1.6305506229400635,-8.448568344116211,0.363298624753952,2.573392629623413,0.3511532247066498,-0.915220320224762,-0.1976439654827118,0.4844028055667877,-0.20512574911117554,0.7195860743522644,-0.13117114787142695,0.12336900470274977,-0.6212552660014891,-0.762637598121672,1.1560543933330125,1.0581466993872093,2.072170396897772
1784373841727164416,1.6404695510864258,-8.93770694732666,0.4559255838394165,2.5747389793395996,0.32879340648651123,-0.9034839868545532,-0.27497538924217224,0.4373045861721039,-0.1536296010017395,0.7097593545913696,-0.11474470495060067,0.12245164855239353,-0.5895064936552388,-0.7901400419599331,1.1278295468433757,0.8743000189293604,2.278464669449364
1784373841737084672,1.6503896713256836,-8.997842788696289,0.7583757042884827,2.6030402183532715,0.3076680600643158,-0.8836571574211121,-0.35283201932907104,0.3444620668888092,-0.09403443336486816,0.7316314578056335,-0.09726150082949711,0.12220190377152447,-0.5555633923103966,-0.8166739200441407,1.0836177627178123,0.7171260212252372,2.460812833956374
1784373841747006208,1.660311222076416,-8.519343376159668,1.0089614391326904,2.363983392715454,0.2897140085697174,-0.8569303750991821,-0.4263053834438324,0.26854407787323,-0.09648454189300537,0.71829754114151,-0.07920328917663703,0.12319143416514464,-0.5212208571318275,-0.8407613350602531,1.0292843776652592,0.5968980576588903,2.6092666500514863
1784373841756926208,1.6702313423156738,-6.651020526885986,0.5406583547592163,2.540722370147705,0.27318793535232544,-0.8289089798927307,-0.4881376624107361,0.28804561495780945,-0.1289157271385193,0.6625761389732361,-0.06233278931827227,0.12321847221529679,-0.49066116830568207,-0.8603392210301761,0.9771544816953472,0.5102244756604132,2.721441651236135
1784373841766845184,1.6801502704620361,-4.557953357696533,0.13021570444107056,2.7003087997436523,0.2533498704433441,-0.8075428009033203,-0.5326240062713623,0.4131845235824585,0.08317762613296509,0.5321205258369446,-0.04676603657443393,0.11985867922118594,-0.4683181444752324,-0.8741423486401066,0.9399740831604141,0.44398963583798223,2.8063890182462137
1784373841776765184,1.6900701522827148,-2.4047255516052246,-0.13144946098327637,2.62195086479187,0.2320367693901062,-0.7950709462165833,-0.5603758096694946,0.2719152271747589,0.3216670751571655,0.5415770411491394,-0.03318107111236892,0.11434940418315213,-0.4546826608907353,-0.8826589358675548,0.9191245596392582,0.39257952556980974,2.8702518686795084
1784373841786685184,1.6999902725219727,-0.6872861385345459,-0.10632771253585815,2.4301297664642334,0.21147970855236053,-0.792274534702301,-0.5723437070846558,0.10915321111679077,0.3654099106788635,0.46977412700653076,-0.02150538613635148,0.10838468477550135,-0.44953410211404266,-0.8864024227616941,0.9145277509069997,0.3539380647227198,2.917536597794471
1784373841796605184,1.7099101543426514,0.21617209911346436,-0.1522270292043686,2.192056894302368,0.1925715059041977,-0.7957039475440979,-0.5742573142051697,-0.05791269242763519,0.3370094895362854,0.4109577536582947,-0.011505158051788776,0.10270296507417041,-0.4498037834430146,-0.88712813044663,0.9201689322674319,0.323555556849153,2.9542546013522792
1784373841806524160,1.7198293209075928,0.958625316619873,-0.21408796310424805,2.0029942989349365,0.17496027052402496,-0.8029213547706604,-0.569830060005188,-0.13099968433380127,0.2598305344581604,0.2855130434036255,-0.0030008203066323133,0.09720573270062431,-0.4534710644526049,-0.8859492744785504,0.9321800236544325,0.2979023528059027,2.9841243037697307
1784373841816444160,1.7297492027282715,1.401984691619873,-0.38042792677879333,1.8662724494934082,0.15782901644706726,-0.8128264546394348,-0.5607166886329651,-0.13121767342090607,0.2570860981941223,0.1428852677345276,0.004250011724401518,0.09154494793703691,-0.4596315769855411,-0.8833687524063437,0.9489880937065018,0.2743780749212548,3.0096315618279466
1784373841826364160,1.7396693229675293,1.5466989278793335,-0.4798978865146637,1.7563824653625488,0.14069527387619019,-0.8237574696540833,-0.5492072105407715,-0.159616157412529,0.28217726945877075,-0.016466617584228516,0.010499718804018307,0.08550729402726168,-0.4669956151963337,-0.8800530714546236,0.9680070392080546,0.25078554416795384,3.033110751202419
1784373841836284160,1.749589204788208,1.3917607069015503,-0.43119293451309204,1.6428537368774414,0.12420861423015594,-0.8340041637420654,-0.537595808506012,-0.26809900999069214,0.2974136471748352,-0.19444459676742554,0.01624519227531727,0.07962910621941477,-0.47419543700286537,-0.8766606578502277,0.9863254447709393,0.2270603028187489,3.056240673206888
1784373841846203392,1.7595083713531494,1.1001336574554443,-0.3657710552215576,1.4444282054901123,0.10917726159095764,-0.8424667119979858,-0.5275702476501465,-0.36947691440582275,0.2730085849761963,-0.2833276391029358,0.021562086875225053,0.07433473665504516,-0.48030119298380614,-0.8736820553802854,1.0018455220832643,0.20406305607207978,3.0789449435448537
1784373841856123136,1.7694282531738281,0.6353334188461304,-0.3456950783729553,1.2416245937347412,0.09600996226072311,-0.8483754396438599,-0.5206162333488464,-0.3997361361980438,0.28241169452667236,-0.25877219438552856,0.026223310355427087,0.06965981478643371,-0.48460229461941534,-0.8715621213370918,1.0129089763487436,0.18236701902203695,3.1003941477593155
1784373841866043136,1.7793481349945068,0.3292146623134613,-0.4115833640098572,1.0507341623306274,0.08453375101089478,-0.8517457842826843,-0.5170912146568298,-0.4055633842945099,0.3391725420951843,-0.18020498752593994,0.030126730952516705,0.06541499284886342,-0.48700644949446154,-0.8704241050617272,1.019308261439378,0.16204594162543057,3.1200834869932015
1784373841875963136,1.7892682552337646,0.52839195728302,-0.5952333211898804,0.9148609638214111,0.07359683513641357,-0.8546338081359863,-0.5139889121055603,-0.4085119962692261,0.41386842727661133,-0.1520724892616272,0.032995515678687644,0.060889648474889535,-0.4891809409639952,-0.8694284604359401,1.024845224516537,0.14222087354299304,3.137360173336516
1784373841885882112,1.799187183380127,0.56572425365448,-0.6406643986701965,0.6246265769004822,0.06379252672195435,-0.8580754399299622,-0.5095458030700684,-0.49329692125320435,0.5975927114486694,-0.14633792638778687,0.03470671953626187,0.05641313172394858,-0.4919803353319019,-0.8680831015057575,1.0315101406863376,0.12454686856353289,-3.1323459504878857
1784373841895802368,1.8091073036193848,0.22487589716911316,-0.4898514449596405,0.16472208499908447,0.05741778016090393,-0.8603902459144592,-0.5063909292221069,-0.6982869505882263,0.770088791847229,-0.1701074242591858,0.03490101935635628,0.05298708481034786,-0.4939604247131175,-0.8671662714631084,1.036034913422093,0.11290407236760981,-3.1255355360515136
1784373841905722112,1.8190271854400635,-0.1076793521642685,-0.3367951214313507,-0.31969621777534485,0.055950190871953964,-0.8605784177780151,-0.506235659122467,-0.9026603698730469,0.8596932888031006,-0.17693090438842773,0.03358631199187577,0.051401097227178234,-0.4942065388835365,-0.8671735175847612,1.036404205943046,0.11007528460427135,-3.1269749422274464
1784373841915642368,1.8289473056793213,-0.3017047345638275,-0.2743690311908722,-0.8892779350280762,0.05944150686264038,-0.8592423796653748,-0.5081035494804382,-1.0149774551391602,0.871403694152832,-0.018568813800811768,0.030280201719458142,0.05145758324953494,-0.4932548585296524,-0.8678334234705325,1.033786884595852,0.11645764925129114,-3.13808786461619
1784373841925561088,1.8388662338256836,-0.5630910396575928,-0.15063677728176117,-1.2751586437225342,0.06787931174039841,-0.8563910126686096,-0.5118464827537537,-1.004830002784729,0.9093084931373596,0.2936457395553589,0.025172609786775817,0.05327905141660721,-0.4911599673270591,-0.8690739429058081,1.028238883735656,0.13184720843713485,3.1249680347516198
1784373841935481344,1.8487863540649414,-0.6312224268913269,-0.04317023605108261,-1.2162883281707764,0.0781429186463356,-0.8524156212806702,-0.5169926285743713,-0.9237392544746399,0.9222856163978577,0.42527198791503906,0.019663214923879093,0.05589999136071991,-0.48824060492304705,-0.8706949573917393,1.0205879974834118,0.15001348546505827,3.102674185134767
1784373841945401088,1.8587062358856201,-0.6330991983413696,0.05990246683359146,-1.074194312095642,0.08757597953081131,-0.8482823371887207,-0.5222522616386414,-0.7663326859474182,0.7263493537902832,0.29036450386047363,0.01478957114343885,0.058425445546882386,-0.4852425394975048,-0.8723000555451973,1.01273320269138,0.16614324537237876,3.0832090423498504
1784373841955321344,1.868626356124878,-1.3533849716186523,0.1517048180103302,-0.7286797761917114,0.09583425521850586,-0.842435896396637,-0.5302053689956665,-0.7096342444419861,0.4740886092185974,0.12386375665664673,0.01148741562962602,0.06110064767912062,-0.4807952029402952,-0.8746261393106508,1.0017883370754597,0.17881864525209162,3.0697796102632604
1784373841965240320,1.8785452842712402,-2.017805576324463,0.13704396784305573,-0.878603458404541,0.10318108648061752,-0.8323734402656555,-0.544525682926178,-0.8173839449882507,0.303946316242218,0.005844593048095703,0.00883637222752483,0.06346579397326751,-0.4729791351422196,-0.8787404784564616,0.9833765331705235,0.18726775070704377,3.0612011446054073
1784373841975160064,1.888465166091919,-2.531768321990967,0.4459885060787201,-0.8173568844795227,0.11220487207174301,-0.8195293545722961,-0.5619445443153381,-0.9825661778450012,0.10685235261917114,-0.2390807867050171,0.006640592344719145,0.0669663741146945,-0.46318810302551283,-0.8837014261083855,0.9605892403454048,0.197080629910751,3.053702607738737
1784373841985080320,1.8983852863311768,-3.441978931427002,0.11801180243492126,-1.1317461729049683,0.12180332839488983,-0.8014597296714783,-0.585513710975647,-1.0679092407226562,0.11568397283554077,-0.17011678218841553,0.004127523705481574,0.07048615799740146,-0.44974976535700373,-0.8903594288775677,0.9297321043854399,0.20510287184032885,3.047729609350298
1784373841995000064,1.9083051681518555,-3.193805456161499,0.23934142291545868,-1.2233754396438599,0.13197824358940125,-0.779324471950531,-0.6125643849372864,-0.8865253329277039,0.3285645842552185,-0.08947718143463135,0.00045083539001505044,0.07370796261764401,-0.43391811553055365,-0.8979321216682865,0.8935870702611063,0.21220817403756215,3.040631718794392
1784373842004919296,1.9182243347167969,-2.8043830394744873,-0.14500738680362701,-1.722037434577942,0.14244821667671204,-0.7594832181930542,-0.6347391605377197,-0.8499677181243896,0.4333571195602417,-0.21329855918884277,-0.005411413904566396,0.0762648265023767,-0.42049268791234423,-0.9040687967745945,0.8625183681938698,0.22076241069715583,3.0277123805347492
1784373842014839296,1.9281442165374756,-2.937756299972534,0.17783670127391815,-1.5419083833694458,0.15463992953300476,-0.737917423248291,-0.6569355130195618,-0.9302594661712646,0.5963616371154785,0.14794814586639404,-0.011627053574570381,0.07976308672197074,-0.40641122484918507,-0.9101277218417709,0.8299793355865069,0.2311870964705559,3.013821046668472
1784373842024759296,1.9380643367767334,-2.214243173599243,0.2602789103984833,-1.453397512435913,0.16698254644870758,-0.7188491821289062,-0.6748130917549133,-0.8422907590866089,0.35010528564453125,-0.06023329496383667,-0.017059003252193415,0.08389962938112644,-0.39440375168474895,-0.9149401554328815,0.8021454261995159,0.24257730584855539,3.001024669593454
1784373842034678272,1.9479832649230957,-1.3445518016815186,0.24683690071105957,-1.2922935485839844,0.17918185889720917,-0.7046487927436829,-0.6865594387054443,-0.7727945446968079,0.22320353984832764,-0.3367559313774109,-0.021361128517512977,0.08861031491391165,-0.38583480474959736,-0.9180540702620309,0.7819280573669716,0.2552906596742854,2.989362309648205
1784373842044598016,1.9579031467437744,-0.4571060538291931,0.03134961426258087,-1.3129898309707642,0.18852563202381134,-0.6959279179573059,-0.6929231882095337,-0.5095857977867126,0.1666310429573059,-0.4066861867904663,-0.026554090292987793,0.09149729392750246,-0.3810074289427178,-0.919650260974871,0.7697112433274087,0.26564289935269103,2.975729070446372
1784373842054518272,1.9678232669830322,-0.23982353508472443,-0.5216531157493591,-0.9032155871391296,0.19414757192134857,-0.6913250088691711,-0.6959715485572815,-0.18955467641353607,0.18929558992385864,-0.5391968488693237,-0.031550750797152284,0.09249342731399726,-0.3787600650668159,-0.9203207663465123,0.7633212913689761,0.2720431804782518,2.9633050285320652
1784373842064438016,1.977743148803711,-0.7256560325622559,0.2196209877729416,-1.408644437789917,0.20143507421016693,-0.6861575841903687,-0.6990076303482056,-0.24368666112422943,-0.030181527137756348,-0.16814935207366943,-0.03685733124313348,0.09430287607039692,-0.37630193896119923,-0.9209480786514955,0.7561937999731838,0.28057126172543606,2.9495286840319266
1784373842074358272,1.9876632690429688,-1.3002958297729492,0.6297227740287781,-0.6924746036529541,0.2112424522638321,-0.6773730516433716,-0.7046577334403992,0.0923464298248291,-0.3573406934738159,-0.02190476655960083,-0.040756722211395084,0.09809880757391963,-0.3715478001093079,-0.9223165981344386,0.7441857417548282,0.29125516732884904,2.938916562379124
1784373842084277248,1.997582197189331,-1.9817272424697876,0.7134129405021667,-1.5882689952850342,0.2229662537574768,-0.6634835004806519,-0.7141959071159363,0.5564984679222107,-0.23461830615997314,-0.045112013816833496,-0.043852368198524276,0.10331037118199914,-0.3636330956966234,-0.924756697924259,0.7254650662990912,0.30260427237095017,2.9312211283590206
1784373842094197248,2.007502317428589,-1.890438437461853,0.13472428917884827,-1.5835011005401611,0.23643268644809723,-0.6464696526527405,-0.7253803014755249,0.8312095403671265,-0.06675666570663452,-0.022788643836975098,-0.0495349673750674,0.10853603554052758,-0.35430181349913686,-0.9274893599691783,0.7029480355573462,0.3150846486996229,2.9185034630166067
1784373842104117248,2.0174221992492676,-2.2815213203430176,-0.18637771904468536,-1.3782614469528198,0.24542507529258728,-0.6274527907371521,-0.7389651536941528,0.8848544359207153,-0.1230660080909729,0.12208282947540283,-0.05615406026868291,0.1111004578193373,-0.3437646153113261,-0.930768088330334,0.6782775785878411,0.3206581231049742,2.907103156655282
1784373842114036224,2.027341365814209,-1.3665069341659546,-0.4650575518608093,-0.20938533544540405,0.24762175977230072,-0.6119747757911682,-0.7511127591133118,0.8214089870452881,-0.1329135298728943,0.10932803153991699,-0.05916830023532929,0.11137454628276419,-0.3347227864783864,-0.9338390834417855,0.6585551031555869,0.3184528574117024,2.905401110342056
1784373842123956224,2.0372612476348877,-0.25749874114990234,-0.6152219772338867,-0.24720582365989685,0.24552534520626068,-0.6053355932235718,-0.7571566104888916,0.5551490783691406,-0.07766306400299072,0.0314333438873291,-0.0599945978993961,0.11003476420478797,-0.3306267655490648,-0.9354030409793473,0.6501873997089882,0.3135741026166013,2.9070278959842444
1784373842133876224,2.0471813678741455,0.7664640545845032,-0.2425575703382492,-0.5079823136329651,0.24401001632213593,-0.6066282391548157,-0.7566117644309998,-0.05588439106941223,0.3966215252876282,-0.18220049142837524,-0.06291955072993452,0.10816078188036915,-0.3316554941868152,-0.9350653061557573,0.6518124044634797,0.3119723402622896,2.90102051603745
1784373842143796224,2.057101249694824,0.6562937498092651,0.09034974128007889,-0.36478790640830994,0.2467452734708786,-0.6111958026885986,-0.7520349025726318,-0.1266738623380661,0.08853650093078613,0.08171629905700684,-0.06562526613558453,0.10859655760275432,-0.33494678283923074,-0.9336544996657907,0.6575705348975311,0.3170363385368819,2.892276331848135
1784373842153716224,2.067021369934082,0.7644545435905457,0.1572645902633667,-0.5706358551979065,0.2494427114725113,-0.6155924201011658,-0.7475455403327942,0.06507143378257751,-0.09555864334106445,0.1586783528327942,-0.06783321785773702,0.10917955369501389,-0.33809328288665796,-0.9322935941053189,0.6631374644501506,0.3220645928522625,2.8845975551475314
1784373842163635200,2.0769402980804443,0.22801676392555237,-0.22538718581199646,-0.14484645426273346,0.2523179352283478,-0.618629515171051,-0.7440652847290039,0.19413894414901733,-0.051734864711761475,0.2188882827758789,-0.07026699956179379,0.10979179154145847,-0.34046016727168016,-0.9311794256936545,0.6669971940245271,0.32693806490712235,2.876798048040761
1784373842173555200,2.086860179901123,-0.5831184387207031,-0.20698127150535583,-0.9665786623954773,0.2530241906642914,-0.6168791055679321,-0.7452777028083801,0.13624274730682373,-0.05606400966644287,0.21753722429275513,-0.07215242683290868,0.10952268422730824,-0.3396556012053358,-0.9313607086275547,0.6647712481761994,0.32729315999863584,2.8730862159396646
1784373842183475200,2.096780300140381,-0.3937377333641052,-0.1858317106962204,-0.3983360528945923,0.2560279965400696,-0.6108253598213196,-0.7492276430130005,-0.03167802095413208,-0.09861677885055542,0.164678692817688,-0.0757074810565597,0.10999684498039758,-0.33658116700761964,-0.9321384769148824,0.6571025829235355,0.3292817923847518,2.8663511614666874
1784373842193394176,2.106699228286743,-0.6279664635658264,0.09783542901277542,-0.5812126398086548,0.25779274106025696,-0.6064356565475464,-0.7521826028823853,0.21875450015068054,-0.10943043231964111,0.06613218784332275,-0.07748486086028604,0.11041974619683183,-0.3342396840445235,-0.9327847457761161,0.6515701624313577,0.330180236930886,2.8633884583854563
1784373842203314432,2.116619348526001,-1.0438274145126343,-0.01667041704058647,-0.6440311670303345,0.2607322037220001,-0.5978184938430786,-0.7580446600914001,0.0905098021030426,-0.014318346977233887,0.23227262496948242,-0.07962900971114976,0.11146795068684995,-0.329473149029115,-0.9341741974677634,0.6407769684094086,0.3312781627646272,2.8606958642500304
1784373842213234176,2.1265392303466797,-0.41412484645843506,0.11373605579137802,-0.16655437648296356,0.26317641139030457,-0.5913085341453552,-0.7622941732406616,0.19339707493782043,-0.027587950229644775,0.05373704433441162,-0.08097435515021115,0.11249002038590868,-0.32588176020471155,-0.9351952733867791,0.6326804917787159,0.3324303164673962,2.859134055701942
1784373842223154432,2.1364593505859375,-0.485283762216568,-0.15018384158611298,-0.39641690254211426,0.2654570937156677,-0.5869625806808472,-0.764857828617096,0.2688446640968323,-0.08469879627227783,-0.03398555517196655,-0.08244340920652259,0.11332971859902383,-0.32361622045046895,-0.9357521541942433,0.6273020197470138,0.3340597399325173,2.856573629233125
1784373842233074176,2.146379232406616,-0.4868323802947998,-0.3596454858779907,-0.030683929100632668,0.26459431648254395,-0.5835076570510864,-0.767794668674469,0.41970133781433105,0.011760830879211426,-0.008847177028656006,-0.08346795695514504,0.11261149803254117,-0.32159184928501683,-0.9364455891984965,0.6230411966880827,0.33187033552591094,2.85604571891811
1784373842242993152,2.1562981605529785,-0.8587343096733093,-0.1454576551914215,-0.507737398147583,0.263980507850647,-0.5774416923522949,-0.7725771069526672,0.2543147802352905,-0.24895906448364258,0.08707600831985474,-0.08470851267334878,0.11203834073656171,-0.3180547976036736,-0.9376103039014557,0.6155917028882362,0.3292510174964305,2.8558652487583727
1784373842252913152,2.1662182807922363,-1.2525324821472168,-0.14297239482402802,-0.24032464623451233,0.26465708017349243,-0.5683984160423279,-0.7790249586105347,0.17742052674293518,-0.23673158884048462,0.06938451528549194,-0.0859025627724913,0.11227735092085461,-0.31285990479894027,-0.9392194424990865,0.6045578925249987,0.32749523308115625,2.8562207226227128
1784373842262833152,2.176138162612915,-1.436120867729187,-0.34903740882873535,-0.2101135402917862,0.26331621408462524,-0.5574361681938171,-0.7873560190200806,0.28583234548568726,-0.07395726442337036,0.045794129371643066,-0.08643679549979064,0.11172875303928317,-0.3063310032122837,-0.9413855256497805,0.5912944819828498,0.3227380677103892,2.8593902444262302
1784373842272752384,2.1860573291778564,-1.5724831819534302,-0.3215399980545044,-0.0491424985229969,0.2612001597881317,-0.5452162623405457,-0.7965636849403381,0.1852414309978485,-0.01627659797668457,-0.013418614864349365,-0.08688952532236903,0.11084688557584382,-0.2990503918183954,-0.9437859984409255,0.576647091298602,0.3168604826783284,2.863280093131144
1784373842282672128,2.195977210998535,-1.0744292736053467,-0.2484912872314453,0.06198308616876602,0.25822290778160095,-0.5343791842460632,-0.804835319519043,0.15648049116134644,0.11285513639450073,0.01737499237060547,-0.08635058442704789,0.10978346764716414,-0.2924550064364854,-0.9460239790720698,0.5637730728512346,0.3104642183053448,2.8689654011404375
1784373842292592384,2.205897331237793,-0.6168349981307983,-0.16255587339401245,-0.30639228224754333,0.25772371888160706,-0.5268157124519348,-0.8099652528762817,0.037991613149642944,0.15817862749099731,-0.03177058696746826,-0.08683544880465745,0.10961770510621571,-0.2880995410711343,-0.9473342205075,0.554849875160621,0.30806119383933767,2.8704086062979988
1784373842302512128,2.2158172130584717,-0.1067395880818367,0.13602671027183533,-0.0004947020788677037,0.2574903666973114,-0.5246087312698364,-0.8114705085754395,0.1531693935394287,0.18943417072296143,-0.13690900802612305,-0.08692735026205316,0.10953902473792075,-0.28682043059562706,-0.9477229652771628,0.5522554727473662,0.30726391139649556,2.8709562466865712
1784373842312432384,2.2257373332977295,0.020569367334246635,-0.0624416321516037,-0.2344619333744049,0.25803688168525696,-0.5237455368041992,-0.8118544220924377,0.16841575503349304,0.10319805145263672,-0.17320722341537476,-0.08715915018419503,0.10978746569740161,-0.28639049071024286,-0.947802981100298,0.5512418782803759,0.30773908536439076,2.8705184588259676
1784373842322351104,2.235656261444092,0.5756170749664307,-0.31183913350105286,-0.3276611566543579,0.2580200731754303,-0.5255951285362244,-0.8106635808944702,0.2693694531917572,0.052709996700286865,-0.22160875797271729,-0.08901992289804445,0.10915227202431996,-0.2876699553845802,-0.9473158218368452,0.5534145298848665,0.30814424862365225,2.866048910841062
1784373842332271104,2.2455761432647705,0.5898524522781372,-0.16769208014011383,-0.18963801860809326,0.2574203908443451,-0.5298267602920532,-0.8080955743789673,0.2581741213798523,0.09739267826080322,-0.13993299007415771,-0.09079078434138423,0.10814538428320376,-0.29027022279259873,-0.9464697145118914,0.558396263278598,0.30838881832086706,2.861267146577059
1784373842342191104,2.2554962635040283,0.4735961854457855,0.08747885376214981,-0.12252277135848999,0.2574276030063629,-0.5337598919868469,-0.8055006861686707,0.062411874532699585,-0.07167834043502808,0.03786158561706543,-0.09161735344225413,0.10775333304732032,-0.2926411885323333,-0.9457042654619183,0.5630405854823785,0.30932830867169625,2.8583233773442633
1784373842352111104,2.265416145324707,0.051095250993967056,0.23567283153533936,-0.15413182973861694,0.2589492201805115,-0.5355802178382874,-0.8038029074668884,0.015205413103103638,-0.04881608486175537,0.1299595832824707,-0.09222990986732163,0.10830517946484639,-0.29388522625877755,-0.9451958413915058,0.5651946837411211,0.3116566533658874,2.8558816783883114
1784373842362030336,2.2753353118896484,0.18747034668922424,0.1787160485982895,-0.02665713056921959,0.2610699534416199,-0.5362342596054077,-0.8026800751686096,0.08947020769119263,0.07036817073822021,0.17655092477798462,-0.09232854740533426,0.10937738654579841,-0.29444278063070595,-0.9448891319840227,0.5659693382554459,0.31445604142385725,2.854647825223873
1784373842371950080,2.285255193710327,0.06369087845087051,0.06941884756088257,0.07356667518615723,0.2614457309246063,-0.5367987155914307,-0.802180290222168,0.10667252540588379,0.001230478286743164,0.13076305389404297,-0.09188813911287623,0.10969405623555942,-0.2947491465574618,-0.9447997962673151,0.5666381998177897,0.31506281190047397,2.8552574887884257
1784373842381870336,2.295175313949585,0.13088515400886536,0.19733044505119324,0.015463058836758137,0.2624434530735016,-0.5381652116775513,-0.8009379506111145,0.016319364309310913,0.02092278003692627,0.0937846302986145,-0.09163918995639037,0.11025342396017408,-0.2955929676839598,-0.9444952353806643,0.5682587012634989,0.316645066431971,2.854966163053674
1784373842391790080,2.3050951957702637,0.2271387279033661,0.1022939383983612,-0.022958097979426384,0.2635843753814697,-0.5394476652145386,-0.799699604511261,0.09026694297790527,0.0005682706832885742,0.11537349224090576,-0.09146252026025897,0.11087019851309204,-0.2964084744581716,-0.9441845286081937,0.5697809957563479,0.3183906190286471,2.8544872276914517
1784373842401709312,2.315014362335205,-0.0655679777264595,-0.0028034504503011703,-0.14702890813350677,0.26465514302253723,-0.5402417778968811,-0.7988094091415405,0.13898560404777527,-0.1659807562828064,0.03304708003997803,-0.09191145155413372,0.11127079606948805,-0.2970085854698409,-0.9439051732956422,0.5707243759386147,0.3199302456913463,2.8528616199422907
1784373842411629312,2.324934244155884,-0.39903488755226135,0.10979073494672775,0.23040759563446045,0.26456302404403687,-0.5386465787887573,-0.7999164462089539,0.19068297743797302,-0.19186794757843018,0.08586615324020386,-0.09115063041165494,0.11151711433138914,-0.29598262402419945,-0.9442721284194379,0.5688299035197996,0.3194132182240629,2.855018953964598
1784373842421549312,2.3348543643951416,-0.6754707098007202,-0.03477758914232254,0.042382724583148956,0.2641948163509369,-0.5347634553909302,-0.802638828754425,0.15098154544830322,-0.10659390687942505,0.044261813163757324,-0.09012994701030376,0.11177491539934929,-0.29357613343092775,-0.9450904615391306,0.5642278087002383,0.3179878554757729,2.858550038188312
1784373842431469312,2.3447742462158203,-0.4768683910369873,-0.09506596624851227,0.019690994173288345,0.2638135254383087,-0.5295848250389099,-0.806190013885498,0.14518305659294128,0.06008714437484741,0.04109907150268555,-0.0899570484108405,0.11180429027077025,-0.2905250307943786,-0.9460458755160135,0.558111070830725,0.3162519768475143,2.8606722466288224
1784373842441388032,2.3546931743621826,-0.17598482966423035,-0.11369223147630692,-0.021261965855956078,0.263163298368454,-0.5274431705474854,-0.8078048825263977,0.21278882026672363,0.005531609058380127,-0.06690514087677002,-0.09015540860485209,0.11147220961330072,-0.2892602710010981,-0.9464535927611549,0.555588293921551,0.314933445957435,2.861156950112824
1784373842451308288,2.3646132946014404,-0.1482863575220108,-0.10190907120704651,-0.04241865128278732,0.2625350058078766,-0.526048481464386,-0.8089180588722229,0.11898046731948853,-0.03396427631378174,-0.0680350661277771,-0.09026454360860649,0.11115381125143486,-0.2884195114680349,-0.9467372351018191,0.5539474968189537,0.31382558269968636,2.861588371451681
1784373842461228032,2.374533176422119,0.08371903747320175,0.016173701733350754,-0.12408895045518875,0.2636030614376068,-0.5252969264984131,-0.8090590834617615,0.10109725594520569,-0.037859201431274414,-0.056861937046051025,-0.0911132415593302,0.11148873473490303,-0.28816786790962173,-0.9466932019504041,0.5530640195565082,0.31496828795806714,2.859621902425269
1784373842471148288,2.384453296661377,0.07005596160888672,0.06890615820884705,0.11447728425264359,0.2631578743457794,-0.5263834595680237,-0.8084976077079773,0.20807930827140808,-0.05302327871322632,-0.0985916256904602,-0.09081932725956492,0.11130363677773261,-0.2887259795591043,-0.9465731399821347,0.5543414350157273,0.3146749950333664,2.8600795922367976
1784373842481067264,2.3943722248077393,-0.004883993417024612,0.120014987885952,-0.08457957953214645,0.26481059193611145,-0.5262334942817688,-0.8080554604530334,0.10243794322013855,-0.0965844988822937,0.03715091943740845,-0.09095397397527014,0.11214546360168168,-0.2887830719591883,-0.9464434029014006,0.5541650773524278,0.3166841165241214,2.8592170865514
1784373842490987264,2.404292345046997,-0.3932197690010071,0.1011534184217453,0.1387333869934082,0.26580095291137695,-0.5250779986381531,-0.8084818720817566,0.19741010665893555,-0.17034131288528442,0.05686444044113159,-0.09060217040888636,0.112819066996702,-0.28815085462531426,-0.9465898090868693,0.5528067853693396,0.31763387773773977,2.8599412829619437
1784373842500907264,2.414212226867676,-0.7860172986984253,0.26505839824676514,-0.0017909291200339794,0.266661137342453,-0.5206061005592346,-0.8110863566398621,0.1774764358997345,-0.2834252715110779,0.15047240257263184,-0.08954994377538313,0.1137485760085006,-0.28551369475484834,-0.9473773939353594,0.5475606649599134,0.31763823606862673,2.8632044290865575
1784373842510827264,2.4241323471069336,-0.8322896957397461,-0.018854018300771713,0.1370878517627716,0.26719510555267334,-0.5140573978424072,-0.8150777220726013,0.09604039788246155,-0.2082783579826355,0.11094564199447632,-0.08873304168043145,0.11449785771161931,-0.2816937506086887,-0.9485068672496526,0.5399084047623677,0.3167762862619327,2.8666973941700458
1784373842520746240,2.434051275253296,-1.0216666460037231,-0.11081647127866745,-0.02086758427321911,0.2663777768611908,-0.5065684914588928,-0.8200190663337708,0.1738840639591217,-0.17354625463485718,0.06322890520095825,-0.08796262634260063,0.11454157410274593,-0.27725564367851824,-0.949880067805797,0.5312001373345071,0.31409025565512794,2.870814323577626
1784373842530666240,2.4439711570739746,-1.0068373680114746,-0.09709213674068451,0.22728124260902405,0.2645857036113739,-0.49876514077186584,-0.8253652453422546,0.1308000385761261,-0.19668471813201904,0.06543177366256714,-0.08697431297757875,0.11413659635648539,-0.2725623342360188,-0.951376925455388,0.5221734530233256,0.31021811340627736,2.8757522572585303
1784373842540586240,2.4538912773132324,-1.0209954977035522,-0.04447777569293976,0.10236649960279465,0.2633052468299866,-0.49078384041786194,-0.8305429220199585,0.04452556371688843,-0.21314987540245056,0.033469557762145996,-0.08599089627549866,0.11399956445583632,-0.2678294806973144,-0.9528258059499263,0.5129891567159661,0.3070045577009296,2.880471233424579
1784373842550506240,2.463811159133911,-0.7338361144065857,0.03306841477751732,0.23817305266857147,0.2623165249824524,-0.4839220941066742,-0.8348709344863892,0.07075232267379761,-0.0837506651878357,0.00305330753326416,-0.08465425487711269,0.11407067290453286,-0.26372793074797696,-0.9540802414491074,0.5051309954579551,0.3044329705831963,2.885460713593505
1784373842560425216,2.4737303256988525,-0.6272799968719482,-0.024897227063775063,0.16621838510036469,0.26115575432777405,-0.47880682349205017,-0.8381776213645935,0.11828458309173584,0.005250304937362671,-0.06111431121826172,-0.08317337870105235,0.11402581902794987,-0.26059411286902295,-0.9550765185727706,0.49929509920889714,0.3020425416525942,2.8902972032765124
1784373842570345216,2.4836502075195312,-0.3839179277420044,-0.12899886071681976,0.25747212767601013,0.2590787708759308,-0.4750641882419586,-0.8409472107887268,0.11741659045219421,0.006802469491958618,-0.04777044057846069,-0.08205268979053991,0.11335065520067465,-0.25822087946680616,-0.9558979950766059,0.49503697710436156,0.2988527795375532,2.8942851411507196
1784373842580265216,2.493570327758789,-0.49662530422210693,-0.1493602842092514,0.10604958236217499,0.2564842104911804,-0.4718936085700989,-0.8435236811637878,0.11274796724319458,-0.06204193830490112,-0.05425763130187988,-0.08110045613314201,0.1123367976250291,-0.2561612598053644,-0.9566527563594865,0.49143734632120895,0.29517997990566663,2.89791176675314
1784373842590185216,2.5034902095794678,-0.327165424823761,-0.40484851598739624,0.13370276987552643,0.2542141377925873,-0.46892446279525757,-0.8458634614944458,0.11662018299102783,-0.01770883798599243,-0.0402754545211792,-0.08087337959450372,0.11129287710094427,-0.2543269132259124,-0.9572831551246849,0.4880726803233493,0.29195034542727394,2.8998450031810554
1784373842600104192,2.51340913772583,-0.5327332615852356,-0.15860232710838318,0.08663927018642426,0.25134041905403137,-0.46561434864997864,-0.84854656457901,0.10931631922721863,-0.10150906443595886,-0.03225177526473999,-0.08017368805476971,0.11006744260925216,-0.25221395357887727,-0.9580425237083864,0.48432868579851096,0.2879679339839975,2.9030153805208028
1784373842610024192,2.523329257965088,-0.4507347643375397,-0.10811465978622437,0.21905536949634552,0.24976108968257904,-0.46163105964660645,-0.8511852025985718,0.014231234788894653,-0.12006449699401855,-0.011546730995178223,-0.07938988459883077,0.10956283533942937,-0.24980671611517985,-0.9587960943369618,0.479833005458553,0.2854160707583855,2.9060965805339185
1784373842619944192,2.5332491397857666,-0.3112642168998718,-0.08369597792625427,0.14366713166236877,0.24824993312358856,-0.4591231346130371,-0.8529817461967468,0.05660538375377655,-0.090879887342453,-0.0527493953704834,-0.07823487629064456,0.10914378709738491,-0.24818693637047323,-0.9593591851047784,0.4770078975000076,0.2832144519978174,2.9095598755395753
1784373842629864192,2.5431692600250244,-0.4012519121170044,-0.05924363434314728,0.08921454846858978,0.24716416001319885,-0.4565359354019165,-0.8546839952468872,0.05473095178604126,-0.04041227698326111,-0.04891091585159302,-0.07763364102992878,0.10880471747816138,-0.2466161471763416,-0.9598515009781472,0.4740978045425603,0.28150803464448654,2.9117463458343957
1784373842639783168,2.5530881881713867,-0.29689234495162964,-0.09560997039079666,0.17556095123291016,0.24609175324440002,-0.45405569672584534,-0.856313169002533,0.14210709929466248,-0.06449899077415466,-0.06968170404434204,-0.07706439782260524,0.10845999309208149,-0.24511189358504554,-0.9603216466049199,0.4713120825367105,0.2798438108085893,2.9138271980190225
1784373842649703168,2.5630083084106445,-0.44112277030944824,-0.12178485095500946,0.12130437046289444,0.24449750781059265,-0.45122188329696655,-0.8582655787467957,0.15744949877262115,-0.11729004979133606,-0.045420944690704346,-0.07622220455081274,0.10791987308556586,-0.24335267271110403,-0.9608969142710165,0.4681340580882312,0.27752257420263005,2.916700907815941
1784373842659623168,2.5729281902313232,-0.20696471631526947,-0.24144203960895538,0.12272496521472931,0.24232733249664307,-0.4489424228668213,-0.860074520111084,0.15131892263889313,-0.02234053611755371,-0.034746646881103516,-0.07564126190472253,0.10699471941767338,-0.24189846288508407,-0.961413412537097,0.46558143212600506,0.2746321701942094,2.9190606817032
1784373842669543168,2.582848310470581,-0.1390967220067978,-0.11662634462118149,0.136533722281456,0.24065838754177094,-0.44774892926216125,-0.8611645698547363,0.09967364370822906,-0.04776495695114136,-0.051494061946868896,-0.07538345436647609,0.10621972966580107,-0.24111215591896992,-0.961717049695997,0.4642462120461369,0.27250501184039017,2.9203493491972288
1784373842679462144,2.5927672386169434,-0.07214465737342834,-0.05669156461954117,0.10813774168491364,0.23928044736385345,-0.4472559690475464,-0.8618044853210449,0.09345272183418274,0.004842638969421387,-0.016872882843017578,-0.07472472182825841,0.10567762860485791,-0.2406864968466927,-0.9619348004464757,0.46369498773577494,0.2708286756793833,2.9222284012621365
1784373842689382400,2.602687358856201,-0.06331814080476761,-0.11652639508247375,0.07662136107683182,0.23851391673088074,-0.4469659626483917,-0.8621673583984375,0.10483935475349426,-0.038568705320358276,-0.0142364501953125,-0.0743101158151274,0.10538842493387537,-0.24043628964439595,-0.9620611454386785,0.4633707770199728,0.2698945122185729,2.923376226887848
1784373842699302144,2.61260724067688,-0.07123199105262756,-0.2945253849029541,0.2297280877828598,0.2361866533756256,-0.44678810238838196,-0.862899899482727,0.1622203290462494,-0.03593894839286804,0.02304089069366455,-0.07379101483656712,0.10430590191769233,-0.24014647800147318,-0.9622914213153804,0.46317196339899463,0.26716901792810704,2.9251677470580106
1784373842709222400,2.6225273609161377,-0.11257783323526382,-0.1731153428554535,0.11103392392396927,0.233394593000412,-0.44659876823425293,-0.8637571930885315,0.12117388844490051,-0.06356358528137207,0.036349356174468994,-0.07316085597070492,0.10300873984169562,-0.23981368312407264,-0.9625622148116637,0.46296032539585863,0.26390621617538845,2.9273243804798046
1784373842719141120,2.6324462890625,-0.15854744613170624,-0.03574218600988388,0.17153522372245789,0.23179176449775696,-0.44578200578689575,-0.8646103143692017,0.05740806460380554,-0.10527390241622925,0.05902254581451416,-0.07255254906242005,0.1023449215964428,-0.2392077712266103,-0.9628298634192243,0.4620476775211005,0.26192901104776734,2.92922331048441
1784373842729061120,2.6423661708831787,-0.10940121859312057,-0.06452323496341705,0.1580713391304016,0.2304539680480957,-0.44512489438056946,-0.8653061985969543,0.08932448923587799,-0.07460471987724304,0.030970871448516846,-0.07183586180357114,0.10184173838097373,-0.23869468399710017,-0.9630643057529934,0.46131371615287897,0.2602847676159171,2.9312341815899563
1784373842738981120,2.6522862911224365,-0.2596988379955292,-0.051580652594566345,0.20195983350276947,0.2290978878736496,-0.4440356194972992,-0.8662254810333252,0.1286291778087616,-0.0744885504245758,0.045836687088012695,-0.07103730780025978,0.10136026348159796,-0.2379356309692508,-0.9633620853719406,0.4600976571686891,0.25855824798456806,2.933507390961504
1784373842748901376,2.6622064113616943,-0.31633466482162476,-0.2180524617433548,0.2764524221420288,0.2269037365913391,-0.44194716215133667,-0.8678694367408752,0.1702367514371872,-0.09098130464553833,0.059306204319000244,-0.06992814747838015,0.1005429479038416,-0.23655103988744394,-0.9638696499320908,0.45776817638039863,0.2557249865045294,2.9368633611416275
1784373842758820352,2.6721253395080566,-0.41372916102409363,-0.15009315311908722,0.14328373968601227,0.2242717742919922,-0.43940117955207825,-0.8698441386222839,0.11567878723144531,-0.10434576869010925,-0.011274635791778564,-0.0690073573319606,0.09946099282643378,-0.23491583472102756,-0.9644481067046685,0.454931947097546,0.25233424364769824,2.9400305293236935
1784373842768740352,2.6820454597473145,-0.40255823731422424,-0.2135235220193863,0.29871034622192383,0.22171612083911896,-0.4361887276172638,-0.8721131682395935,0.09443071484565735,-0.0975331962108612,0.021679818630218506,-0.06803802600525583,0.09844591556866121,-0.23292021873140137,-0.9651048282318933,0.4513588712814427,0.24895456268243438,2.9433905210610867
1784373842778660352,2.691965341567993,-0.26732200384140015,-0.23877649009227753,0.19101817905902863,0.21859484910964966,-0.4339424669742584,-0.8740195631980896,0.13405099511146545,-0.10197669267654419,-0.039295196533203125,-0.06706456410944991,0.09711083554404695,-0.23142969658080031,-0.9656666366091292,0.4488641508898762,0.24507553382277272,2.9467051331386385
1784373842788580352,2.701885461807251,-0.22609466314315796,-0.10757052898406982,0.16517885029315948,0.21608005464076996,-0.43211087584495544,-0.8755510449409485,0.06866420805454254,-0.012957483530044556,-0.012159526348114014,-0.06622572858042382,0.09604782667658401,-0.23021575563450822,-0.966120966716749,0.4468321357421017,0.24195823638490147,2.949479810388953
1784373842798499328,2.7118043899536133,-0.08714485168457031,-0.11875797808170319,0.21987920999526978,0.21438467502593994,-0.4312204420566559,-0.8764063715934753,0.03668345510959625,0.01656287908554077,-0.03396350145339966,-0.06542215009365909,0.09537876456669753,-0.22956414327261077,-0.9663970560339281,0.4458450268365376,0.2399067598752542,2.9517717814275297
1784373842808419328,2.721724271774292,-0.030147604644298553,-0.2886889576911926,0.18391110002994537,0.21192818880081177,-0.4311654269695282,-0.8770306706428528,0.16394156217575073,-0.0330527126789093,-0.05285519361495972,-0.06461003326034932,0.09429518154303543,-0.22933179633364703,-0.9666131461242478,0.44578403767250196,0.2370977742578982,2.9541277290198265
1784373842818339328,2.73164439201355,0.0048593804240226746,-0.2731822431087494,0.21110396087169647,0.20854370296001434,-0.4315278232097626,-0.8776634931564331,0.16412168741226196,-0.08688953518867493,-0.041175007820129395,-0.06400065298104317,0.09267134471533256,-0.22930387209953074,-0.966817269883313,0.44618573449280796,0.23328616897036555,2.956236733380144
1784373842828259328,2.7415642738342285,0.0036827961448580027,-0.2078341394662857,0.18665455281734467,0.2054286003112793,-0.432208389043808,-0.8780632019042969,0.0803227424621582,-0.08857405185699463,-0.04933542013168335,-0.06333219361117641,0.09119473695113547,-0.2294600371792845,-0.9669646820008869,0.44694027105924383,0.2298228382443274,2.958337763353647
1784373842838178304,2.75148344039917,-0.1905147135257721,-0.11598540097475052,0.17655406892299652,0.2033885270357132,-0.43179622292518616,-0.878740668296814,0.040095970034599304,-0.10043033957481384,-0.006772637367248535,-0.06274800578220746,0.09028309798996403,-0.22908215763645967,-0.9671778664616208,0.44648326403126043,0.2274494212604962,2.9601704056382947
1784373842848098304,2.7614033222198486,-0.1625211536884308,-0.22232329845428467,0.19414718449115753,0.20118387043476105,-0.43071362376213074,-0.8797788619995117,0.10551778972148895,-0.12484362721443176,-0.007596015930175781,-0.06205545488398753,0.0893272227021006,-0.2283226178654315,-0.9674908681173501,0.44528334436326167,0.22481007236624748,2.9623867651677793
1784373842858018304,2.7713234424591064,-0.26742246747016907,-0.2225266695022583,0.22148962318897247,0.19835065305233002,-0.4295550286769867,-0.8809877634048462,0.1405470371246338,-0.13489806652069092,-0.026345551013946533,-0.06123592897363787,0.08807635261431923,-0.22748332788051348,-0.9678553595351391,0.44399998569850463,0.2214531546580836,2.9650404124653424
1784373842867938304,2.781243324279785,-0.2555525004863739,-0.36290243268013,0.2222456932067871,0.19456075131893158,-0.42762452363967896,-0.882770299911499,0.12120461463928223,-0.06503599882125854,0.03187918663024902,-0.06034769762598496,0.08636259817826988,-0.22617772706530007,-0.9683714246477425,0.4418632769718347,0.2169298470659902,2.968211904909579
1784373842877857536,2.7911624908447266,-0.1938554346561432,-0.2888224124908447,0.1160571426153183,0.19129511713981628,-0.4263221025466919,-0.8841128945350647,0.048420459032058716,-0.047768473625183105,-0.004925191402435303,-0.059841684715812866,0.0848172107806377,-0.22527668544106028,-0.9687494096254669,0.4404229619412375,0.2130848367531564,2.97033585086933
1784373842887777280,2.8010823726654053,-0.1956631988286972,-0.2344864457845688,0.17058350145816803,0.18881811201572418,-0.42477771639823914,-0.8853878378868103,0.05668054521083832,-0.07004955410957336,0.028118550777435303,-0.05931471990967589,0.08369105282339252,-0.22428083008015778,-0.9691107541273648,0.4387163235404044,0.2101127668615587,2.9723263904071158
1784373842897697536,2.811002492904663,-0.14673572778701782,-0.2985716164112091,0.19407199323177338,0.18583278357982635,-0.4238754212856293,-0.886451244354248,0.11224767565727234,-0.10166779160499573,-0.007881641387939453,-0.05854913861527309,0.08234224127786044,-0.22359367591063517,-0.9694316287753385,0.437719892115905,0.20664428529481887,2.974830110525189
1784373842907617280,2.820922374725342,-0.0831783339381218,-0.18444210290908813,0.19405999779701233,0.18304947018623352,-0.42335283756256104,-0.8872796893119812,0.09264633059501648,-0.10142743587493896,0.010296046733856201,-0.05783411232966377,0.08107789325015995,-0.2231289378439046,-0.9696881195951692,0.4371429664795126,0.20344980977701443,2.9771108229076524
1784373842917536256,2.830841302871704,-0.12463582307100296,-0.220284104347229,0.24071136116981506,0.18029338121414185,-0.42300519347190857,-0.8880094885826111,0.12430256605148315,-0.06651201844215393,0.014550626277923584,-0.05697872284961236,0.07985611505927157,-0.2227515369690706,-0.9699268735607015,0.43675929991505935,0.20030819246516918,2.9796427942229706
1784373842927456256,2.840761423110962,-0.11782319098711014,-0.21365949511528015,0.24829179048538208,0.17725051939487457,-0.42228177189826965,-0.888965904712677,0.14243637025356293,-0.06039950251579285,0.011219322681427002,-0.05602490956441075,0.07851665662659582,-0.22215352193709273,-0.9702289298338777,0.4359610681434214,0.19680853685451594,2.9825053773074686
1784373842937376256,2.8506813049316406,-0.12436831742525101,-0.20834048092365265,0.24682964384555817,0.1740667223930359,-0.42178887128829956,-0.8898285627365112,0.11607913672924042,-0.13916999101638794,-0.00812065601348877,-0.05500958833732379,0.07711331309054556,-0.22167374014302635,-0.9705092440572337,0.4354173917596779,0.1931788312287386,2.9854906523133673
1784373842947296256,2.8606014251708984,-0.23052723705768585,-0.20795166492462158,0.22967249155044556,0.17131316661834717,-0.4204491376876831,-0.8909962177276611,0.08007536828517914,-0.1343604028224945,0.026540100574493408,-0.05413611210905513,0.07591737281776836,-0.2207678165763802,-0.9708590695169035,0.4339402739904712,0.1899533616922244,2.9881923765963387
1784373842957215232,2.8705203533172607,-0.3368464410305023,-0.2020666003227234,0.2531072795391083,0.16875338554382324,-0.4184699058532715,-0.8924154043197632,0.12925074994564056,-0.13849115371704102,-0.0018564462661743164,-0.05309974019772697,0.07487068409742013,-0.2195146653538868,-0.9712816669270851,0.43175997438793456,0.18689060796003953,2.991263312654783
1784373842967135488,2.8804404735565186,-0.48478955030441284,-0.25160273909568787,0.2010086476802826,0.16594241559505463,-0.4151883125305176,-0.8944728970527649,0.13607481122016907,-0.13762235641479492,-0.014386355876922607,-0.05214094786859364,0.073701227918632,-0.21755843403367567,-0.9718630886615046,0.42814979794299807,0.1834342919934611,2.9944078104813805
1784373842977055232,2.8903603553771973,-0.475908100605011,-0.21608927845954895,0.21613144874572754,0.1631656140089035,-0.41130736470222473,-0.8967738151550293,0.1032833606004715,-0.10561463236808777,-0.026215076446533203,-0.0512080116521402,0.07255320955386668,-0.21528848956098232,-0.9725043152462142,0.42388789806493277,0.17997852523843622,2.9975512071241175
1784373842986975488,2.900280475616455,-0.48569175601005554,-0.28092846274375916,0.2577076554298401,0.16020764410495758,-0.40740254521369934,-0.8990865349769592,0.13125045597553253,-0.11162513494491577,-0.039267897605895996,-0.05006425904453884,0.0713559296506334,-0.21299072923495865,-0.9731581050188073,0.41960805970976167,0.17633855878269172,3.0011506910065524
1784373842996894464,2.9101994037628174,-0.5224267244338989,-0.3299092948436737,0.2391582578420639,0.15635299682617188,-0.4032316207885742,-0.901641845703125,0.13885881006717682,-0.10535907745361328,-0.0341033935546875,-0.049096549482399304,0.06966044356771352,-0.21053859416529042,-0.9738637407072167,0.415045569024389,0.17170172781674495,3.004611989943936
1784373843006814208,2.920119285583496,-0.47215452790260315,-0.38581356406211853,0.31753456592559814,0.1519109159708023,-0.39925453066825867,-0.9041675329208374,0.1409662961959839,-0.08008503913879395,-0.0463024377822876,-0.0479593926310115,0.06769340152275204,-0.2081678264975226,-0.9745685024321126,0.410703632206711,0.1664572842930341,3.0085023989654944
1784373843016734464,2.930039405822754,-0.3851177990436554,-0.35991671681404114,0.24286715686321259,0.14732810854911804,-0.39574766159057617,-0.906464695930481,0.09064796566963196,-0.026203632354736328,-0.05453383922576904,-0.046961779110942126,0.06561372578472566,-0.20606430040711543,-0.9752061357277674,0.40688184032387054,0.16112156554022497,3.0120479561655267
1784373843026654208,2.9399592876434326,-0.3235279321670532,-0.334670752286911,0.2690742611885071,0.14298690855503082,-0.3928544223308563,-0.9084162712097168,0.09985670447349548,0.008714437484741211,-0.04444926977157593,-0.04586947167879946,0.06366568456612272,-0.20430012756742666,-0.9757582220606293,0.4037335373695842,0.15612148594003564,3.015630455878889
1784373843036573440,2.949878454208374,-0.36486920714378357,-0.29386240243911743,0.2691808044910431,0.13901807367801666,-0.39014849066734314,-0.9101967811584473,0.06808947026729584,-0.08983197808265686,-0.030034542083740234,-0.044891994153374325,0.061880117990472286,-0.20266344152036772,-0.9762597750170631,0.4007928552248015,0.15156279390519733,3.018847611751988
1784373843046493184,2.9597983360290527,-0.2966645658016205,-0.3842895030975342,0.32317933440208435,0.13465306162834167,-0.3875850439071655,-0.9119464755058289,0.13770106434822083,-0.09143412113189697,-0.019373714923858643,-0.04357403446785853,0.0599577889564558,-0.20107665238579234,-0.9767673972333326,0.3980104015826031,0.14659534575240787,3.022815418678158
1784373843056413440,2.9697184562683105,-0.33214402198791504,-0.42344459891319275,0.262577086687088,0.13002623617649078,-0.38527002930641174,-0.9135973453521729,0.13590392470359802,-0.05656343698501587,-0.05266541242599487,-0.04258028604877855,0.057828835976498245,-0.1996425306218196,-0.9772335747046346,0.39550042479185926,0.1413738919896334,3.0261308740066934
1784373843066333184,2.9796383380889893,-0.31851503252983093,-0.3873864710330963,0.298063725233078,0.1251642107963562,-0.3827816843986511,-0.9153207540512085,0.12047179043292999,-0.07522612810134888,-0.019234299659729004,-0.04142802332940053,0.055613739795320506,-0.1981078708189711,-0.9777239661308832,0.3928054392209627,0.13590066925024272,3.029819646047677
1784373843076252160,2.9895572662353516,-0.2838524281978607,-0.44988903403282166,0.26761406660079956,0.12049753963947296,-0.38021668791770935,-0.9170145392417908,0.09849659353494644,-0.04553401470184326,-0.03400474786758423,-0.040416078278434915,0.05347050632212134,-0.19655444241192496,-0.9781992389235763,0.3900305550741417,0.1306534514761123,3.0331632376984494
1784373843086172416,2.9994773864746094,-0.18881353735923767,-0.459166944026947,0.25151392817497253,0.11560564488172531,-0.378410667181015,-0.9183902740478516,0.13523359596729279,-0.0382763147354126,-0.05913352966308594,-0.039404071552481205,0.05119909255342194,-0.19540602478416336,-0.978592106153262,0.38807869411967383,0.12521994024400165,3.036465814909782
1784373843096092160,3.009397268295288,-0.13982756435871124,-0.44509896636009216,0.23644404113292694,0.11069772392511368,-0.37729617953300476,-0.9194529056549072,0.11343862116336823,-0.05893734097480774,-0.10107016563415527,-0.0385896149569072,0.04886905102762786,-0.194641660244095,-0.9788959528573031,0.38687496608072547,0.11981851122356366,3.0392924115082978
1784373843106012416,3.019317388534546,-0.1988631784915924,-0.42428451776504517,0.2531029284000397,0.10587061196565628,-0.37605634331703186,-0.9205286502838135,0.09314976632595062,-0.08512529730796814,-0.09225821495056152,-0.037872771744868666,0.04656325671225718,-0.19382345573299464,-0.9791985976085258,0.385536546249553,0.11450755334707223,3.0419020658221334
1784373843115931392,3.029236316680908,-0.25361278653144836,-0.41935041546821594,0.2157706916332245,0.1009143739938736,-0.37433117628097534,-0.9217876195907593,0.1135631650686264,-0.11405685544013977,-0.06930118799209595,-0.036949449367025426,0.04423999504166352,-0.19274075646744857,-0.9795553028581946,0.3836754030243474,0.10904256448946047,3.0449879975283123
1784373843125851392,3.039156436920166,-0.3747232258319855,-0.48819711804389954,0.3078979551792145,0.09597375988960266,-0.37156814336776733,-0.9234317541122437,0.09216710925102234,-0.12629562616348267,-0.05157434940338135,-0.036003703062945674,0.041944517434078225,-0.19111460996720786,-0.9800100088251271,0.38069752432482107,0.10355981745122976,3.0481782397761426
1784373843135771392,3.0490763187408447,-0.32547497749328613,-0.43018412590026855,0.23769143223762512,0.09081622213125229,-0.36847904324531555,-0.9251894950866699,0.10236005485057831,-0.03906795382499695,-0.03875398635864258,-0.03494031876978657,0.03956505854004277,-0.1893141629377877,-0.9804968067326308,0.37737240041840947,0.09784613297156783,3.051653307063239
1784373843145691392,3.0589964389801025,-0.19441364705562592,-0.4080263376235962,0.1753002256155014,0.0863378569483757,-0.3663524389266968,-0.926461935043335,0.0494500994682312,-0.0012775957584381104,-0.05359482765197754,-0.03419995023076988,0.03745468048136524,-0.18805901549453863,-0.9808472090775602,0.37508586369954905,0.09292256276244722,3.0542389104936714
1784373843155610368,3.068915367126465,-0.16389648616313934,-0.48150601983070374,0.25770628452301025,0.08149807155132294,-0.364835649728775,-0.9274982213973999,0.08326633274555206,-0.020799726247787476,-0.0467449426651001,-0.03360393139781292,0.03512348276245613,-0.18712887862867533,-0.9811319258379999,0.37345629065820196,0.08764360762993019,3.0565504270557917
1784373843165530368,3.0788354873657227,-0.14562426507472992,-0.5163313746452332,0.26036331057548523,0.07616894692182541,-0.36360839009284973,-0.9284327030181885,0.1250486969947815,-0.10704895853996277,-0.06924796104431152,-0.032745445838733775,0.0325889581143405,-0.18633738453450432,-0.9813990688061008,0.37213850622460454,0.08185703529990561,3.0594676095016973
1784373843175450368,3.0887553691864014,-0.12199310213327408,-0.46557891368865967,0.15959763526916504,0.0707007497549057,-0.3627356290817261,-0.9292062520980835,0.0860985666513443,-0.09348690509796143,-0.0986257791519165,-0.032093751551649626,0.029939542537519338,-0.18574308201671483,-0.981617623245721,0.3712017778656675,0.07594092872532814,3.061961000880869
1784373843185370368,3.098675489425659,-0.04283729940652847,-0.4172220826148987,0.1944730579853058,0.06590233743190765,-0.3619644045829773,-0.929859459400177,0.05520667880773544,-0.028721630573272705,-0.05662119388580322,-0.03171045545216364,0.027579530819713927,-0.18522857672109197,-0.9817964758799922,0.3703743343235596,0.07075512610562056,3.0637581672499774
1784373843195289344,3.1085944175720215,-0.1379544883966446,-0.3860365152359009,0.22256767749786377,0.06125445291399956,-0.3614062964916229,-0.9303942322731018,0.10813336819410324,-0.07861140370368958,-0.05495733022689819,-0.031046991596624395,0.025346357335811264,-0.18482547364094062,-0.9819537876472613,0.3697756889081335,0.06574221839888417,3.0660789477311767
1784373843205209344,3.1185142993927,-0.3144688010215759,-0.4396432638168335,0.24609243869781494,0.056706640869379044,-0.35916200280189514,-0.9315508604049683,0.14876821637153625,-0.11430296301841736,0.01695430278778076,-0.03036259147026676,0.023191787638706465,-0.18353939596886396,-0.9822696077895146,0.36736984162534697,0.06079834595097786,3.0684926181128316
1784373843215129344,3.128434419631958,-0.26932477951049805,-0.4619315266609192,0.2592458128929138,0.05164853855967522,-0.3568243682384491,-0.9327426552772522,0.19742068648338318,-0.1268334686756134,-0.015392720699310303,-0.02950206848052717,0.020811229235999592,-0.1821965348891028,-0.9825991015264205,0.36486625226389513,0.05531627644933961,3.071354147491686
1784373843225049344,3.1383543014526367,-0.29718276858329773,-0.4072943925857544,0.2598274350166321,0.046639636158943176,-0.3542419672012329,-0.9339900016784668,0.16391639411449432,-0.10365903377532959,-0.0334630012512207,-0.02861180778238545,0.018463686788327886,-0.18073206276180764,-0.9829427067385151,0.3621033455657561,0.04989445750470626,3.07425712922576
1784373843234968320,3.148273468017578,-0.30270668864250183,-0.4767240583896637,0.2667303681373596,0.04159041494131088,-0.3516088128089905,-0.9352226853370667,0.15335586667060852,-0.07214301824569702,-0.07725900411605835,-0.02764034690515586,0.016110083831628215,-0.17924597387055358,-0.9832839455996562,0.3592890839403556,0.04444185399649243,3.0773149442048147
1784373843244888320,3.158193349838257,-0.1346990466117859,-0.5548321604728699,0.27195706963539124,0.03604663535952568,-0.3496302366256714,-0.9361940622329712,0.15201795101165771,-0.037408918142318726,-0.10405856370925903,-0.026785144149804922,0.013474338572634536,-0.17810503467290437,-0.9835546105451733,0.35717639743933904,0.03848436689790388,3.0801924208304383
1784373843254808320,3.1681134700775146,0.0509275384247303,-0.567750096321106,0.32848772406578064,0.02960696443915367,-0.3494408130645752,-0.936490535736084,0.14823421835899353,-0.017243146896362305,-0.16757440567016602,-0.025743488939677265,0.010393696294737312,-0.17789518717717048,-0.9836577344324504,0.3569742268827374,0.0316042773335056,3.083560136347811
1784373843264728320,3.1780333518981934,0.035369884222745895,-0.5445894002914429,0.25780609250068665,0.02381160296499729,-0.3499179482460022,-0.9364776611328125,0.05480167269706726,-0.0658382773399353,-0.144561767578125,-0.024850037689554374,0.007605284438976223,-0.1780542705604989,-0.9836773855079984,0.357483499475457,0.025421293439964503,3.086485515944928
1784373843274647296,3.1879522800445557,0.06323666870594025,-0.45554715394973755,0.29244691133499146,0.018272895365953445,-0.3505419194698334,-0.9363687634468079,0.05939434468746185,-0.10024848580360413,-0.12198084592819214,-0.023980296221354995,0.004941427367297781,-0.17830085849134628,-0.9836713777477301,0.3581496648942536,0.019512159783083228,3.089313509130835
1784373843284567296,3.1978724002838135,-0.04665321111679077,-0.5036727786064148,0.302480548620224,0.012584744021296501,-0.35078221559524536,-0.9363725185394287,0.11572641879320145,-0.14303797483444214,-0.08793473243713379,-0.02287331696383089,0.002249589638741658,-0.1783498891338426,-0.9836987454405884,0.35840626311157614,0.01343908143405356,3.0926618452262233
1784373843294487296,3.207792282104492,-0.1770094931125641,-0.5542659163475037,0.2846956253051758,0.0065643503330647945,-0.3497365415096283,-0.9368250966072083,0.06654051691293716,-0.1239267885684967,-0.012164771556854248,-0.02201309531259285,-0.0006405103858154926,-0.17772742378331546,-0.9838333681532517,0.35728986841052923,0.007006903415100565,3.0955852425516692
1784373843304407296,3.21771240234375,-0.2650815546512604,-0.5125959515571594,0.3343832790851593,0.00039740095962770283,-0.34761446714401245,-0.9376375079154968,0.08821039646863937,-0.16703397035598755,0.021423518657684326,-0.020911820649531607,-0.0035497776972262265,-0.17654647463253978,-0.9840637996380278,0.35502569069207235,0.00042383218883323894,3.099022074230164
1784373843314326272,3.2276313304901123,-0.532041072845459,-0.5238896608352661,0.3115730583667755,-0.005320525728166103,-0.3439261019229889,-0.9389816522598267,0.05782601982355118,-0.2275460660457611,0.03383028507232666,-0.019789707174947428,-0.006211442385407292,-0.17455828209878063,-0.9844283936351312,0.35109488172199227,-0.00566621189386486,3.1023976296772746
1784373843324246528,3.23755145072937,-0.5161758065223694,-0.5251485109329224,0.3335225582122803,-0.011270750313997269,-0.33894187211990356,-0.9407398104667664,0.09766602516174316,-0.17910927534103394,0.029851138591766357,-0.01858237802600202,-0.008965079749817476,-0.171900326132176,-0.9848983336041789,0.34579196986634586,-0.011980157730999903,3.1059547574354887
1784373843334166272,3.247471332550049,-0.47421029210090637,-0.539366602897644,0.2741157114505768,-0.01723872497677803,-0.3342694044113159,-0.942319929599762,0.10161983221769333,-0.1509142816066742,-0.026597917079925537,-0.017683412005631827,-0.01178828009617172,-0.1694139461703226,-0.9853158463768878,0.3408299384510951,-0.018291879858991958,3.108850438942307
1784373843344086528,3.2573914527893066,-0.3645745813846588,-0.5215839147567749,0.36451271176338196,-0.023269761353731155,-0.33008667826652527,-0.9436637759208679,0.11286936700344086,-0.08966735005378723,0.00576704740524292,-0.016498903621030615,-0.014602598421879725,-0.1671971320591401,-0.9856772902460835,0.33639540672232177,-0.024653956844372705,3.1123049848820385
1784373843354005248,3.267310380935669,-0.15523654222488403,-0.5110900402069092,0.26131173968315125,-0.02908969484269619,-0.32765069603919983,-0.9443510174751282,0.09903597831726074,-0.04824957251548767,-0.012375056743621826,-0.015448444185866826,-0.01735299345053999,-0.16590170057067125,-0.9858685534518705,0.3338159309166438,-0.030794163582422436,3.115443909120287
1784373843363925248,3.2772302627563477,-0.039954960346221924,-0.48168420791625977,0.2818971574306488,-0.03462878242135048,-0.32669395208358765,-0.9444955587387085,0.09667102992534637,-0.054272204637527466,0.01982825994491577,-0.01456774489192259,-0.020005371051998094,-0.16538437568921033,-0.9859186580541395,0.33280346673887284,-0.036647369215482374,3.118198959104759
1784373843373845248,3.2871503829956055,-0.0390319786965847,-0.5057070255279541,0.24471701681613922,-0.0400255061686039,-0.32632458209991455,-0.944409966468811,0.10333423316478729,-0.08996570110321045,0.047025322914123535,-0.013669606078705973,-0.02258899509826837,-0.16518093296841446,-0.9859098279632486,0.33241267497466426,-0.04235614781537272,3.1209709404478874
1784373843383765248,3.297070264816284,-0.06826389580965042,-0.5277529358863831,0.20353735983371735,-0.045603103935718536,-0.32569631934165955,-0.9443740248680115,0.11895210295915604,-0.08279672265052795,0.06865686178207397,-0.01299890388921575,-0.025300810435625768,-0.1648419435550683,-0.9859097769271045,0.33174812553655,-0.04825175862084415,3.123304284812941
1784373843393684480,3.3069894313812256,-0.07948926091194153,-0.46704134345054626,0.26962560415267944,-0.0511108934879303,-0.3249894976615906,-0.9443354606628418,0.1149078980088234,-0.08498361706733704,0.08592182397842407,-0.012301570086770065,-0.027972831267437867,-0.16446816757600802,-0.9859089142246144,0.33100060902765366,-0.05407090465038965,3.125672667555349
1784373843403604224,3.3169093132019043,-0.1978664994239807,-0.3857928216457367,0.22302430868148804,-0.05601528659462929,-0.32363277673721313,-0.9445232152938843,0.09135463833808899,-0.13129276037216187,0.10661733150482178,-0.011480474299855364,-0.030313164205758893,-0.16376660614368324,-0.9859664100943267,0.32956636884828966,-0.05923597513016755,3.1281591605857306
1784373843413524480,3.326829433441162,-0.3445530831813812,-0.25400325655937195,0.19233088195323944,-0.05980892479419708,-0.32092854380607605,-0.9452130794525146,0.033426474779844284,-0.13300517201423645,0.15947699546813965,-0.010741721490228208,-0.03209307925739302,-0.16236840213234185,-0.9861496442125315,0.3267097390596266,-0.06319135546518077,3.1302271384377525
1784373843423444224,3.336749315261841,-0.445141464471817,-0.19375669956207275,0.055074747651815414,-0.062260694801807404,-0.317147821187973,-0.946330189704895,0.020848348736763,-0.08318176865577698,0.19784080982208252,-0.010350020618027107,-0.033241397666112414,-0.16040543260223383,-0.9864370765098931,0.32272054425829877,-0.06569704110418993,3.1313063801196446
1784373843433363456,3.3466684818267822,-0.5642172694206238,-0.125215083360672,0.011829808354377747,-0.063897505402565,-0.3124410808086395,-0.9477856755256653,0.03725565969944,-0.023542195558547974,0.22763186693191528,-0.010433224752913781,-0.03404591688290812,-0.15794948793084557,-0.9868048828006454,0.31776166682988827,-0.06731581457805233,3.131238050591525
1784373843443283200,3.356588363647461,-0.7043325304985046,-0.03550782799720764,-0.010771108791232109,-0.0646803006529808,-0.30638229846954346,-0.9497085213661194,0.04578991234302521,0.014100193977355957,0.27659761905670166,-0.010569640848916387,-0.03441365807771979,-0.15479478293119397,-0.987290452508549,0.3113902286008289,-0.06800041515758494,3.1308597944882393
1784373843453203456,3.3665084838867188,-0.7784194350242615,0.12842601537704468,-0.08749671280384064,-0.06405417621135712,-0.2994741201400757,-0.9519518613815308,0.011792823672294617,0.022099852561950684,0.30378901958465576,-0.010870519696737132,-0.03408469670707233,-0.15120287973688276,-0.9878551430620262,0.30414143133021887,-0.0671859299632348,3.129885503762419
1784373843463123200,3.3764283657073975,-0.7018266320228577,0.27057862281799316,-0.08689697086811066,-0.06190487742424011,-0.2923896908760071,-0.9542934894561768,0.016632046550512314,0.04034501314163208,0.31194424629211426,-0.01128504226304706,-0.03299866208180195,-0.1475274464338603,-0.9884428553215768,0.29672477302174677,-0.06477908783193347,3.1284448997085503
1784373843473042176,3.3863472938537598,-0.41612759232521057,0.35903292894363403,-0.10686511546373367,-0.05868084728717804,-0.286828875541687,-0.9561828970909119,0.059733714908361435,0.1356143057346344,0.30184030532836914,-0.011593837230217386,-0.03136513278366651,-0.14465397488273748,-0.9889171723406273,0.29091498505265706,-0.0612930263281768,3.1271278840538015
1784373843482962432,3.3962674140930176,0.2328200489282608,0.5535305142402649,-0.12340307980775833,-0.0540282167494297,-0.2861175835132599,-0.9566701054573059,0.028561297804117203,0.2767486870288849,0.2635701298713684,-0.011868397358195712,-0.029045091712407725,-0.14429599505397794,-0.9890370113129117,0.29017258228663767,-0.05641535843252541,3.1258390553118813
1784373843492882176,3.4061872959136963,0.8260253667831421,0.7837596535682678,-0.27958205342292786,-0.047094423323869705,-0.291290819644928,-0.9554746150970459,-0.021493829786777496,0.36084040999412537,0.2697752118110657,-0.012227429115249665,-0.0256333816213233,-0.1469884868609212,-0.9887303991989007,0.2955759073835498,-0.04924918102223234,3.124193660704557
1784373843502801408,3.4161064624786377,1.0632306337356567,0.993481457233429,-0.36472809314727783,-0.037730030715465546,-0.3006088137626648,-0.9530009031295776,-0.06552618741989136,0.3298752009868622,0.3448771834373474,-0.013052815149307815,-0.021098104104157973,-0.1518367678970548,-0.9880941583614103,0.3053309412614699,-0.03957009539544751,3.1212631418085306
1784373843512721408,3.4260263442993164,0.9918245673179626,1.3311834335327148,-0.4565093517303467,-0.02553105354309082,-0.31062543392181396,-0.950189471244812,-0.06376338005065918,0.19667279720306396,0.4568575620651245,-0.014050242141487455,-0.015164132903134115,-0.1570838014153272,-0.987368844450397,0.3158509324433958,-0.026862971546191636,3.1174128285795133
1784373843522641408,3.435946464538574,0.7648143172264099,1.4747616052627563,-0.5442615747451782,-0.010498159565031528,-0.31918105483055115,-0.9476355910301208,-0.052291762083768845,0.06055983901023865,0.5096473097801208,-0.01536011913378958,-0.007835767776068606,-0.16161930472003597,-0.9867024668288132,0.3248652108933331,-0.011077812793878095,3.1122763284731523
1784373843532561408,3.445866346359253,0.4709055721759796,1.4862110614776611,-0.5342734456062317,0.005163470283150673,-0.3250541388988495,-0.9456813335418701,0.014276228845119476,0.019847840070724487,0.5647761821746826,-0.016798837066824737,-0.0001893427140411171,-0.164800806220594,-0.9861837920965727,0.3310689653139559,0.005459998998008064,3.106615411705542
1784373843542480128,3.4557852745056152,0.16687510907649994,1.5029231309890747,-0.6945344805717468,0.020942559465765953,-0.32798969745635986,-0.9444491267204285,0.02173626236617565,0.05969440937042236,0.6097628474235535,-0.018503316304080933,0.007496794267675489,-0.16649094454697663,-0.9858407815679323,0.33417476193934353,0.022170732303210868,3.1003194481574203
1784373843552400384,3.465705394744873,0.07720661163330078,1.5484310388565063,-0.8200057744979858,0.03780043497681618,-0.32866835594177246,-0.9436886310577393,-0.022633202373981476,0.14292311668395996,0.6207973957061768,-0.0209818272284388,0.015619777686059051,-0.16706797237273846,-0.9855982590821638,0.33489323971260665,0.04003464226954665,3.092254331062912
1784373843562320128,3.4756252765655518,0.11949601024389267,1.4877055883407593,-0.8161284923553467,0.05464238300919533,-0.32921284437179565,-0.94267338514328,9.090080857276917e-05,0.23212116956710815,0.5627142786979675,-0.02380819404278076,0.023678654690046826,-0.16763836962852313,-0.9852765985381137,0.3354698165989737,0.05790054808975701,3.0834674024589055
1784373843572240384,3.4855453968048096,0.32954737544059753,1.5343494415283203,-0.9489080309867859,0.07166629284620285,-0.33061519265174866,-0.9410406947135925,-0.016994044184684753,0.37399592995643616,0.5681158900260925,-0.02676535808664105,0.031800953947951155,-0.1687256938042925,-0.9847863236746093,0.3369553401382332,0.0760097070392065,3.0743138080515147
1784373843582160128,3.4954652786254883,0.6336303353309631,1.5941001176834106,-0.9222537875175476,0.08924815058708191,-0.33460932970046997,-0.9381211996078491,-0.07258555293083191,0.43456965684890747,0.5078996419906616,-0.030215210244480824,0.0400929370453495,-0.17126575872323024,-0.9839449430233342,0.34119062351182705,0.09484952357584425,3.0638438848788594
1784373843592079360,3.5053844451904297,0.5359668135643005,1.6775776147842407,-0.9327965974807739,0.10773846507072449,-0.33915814757347107,-0.9345395565032959,-0.05999371409416199,0.35922345519065857,0.5421445369720459,-0.03348268784617413,0.04887121310552726,-0.17418906211957347,-0.9829286044986089,0.34602185625795645,0.11477837220464263,3.0534107342568153
