time,seconds_elapsed,rotationRateX,rotationRateY,rotationRateZ,gravityX,gravityY,gravityZ,accelerationX,accelerationY,accelerationZ,quaternionW,quaternionX,quaternionY,quaternionZ,pitch,roll,yaw
1782665065658800128,0.16486120223999023,-0.059286929666996,-0.5150025486946106,-0.05608168989419937,-0.02061307057738304,0.42100274562835693,-0.9068251252174377,-0.016053805127739906,0.007128357887268066,-0.027073800563812256,0.6181574342749573,-0.14465202621037912,0.16019745849707723,-0.7558399851777926,-0.43455052134186817,-0.022727117923996478,-1.775558794132085
1782665065668720128,0.17478108406066895,0.16813990473747253,-0.4255475401878357,-0.2131614238023758,-0.025916913524270058,0.4202965497970581,-0.9070166349411011,-0.027961868792772293,0.010260701179504395,-0.013576626777648926,0.618070411719116,-0.14649340761142526,0.15821307050894648,-0.7559744576460593,-0.4337721260317319,-0.028566029777074082,-1.77714864854159
1782665065678640128,0.18470120429992676,0.4621039032936096,-0.4561760425567627,-0.42113858461380005,-0.032833293080329895,0.41702941060066223,-0.9082997441291809,-0.038364216685295105,0.01819702982902527,0.028508484363555908,0.6173322706364601,-0.14793302479599205,0.1548093726410826,-0.7570011376510226,-0.4301744912098853,-0.03613234852094602,-1.7812486565982941
1782665065688559104,0.19462013244628906,0.27695393562316895,-0.42966553568840027,-0.5683345794677734,-0.041016656905412674,0.41367676854133606,-0.9094994068145752,-0.020323671400547028,-0.01826050877571106,0.1118309497833252,0.615872584810685,-0.1497181880119302,0.151111761987,-0.7585846555089344,-0.4264889141889673,-0.045067521912480576,-1.7874783775923577
1782665065698478848,0.20454001426696777,-0.05561496317386627,-0.4336336553096771,-0.5940809845924377,-0.049637895077466965,0.41317278146743774,-0.909298837184906,0.015748117119073868,-0.15735918283462524,0.1480836272239685,0.613789602943138,-0.15258800697406705,0.1485512908202197,-0.7602051332140185,-0.4259353837677216,-0.05453507305799846,-1.7949148735295402
1782665065708399104,0.21446013450622559,-0.4307606816291809,-0.4511593282222748,-0.6362007856369019,-0.05717884749174118,0.4147147834300995,-0.9081531763076782,0.028187137097120285,-0.158290833234787,0.15690195560455322,0.6115554571416548,-0.15573700218343392,0.1472052464805036,-0.7616275731465236,-0.4276293313182517,-0.06287867491639527,-1.8021652512102802
1782665065718318080,0.2243790626525879,-0.5817952156066895,-0.3626997470855713,-0.6610057353973389,-0.06428463757038116,0.4183146357536316,-0.9060244560241699,0.012816771864891052,-0.07515975832939148,0.1144748330116272,0.6088758128045911,-0.1593660879259991,0.1469361089859023,-0.7630742817028773,-0.43158902440300656,-0.07083372817163992,-1.8101775601219303
1782665065728238080,0.2342991828918457,-0.4771620035171509,-0.38894668221473694,-0.333030104637146,-0.06992577761411667,0.4223478436470032,-0.9037325978279114,0.14827968180179596,0.09439101815223694,0.08068883419036865,0.6068505476461208,-0.16269139084224815,0.14719103576028472,-0.7639362516350815,-0.43603397349973655,-0.07722055717010581,-1.8161067368672992
1782665065738158080,0.24421906471252441,-0.20627112686634064,-0.4360657334327698,-0.3154948055744171,-0.07451475411653519,0.42524248361587524,-0.9020068645477295,0.1395019292831421,0.12782758474349976,0.05662417411804199,0.6057426864181693,-0.16537031616033723,0.14713676337369952,-0.7642507826946373,-0.4392297924913211,-0.08242280404522924,-1.8195797310756079
1782665065748078080,0.2541391849517822,0.07976037263870239,-0.44807422161102295,-0.387578547000885,-0.07893091440200806,0.4261467754840851,-0.9012041091918945,0.10581688582897186,0.11247321963310242,0.06255054473876953,0.6047318510635756,-0.1672992214322175,0.14631785397069946,-0.764788510860607,-0.44022913374263745,-0.08736090951809737,-1.8230398965095136
1782665065757998080,0.26405906677246094,0.4730493426322937,-0.42100852727890015,-0.41325968503952026,-0.08311288803815842,0.424442321062088,-0.9016323685646057,0.10639781504869461,0.12104412913322449,0.05893522500991821,0.6038141466897071,-0.16823437393267232,0.14450260709500767,-0.7656530648765921,-0.4383458829507671,-0.09192069371148846,-1.8265473886179644
1782665065767917056,0.27397823333740234,1.0403097867965698,-0.40987324714660645,-0.41301992535591125,-0.08685024827718735,0.4188156723976135,-0.9039084315299988,0.11190517246723175,0.16889184713363647,0.05825108289718628,0.6032439314075846,-0.16768067180387702,0.1411699930330292,-0.7668448778935685,-0.4321406986245094,-0.0957889601587795,-1.8295296691573317
1782665065777837056,0.28389811515808105,2.0242795944213867,-0.40454959869384766,-0.41295838356018066,-0.09017369896173477,0.4069567024707794,-0.9089856743812561,0.11167332530021667,0.21927925944328308,0.058186113834381104,0.6032676231306232,-0.1649045555813859,0.13532793372717414,-0.7684797423417539,-0.4191199264890644,-0.09887903800100435,-1.8315663264105673
1782665065787757056,0.29381823539733887,3.3153398036956787,-0.4795905649662018,-0.38371309638023376,-0.09332237392663956,0.3849441409111023,-0.9182096123695374,0.12593041360378265,0.2791030704975128,0.03857100009918213,0.6042854821698499,-0.158761392443761,0.12525974519017047,-0.7706774936692681,-0.3951473001086274,-0.10128734857213814,-1.831949176554753
1782665065797677056,0.3037381172180176,4.418683052062988,-0.593626856803894,-0.4578978419303894,-0.09688296914100647,0.35261887311935425,-0.9307382106781006,0.12291447818279266,0.41360121965408325,0.055204153060913086,0.606078167739579,-0.14949570932298237,0.11082387700640314,-0.7733293249580256,-0.36036827755491674,-0.10371907668803731,-1.8310251900513554
1782665065807596032,0.3136570453643799,5.4174723625183105,-0.6018828749656677,-0.5299014449119568,-0.10036832839250565,0.3120569586753845,-0.9447468519210815,0.09067900478839874,0.4437108337879181,0.07408040761947632,0.6080846415355807,-0.1376378215050381,0.0931793811837759,-0.7762772746560879,-0.31735734442847985,-0.10584132099956416,-1.829553098536122
1782665065817516032,0.3235771656036377,6.267734527587891,-0.5760493874549866,-0.5753818154335022,-0.1026235967874527,0.26404237747192383,-0.9590359926223755,0.0839620977640152,0.37163877487182617,0.12048923969268799,0.5936677839814033,-0.1214981227873834,0.07563209005459433,-0.7918816388891456,-0.2672109209133405,-0.10660138722116978,-1.8693251951809913
1782665065827436032,0.3334970474243164,6.962431907653809,-0.5864099264144897,-0.6071279048919678,-0.1049882248044014,0.20857669413089752,-0.9723544716835022,0.0961839109659195,0.2880205512046814,0.19244730472564697,0.5954034490220957,-0.10526991836408459,0.05235459076167549,-0.7947780169822731,-0.21011942591432542,-0.10755652045383311,-1.8670386940284747
1782665065837355264,0.3434162139892578,7.524896621704102,-0.5905950665473938,-0.6448391079902649,-0.10831831395626068,0.14397913217544556,-0.9836346507072449,0.11069868505001068,0.21429722011089325,0.28627753257751465,0.5957199953242691,-0.08681948574427772,0.025397717170388915,-0.7980821711987995,-0.144481284060525,-0.10967855471948551,-1.8671008800307798
1782665065847275008,0.3533360958099365,8.010560989379883,-0.6001893877983093,-0.7192224264144897,-0.11243418604135513,0.07139743119478226,-0.9910907745361328,0.11743906885385513,0.15846095979213715,0.3780536651611328,0.5953879596529171,-0.0665619480491692,-0.004910272620040482,-0.800661321184645,-0.07145823290712308,-0.11296194788381486,-1.8668235944579474
1782665065857195264,0.36325621604919434,8.358491897583008,-0.6816802620887756,-0.7824873924255371,-0.11730224639177322,-0.00752112315967679,-0.9930678009986877,0.17610961198806763,0.1367020308971405,0.44060808420181274,0.5929987324857061,-0.04502573389440002,-0.037931427289888034,-0.8030482103227559,0.007521194253102719,-0.11757627659949677,-1.8690336377784638
1782665065867115008,0.37317609786987305,8.60758113861084,-0.7818536162376404,-0.839899480342865,-0.12288126349449158,-0.08978363871574402,-0.9883517026901245,0.22087320685386658,0.12866303324699402,0.5170382261276245,0.5900751746347572,-0.023026442237608268,-0.07275939847684598,-0.8037332967358842,0.0899047040854266,-0.12369474835293254,-1.8694388757458056
1782665065877035264,0.38309621810913086,9.075302124023438,-0.8908384442329407,-0.8207867741584778,-0.12868757545948029,-0.17576132714748383,-0.9759854078292847,0.21532697975635529,0.06914816796779633,0.5167874097824097,0.5860783635876167,-0.00015275932238741665,-0.10957775622922765,-0.8028106642529809,0.17667907862133964,-0.13109775905312052,-1.868766199388344
1782665065886953984,0.39301514625549316,9.328357696533203,-1.0188122987747192,-0.9189983010292053,-0.13486258685588837,-0.2640507221221924,-0.9550336599349976,0.19656912982463837,0.04606366157531738,0.5871900320053101,0.5810245200413183,0.02329167287906613,-0.14812381823767468,-0.7999545449637923,0.26721956765472266,-0.14028482212307938,-1.8663581531326614
1782665065896873984,0.4029350280761719,9.434885025024414,-1.0490919351577759,-1.0920913219451904,-0.14062166213989258,-0.3523412048816681,-0.9252465963363647,0.14861728250980377,0.02600148320198059,0.6606134176254272,0.5749062840674145,0.04714292733103939,-0.1874946762035452,-0.7950510563941591,0.36007156637047694,-0.15082865631201442,-1.8619591791639178
1782665065906793984,0.4128551483154297,9.261520385742188,-1.0545109510421753,-1.3021528720855713,-0.14482370018959045,-0.4376137852668762,-0.8874233961105347,0.10214485228061676,-0.007103621959686279,0.7178372144699097,0.5664225502917514,0.0707714863640702,-0.22645023125659602,-0.7892256175739867,0.4529431294293126,-0.16176964850230593,-1.8592341955673342
1782665065916712960,0.422774076461792,8.717073440551758,-1.0352137088775635,-1.5610028505325317,-0.14647634327411652,-0.5168227553367615,-0.843468427658081,0.07996328175067902,-0.10160070657730103,0.619988203048706,0.555585175927492,0.09354695453070949,-0.26365653430997504,-0.7829810248139223,0.5431354109392895,-0.1719447534911702,-1.8593571299705614
1782665065926633216,0.4326941967010498,8.360426902770996,-1.380679726600647,-1.8256804943084717,-0.14648932218551636,-0.5879478454589844,-0.7955238819122314,0.14217108488082886,-0.22621536254882812,0.519660234451294,0.5434570314363057,0.11463283016008223,-0.2984918436713014,-0.7761549016777126,0.6285195276110009,-0.1821019844352115,-1.8605483672189806
1782665065936552960,0.4426140785217285,7.239396095275879,-1.2568681240081787,-2.032337188720703,-0.1444488763809204,-0.6505854725837708,-0.7455689907073975,0.1566559076309204,-0.31758469343185425,0.41542983055114746,0.529656907733586,0.13372292712440353,-0.3306564447439515,-0.7695765773982864,0.7083550920027615,-0.19137217088642905,-1.8650565274461242
1782665065946473216,0.45253419876098633,6.011767387390137,-1.3165425062179565,-2.3171141147613525,-0.1385078728199005,-0.700819730758667,-0.6997623443603516,0.10509110987186432,-0.341019868850708,0.42002296447753906,0.5147484976088971,0.14991237726341775,-0.3572745626916217,-0.7647975008270568,0.7765459910642135,-0.19540975865890872,-1.876630016364257
1782665065956391936,0.46245312690734863,4.997776031494141,-1.376118779182434,-2.466216802597046,-0.13011351227760315,-0.740672767162323,-0.6591466069221497,0.10066404938697815,-0.20955300331115723,0.28471124172210693,0.49917746464097845,0.163097065811963,-0.379244036336712,-0.7618366525597343,0.8340711578163228,-0.19489134399648894,-1.8949464727041434
1782665065966312192,0.47237324714660645,4.193831920623779,-1.372063159942627,-2.678586721420288,-0.11925256252288818,-0.7732271552085876,-0.6228150725364685,0.03311671316623688,-0.14075905084609985,0.279141366481781,0.4830323373507142,0.17427958627887744,-0.39776763832516476,-0.7603205432411645,0.883914610357027,-0.18918369762510187,-1.919923341865849
1782665065976231936,0.48229312896728516,3.5693936347961426,-1.4491454362869263,-2.9593021869659424,-0.10538554936647415,-0.7994570732116699,-0.5914069414138794,-0.15555500984191895,-0.1084713339805603,0.26146620512008667,0.46640300571725113,0.18394829309277125,-0.4128674730462044,-0.7603759458278682,0.9263908701553102,-0.17634368323712343,-1.952942305703487
1782665065986151936,0.49221301078796387,3.4266550540924072,-1.4631550312042236,-3.130610942840576,-0.08893997967243195,-0.822456955909729,-0.5618310570716858,-0.26329392194747925,-0.0869210958480835,0.17448675632476807,0.44912709783592797,0.19317056173177657,-0.4263444569083954,-0.7610520762985357,0.9657169277125237,-0.15700094518660895,-1.992886405300459
1782665065996071168,0.5021321773529053,3.492771863937378,-1.5270469188690186,-3.2141849994659424,-0.07060510665178299,-0.8436668515205383,-0.5322040915489197,-0.3258182406425476,-0.01305311918258667,0.1698535680770874,0.4308676727439808,0.20213784561915765,-0.43936119341721147,-0.7618760454913793,1.0040771222208291,-0.13189528162076922,-2.039730885607568
1782665066005990912,0.512052059173584,3.979761838912964,-1.675525188446045,-3.21624493598938,-0.05144558846950531,-0.8647181391716003,-0.4996158182621002,-0.3103708028793335,-0.010434448719024658,0.08683508634567261,0.4115130030375888,0.211152228996528,-0.45343888779614283,-0.761882579768519,1.0445889436401756,-0.10260866215404288,-2.092032900630013
1782665066015911168,0.5219721794128418,4.582887172698975,-1.7318350076675415,-3.1709775924682617,-0.03181377425789833,-0.8865305781364441,-0.46157512068748474,-0.2637336850166321,-0.08608001470565796,0.04951143264770508,0.3911474373988975,0.2207082081874884,-0.4695746255591363,-0.7601258962982208,1.0897917147871512,-0.0688155361033354,-2.1493823474675646
1782665066025830912,0.5318920612335205,5.353026866912842,-1.8136746883392334,-3.097895622253418,-0.011668982915580273,-0.9088908433914185,-0.41687095165252686,-0.24812714755535126,-0.19987380504608154,-0.0016623735427856445,0.3698462688916149,0.23102118973081676,-0.4880509471447864,-0.7560749318454322,1.1406166267876672,-0.027984527045097744,-2.213756688223918
1782665066035750144,0.5418112277984619,6.091513156890869,-1.8862942457199097,-3.0437211990356445,0.009037353098392487,-0.9312940239906311,-0.36415621638298035,-0.2721293866634369,-0.2503313422203064,-0.11229944229125977,0.34725837108478824,0.2420335596905636,-0.5092559747462468,-0.7493261558085037,1.1979491997262135,0.02481214965662134,-2.2906026371178583
1782665066045670144,0.5517311096191406,6.768990993499756,-1.9749360084533691,-2.93048357963562,0.0304955393075943,-0.9520878195762634,-0.3043003976345062,-0.3554467260837555,-0.2462763786315918,-0.219411700963974,0.32366802953771623,0.25356333795065017,-0.5324992304528856,-0.7398575358051759,1.259991783576138,0.09988176079083833,-2.38966927279919
1782665066055590144,0.5616512298583984,7.508984088897705,-2.042665719985962,-2.7016358375549316,0.051747798919677734,-0.9702322483062744,-0.23658283054828644,-0.4072928726673126,-0.2188240885734558,-0.29491132497787476,0.2992911641709607,0.2652546076851587,-0.5579861812221245,-0.7271286800669758,1.3261879099702683,0.2153387571024673,-2.5290975088941265
1782665066065510144,0.5715711116790771,7.877947807312012,-2.0812206268310547,-2.5611844062805176,0.07286722213029861,-0.9839730262756348,-0.16274891793727875,-0.4554508626461029,-0.1512654423713684,-0.21664562821388245,0.27414323569770904,0.27658079145235653,-0.5849176089364857,-0.7114912703904313,1.3915203221892194,0.42096282176621436,-2.7591405699043783
1782665066075428864,0.5814900398254395,8.081221580505371,-2.130383253097534,-2.376817464828491,0.09428752958774567,-0.9918323755264282,-0.08589824289083481,-0.4599491357803345,-0.11993825435638428,-0.1323634386062622,0.24860181091120306,0.2872953903531573,-0.611974049751351,-0.6936471194539064,1.4428998028990363,0.8319236447764659,3.088640783490709
1782665066085348096,0.5914092063903809,8.121732711791992,-2.117924690246582,-2.1329634189605713,0.11515162140130997,-0.9933167099952698,-0.007875747047364712,-0.44297143816947937,-0.09376519918441772,-0.03225487470626831,0.2232745508910678,0.2970389170369704,-0.638615696673991,-0.6738593181358311,1.4551181507316815,1.5025080867301375,2.3939468955417156
1782665066095268096,0.6013290882110596,8.081363677978516,-2.0934338569641113,-1.9534958600997925,0.13547565042972565,-0.988333523273468,0.0695921927690506,-0.48011070489883423,-0.05121713876724243,0.05559086054563522,0.1983825410530742,0.30575362103065434,-0.6643122913836362,-0.6525704788935639,1.4178962652003158,2.0453341434859653,1.8274851705800463
1782665066105188096,0.6112492084503174,8.007538795471191,-2.089129686355591,-1.7425328493118286,0.15534357726573944,-0.9770934581756592,0.14545448124408722,-0.48546743392944336,0.02538740634918213,0.0648573786020279,0.17384536352347915,0.3133222512499921,-0.6888805456642888,-0.630119557852495,1.3563456854379896,2.3233301161651347,1.525872772887475
1782665066115107072,0.6211681365966797,8.111332893371582,-2.210186719894409,-1.4905685186386108,0.17420339584350586,-0.9598904848098755,0.21968911588191986,-0.48113396763801575,0.13501566648483276,0.016974657773971558,0.14976183110696056,0.3196069386255483,-0.7125278657792028,-0.6064047850872692,1.286611248756394,2.4711627321884686,1.354219001776162
1782665066125026816,0.6310880184173584,8.469498634338379,-2.21329665184021,-1.2009786367416382,0.1920039802789688,-0.9363947510719299,0.2937682867050171,-0.48968762159347534,0.17923814058303833,-0.028845131397247314,0.12553937996458167,0.32436198401858635,-0.7359846804910237,-0.5808234546989818,1.2122124083146677,2.5626979491768935,1.2373478497229993
1782665066134947072,0.6410081386566162,9.093948364257812,-2.334164619445801,-0.9524772763252258,0.20868995785713196,-0.905258059501648,0.370076447725296,-0.43947911262512207,0.0901944637298584,-0.09573861956596375,0.10073008418447117,0.32766604917140413,-0.7600481485700848,-0.5521008192052584,1.1319867455244321,2.6281324410704383,1.1446082723484086
1782665066144866816,0.6509280204772949,9.22358512878418,-2.434739589691162,-1.002176284790039,0.22668161988258362,-0.8654026389122009,0.44687142968177795,-0.41022953391075134,0.001282036304473877,-0.1456018090248108,0.07435071705922303,0.32968156328678583,-0.7840572544724006,-0.5206115426774769,1.0459533536573806,2.672151046574098,1.0700727448204315
1782665066154786048,0.6608471870422363,8.672953605651855,-2.52591872215271,-0.8211777806282043,0.24569085240364075,-0.8204230070114136,0.516277015209198,-0.37328487634658813,-0.09479910135269165,-0.19471341371536255,0.04886334097582958,0.3314294979217374,-0.8051664454602153,-0.4893606273633304,0.9621504843526716,2.697418768857277,1.0156361576853583
1782665066164706048,0.670767068862915,7.281726360321045,-2.3717081546783447,-0.6434256434440613,0.2643994092941284,-0.775105357170105,0.5738505125045776,-0.4105938971042633,-0.11326122283935547,-0.2157115340232849,0.025224449129990018,0.33184620796219927,-0.8226805909250158,-0.4609104021615065,0.8868818305185311,2.7098382620973975,0.9743966014812884
1782665066174626048,0.6806871891021729,6.074074745178223,-2.362776517868042,-0.4375912845134735,0.28192010521888733,-0.7340952157974243,0.61775803565979,-0.4188372790813446,-0.13385510444641113,-0.3366454839706421,0.004429514853308387,0.3309251634664773,-0.8362819873703546,-0.43715132899947357,0.824333322305403,2.713462302007189,0.9431311134303683
1782665066184546048,0.6906070709228516,5.197176456451416,-2.3747904300689697,-0.2967081367969513,0.29902589321136475,-0.6975500583648682,0.651158332824707,-0.43664494156837463,-0.06126946210861206,-0.3514910340309143,-0.015256445837134655,0.32725123900657377,-0.8476354060224467,-0.41735836494331463,0.771972654055094,2.711096647167377,0.9141186325843633
1782665066194465280,0.700526237487793,4.825564861297607,-2.3999574184417725,-0.2207813858985901,0.3161222040653229,-0.6638367176055908,0.677781343460083,-0.3906766474246979,0.06337285041809082,-0.3679516315460205,-0.033749118606267586,0.32286539111582696,-0.857116459677809,-0.3999628950375297,0.7259372955348548,2.7051784703222412,0.8885328688315871
1782665066204385024,0.7104461193084717,4.768090724945068,-2.4761152267456055,-0.19247235357761383,0.33386901021003723,-0.6302759647369385,0.7009164094924927,-0.29471492767333984,0.16804146766662598,-0.3609505891799927,-0.05209094570194416,0.3179741921101839,-0.8656504034719325,-0.3831818846638625,0.6819086003007437,2.6970579944948465,0.8640813644349816
1782665066214305280,0.7203662395477295,4.367469310760498,-2.457468271255493,-0.23652823269367218,0.3523155450820923,-0.5969418287277222,0.720786988735199,-0.22005245089530945,0.12897014617919922,-0.18880462646484375,-0.07027843378391474,0.31279825488172935,-0.8732415105674199,-0.36697050690514665,0.6396838347093536,2.6869508456777282,0.8408621512254
1782665066224225024,0.7302861213684082,3.330890655517578,-2.322791576385498,-0.31123507022857666,0.37075042724609375,-0.5677297115325928,0.7350012063980103,-0.19667822122573853,-0.10522854328155518,-0.0681006908416748,-0.0869844172334003,0.3081574812322771,-0.8789422975847974,-0.35345865996066606,0.6037454215687668,2.674414077722786,0.8223281603305334
1782665066234144000,0.7402050495147705,1.7980278730392456,-1.960602045059204,-0.3138585388660431,0.3876677453517914,-0.5476889610290527,0.741451621055603,-0.22841176390647888,-0.28724145889282227,-0.06670796871185303,-0.10052529463845662,0.3046608817151876,-0.8819906843761885,-0.3452084187994099,0.5795995953076676,2.659832846518393,0.8114266778203219
1782665066244064000,0.7501251697540283,0.06709444522857666,-1.6490558385849,-0.21185064315795898,0.40245679020881653,-0.5395835638046265,0.7395123243331909,-0.23850101232528687,-0.24307024478912354,-0.06946831941604614,-0.11038718887884623,0.30220083500377964,-0.8822872683136207,-0.3435965906686415,0.5699424464614239,2.6431985459845513,0.8088166189062592
1782665066253984000,0.760045051574707,-1.2617262601852417,-1.4330614805221558,-0.40266773104667664,0.41473284363746643,-0.5429008603096008,0.730243444442749,-0.26451000571250916,-0.08370137214660645,-0.06351059675216675,-0.11646507824367117,0.30109821794165714,-0.8800349970332018,-0.3483019023277445,0.5738875229109592,2.6250820149449097,0.8148998525473304
1782665066263904000,0.7699651718139648,-2.331850290298462,-1.2028212547302246,-0.4622856378555298,0.4261416494846344,-0.5539742112159729,0.715203046798706,-0.21372413635253906,0.04477328062057495,-0.050240516662597656,-0.12006099388361642,0.3017614913425213,-0.8755235786966015,-0.3577480952383318,0.5871303375273502,2.6042426858634196,0.8299092468954237
1782665066273822976,0.7798840999603271,-3.0000548362731934,-1.100553035736084,-0.59751296043396,0.43678009510040283,-0.5706350803375244,0.6954124569892883,-0.2044956386089325,0.031938910484313965,-0.0643700361251831,-0.12173974909840887,0.30361595839576316,-0.869208589094356,-0.37077370048653685,0.6072790353920994,2.5807759534028665,0.852092512872108
1782665066283743232,0.789804220199585,-3.410140037536621,-0.8428796529769897,-0.7011418342590332,0.4467466473579407,-0.589685320854187,0.6728217005729675,-0.1981808841228485,0.006860554218292236,-0.11486870050430298,-0.1220758191928065,0.3064957758952154,-0.8616676807331911,-0.38559922029568405,0.630669160197026,2.5554456683131996,0.879738489697623
1782665066293662976,0.7997241020202637,-3.3884189128875732,-0.8418537974357605,-0.605384111404419,0.4558299481868744,-0.609165608882904,0.6489500403404236,-0.09111443161964417,0.004215717315673828,-0.19345992803573608,-0.12156875793655897,0.30964551738978435,-0.8535775814687242,-0.40093136600858276,0.6550080275803072,2.529250124998791,0.9099670822304458
1782665066303581952,0.809643030166626,-3.228278160095215,-0.7449023723602295,-0.5605868697166443,0.46426770091056824,-0.6274713277816772,0.625088632106781,-0.0471838116645813,0.00015181303024291992,-0.2286803126335144,-0.12087877018154902,0.31252469736914706,-0.8455014053983773,-0.4157453187902857,0.678301358886684,2.502765115014621,0.9404200137149437
1782665066313501952,0.8195631504058838,-2.7602059841156006,-0.8320942521095276,-0.6245623826980591,0.4724506437778473,-0.643085777759552,0.6026869416236877,-0.01818111538887024,-0.049617648124694824,-0.2802227735519409,-0.12052095256954921,0.3151813917098751,-0.837856881236421,-0.42910531033672317,0.6985209601696432,2.4767416959999116,0.9697538092489899
1782665066323421952,0.8294830322265625,-2.0534002780914307,-0.8255326747894287,-0.47226765751838684,0.4803447425365448,-0.6546909213066101,0.5836511850357056,0.03248786926269531,-0.08769494295120239,-0.30267590284347534,-0.12109372085850385,0.3170994794355779,-0.8314285930758868,-0.43989851424923676,0.7137736216526746,2.4529839845379064,0.9945480478549891
1782665066333341952,0.8394031524658203,-1.3458508253097534,-0.9952431321144104,-0.40907350182533264,0.4882124960422516,-0.662527859210968,0.5680720210075378,0.052940547466278076,-0.13872647285461426,-0.2361016869544983,-0.12299312079288426,0.31788886098928515,-0.8264276610009038,-0.4481482176643085,0.7241885845809394,2.4316551139662614,1.013407727079262
1782665066343260928,0.8493220806121826,-0.8511177897453308,-0.8773373365402222,-0.27164584398269653,0.49532780051231384,-0.6668293476104736,0.5567664504051208,0.03633418679237366,-0.14440417289733887,-0.08293533325195312,-0.1256564999643507,0.31795832896483345,-0.82297371731374,-0.4536818108714761,0.7299459417921348,2.4145247811089487,1.0260786713308778
1782665066353181184,0.8592422008514404,-0.6105678081512451,-0.9480906128883362,-0.2530103921890259,0.5015085339546204,-0.6697184443473816,0.5476920008659363,0.026582956314086914,-0.11064660549163818,-0.01375645399093628,-0.12856079289845437,0.3172967681477599,-0.8204686208425741,-0.4578494908128796,0.7338295657183371,2.4001838702605536,1.0345788068639148
1782665066363100928,0.8691620826721191,-0.5343800783157349,-1.0102909803390503,-0.28358709812164307,0.5080090761184692,-0.6714915633201599,0.5394686460494995,-0.007673203945159912,-0.10862940549850464,-0.05204176902770996,-0.13206243311495877,0.3163321849351573,-0.8183326142189767,-0.4613300074275447,0.7362198597591418,2.386219122825098,1.0414051079239257
1782665066373021184,0.879082202911377,-0.8269669413566589,-1.086660623550415,-0.10800221562385559,0.5147740244865417,-0.6740921139717102,0.5297237634658813,0.05529427528381348,-0.14387047290802002,0.009598076343536377,-0.1356174192718853,0.31521798682491314,-0.8157815235603535,-0.4655598205234341,0.7397348725253486,2.370506342120628,1.0496037196774735
1782665066382940160,0.8890011310577393,-0.8295004367828369,-1.2141215801239014,0.03785405680537224,0.5204855799674988,-0.6784874796867371,0.5184107422828674,0.09490138292312622,-0.17482972145080566,0.006461143493652344,-0.13892394693072574,0.31292052279546523,-0.8131950087227202,-0.47063238683178615,0.7457017720671085,2.3541973408069596,1.0568130568228489
1782665066392859904,0.898921012878418,-0.7323073148727417,-1.0888768434524536,-0.020762383937835693,0.525955080986023,-0.6828534007072449,0.5070335865020752,0.07022124528884888,-0.16692399978637695,0.09130942821502686,-0.14211389763684493,0.31067398195919543,-0.8105544239723502,-0.4756963561133816,0.751661323735994,2.3378793336852337,1.064323834770796
1782665066402780160,0.9088411331176758,-0.6933722496032715,-1.089028239250183,0.11688080430030823,0.5314258933067322,-0.6866788268089294,0.4960431456565857,0.12647205591201782,-0.23783594369888306,0.09671509265899658,-0.14551183357960606,0.30833686535724425,-0.8080531820855062,-0.4804214493516821,0.7569105778109682,2.3217712861961988,1.0712295659074953
1782665066412699904,0.9187610149383545,-0.5312115550041199,-1.1173408031463623,0.17285458743572235,0.5357109904289246,-0.6905679702758789,0.4859313666820526,0.1811315417289734,-0.33444106578826904,0.11830130219459534,-0.1485448670009454,0.30559724515496534,-0.8059627838184805,-0.4847356295601159,0.7622740152241627,2.3075078783432312,1.0762543277373677
1782665066422619136,0.9286801815032959,-0.6973470449447632,-1.0183485746383667,0.2288762778043747,0.5392322540283203,-0.6946120262145996,0.476174920797348,0.2510966658592224,-0.4218582510948181,0.12470084428787231,-0.15141681690458644,0.3024557332400907,-0.804119390092898,-0.4888613585706379,0.767880446813478,2.2941736186147343,1.0799938795527833
1782665066432538880,0.9386000633239746,-0.8733422756195068,-0.9121859073638916,0.22414223849773407,0.5418375730514526,-0.699688732624054,0.46566930413246155,0.24133509397506714,-0.49840086698532104,0.13270419836044312,-0.1532865725546953,0.29983918398830123,-0.8018298512389613,-0.4936280420135351,0.7749617627338418,2.2807372883216406,1.0861537301208466
1782665066442459136,0.9485201835632324,-1.4359049797058105,-0.7913222908973694,0.49385812878608704,0.542604386806488,-0.7071425318717957,0.4533538818359375,0.3318614959716797,-0.5220596790313721,0.07920831441879272,-0.15379415075399477,0.29702748579051647,-0.79903167510139,-0.49967026396447184,0.7854487581473976,2.2668205188450354,1.094463375695131
1782665066452378880,0.9584400653839111,-2.1463427543640137,-0.7717291712760925,0.43533116579055786,0.5424768328666687,-0.717829704284668,0.4363933801651001,0.2766454219818115,-0.48961347341537476,0.006538689136505127,-0.15292693777676158,0.2945156721943145,-0.7946428179739586,-0.5083469171642642,0.8006800117822781,2.248242420135531,1.1098296692996812
1782665066462298112,0.9683592319488525,-3.1772003173828125,-0.7680413126945496,0.3519960939884186,0.5424436330795288,-0.7314908504486084,0.4131298363208771,0.20470303297042847,-0.4977267384529114,0.013017714023590088,-0.15085468794450216,0.29285320177565705,-0.787909844236511,-0.5202672524523934,0.8205058282677974,2.2216857449357015,1.1361541506187003
1782665066472218112,0.9782791137695312,-4.015539646148682,-0.4735862910747528,0.4581049680709839,0.5419893860816956,-0.7481564283370972,0.3827653229236603,0.14911162853240967,-0.6224642395973206,0.10511907935142517,-0.14691330153588425,0.2923678799542187,-0.7783981562753944,-0.5357553255430134,0.8452792865488001,2.1856865599847133,1.1763747883081503
1782665066482138112,0.9881992340087891,-4.402281284332275,-0.5229728817939758,0.7823672294616699,0.5384837985038757,-0.7673987746238708,0.3480431139469147,0.3252093195915222,-0.8196677565574646,0.21750861406326294,-0.14078557538305558,0.2912963820039274,-0.7675727846469562,-0.55331522743686,0.8747742261207783,2.144593658893312,1.2239133312486488
1782665066492058112,0.9981191158294678,-4.886418342590332,-0.4066835939884186,0.8027177453041077,0.5334908366203308,-0.7871137857437134,0.3095800578594208,0.37489551305770874,-0.8949847221374512,0.3686883747577667,-0.1333415355824736,0.29013713597690666,-0.755387625771932,-0.5722151292371663,0.9061156613876206,2.096598024821596,1.280114497271409
1782665066501977088,1.00803804397583,-5.7294816970825195,-0.4124639332294464,1.188293695449829,0.5256871581077576,-0.8082112073898315,0.2654199004173279,0.6496058106422424,-0.952088475227356,0.3465644121170044,-0.12406182559675073,0.28802168512740733,-0.7414536099755364,-0.5932105431701652,0.9411081962721073,2.0383569113034086,1.3477055110697513
1782665066511897088,1.017958164215088,-7.180531024932861,-0.2494553029537201,0.9981160163879395,0.5145803093910217,-0.8314034938812256,0.20970287919044495,0.6106027364730835,-0.9065420031547546,0.28185904026031494,-0.1114672328801761,0.2855497300093439,-0.7234036163024272,-0.6186465978117773,0.9816287079811703,1.9577704419332336,1.441809396810861
1782665066521817088,1.0278780460357666,-9.022969245910645,-0.456596314907074,1.4917091131210327,0.5027821660041809,-0.8530492186546326,0.13970257341861725,0.777048647403717,-1.0127801895141602,0.2274237722158432,-0.09648992974510186,0.28345373806504387,-0.6996465261022191,-0.6487204890738987,1.021800979056113,1.8418186008019697,1.5753353458464097
1782665066531737088,1.0377981662750244,-10.640464782714844,-0.3997407555580139,1.4282265901565552,0.4895707070827484,-0.8703670501708984,0.052741795778274536,0.8013075590133667,-1.0996952056884766,0.48865532875061035,-0.0787281929835074,0.28101292906641673,-0.6688816279584864,-0.6836892442526596,1.0559472944389778,1.6781131362554969,1.7603904239544965
1782665066541656064,1.0477170944213867,-11.643339157104492,-0.34922462701797485,1.4427434206008911,0.4768821597099304,-0.8777527213096619,-0.04618809372186661,0.8948981761932373,-1.0945067405700684,0.8692929744720459,-0.05915485189671054,0.2789434170723767,-0.6317408677722098,-0.7208291376060731,1.071151397989276,1.4742431801321794,1.989527018480526
1782665066551576064,1.0576372146606445,-11.27425479888916,-0.4031014144420624,1.9050519466400146,0.46169084310531616,-0.8745572566986084,-0.14829374849796295,1.009012222290039,-1.031128168106079,1.0365383625030518,-0.038293047956506926,0.2751022045585015,-0.5917532454588419,-0.7567565329540629,1.0645220613802824,1.2600078871236544,2.2292556813478113
1782665066561496064,1.0675570964813232,-10.245514869689941,-0.47389304637908936,1.954950213432312,0.4436788856983185,-0.8625075817108154,-0.24337153136730194,0.9299325346946716,-0.8291274905204773,1.1014494895935059,-0.017285949907471294,0.2692955170195704,-0.5529865816785045,-0.7882810082579196,1.0402042064089538,1.0690818020343733,2.4439584399787857
1782665066571415040,1.0774760246276855,-8.658236503601074,-0.5003747344017029,1.939261555671692,0.4258110523223877,-0.8443515300750732,-0.3252008855342865,0.8936011791229248,-0.6212704181671143,0.9142054319381714,0.0018794047013442352,0.26275056663657415,-0.5180363846813507,-0.8140006368752586,1.0053536908574734,0.9185713947626655,2.615245924080805
1782665066581335040,1.0873961448669434,-7.435657024383545,-0.8382858633995056,2.1516849994659424,0.4064679443836212,-0.824198842048645,-0.39430975914001465,0.9586443901062012,-0.4521530866622925,0.7316815853118896,0.018939148612378706,0.2545388198790897,-0.4879089181109567,-0.8347432330971446,0.9687860010184066,0.8005799897909552,2.7487961728997363
1782665066591255040,1.097316026687622,-6.438637733459473,-0.9784075617790222,2.0613627433776855,0.3853590488433838,-0.80370032787323,-0.45339179039001465,0.9381120204925537,-0.414530873298645,0.5783002376556396,0.03423827719821144,0.24477723308228747,-0.4619396221441805,-0.8517767141129169,0.9334880389462217,0.7044633900562802,2.855682604173758
1782665066601175040,1.1072361469268799,-5.923247814178467,-1.1892203092575073,2.238131046295166,0.36328810453414917,-0.7826218008995056,-0.5054945945739746,0.954033613204956,-0.4691176414489746,0.5921645760536194,0.048255427410681805,0.23412259237556152,-0.43867906517747635,-0.8662670644431474,0.8988665191319835,0.6231521889958063,2.944650165062159
1782665066611094016,1.1171550750732422,-5.583112716674805,-1.2374002933502197,2.391511917114258,0.33912602066993713,-0.7606619000434875,-0.5535224080085754,0.8351293802261353,-0.5197030901908875,0.6496375799179077,0.06231465523132014,0.22242219103782412,-0.41685387666400125,-0.879134895605069,0.8643321551740155,0.5496828668248375,3.024450069186017
1782665066621014016,1.1270751953125,-5.489973068237305,-1.179819941520691,2.5450387001037598,0.3139488995075226,-0.7373018264770508,-0.5981823801994324,0.6579596996307373,-0.5318479537963867,0.7135388851165771,0.07658382039411966,0.21028791196682703,-0.39583810013449217,-0.8906324764469112,0.8290676619882942,0.4833200660328802,3.0970760646865654
1782665066630934016,1.1369950771331787,-5.163397789001465,-1.1418554782867432,3.0252935886383057,0.2866447865962982,-0.7130077481269836,-0.6398865580558777,0.5891792178153992,-0.6200153231620789,0.8684174418449402,0.09222029156354031,0.19755212426489907,-0.3755394628072216,-0.900798951369042,0.7937785896300363,0.42115772883133235,-3.116250874600847
1782665066640854016,1.1469151973724365,-4.663445949554443,-1.0710315704345703,3.3916077613830566,0.25705698132514954,-0.6899330615997314,-0.6766934990882874,0.5143206119537354,-0.766777753829956,1.0474820137023926,0.10925606154544497,0.1843284924662462,-0.3573181507793084,-0.9090709040185179,0.76139660007023,0.3630352603224259,-3.0490200266914984
1782665066650772992,1.1568341255187988,-4.206669330596924,-0.8021665215492249,3.6257243156433105,0.226664200425148,-0.668177604675293,-0.7086339592933655,0.4250844717025757,-0.8403672575950623,1.1412205696105957,0.1275310077618226,0.1713144003342139,-0.3410782949969922,-0.915452269329775,0.7317566211837784,0.30957663736795776,-2.9841778212673153
1782665066660693248,1.1667542457580566,-3.987839937210083,-0.6407338976860046,3.683797597885132,0.19776172935962677,-0.647111177444458,-0.7362997531890869,0.37354257702827454,-0.7780444025993347,1.0703604221343994,0.1463667725739516,0.15935698022361497,-0.32627514405668456,-0.9201774646491957,0.7037892104456825,0.2623958690406112,-2.9229350240857954
1782665066670612992,1.1766741275787354,-3.7161476612091064,-0.5371733903884888,3.836033821105957,0.16971421241760254,-0.6255769729614258,-0.7614791393280029,0.31316542625427246,-0.5290707945823669,0.9273117184638977,0.16562027302918791,0.14781970522993848,-0.31210536417559337,-0.9237474954538223,0.6758708737039356,0.21929035256236531,-2.864112857810156
1782665066680533248,1.1865942478179932,-3.1107237339019775,-0.4885953664779663,3.9265968799591064,0.14202380180358887,-0.6060192584991455,-0.7826684713363647,0.15215039253234863,-0.221846342086792,0.6854547262191772,0.185132023654645,0.13669156188194706,-0.29996865849052917,-0.9257755492731646,0.6510466184266906,0.17950773090909866,-2.807583390471053
1782665066690452224,1.1965131759643555,-3.0691661834716797,-0.438029408454895,3.7022087574005127,0.11565430462360382,-0.587786853313446,-0.8007063865661621,-0.04402954876422882,0.012774646282196045,0.6145644187927246,0.2040899790871717,0.1261359012631637,-0.28937265995659234,-0.9266609331514526,0.6283204748283019,0.1434482422493603,-2.754710675396663
1782665066700371968,1.2064330577850342,-3.8869612216949463,-0.3406949043273926,3.25586199760437,0.09236648678779602,-0.5642790198326111,-0.8204008936882019,-0.23839309811592102,0.09034103155136108,0.5097167491912842,0.22162978446825274,0.11578327700774906,-0.27639423822049974,-0.92794437366921,0.5995596740735425,0.11211488888041114,-2.7073848816214765
1782665066710292224,1.216353178024292,-4.55096960067749,-0.5310003757476807,3.084458827972412,0.07174886763095856,-0.5324165225028992,-0.8434363007545471,-0.33493244647979736,0.19130629301071167,0.3549719452857971,0.23786745579061483,0.10490199215431305,-0.2593789279318733,-0.9301276074287138,0.5614528166885223,0.08486301363912933,-2.6653351457649612
1782665066720211968,1.2262730598449707,-5.053793907165527,-0.6721765398979187,2.8179988861083984,0.05115487426519394,-0.4941849410533905,-0.8678504824638367,-0.43248724937438965,0.4012283980846405,0.25028151273727417,0.2532884846529399,0.09255512037547604,-0.23980890529226068,-0.9326147525958915,0.5168970356725759,0.0588762150863447,-2.626775759251279
1782665066730131200,1.236192226409912,-4.914580345153809,-0.7212843894958496,2.1958963871002197,0.03299897909164429,-0.45200613141059875,-0.8914042115211487,-0.5460605025291443,0.5152385830879211,0.11843979358673096,0.26629777508025887,0.07995763524433588,-0.21887133588384552,-0.9353007820034558,0.46901306381673274,0.03700219854536948,-2.595675231039529
1782665066740050944,1.2461121082305908,-4.093477249145508,-0.8173519372940063,1.9299228191375732,0.016894588246941566,-0.41281330585479736,-0.9106589555740356,-0.5012543201446533,0.5067158937454224,0.12139809131622314,0.276663488228515,0.06806446071307916,-0.2000943488016833,-0.9374362822823785,0.4255406857855646,0.018549920273822917,-2.571638497799093
1782665066749971200,1.2560322284698486,-3.3634023666381836,-0.744680643081665,1.5985914468765259,0.0025715073570609093,-0.3801308274269104,-0.924929141998291,-0.4743579924106598,0.4573708176612854,0.19032526016235352,0.28531253298294607,0.05759683027620796,-0.18498113945327346,-0.9386487211948947,0.3899377243377782,0.002780213590645585,-2.551968337620364
1782665066759890944,1.2659521102905273,-2.7626900672912598,-1.0039055347442627,1.3934969902038574,-0.011501739732921124,-0.3526812493801117,-0.9356728196144104,-0.4987979233264923,0.4081774652004242,0.1764107346534729,0.29226173032198366,0.04766859658387557,-0.17289096161980383,-0.9393719361179677,0.36043492807476446,-0.012291860680432632,-2.5360904885317868
1782665066769809920,1.2758710384368896,-1.8617424964904785,-1.00888991355896,1.1431313753128052,-0.025445055216550827,-0.3315622806549072,-0.9430901408195496,-0.7221898436546326,0.5958445072174072,0.13159722089767456,0.2978131377927784,0.03851358919706412,-0.1642304394014978,-0.9396022420465041,0.3379590500687641,-0.02697396890784827,-2.523110807377076
1782665066779730176,1.2857911586761475,-1.0804128646850586,-0.9773431420326233,0.8767165541648865,-0.03860238194465637,-0.31854385137557983,-0.947121798992157,-1.098818302154541,1.2841200828552246,0.20113486051559448,0.3021169782648111,0.03080354578891175,-0.1596566646394056,-0.9393009178100339,0.3241929195899981,-0.04073502199197254,-2.5125500590496115
1782665066789649920,1.2957110404968262,0.035829730331897736,-0.936481237411499,-0.15964217483997345,-0.04930692911148071,-0.313698410987854,-0.9482415914535522,-1.453165054321289,2.189720630645752,0.22648561000823975,0.30328045024283384,0.025062778206329572,-0.15890581197158424,-0.9392239736792405,0.319085546580447,-0.05195148687997959,-2.50855882978082
1782665066799569152,1.3056302070617676,1.8328088521957397,-0.9136270880699158,-0.7919695377349854,-0.05691077560186386,-0.32424426078796387,-0.9442599415779114,-1.3093459606170654,2.3636271953582764,0.09858733415603638,0.29996217148200993,0.022532331301495474,-0.16541561558498935,-0.9392298917019454,0.3302127329873341,-0.06019742490858469,-2.5132961624905286
1782665066809488896,1.3155500888824463,1.7567318677902222,-1.0397930145263672,-1.091693639755249,-0.06368116289377213,-0.34324026107788086,-0.9370863437652588,-1.0642790794372559,1.7978606224060059,0.47816306352615356,0.29487894767477324,0.021383749374749232,-0.17606691729412557,-0.9389300347983629,0.35036458790717084,-0.06785223961962829,-2.5209704481076023
1782665066819409152,1.325470209121704,0.6443726420402527,-0.5668991804122925,-1.6444456577301025,-0.06747639924287796,-0.3567429482936859,-0.9317625164985657,-1.1511362791061401,1.1114884614944458,0.7830198407173157,0.2875802285599691,0.020281751205107036,-0.1835957215341516,-0.9397759361796142,0.36477910602677144,-0.07229181977823161,-2.534331938010919
1782665066829328896,1.3353900909423828,-0.6499183177947998,-0.7506277561187744,-1.857066035270691,-0.07040338963270187,-0.35924437642097473,-0.9305841326713562,-1.0159003734588623,0.6157293319702148,0.7250177264213562,0.2789003045088113,0.01754289417677429,-0.18547283823147345,-0.9420757706477701,0.3674580868041203,-0.07551120271673135,-2.5518987770474357
1782665066839247872,1.3453090190887451,-1.662955641746521,0.10020709782838821,-1.654125452041626,-0.08074229210615158,-0.3580282926559448,-0.9302130937576294,-0.8582988381385803,0.5643881559371948,0.7860327959060669,0.27086228450624317,0.010739645336842258,-0.18648888943818964,-0.9443199377026811,0.3661553358244492,-0.08658276865100761,-2.5668844851710286
1782665066849168128,1.355229139328003,-2.100306510925293,0.49421700835227966,-1.5730020999908447,-0.07590023428201675,-0.34205394983291626,-0.9366099834442139,-0.9379090070724487,1.1224493980407715,0.7111613750457764,0.26410638657886587,0.009496628494798041,-0.1777774633546957,-0.9479202449396615,0.34910183087134705,-0.08086048778710166,-2.583874755868577
1782665066859087872,1.3651490211486816,-0.9590545892715454,-0.689757764339447,-1.7392854690551758,-0.070656917989254,-0.3286941349506378,-0.9417896866798401,-1.1200627088546753,1.6692397594451904,-0.07058519124984741,0.2569065842817114,0.008873592037815639,-0.1703714383070075,-0.9512591273603236,0.3349205547291135,-0.07488380835005021,-2.6013741247952793
1782665066869008128,1.3750691413879395,0.5496628880500793,-1.0761125087738037,-2.299605369567871,-0.07428230345249176,-0.32770437002182007,-0.9418556094169617,-0.8032659292221069,1.1229009628295898,-0.7848137021064758,0.24639570981310238,0.0050857044768425775,-0.1704298452569366,-0.9540529434242929,0.333872758322373,-0.0787051203417323,-2.6228448446710657
1782665066878927104,1.3849880695343018,0.40139180421829224,-0.5800376534461975,-1.4474165439605713,-0.07841353863477707,-0.33530160784721375,-0.9388419389724731,-0.6106275916099548,-0.36857107281684875,-0.8146981000900269,0.2372653134127576,0.0023856113283270033,-0.1748523671974964,-0.9555763588363201,0.341925367831133,-0.0833281515245615,-2.6404505778426444
1782665066888847104,1.3949081897735596,-0.5793988108634949,-0.9403191804885864,-2.213124990463257,-0.08362510800361633,-0.33375561237335205,-0.9389430284500122,-1.1260154247283936,0.04864513874053955,-0.1579502820968628,0.22844514232797883,-0.0019841051280508303,-0.1747127382674689,-0.9577496495752246,0.34028483628676093,-0.08882864686676403,-2.6580263078621824
1782665066898767104,1.4048280715942383,-0.03055202029645443,-0.12138883769512177,-1.265875220298767,-0.09478086233139038,-0.33208727836608887,-0.9384746551513672,-0.7119665741920471,0.03051254153251648,-0.08300971984863281,0.22027496073923533,-0.009180149226926363,-0.17515251119504935,-0.9595397103350112,0.33851556339530886,-0.10065329618148446,-2.673070815933095
1782665066908687104,1.414748191833496,-0.5332963466644287,-0.6846218109130859,-0.9090782403945923,-0.10450129210948944,-0.3320917785167694,-0.9374403953552246,-0.8715576529502869,-0.1692967414855957,0.24057155847549438,0.21577505393991492,-0.014810605683394814,-0.17623971514894513,-0.960292354791806,0.3385203531903606,-0.11101678483505652,-2.6805489762775987
1782665066918606080,1.4246671199798584,-0.6570476293563843,-1.3151732683181763,-0.6331879496574402,-0.11905037611722946,-0.32541802525520325,-0.9380459189414978,-0.47668325901031494,-0.31531378626823425,0.2835049033164978,0.21268494539617538,-0.023328878281126113,-0.17445002124324627,-0.9611389675330778,0.33145378135468095,-0.12623828001078824,-2.684900707726982
1782665066928526080,1.4345872402191162,-1.2264831066131592,-0.9638453722000122,-0.5319768786430359,-0.13859157264232635,-0.31631529331207275,-0.9384759068489075,-0.24351902306079865,-0.056548476219177246,0.26992732286453247,0.20857543326807515,-0.03475431586006277,-0.17191331241452293,-0.9621508508513879,0.3218428106606019,-0.14661757674121065,-2.6907968478729405
1782665066938446080,1.444507122039795,-0.9685077667236328,-0.7942989468574524,-1.2361377477645874,-0.14618079364299774,-0.30464619398117065,-0.9411811232566833,-0.05045922100543976,0.27360981702804565,0.33444589376449585,0.2011992510945261,-0.04104993683042075,-0.1665063010005775,-0.9644218331507358,0.30956694074928587,-0.15408519493143139,-2.7061606690017004
1782665066948366080,1.4544272422790527,-0.7674753069877625,1.5134934186935425,-0.1848950833082199,-0.14368188381195068,-0.2976948618888855,-0.9437866806983948,0.4292653799057007,-0.3283732533454895,0.2829743027687073,0.200191004125662,-0.040694404605857784,-0.16263647936360853,-0.9653066998851463,0.30227712469196644,-0.15107972492613708,-2.7095660266602972
1782665066958285056,1.464346170425415,-0.25888001918792725,2.3095288276672363,0.8090813159942627,-0.12337765842676163,-0.29274576902389526,-0.9481971859931946,1.085032343864441,0.017584025859832764,0.15350419282913208,0.2025386047765643,-0.030738898547125085,-0.157976373865073,-0.9659589884263695,0.2970971525270946,-0.12939118634444038,-2.70883862660467
1782665066968205056,1.4742660522460938,-0.1869022101163864,0.09876788407564163,-0.1437292844057083,-0.11693506687879562,-0.29223018884658813,-0.9491721391677856,1.348731279373169,0.09588009119033813,-0.28707969188690186,0.20623405666140096,-0.02699849504033964,-0.1571146812898566,-0.9654292270942841,0.29655799784719394,-0.12257924883639985,-2.702348230420348
1782665066978125056,1.4841861724853516,0.8979036808013916,0.06613191217184067,-0.12972025573253632,-0.11528174579143524,-0.2948814928531647,-0.9485541582107544,1.5905929803848267,-0.20290598273277283,-0.2963646650314331,0.2056210389064605,-0.02599833097739809,-0.158262429985081,-0.9653999883836365,0.2993314898009152,-0.12094104450929655,-2.703624490044468
1782665066988044032,1.4941051006317139,-0.22622059285640717,-0.04330776259303093,0.7259441018104553,-0.11628822237253189,-0.2975037097930908,-0.9476120471954346,1.4395456314086914,-0.4477202892303467,0.17344212532043457,0.2070039692445765,-0.025989489083679197,-0.15974517159916538,-0.9648603698426245,0.3020769101363528,-0.12210661119226966,-2.700307325395362
1782665066997964032,1.5040252208709717,-0.841202437877655,0.2113848626613617,0.19128818809986115,-0.11644024401903152,-0.29239118099212646,-0.9491833448410034,0.7825168967247009,-0.25333938002586365,0.1970471739768982,0.20890098245599958,-0.026302069253019547,-0.1572148826574401,-0.9648585619732081,0.2967263537123835,-0.12206425227853078,-2.696889658487255
1782665067007884032,1.5139451026916504,-0.7477816939353943,0.5147732496261597,0.5628340244293213,-0.11635230481624603,-0.2845255434513092,-0.9515814781188965,0.17447304725646973,-0.4426473081111908,-0.10869073867797852,0.20980523616222319,-0.0269617388530633,-0.15323939353132152,-0.9652836689184137,0.288511476223536,-0.1216686197789473,-2.6958530080990237
1782665067017804032,1.5238652229309082,-1.995078444480896,0.8404442667961121,-0.17061516642570496,-0.10812389105558395,-0.2705637514591217,-0.956610918045044,-0.26760852336883545,0.06788128614425659,0.09831935167312622,0.21120543723131763,-0.024191555147957986,-0.14529040156872902,-0.9662803319491624,0.27397856319278374,-0.11255040776065914,-2.695678386349478
1782665067027723008,1.5337841510772705,-1.6560465097427368,0.7036440968513489,0.008218501694500446,-0.10417330265045166,-0.25364044308662415,-0.9616727232933044,0.11824191361665726,0.09035617113113403,-0.4252290725708008,0.2111039172704102,-0.02408901886183111,-0.13632076759120895,-0.9676112090056923,0.2564419138062874,-0.1079043614991816,-2.6980588223998567
1782665067037643008,1.5437040328979492,-1.990980863571167,1.2951610088348389,-0.3562386631965637,-0.0940244272351265,-0.2359648197889328,-0.9672021865844727,0.1079099252820015,0.1762114018201828,-0.29793453216552734,0.21064821430444455,-0.021053797362947775,-0.12631570759200703,-0.9691379999387902,0.23821129993408596,-0.09690829025904135,-2.7019320601134376
1782665067047563008,1.553624153137207,-1.2353999614715576,0.10031107068061829,0.12255190312862396,-0.08666621148586273,-0.22059869766235352,-0.971506655216217,0.4072839021682739,0.061327457427978516,-0.49463409185409546,0.21045265286764836,-0.01910507860728009,-0.11782049058805999,-0.970290175795637,0.22242824974202974,-0.0889725273958472,-2.7044736479394738
1782665067057483008,1.5635440349578857,-0.3646765351295471,-0.27473586797714233,0.09433717280626297,-0.08948637545108795,-0.21228668093681335,-0.9731014966964722,0.6312649250030518,0.25903961062431335,-0.48824799060821533,0.2105215144303794,-0.021373589890235307,-0.1139842698076831,-0.970686058375199,0.2139143845581398,-0.09170204099237786,-2.704596976962937
1782665067067402240,1.5734632015228271,-0.22263871133327484,-0.14498615264892578,-1.3133893013000488,-0.09046261757612228,-0.20965644717216492,-0.9735813736915588,0.3162621855735779,0.6132209300994873,-0.28354448080062866,0.2082123819861344,-0.022402904178588492,-0.1127272056205099,-0.9713075661522286,0.21122358900968727,-0.09265134165756087,-2.7094297198107276
1782665067077323776,1.5833847522735596,0.6932743191719055,-0.3715001046657562,-0.03128386661410332,-0.09109991043806076,-0.21109114587306976,-0.9732118844985962,0.6111041903495789,0.29406845569610596,-0.2897123098373413,0.20354370709197753,-0.02311014035888729,-0.11340189111102333,-0.9722015893688375,0.21269113012067373,-0.09333550384533174,-2.718856753965244
1782665067087243520,1.5933046340942383,1.0043349266052246,0.44484132528305054,0.37617576122283936,-0.09131322056055069,-0.2202065885066986,-0.9711698889732361,0.4324997365474701,-0.1594320833683014,-0.2881532311439514,0.2052634131447172,-0.022064816228278838,-0.11801779271257626,-0.9713145343055636,0.2220262600617677,-0.09374833153652531,-2.7146123402106253
1782665067097163776,1.603224754333496,0.14121195673942566,0.5595417022705078,-0.056214116513729095,-0.0856575220823288,-0.22471369802951813,-0.9706526398658752,0.399897038936615,-0.21171818673610687,-0.0017442107200622559,0.20569488974766795,-0.018754553989296242,-0.11967433830881756,-0.9710900896149572,0.22664920775875125,-0.08801933577335695,-2.714102021379789
1782665067107082496,1.6131436824798584,0.38906994462013245,-0.2718828022480011,0.30597445368766785,-0.08298706263303757,-0.2270098179578781,-0.9703503251075745,0.5779974460601807,-0.4856671690940857,-0.19442933797836304,0.2060759287461421,-0.017151007695164026,-0.12054332806024874,-0.9709315224009707,0.22900623380945226,-0.08531519134218092,-2.713491160526439
1782665067117002752,1.6230638027191162,0.24664689600467682,0.44033417105674744,0.29050394892692566,-0.0838596299290657,-0.2301556020975113,-0.9695339202880859,0.4192783236503601,-0.5176776647567749,-0.12595558166503906,0.20773367196740142,-0.017041400007975386,-0.12224011352808387,-0.9703678412760264,0.23223757744153542,-0.08628005191045597,-2.709734507051472
1782665067126922496,1.632983684539795,-0.0014875454362481833,-0.13098473846912384,0.09424709528684616,-0.08226773142814636,-0.23117932677268982,-0.969426691532135,0.16252896189689636,-0.5013493299484253,-0.14435803890228271,0.2087743523500025,-0.016017349081089864,-0.12259727040169101,-0.9701168450465645,0.23328967583275642,-0.08465941119143724,-2.707721830549022
1782665067136842752,1.6429038047790527,-0.4428606927394867,0.283579558134079,0.6783812046051025,-0.08169825375080109,-0.22877532243728638,-0.9700449705123901,0.3924282491207123,-0.5112149119377136,-0.09413349628448486,0.21097285074458064,-0.01571823386923001,-0.12136905959512188,-0.9698005367505516,0.2308194492135116,-0.08402281232224157,-2.7034365872134165
1782665067146761728,1.652822732925415,-0.2723054587841034,0.08312367647886276,0.5224848389625549,-0.08140046894550323,-0.2240707129240036,-0.9711675047874451,0.39591461420059204,-0.3550918698310852,-0.12441354990005493,0.21387125686491998,-0.015722559570554018,-0.11903385384549779,-0.9694549419880902,0.2259893943900441,-0.08362166726259766,-2.697834242957418
1782665067156681472,1.6627426147460938,-1.6550039052963257,0.010459634475409985,0.7530279755592346,-0.08364199101924896,-0.21525827050209045,-0.972968578338623,0.24376773834228516,-0.23220570385456085,-0.005226552486419678,0.21718049201723907,-0.0173923451895633,-0.11494871390765288,-0.9691836613577723,0.2169562968314924,-0.08575493362519594,-2.6913591807561326
1782665067166601728,1.6726627349853516,-1.4832977056503296,0.09365066140890121,0.15521088242530823,-0.08391047269105911,-0.19981732964515686,-0.9762336015701294,0.254396915435791,-0.26284438371658325,-0.11155015230178833,0.21882933712351238,-0.019045471771373987,-0.10733342971427387,-0.9696547981954154,0.20117149197034656,-0.08574253185035761,-2.689015139464271
1782665067176521472,1.6825826168060303,-1.9857028722763062,-0.2718651294708252,0.7599596381187439,-0.0850110873579979,-0.18318787217140198,-0.9793953895568848,0.426609605550766,-0.339425653219223,-0.08702611923217773,0.22127010426077984,-0.021177992789771147,-0.09926631040594346,-0.9699160738244622,0.18422821845201304,-0.08658254923380371,-2.6850001588781343
1782665067186440704,1.6925017833709717,-2.6354622840881348,-0.06536150723695755,0.3540746867656708,-0.08666665107011795,-0.15873710811138153,-0.9835097193717957,0.14910563826560974,-0.022995054721832275,0.04640650749206543,0.22352042780802364,-0.02451491434858114,-0.08743080409381133,-0.970460499761993,0.15941141854948193,-0.08789274155648548,-2.6818154354008534
1782665067196360704,1.7024216651916504,-1.8385978937149048,-0.06182951480150223,0.2749606668949127,-0.08829627931118011,-0.13759562373161316,-0.9865450859069824,0.2742856740951538,0.23670145869255066,-0.21606111526489258,0.22475467627447865,-0.027588926239604544,-0.07724186686550838,-0.9709572304495461,0.1380335318568161,-0.08926266309624618,-2.680475926869277
1782665067206280704,1.7123417854309082,-1.0303500890731812,0.02835603803396225,0.34357887506484985,-0.08918800204992294,-0.12318854033946991,-0.9883673787117004,0.18968239426612854,0.4867902398109436,-0.23906487226486206,0.22657420324015828,-0.02951693725328224,-0.07032110990100053,-0.9710035379556593,0.12350225996290974,-0.08999395971006884,-2.677547653058871
1782665067216199680,1.7222607135772705,-0.5495986342430115,-0.3266596794128418,-0.18349015712738037,-0.0900077223777771,-0.11520681530237198,-0.9892552495002747,0.1244773417711258,0.5109130144119263,-0.24983465671539307,0.22685090471382588,-0.03080439419614825,-0.06650903137063476,-0.9711675628177321,0.11546320189909491,-0.09073550787715386,-2.677402381969074
1782665067226119424,1.7321805953979492,0.2331874817609787,-0.4314025938510895,-0.30091503262519836,-0.09416276216506958,-0.11345642060041428,-0.9890707731246948,0.3870094418525696,0.17679566144943237,-0.3440285921096802,0.2254024724495886,-0.03313192190712522,-0.06608240102018599,-0.9714572479796041,0.11370125013536646,-0.09491718561035949,-2.6802049223258173
1782665067236039680,1.742100715637207,0.1377478390932083,-0.5235772728919983,-0.45548179745674133,-0.09779806435108185,-0.11574622988700867,-0.9884524941444397,0.22574302554130554,-0.020865708589553833,-0.1862911581993103,0.22305450204839541,-0.03481418437372482,-0.06754051364323072,-0.9718400365821417,0.11600624571749689,-0.09861961589533336,-2.684640840148907
1782665067245959424,1.7520205974578857,-0.1766234189271927,-0.38956671953201294,-0.09880465269088745,-0.10234912484884262,-0.11604703217744827,-0.9879563450813293,0.2973411977291107,-0.05843722075223923,-0.14268940687179565,0.22159453309619057,-0.03710981874795953,-0.068151942879047,-0.9720463732846875,0.11630908901282935,-0.10322856700896972,-2.6873039710897584
1782665067255878656,1.7619397640228271,-0.01657022535800934,-0.4285650849342346,-0.18158960342407227,-0.10628000646829605,-0.1146562248468399,-0.9877036809921265,0.24644723534584045,-0.028669580817222595,-0.17146074771881104,0.22107242588688744,-0.0392249055329215,-0.06789388663206945,-0.9721001311600439,0.11490893272030413,-0.10719069890880259,-2.688193114477214
1782665067265798656,1.7718596458435059,0.07166349142789841,-0.5307058691978455,-0.38347718119621277,-0.11047524213790894,-0.11516432464122772,-0.9871840476989746,0.34491127729415894,0.03275161236524582,-0.14883273839950562,0.219640102556956,-0.04132451106849405,-0.0685583503714981,-0.9722912056667125,0.11542042131714032,-0.11144577171267864,-2.6908063824348396
1782665067275718656,1.7817797660827637,0.6488681435585022,-0.44750896096229553,-0.11927500367164612,-0.11505720019340515,-0.11923661828041077,-0.9861766695976257,0.23526594042778015,0.018589653074741364,-0.246168851852417,0.21811139587150213,-0.043234841606318235,-0.07100987179508626,-0.9723763721367482,0.11952098136791799,-0.11614488202474055,-2.6933251407478456
1782665067285638656,1.7916996479034424,0.4876025915145874,-0.39510539174079895,0.0518362857401371,-0.11921742558479309,-0.12474925816059113,-0.9849998950958252,0.1688847839832306,0.055474355816841125,-0.1313178539276123,0.21836014361687037,-0.04465552044042178,-0.07420194115377478,-0.9720179087516618,0.12507511263824184,-0.12044706695060058,-2.692085905097015
1782665067295557632,1.8016188144683838,0.9002628922462463,-0.6695584058761597,-0.13522544503211975,-0.12422128766775131,-0.1310928910970688,-0.9835566878318787,0.3141321837902069,0.10719762742519379,-0.17170149087905884,0.21788717607776528,-0.046456413131766024,-0.07786826178326439,-0.971752783192204,0.13147130008870728,-0.12563286893688635,-2.6921660023013505
1782665067305477632,1.8115386962890625,0.5300171971321106,-0.6733949184417725,0.08901271969079971,-0.13124071061611176,-0.1377429962158203,-0.981734573841095,0.38078296184539795,-0.07551383972167969,-0.03614872694015503,0.2175856472823345,-0.04920435570147156,-0.08192468074798027,-0.9713514868877484,0.1381823285261916,-0.13289457199012056,-2.6916520944310878
1782665067315397632,1.8214588165283203,0.7652825713157654,-0.5108354687690735,0.13457201421260834,-0.13777188956737518,-0.1439894437789917,-0.9799417853355408,0.3172152638435364,-0.2519150972366333,-0.08702898025512695,0.21784512842236467,-0.051711588788695355,-0.08576133677660402,-0.97083187942237,0.14449169890252234,-0.13967643186215986,-2.6899998599231747
1782665067325317632,1.831378698348999,0.39433756470680237,-0.9125320911407471,0.2590734362602234,-0.14584966003894806,-0.1496819406747818,-0.9779177904129028,0.32434695959091187,-0.1148901879787445,-0.05006682872772217,0.2186777341560475,-0.054987134510513395,-0.08954063030487645,-0.9701231109094762,0.15024658665786453,-0.14805177328717278,-2.687015438083177
1782665067335236608,1.8412976264953613,0.7405479550361633,-0.5812882781028748,0.3361380100250244,-0.15402738749980927,-0.15531878173351288,-0.975782573223114,0.31950896978378296,-0.15548749268054962,-0.1325090527534485,0.21968172293101304,-0.05829846822772882,-0.09332737978060768,-0.9693457353695456,0.15595014054347517,-0.15655833043708406,-2.683606723100777
1782665067345156608,1.8512177467346191,0.29354915022850037,-0.6962942481040955,-0.004533812403678894,-0.15966886281967163,-0.16015169024467468,-0.9740930795669556,0.19047635793685913,-0.13776090741157532,-0.004422545433044434,0.22016825717575045,-0.06049704070892656,-0.09640319649903853,-0.9687995474990282,0.16084432485170042,-0.1624705855676038,-2.6815427436077117
1782665067355076608,1.8611376285552979,0.6103318333625793,-0.6074186563491821,0.16530565917491913,-0.16557273268699646,-0.16421277821063995,-0.9724298715591431,0.23985251784324646,-0.26190418004989624,-0.08964288234710693,0.22088013028119863,-0.06288564066034298,-0.09914870134901207,-0.9682080822578206,0.16495989543485984,-0.1686496579693909,-2.679029120873112
1782665067364996608,1.8710577487945557,0.07045449316501617,-0.46938541531562805,0.2025691419839859,-0.170994833111763,-0.16732268035411835,-0.9709603190422058,0.189915731549263,-0.22133395075798035,0.05549401044845581,0.2211033622825122,-0.06519124728470335,-0.10134078121630766,-0.9677776255572296,0.1681134288429065,-0.1743214989465508,-2.677648015891314
1782665067374915584,1.880976676940918,-0.16233208775520325,-0.4055270254611969,0.21177159249782562,-0.1753302663564682,-0.16670596599578857,-0.9702929258346558,0.2482215166091919,-0.13178645074367523,0.08836549520492554,0.2217191803518448,-0.06733204316831798,-0.10158699816973174,-0.967464273513424,0.16748794215649382,-0.17876921778313914,-2.6759764395350816
1782665067384835840,1.8908967971801758,-0.36627110838890076,-0.5433880090713501,0.11333583295345306,-0.18017564713954926,-0.1638118177652359,-0.9698981642723083,0.21002183854579926,-0.2137974351644516,0.12201303243637085,0.22170125667834012,-0.07004350818570566,-0.10072155848316097,-0.9673662934635012,0.16455343410282258,-0.1836738610154189,-2.675824520716352
1782665067394755584,1.9008166790008545,-0.9555153250694275,-0.2956981360912323,0.21627333760261536,-0.18476922810077667,-0.15704724192619324,-0.9701527953147888,0.19130000472068787,-0.23540879786014557,0.1508626937866211,0.22243476576158877,-0.0729830755127909,-0.09796458719694266,-0.9672637694858003,0.15770008170996208,-0.1881998371695307,-2.674612221443487
1782665067404675840,1.9107367992401123,-0.6870002150535583,-0.4842904210090637,0.08729111403226852,-0.18867254257202148,-0.14845728874206543,-0.9707539081573486,0.295041561126709,-0.12494969367980957,0.002187013626098633,0.2220877909153057,-0.07589477261271602,-0.09414373196873765,-0.967498776156168,0.14900808893053433,-0.19196349291779788,-2.6759412641783418
1782665067414594560,1.9206557273864746,-1.1451691389083862,-0.40526852011680603,-0.003196439705789089,-0.1924847513437271,-0.14031392335891724,-0.9712165594100952,0.2905377149581909,0.004419147968292236,-0.014424920082092285,0.22193052593306886,-0.07869190229159655,-0.09054998522521825,-0.9676544519171247,0.1407784663575911,-0.19565391609596278,-2.676854078435312
1782665067424514560,1.9305756092071533,-0.6751499772071838,-0.56414395570755,0.2009148895740509,-0.19631294906139374,-0.13084383308887482,-0.9717721343040466,0.26262766122817993,-0.04975917935371399,-0.1953725814819336,0.22156363590909917,-0.0816613304040541,-0.08628643883364043,-0.9678820732265797,0.13122008140793365,-0.1993327002960464,-2.678375212040224
1782665067434434560,1.9404957294464111,-0.7497493624687195,-0.7140573263168335,0.009004699066281319,-0.20243610441684723,-0.12373391538858414,-0.9714471101760864,0.3211342394351959,0.001358427107334137,-0.1595953106880188,0.22148047533413545,-0.08547856873828308,-0.08348559734061023,-0.9678171173486493,0.12405183687829963,-0.205445983031019,-2.6788454152382934
1782665067444353536,1.9504146575927734,-0.5361819863319397,-0.7073554992675781,0.1624176949262619,-0.2097085565328598,-0.1183304414153099,-0.9705772399902344,0.236075758934021,-0.021913088858127594,-0.25003427267074585,0.22143301866890971,-0.08967545094277336,-0.0816681039880359,-0.9676032793693006,0.11860833912133466,-0.21279464319179958,-2.6789646231304904
1782665067454273792,1.9603347778320312,-0.4891763925552368,-0.6570817232131958,0.15713371336460114,-0.21598085761070251,-0.11235377192497253,-0.9699118137359619,0.24539980292320251,0.054568737745285034,-0.19433379173278809,0.2216348915139452,-0.0934230318393692,-0.07947474976093247,-0.96738511646127,0.11259150654104201,-0.21910601897182982,-2.6787548808342114
1782665067464193536,1.97025465965271,0.15442709624767303,-0.6608389019966125,0.12522929906845093,-0.2218468338251114,-0.11136877536773682,-0.968700647354126,0.2498314529657364,-0.01764429360628128,-0.3287694454193115,0.22198911598810162,-0.09640936564101235,-0.0797176336482009,-0.9669907709146409,0.11160028470260365,-0.22513252304382053,-2.677649845935305
1782665067474113792,1.9801747798919678,-0.021321702748537064,-0.6377753615379333,0.12757748365402222,-0.22834189236164093,-0.11144770681858063,-0.9671811461448669,0.24610313773155212,0.12276973575353622,-0.18237018585205078,0.2222332679914542,-0.09960170188840027,-0.08055385868278976,-0.9665417000444942,0.11167971043542568,-0.23184475499991652,-2.6765781736054706
1782665067484032512,1.99009370803833,0.3381538987159729,-0.6916782855987549,0.07250598073005676,-0.2338511198759079,-0.11369555443525314,-0.9656018614768982,0.2315165400505066,0.024752072989940643,-0.24515247344970703,0.22225014904842078,-0.10208657076144426,-0.08232493139107531,-0.9661293416614677,0.11394193931946232,-0.2376068504883745,-2.6757612280924374
1782665067493952768,2.000013828277588,0.32242998480796814,-0.5121240615844727,0.028873246163129807,-0.23998451232910156,-0.11671914905309677,-0.9637344479560852,0.21074867248535156,-0.047129735350608826,-0.1859847903251648,0.22287441136823785,-0.10474523566376276,-0.08462395498117153,-0.9655020989022606,0.11698580262323985,-0.24405157097728142,-2.6735020340202413
1782665067503872512,2.0099337100982666,0.3111126124858856,-0.6766515374183655,0.18636086583137512,-0.2458381950855255,-0.11987271904945374,-0.9618701338768005,0.267246276140213,-0.07485994696617126,-0.18331724405288696,0.22322886694988886,-0.10727488465455476,-0.08693125914199691,-0.9649372498236346,0.12016167527526599,-0.2502268451713602,-2.67178000132461
1782665067513792768,2.0198538303375244,0.6204982399940491,-0.7464519143104553,0.30203279852867126,-0.2528165280818939,-0.12379150092601776,-0.9595621228218079,0.3007443845272064,-0.14245912432670593,-0.28512781858444214,0.22424450883111452,-0.110219370018392,-0.0898366617702599,-0.9641034872412434,0.1241098716146855,-0.25761624635343766,-2.6684360363425803
1782665067523711744,2.0297727584838867,0.3029634356498718,-0.645020067691803,0.09279913455247879,-0.2596145272254944,-0.12716799974441528,-0.9573028087615967,0.22372585535049438,-0.04923887550830841,-0.17012333869934082,0.2251320124363656,-0.1131453832377836,-0.092448537384779,-0.9633104928373157,0.12751326892355147,-0.2648241282009638,-2.6654146325850485
1782665067533631488,2.0396926403045654,0.4182647168636322,-0.5565177202224731,0.1668306142091751,-0.26578885316848755,-0.1308421641588211,-0.9551107883453369,0.24639493227005005,-0.1336537003517151,-0.20789885520935059,0.22566910667575596,-0.11576093921738949,-0.09509999865411158,-0.9626156587853719,0.13121839507396219,-0.2714136371365052,-2.663100467717499
1782665067543551744,2.0496127605438232,0.3115665018558502,-0.48810243606567383,0.08293464779853821,-0.27076125144958496,-0.13387270271778107,-0.9532924294471741,0.22596144676208496,-0.11736327409744263,-0.08644145727157593,0.22607126279842793,-0.11786292770536327,-0.09727340150670205,-0.962048904427341,0.1342758321493136,-0.2767394610233549,-2.6612621324169403
1782665067553471488,2.059532642364502,0.07973374426364899,-0.6647830605506897,0.26369667053222656,-0.2763851284980774,-0.13575363159179688,-0.9514106512069702,0.2453334927558899,-0.21298599243164062,-0.06873095035552979,0.22665810701721678,-0.12040159707779446,-0.0989855141499731,-0.9614216361075454,0.1361740985395729,-0.28271890820986845,-2.659133576695164
1782665067563390720,2.0694518089294434,0.06510473042726517,-0.4940670132637024,0.154948890209198,-0.2826266884803772,-0.1354076862335205,-0.9496245980262756,0.22255286574363708,-0.310499906539917,-0.07660520076751709,0.2277252865055058,-0.12345197917602853,-0.09973614433273098,-0.9607047078699098,0.13582493282666527,-0.2892712997429189,-2.6562912515550208
1782665067573310720,2.079371690750122,-0.11978689581155777,-0.6791432499885559,0.34439241886138916,-0.28843817114830017,-0.13448566198349,-0.9480068683624268,0.26757940649986267,-0.2254234105348587,-0.12706637382507324,0.21573759967207543,-0.12770287079871798,-0.09843037252590388,-0.9630476436167043,0.13489438378422844,-0.2953581275736323,-2.6807413242229146
1782665067583230720,2.08929181098938,-0.3185923993587494,-0.6221518516540527,0.26852667331695557,-0.295012503862381,-0.13129907846450806,-0.9464291930198669,0.18717864155769348,-0.15686315298080444,-0.11275964975357056,0.20444492441414286,-0.1324851476689587,-0.09608901709941929,-0.9650993915842594,0.13167928279188584,-0.3021660092282657,-2.704012816346259
1782665067593150720,2.0992116928100586,-0.296076238155365,-0.7530458569526672,0.2768181562423706,-0.30124980211257935,-0.12823186814785004,-0.9448836445808411,0.26009687781333923,-0.17880545556545258,-0.19593966007232666,0.19301412504984256,-0.13706389291250454,-0.09365713088846082,-0.9670507961867955,0.1285859256677521,-0.3086340910663925,-2.7275601252914825
1782665067603069440,2.109130620956421,-0.5330770611763,-0.7289615273475647,0.31008556485176086,-0.3085978031158447,-0.123562753200531,-0.9431328773498535,0.2905619442462921,-0.2389097809791565,-0.1932043433189392,0.18232877030236969,-0.14224480365482312,-0.09055368855078273,-0.9686706272958948,0.12387935736132188,-0.3162249653555016,-2.7497183589369576
1782665067612989696,2.1190507411956787,-0.7000755071640015,-0.8194139003753662,0.1740763783454895,-0.31612351536750793,-0.1171405017375946,-0.9414584636688232,0.18457749485969543,-0.2821972668170929,-0.24030423164367676,0.17150484132575383,-0.14762989210329377,-0.08646492873422645,-0.9702140905618352,0.11741006814729367,-0.3239514973963243,-2.772460235177624
1782665067622909440,2.1289706230163574,-0.7317490577697754,-0.8543670773506165,0.3939272463321686,-0.32357656955718994,-0.10965068638324738,-0.9398270845413208,0.25256216526031494,-0.24140827357769012,-0.2564162015914917,0.16038421608084,-0.15301949879992288,-0.0816792146600985,-0.9716946398457843,0.10987160951158302,-0.33158226288658216,-2.796027536764712
1782665067632828672,2.138889789581299,-1.096207618713379,-0.7758716344833374,0.21305909752845764,-0.3315054476261139,-0.10001619160175323,-0.9381369352340698,0.1866385042667389,-0.15909332036972046,-0.22764980792999268,0.15016808205495852,-0.15865730975608197,-0.07589063089276595,-0.9728916548876394,0.1001836979023134,-0.339670091607773,-2.8181110417888595
1782665067642748672,2.1488096714019775,-0.841938853263855,-0.8258932828903198,0.3778770864009857,-0.33926987648010254,-0.09018291532993317,-0.936356246471405,0.24274277687072754,-0.17734944820404053,-0.34626704454421997,0.1395320005029739,-0.16415944769806556,-0.06981085278738995,-0.974016961550632,0.09030560903820185,-0.34761664106902174,-2.841154123946054
1782665067652668672,2.1587297916412354,-0.7711433172225952,-0.8170302510261536,0.3091854453086853,-0.3471934497356415,-0.08133631944656372,-0.9342596530914307,0.23127242922782898,-0.13268347084522247,-0.35527586936950684,0.1298664606682788,-0.1695152603719072,-0.06430193717577531,-0.9748152253351675,0.08142627039502907,-0.35580772794591964,-2.8620605107013284
1782665067662588672,2.168649673461914,-0.7984063625335693,-0.9294840693473816,0.28809481859207153,-0.3559103012084961,-0.07329912483692169,-0.9316410422325134,0.2513723373413086,-0.07368878275156021,-0.3560023307800293,0.12011354364162502,-0.17516118366107483,-0.05914410091918372,-0.9753938639407396,0.07336492095152664,-0.3649154202757409,-2.882996676349907
1782665067672507648,2.1785686016082764,-0.5471961498260498,-0.9578846096992493,0.31449463963508606,-0.36453568935394287,-0.06591158360242844,-0.9288538098335266,0.23042619228363037,-0.04523344337940216,-0.3647558093070984,0.11092948194297009,-0.18062042218744573,-0.05430795529289605,-0.9757672053415382,0.06595940103163733,-0.37398738559010886,-2.9027117638521003
1782665067682427648,2.188488721847534,-0.35483282804489136,-0.9970003962516785,0.31979885697364807,-0.37347912788391113,-0.060359567403793335,-0.9256727695465088,0.24359631538391113,-0.03688470646739006,-0.3288285732269287,0.10210240060628642,-0.18607588189230562,-0.05039223492303661,-0.9759157808611838,0.06039627744082435,-0.3834922399008186,-2.92137864022584
1782665067692347648,2.198408603668213,-0.422109991312027,-0.9109818935394287,0.282804012298584,-0.3820347785949707,-0.05589701980352402,-0.9224559664726257,0.2615514099597931,-0.08704730868339539,-0.22015267610549927,0.09359534376979185,-0.19122054437265557,-0.046975886077477484,-0.9759446020566315,0.0559261688752458,-0.3926444910795371,-2.939247222659675
1782665067702267648,2.2083287239074707,-0.3219565153121948,-0.9442785978317261,0.2261468768119812,-0.3907516896724701,-0.051631081849336624,-0.9190469980239868,0.2337234914302826,-0.14252175390720367,-0.12489831447601318,0.08494061837851101,-0.19641755651762466,-0.043550548087639564,-0.9758630369109988,0.05165404979251287,-0.40201507259946806,-2.9574200095124117
1782665067712186624,2.218247652053833,-0.5337545871734619,-0.8745033144950867,0.16833239793777466,-0.39880576729774475,-0.047259896993637085,-0.9158168435096741,0.20031943917274475,-0.15798607468605042,0.0026240944862365723,0.07619077880782502,-0.2012390102497985,-0.03993050677703959,-0.9757578503068325,0.04727750725916484,-0.4107007191324395,-2.975892480106845
1782665067722106624,2.228167772293091,-0.7078486084938049,-0.6480363607406616,0.20978529751300812,-0.4059900939464569,-0.04059930518269539,-0.9129752516746521,0.2198786437511444,-0.1743970364332199,0.1070517897605896,0.06757483092896985,-0.205630790201537,-0.03504802781192081,-0.9756645814493822,0.04061046862065674,-0.418428569394805,-2.994669318694959
1782665067732026624,2.2380876541137695,-0.6801719665527344,-0.6421443223953247,0.06391265243291855,-0.41166698932647705,-0.033860351890325546,-0.9107050895690918,0.22554028034210205,-0.018858779221773148,0.1788935661315918,0.05869740124448874,-0.20916799360263041,-0.029936526378225057,-0.9756573805389465,0.03386682414210672,-0.4245416637888711,-3.0141141691823754
1782665067741946624,2.2480077743530273,-0.5498043298721313,-0.6138237118721008,0.09775450825691223,-0.41719555854797363,-0.028378833085298538,-0.9083735346794128,0.24796032905578613,0.08363090455532074,0.17933911085128784,0.05842347913783489,-0.21229567061621743,-0.02727219602233793,-0.9750761468984105,0.02838264283156393,-0.4305422841990671,-3.0156955494514452
1782665067751865600,2.2579267024993896,-0.5744715929031372,-0.4292581379413605,0.040273141115903854,-0.4218790531158447,-0.02305806241929531,-0.9063588380813599,0.19104409217834473,0.0002461746335029602,0.19384968280792236,0.049586719410344655,-0.21517952356814385,-0.022767141006282438,-0.9750489959681393,0.023060106361140035,-0.4356405936182795,-3.034864810856004
1782665067761785856,2.2678468227386475,-0.8634519577026367,-0.18826335668563843,0.12778674066066742,-0.4243510961532593,-0.016499748453497887,-0.9053474068641663,0.21056020259857178,-0.11001087725162506,0.27351146936416626,0.04097226099059899,-0.21683541039572693,-0.01757002797999234,-0.9751897470829654,0.01650049697558384,-0.43830895124262925,-3.0539374768590397
1782665067771705600,2.277766704559326,-1.244838833808899,-0.14443258941173553,0.2080686241388321,-0.42558932304382324,-0.006600098684430122,-0.9048923850059509,0.25162389874458313,-0.12586145102977753,0.3817142844200134,0.03245723111521353,-0.21780909316001726,-0.01063112259415142,-0.975393649264043,0.006600146693476722,-0.4396232761762521,-3.073590519669335
1782665067781625856,2.287686824798584,-1.1964209079742432,-0.06533697247505188,0.45562463998794556,-0.426602840423584,0.0062822201289236546,-0.9044172763824463,0.22176885604858398,-0.21000231802463531,0.4298384189605713,0.024688332484044423,-0.21860015233016808,-0.002312418723856545,-0.9754994703867672,-0.006282261326095609,-0.44074264780472555,-3.0923939474090743
1782665067791544576,2.2976057529449463,-0.9251487255096436,0.2825529873371124,0.4248351752758026,-0.4251788556575775,0.017510205507278442,-0.9049399495124817,0.18395265936851501,-0.47760847210884094,0.4785941243171692,0.018022618592476416,-0.21795766566009364,0.004946748460032428,-0.9757792855577303,-0.017511100027541013,-0.43923150093231716,-3.1085657577106383
1782665067801464576,2.307525634765625,-1.253046989440918,0.41840508580207825,0.25377100706100464,-0.42163634300231934,0.028030147776007652,-0.9063316583633423,0.24164369702339172,-0.5064237117767334,0.6802880167961121,0.010871997313452043,-0.21608185879702754,0.01194973921186866,-0.976241559561163,-0.028033818661056528,-0.43543194918999567,-3.125522498725216
1782665067811384576,2.317445755004883,-1.6481159925460815,0.49676021933555603,0.16025903820991516,-0.41710585355758667,0.04219518229365349,-0.9078778624534607,0.25083082914352417,-0.3116959035396576,0.794337272644043,0.0028291015328703356,-0.21359025161102566,0.02098233990691683,-0.9766938458675459,-0.04220771252818434,-0.4306677377608666,3.138152668201854
1782665067821303552,2.327364683151245,-1.807285189628601,0.6075461506843567,0.15924809873104095,-0.41182443499565125,0.058577559888362885,-0.9093785285949707,0.20154306292533875,0.018494591116905212,0.8224797248840332,-0.005592561146628487,-0.21056698158584167,0.031181506180139536,-0.9770659777081055,-0.058611111866339376,-0.4252327502186839,3.1174887372775837
1782665067831223808,2.337284803390503,-1.7185441255569458,0.9247426986694336,0.15611441433429718,-0.40471264719963074,0.07505959272384644,-0.9113581776618958,0.10379406809806824,0.20811299979686737,0.7629359364509583,-0.006794965189912775,-0.20672356528543745,0.03982802574386337,-0.977564839478166,-0.07513025586216193,-0.4179169267583877,3.1117522437650624
1782665067841143552,2.3472046852111816,-1.3753598928451538,1.1730867624282837,0.21226663887500763,-0.3945978283882141,0.08986242115497589,-0.914449155330658,0.11133366823196411,0.16515770554542542,0.6597037315368652,-0.0076979363773844196,-0.20129149230598609,0.047509399165236305,-0.9783483172116432,-0.08998380853049956,-0.4073752935295988,3.107258028536827
1782665067851063808,2.3571248054504395,-0.9692245125770569,1.3133538961410522,0.06313691288232803,-0.3827643394470215,0.10068334639072418,-0.9183432459831238,0.18610906600952148,0.08733543753623962,0.5928732752799988,-0.008564345503537369,-0.1949559551721589,0.05310880055902526,-0.979335710738388,-0.1008542370768012,-0.3949036759943274,3.1039098155095157
1782665067860982784,2.3670437335968018,-0.5019683241844177,1.5307942628860474,0.042004458606243134,-0.3693603277206421,0.10753931850194931,-0.9230429530143738,0.2643035650253296,0.021504253149032593,0.4574820399284363,-0.009368422288953165,-0.18780671847450153,0.05663188896038602,-0.980527302972249,-0.10774768433762705,-0.3806400737905709,3.1017071590934617
1782665067870902528,2.3769636154174805,-0.39674773812294006,1.5023616552352905,0.1226717084646225,-0.3545646667480469,0.11119189858436584,-0.9283965826034546,0.2861289978027344,-0.044572025537490845,0.4940398931503296,-0.010085983213828998,-0.17995259743075417,0.05847018551975571,-0.9818841420148947,-0.11142230508123085,-0.3648156209512145,3.1004759082628066
1782665067880822784,2.3868837356567383,-0.21715745329856873,1.803573727607727,0.3687054514884949,-0.3351319134235382,0.11307995766401291,-0.9353606700897217,0.2164643108844757,-0.287655770778656,0.5198028087615967,-0.009464287482532986,-0.1697803757838496,0.05911261207948967,-0.9836619594245881,-0.11332234611636552,-0.344042410735213,3.1026413961294743
1782665067890742528,2.396803617477417,-0.8103819489479065,1.9821590185165405,0.32052361965179443,-0.3156677186489105,0.11825001239776611,-0.9414727091789246,0.11225280165672302,-0.3987981081008911,0.6111504435539246,-0.00890807533219781,-0.15964607954178256,0.0614554977281974,-0.9852193419217768,-0.11852734303352558,-0.3235117883915264,3.104146170942199
1782665067900661760,2.4067227840423584,-0.8721433281898499,1.8601391315460205,0.3644029200077057,-0.2965434193611145,0.1274406909942627,-0.9464781284332275,0.2406962513923645,-0.4106895923614502,0.51625657081604,-0.008340811513948089,-0.149744912447043,0.06585886123445048,-0.9864935389524992,-0.12778820330576518,-0.30362488816099487,3.1051067538345785
1782665067910581504,2.416642665863037,-0.7639828324317932,1.752309799194336,0.26796025037765503,-0.27883535623550415,0.13591831922531128,-0.950671911239624,0.23353201150894165,-0.06842869520187378,0.457538366317749,-0.008154602032201393,-0.14059643954784892,0.06997635454964386,-0.9875573942780803,-0.136340322127628,-0.2853019206181977,3.1054665034728255
1782665067920501760,2.426562786102295,-0.1040286272764206,1.8308773040771484,0.34876108169555664,-0.26106178760528564,0.14116136729717255,-0.9549451470375061,0.19529640674591064,0.27711254358291626,0.2479749321937561,-0.007645182273076903,-0.1314704985320727,0.0724081787597512,-0.9886424929729951,-0.14163443666916176,-0.2668584066968969,3.1070845379484786
1782665067930421504,2.4364826679229736,0.6579252481460571,1.99375319480896,0.29830020666122437,-0.2423287034034729,0.1388086974620819,-0.9602129459381104,0.1464272290468216,0.3088994026184082,0.13588744401931763,-0.006535820904943533,-0.12192234034290952,0.07091162489983856,-0.9899817319066334,-0.13925836884163245,-0.24720777316115033,3.111060273105296
1782665067940340480,2.446401596069336,1.061471939086914,2.146841049194336,0.4598339796066284,-0.22192148864269257,0.13124525547027588,-0.9661912322044373,0.27370983362197876,0.13952195644378662,0.19116681814193726,-0.004757887317941003,-0.11159178325698649,0.06672066934537406,-0.9915003774978847,-0.1316249965649915,-0.2257710139622764,3.1170520834928337
1782665067950260736,2.4563217163085938,0.7249473929405212,1.8990331888198853,0.2138870358467102,-0.2014666646718979,0.12294737994670868,-0.9717484712600708,0.4810687303543091,0.02137024700641632,0.3020554780960083,-0.0032219606429935038,-0.10125099124053961,0.062241412147931614,-0.9929067281906436,-0.12325925312054983,-0.2044277247634432,3.122443989350818
1782665067960180480,2.4662415981292725,0.4349621534347534,1.6217485666275024,0.34474968910217285,-0.18424281477928162,0.11762285977602005,-0.9758173227310181,0.646980881690979,-0.17923784255981445,0.14511358737945557,-0.0020462885620634143,-0.09256143137554397,0.059360933367691555,-0.9939338164363863,-0.11789578733749716,-0.18661191583051764,3.1264300046369025
1782665067970100736,2.4761617183685303,-0.13153402507305145,1.2270526885986328,0.5996750593185425,-0.1695643961429596,0.1172972247004509,-0.9785138368606567,0.4600764811038971,-0.3389464020729065,0.0019513368606567383,-0.00030369071527121646,-0.08522330546894748,0.05899223656432935,-0.994613839795122,-0.11756788093910964,-0.17158374757644812,3.1308592150295067
1782665067980019456,2.4860806465148926,-0.2408543825149536,1.0066072940826416,0.5803993940353394,-0.1579584926366806,0.11999592930078506,-0.9801275730133057,0.1506952941417694,-0.23706135153770447,-0.24161314964294434,0.0025641027199738626,-0.07952968865574798,0.06009353479364813,-0.9950162063132557,-0.12028577935746658,-0.15978721963121273,3.137104415913516
1782665067989939712,2.4960007667541504,-0.3299452066421509,0.9601290822029114,0.4409136474132538,-0.14764027297496796,0.12362224608659744,-0.9812847971916199,-0.09744638204574585,0.18764178454875946,-0.29424309730529785,0.004580871953638757,-0.0744530055470416,0.06176035814481114,-0.9952996627997934,-0.1239393073157718,-0.14933596496596513,3.141514244184361
1782665067999859456,2.505920648574829,0.23146700859069824,0.8787375092506409,0.4156269133090973,-0.1376505196094513,0.12485086917877197,-0.9825806021690369,-0.2152242362499237,0.3267024755477905,-0.43642574548721313,0.006443033010084383,-0.06953125022482401,0.06225042577787699,-0.9956147513103403,-0.12517752230880488,-0.13918500913985576,-3.1373868753307694
1782665068009779712,2.515840768814087,0.384490430355072,0.7124953866004944,0.2112790048122406,-0.1288294643163681,0.12197113037109375,-0.9841371774673462,-0.2637333869934082,0.34189605712890625,-0.4534543752670288,0.007856441267381258,-0.06515266099302296,0.06071684605013191,-0.9959953888214409,-0.12227560279452725,-0.13016584377105947,-3.1337961323527144
1782665068019698688,2.525759696960449,0.7108720541000366,0.3155648112297058,0.2482556700706482,-0.12302866578102112,0.11708888411521912,-0.9854715466499329,-0.18974599242210388,0.3087228834629059,-0.5885793566703796,0.00874579686134468,-0.06225237187254006,0.058214059282198874,-0.996322845450456,-0.11735809611743007,-0.12419984895117978,-3.131342620648041
1782665068029618688,2.535679817199707,0.4662214517593384,0.18246012926101685,0.09552574157714844,-0.1203337088227272,0.11055660247802734,-0.986558198928833,-0.2300538718700409,0.31534671783447266,-0.667158842086792,0.009666883646257673,-0.060905207311104236,0.05487683060736726,-0.9965870439412291,-0.11078306959297352,-0.12137370599249735,-3.1289314922329674
1782665068039538688,2.5455996990203857,0.8386322855949402,-0.041044607758522034,0.12603598833084106,-0.11798558384180069,0.10500968247652054,-0.9874473810195923,-0.2847854197025299,0.26576364040374756,-0.7163337469100952,0.010207357548729132,-0.05971501134827687,0.052061662220609345,-0.9968047009502373,-0.10520363910049334,-0.11892163647994251,-3.1273818536620097
1782665068049457664,2.555518627166748,0.4308161735534668,-0.07902181893587112,0.20743410289287567,-0.11515576392412186,0.09746082127094269,-0.9885547757148743,-0.19282764196395874,0.12250988185405731,-0.5912334322929382,0.011347599817502465,-0.05829575244814424,0.04821014456457266,-0.9970700687747219,-0.09761577170164229,-0.11596634622422679,-3.1245026589576805
1782665068059377664,2.565438747406006,0.5787848830223083,-0.45452967286109924,0.047804757952690125,-0.11738192290067673,0.09242299944162369,-0.9887767434120178,-0.19290554523468018,0.048324063420295715,-0.6643146276473999,0.012149042176082299,-0.059416559545316605,0.04562120700973838,-0.9971162525174827,-0.0925550906035855,-0.1181612712164623,-3.122703985717538
1782665068069297664,2.5753586292266846,0.6015434265136719,-0.6391464471817017,-0.060564491897821426,-0.1217944473028183,0.08606671541929245,-0.9888167977333069,0.0428149551153183,0.03617144376039505,-0.6795486807823181,0.012438752394381783,-0.06160173379354757,0.042389072565142315,-0.9971227609148612,-0.08617332756446022,-0.12255462114279812,-3.1219350097437086
1782665068079217920,2.5852789878845215,0.14892692863941193,-0.7173219323158264,0.18624690175056458,-0.1277504861354828,0.0823894515633583,-0.9883783459663391,0.24036036431789398,-0.1126018613576889,-0.5607396364212036,0.012717034828657658,-0.0645833692079048,0.040494527507800034,-0.9970092286339478,-0.08248294929342628,-0.12853997136762557,-3.1213951593959393
1782665068089137152,2.595198154449463,-0.20835018157958984,-0.8887677788734436,0.028057154268026352,-0.1360873430967331,0.08235734701156616,-0.9872676730155945,0.10470002889633179,-0.15509599447250366,-0.5625674724578857,0.01351908700357772,-0.06881528060230288,0.04038079465677452,-0.9967201970869877,-0.08245073337771958,-0.13697918195821576,-3.120126226442605
1782665068099056896,2.6051180362701416,-0.3534168004989624,-1.4205706119537354,-0.2916172444820404,-0.14830191433429718,0.08561252057552338,-0.9852294325828552,-0.03578011691570282,0.14616847038269043,-0.5595245957374573,0.012775803678994694,-0.07497112269052714,0.04200728703596786,-0.9962186721869231,-0.08571744945127685,-0.14940360344269,-3.122364561533454
1782665068108977152,2.6150381565093994,0.22727340459823608,-1.3355271816253662,0.10868977755308151,-0.16174577176570892,0.08546335250139236,-0.9831247925758362,-0.05090071260929108,0.10029714554548264,-0.6727895140647888,0.012263030282302313,-0.08173856266485581,0.04190966080867587,-0.9956967824926544,-0.08556773439965779,-0.16306136518867995,-3.1239579772012824
1782665068118896896,2.624958038330078,-0.5863683819770813,-1.1182174682617188,-0.028408683836460114,-0.1727190762758255,0.08701664209365845,-0.9811198711395264,-0.034647852182388306,0.02525751292705536,-0.37834662199020386,0.012738866881929243,-0.08732248314273082,0.04260095675517855,-0.9951873288519665,-0.08712683306524231,-0.1742572903114354,-3.1236084014686285
1782665068128816128,2.6348772048950195,-0.37166914343833923,-1.0159388780593872,0.3030007779598236,-0.18235482275485992,0.09186679124832153,-0.9789316654205322,0.40144050121307373,-0.15998202562332153,-0.5147054195404053,0.013849001930145778,-0.09229549779034818,0.04489662468438737,-0.9946225254072693,-0.09199650113050788,-0.18416855546629637,-3.122248101358169
1782665068138736128,2.6447970867156982,-0.913947582244873,-1.034105658531189,0.15583452582359314,-0.19159172475337982,0.09920084476470947,-0.9764485955238342,0.496645450592041,-0.10690653324127197,-0.40949195623397827,0.014513282342140037,-0.0970830940244447,0.04848286938151337,-0.9939887947646571,-0.09936427401731622,-0.1937513996237008,-3.1220567115341114
1782665068148655872,2.654716968536377,-0.9937127828598022,-1.0321485996246338,0.3236575722694397,-0.20176050066947937,0.10875584185123444,-0.97337806224823,0.7260220050811768,-0.18991735577583313,-0.48537737131118774,0.015738788335962088,-0.10241307333490673,0.05312746190944403,-0.9931975377721803,-0.10897138428659492,-0.20438437360213108,-3.1210880446811307
1782665068158576128,2.6646370887756348,-0.9480864405632019,-1.1496033668518066,0.04249062389135361,-0.21180255711078644,0.11841749399900436,-0.9701118469238281,0.6625166535377502,-0.10721754282712936,-0.4477653503417969,0.016228191798255003,-0.10766271990714274,0.05790354322878509,-0.9923671565864238,-0.11869600828066712,-0.21495491352126778,-3.121710920236611
1782665068168494848,2.674556016921997,-0.6083061695098877,-1.3371373414993286,-0.35349053144454956,-0.22392839193344116,0.12535053491592407,-0.9665108919143677,0.6758479475975037,0.08256572484970093,-0.4505423307418823,0.01564330870182678,-0.11389662993832532,0.06141750467253384,-0.9914689407365868,-0.12568114700996008,-0.22767041707748076,-3.124427206703893
1782665068178415104,2.684476137161255,-0.18465663492679596,-1.5019819736480713,-0.1342790573835373,-0.23792113363742828,0.12847304344177246,-0.9627503156661987,0.5968688726425171,0.011190637946128845,-0.4178953766822815,0.01454153048679376,-0.12102297847808938,0.06307351935526145,-0.990537132790085,-0.12882911058528237,-0.2422723844242014,-3.127937917201915
1782665068188334848,2.6943960189819336,-0.35036802291870117,-1.5015687942504883,-0.21899497509002686,-0.2522929012775421,0.1306578367948532,-0.9587892293930054,0.3829081654548645,-0.03197924792766571,-0.29400306940078735,0.01390649300278481,-0.12838156476794457,0.06421488285660579,-0.9895459555217201,-0.13103246863104986,-0.257304156917241,-3.1304628010752316
1782665068198255104,2.7043161392211914,-0.5161583423614502,-1.4059480428695679,-0.22927823662757874,-0.2665238082408905,0.1340973824262619,-0.954454243183136,0.3764481544494629,-0.0682709813117981,-0.23110783100128174,0.013186531968825235,-0.13569845259492244,0.06602118155226325,-0.9884600591249261,-0.13450256564124388,-0.2723057704650287,-3.133367498048072
1782665068208174080,2.7142350673675537,-0.8367684483528137,-1.5289756059646606,-0.15461964905261993,-0.2808385193347931,0.1397101730108261,-0.9495318531990051,0.2998510003089905,-0.2015388011932373,-0.1454540491104126,0.012341739391232837,-0.14309852905084028,0.06897007929173532,-0.987225185348526,-0.14016870609363574,-0.28756717811191473,-3.1369176678933206
1782665068218094080,2.7241551876068115,-1.1342860460281372,-1.5295729637145996,-0.00957510992884636,-0.2951241135597229,0.14918167889118195,-0.943740725517273,0.1475105881690979,-0.13853104412555695,-0.09838879108428955,0.011707241697229163,-0.15057030109059485,0.0738797298748128,-0.98576535692422,-0.1497406426396138,-0.3030828826580331,-3.140750226375611
1782665068228014080,2.7340750694274902,-1.00849449634552,-1.3256531953811646,-0.2369295060634613,-0.30831578373908997,0.15880101919174194,-0.9379358291625977,0.018612414598464966,-0.0059537142515182495,-0.09937191009521484,0.011078269461859124,-0.1575048383922939,0.07889431696502339,-0.9842993526320363,-0.159476136374101,-0.3175904487803261,3.138509722068759
1782665068237934080,2.743995189666748,-0.7438836097717285,-1.3129924535751343,0.0002865090500563383,-0.3210585415363312,0.16645140945911407,-0.9323171973228455,0.09509113430976868,-0.0018701255321502686,-0.03537994623184204,0.01033023242129946,-0.16419730898742588,0.08294965685668626,-0.9828794138664094,-0.16722977613532428,-0.33164705523055343,3.1345610283917678
1782665068247853056,2.7539141178131104,-0.5014984011650085,-0.9892944693565369,-0.002678920980542898,-0.33132293820381165,0.17228709161281586,-0.9276542067527771,-0.009588927030563354,-0.05714428424835205,0.0247763991355896,0.01018283586633621,-0.1696425272175616,0.0859902244058487,-0.9816942260543182,-0.17315101621619483,-0.34304101803714454,3.13227079598817
1782665068257772800,2.763833999633789,-0.6237202286720276,-0.7014163136482239,0.08689064532518387,-0.3389468789100647,0.17737923562526703,-0.9239327311515808,0.1832767128944397,-0.08149300515651703,0.11912310123443604,0.010371716167365298,-0.1737377936807307,0.08859361006948732,-0.9807440638795685,-0.1783228129665583,-0.35160846280503993,3.1309841181342484
1782665068267693056,2.773754119873047,-0.690456211566925,-0.5929344296455383,-0.0944024845957756,-0.3451100289821625,0.1830463856458664,-0.9205395579338074,0.22645768523216248,-0.034547850489616394,0.13831299543380737,0.010217758881822612,-0.1770527495713272,0.09155618337574498,-0.9798803775786391,-0.1840842978352098,-0.3586827525967456,3.128983096639989
1782665068277612032,2.783673048019409,-0.4606192409992218,-0.6390108466148376,-0.13605113327503204,-0.35089731216430664,0.18807566165924072,-0.9173323512077332,0.19847726821899414,0.04651296138763428,0.10770100355148315,0.009230251992286938,-0.1800885140407499,0.09435017254297066,-0.9790714983050792,-0.18920246711384123,-0.36534656738002125,3.125394279843426
1782665068287532032,2.793593168258667,-0.5024438500404358,-0.5482262969017029,-0.13772448897361755,-0.3563307523727417,0.19178561866283417,-0.9144652485847473,0.0691450834274292,0.06900234520435333,0.08074027299880981,0.00849572446240945,-0.1829461452245433,0.09642658532387301,-0.9783458139721903,-0.19298121006425262,-0.3715611513054338,3.1225803736924846
1782665068297452032,2.8035130500793457,-0.2921721041202545,-0.3993534445762634,-0.26495248079299927,-0.36107155680656433,0.19475719332695007,-0.9119741916656494,0.08923622965812683,0.010214120149612427,0.018648386001586914,0.007470537306680351,-0.1854004550509048,0.09818128618588635,-0.9777174075411991,-0.19600989103357927,-0.3769867925985838,3.1193677245345866
1782665068307372032,2.8134331703186035,-0.2146521508693695,-0.26960206031799316,-0.32291290163993835,-0.3646962344646454,0.19604472815990448,-0.9102544188499451,0.13003131747245789,-0.07965068519115448,0.015158593654632568,0.005732927261270149,-0.1871675341609608,0.09920229455750454,-0.9772893449223549,-0.19732273771889153,-0.38106924132669556,3.1151470178834413
1782665068317291008,2.823352098464966,-0.20667998492717743,-0.17392849922180176,-0.3045370876789093,-0.3672960102558136,0.19669197499752045,-0.9090687036514282,0.1264055073261261,-0.13806772232055664,0.045818030834198,0.004190890515208317,-0.1884008622074723,0.0998536747886323,-0.976993799923525,-0.1979828402627685,-0.38398037324514883,3.111565577458148
1782665068327211008,2.8332719802856445,0.08249397575855255,-0.04686133190989494,-0.23767901957035065,-0.36870497465133667,0.19596053659915924,-0.9086562395095825,0.13243788480758667,-0.06308700144290924,0.08944237232208252,0.0028539872677956013,-0.18900448317894009,0.09974567816863429,-0.9768929945309066,-0.1972368871150022,-0.3854701576631652,3.1088228720973943
1782665068337131008,2.8431921005249023,0.17091411352157593,0.25896063446998596,-0.11533685773611069,-0.3679302930831909,0.19450753927230835,-0.9092822074890137,0.07902038097381592,-0.00548166036605835,0.24103879928588867,0.002022980253237486,-0.1884905934497895,0.0991473708281768,-0.9770552264707552,-0.19575537573337645,-0.3844984041521587,3.1075116983670052
1782665068347051008,2.853111982345581,0.8179787397384644,0.39649659395217896,0.09918133169412613,-0.36460280418395996,0.19024688005447388,-0.9115211963653564,0.12224748730659485,0.02415435016155243,0.19582301378250122,0.0022363607654212426,-0.18669486787953624,0.09687321287881234,-0.977627538205786,-0.19141360855519013,-0.3805010011966998,3.1091966107802915
1782665068356969984,2.8630311489105225,1.8281755447387695,0.4576784372329712,0.05124363303184509,-0.3603593111038208,0.17879216372966766,-0.9155187010765076,0.09227767586708069,0.19829827547073364,0.10135555267333984,0.003722099761966022,-0.18445615213663444,0.09064527273628373,-0.9786447244329687,-0.17975869754364765,-0.37498751422144605,3.115006251344224
1782665068366889984,2.872951030731201,2.3308377265930176,0.639057457447052,-0.0596148744225502,-0.35528266429901123,0.15907827019691467,-0.9211233854293823,0.01112067699432373,0.18732675909996033,0.3089255094528198,0.005473752584833785,-0.18170183247750743,0.0801419985300687,-0.9800672094865541,-0.1597569653502787,-0.3681234032615894,3.1229597113788627
1782665068376809984,2.882871150970459,1.8545112609863281,0.9671008586883545,0.046632736921310425,-0.34782418608665466,0.13959020376205444,-0.927109956741333,-0.06907644867897034,-0.08372779190540314,0.7138378620147705,0.0069435588158471544,-0.17766907053930905,0.06984777657747918,-0.9815838557855677,-0.14004756184289952,-0.3589200316382132,3.1302935837911208
1782665068386729984,2.8927910327911377,0.7385814785957336,1.1918609142303467,0.25349628925323486,-0.33754658699035645,0.1278436779975891,-0.9325869083404541,-0.06653666496276855,-0.4818781018257141,0.8918917179107666,0.00851060943667221,-0.17224821200325957,0.06353824572142774,-0.9829654203392008,-0.12819450407619465,-0.34727769945117754,3.13639253102301
1782665068396649216,2.902710199356079,-0.12524224817752838,1.5263142585754395,-0.03884744271636009,-0.3245328962802887,0.12531474232673645,-0.9375364780426025,0.0669035017490387,-0.6712284088134766,0.8219969272613525,0.009084598743915396,-0.16544187157971335,0.0621349916789915,-0.9842183154173026,-0.12564506532767902,-0.3332452972891502,3.13889437821251
1782665068406568960,2.912630081176758,-1.076252818107605,1.540785312652588,-0.23121505975723267,-0.3102307617664337,0.13082416355609894,-0.9416166543960571,0.3068890869617462,-0.45176225900650024,0.8090330362319946,0.00742896955495125,-0.15792630019847342,0.06519936217890768,-0.9852680645830802,-0.13120023689024582,-0.3182660019599948,3.135586664935566
1782665068416489216,2.9225502014160156,-1.4042145013809204,1.3910059928894043,-0.31171655654907227,-0.2966326177120209,0.1421334147453308,-0.9443554282188416,0.4893816411495209,-0.09890526533126831,0.716251790523529,0.004561003710572082,-0.1507554424951693,0.07137984840338255,-0.9859801640497408,-0.1426163862059203,-0.3043520565918558,3.128936140401192
1782665068426407936,2.932469129562378,-1.3239808082580566,1.3444857597351074,-0.2823345363140106,-0.28361383080482483,0.15382708609104156,-0.9465201497077942,0.4881579279899597,0.12231118977069855,0.577440619468689,0.001702314558520849,-0.14387606294963745,0.07771481896352635,-0.9865380104010906,-0.15444030536961945,-0.2911250475103979,3.122358749619998
1782665068436327936,2.9423890113830566,-1.004106879234314,1.4429398775100708,-0.37695449590682983,-0.2702707350254059,0.1637696623802185,-0.9487535357475281,0.3273233473300934,0.129580557346344,0.4266435503959656,-0.001331524433555388,-0.1367886491409301,0.08313910471783453,-0.9871043015997365,-0.16451070414886243,-0.2775182553047307,3.115868865240894
1782665068446247936,2.9523091316223145,-0.3406903147697449,1.4757777452468872,-0.12339732050895691,-0.2549281120300293,0.16892004013061523,-0.9520912170410156,0.3559565544128418,0.07824182510375977,0.17633438110351562,-0.003606328796854035,-0.12870577621357507,0.0859605478026195,-0.9879436262884611,-0.16973386039058477,-0.26161909992247584,3.111908857143625
1782665068456167936,2.962229013442993,-0.10232727229595184,1.4478187561035156,-0.011884104460477829,-0.23733216524124146,0.16957591474056244,-0.9565131664276123,0.36515504121780396,0.05977891385555267,0.12541276216506958,-0.004572561794369106,-0.11958001028178294,0.08627880889041495,-0.9890580135775775,-0.1703993417349518,-0.2432105539393838,3.1114724432790135
1782665068466087168,2.9721481800079346,0.041373901069164276,1.3852108716964722,0.11499857902526855,-0.22051376104354858,0.16914398968219757,-0.960606038570404,0.3335050940513611,-0.16488680243492126,0.18747377395629883,-0.0047983896002547575,-0.11094378560149538,0.08595609489536664,-0.9900908661521206,-0.16996107583822131,-0.22564752118459316,3.1125965777169986
1782665068476006912,2.9820680618286133,0.06453940272331238,1.3385757207870483,0.24269741773605347,-0.20602010190486908,0.16875725984573364,-0.9638862609863281,0.22516988217830658,-0.31092339754104614,0.2609291076660156,-0.004464750062842706,-0.10356814607270567,0.08561842018217582,-0.9909203933504447,-0.16956871501735865,-0.21057058483344415,3.1146194667658995
1782665068485927168,2.991988182067871,0.2961432635784149,1.5118674039840698,0.32634326815605164,-0.1911982148885727,0.1672682911157608,-0.9671941995620728,0.1832178682088852,-0.2396407276391983,0.27136290073394775,-0.003474957127144776,-0.0960968725813182,0.0846658442351189,-0.9917585708617521,-0.16805826645962185,-0.19516705288165762,3.11809458693318
1782665068495846912,3.00190806388855,0.6782640218734741,1.373706340789795,0.35287874937057495,-0.17624464631080627,0.16351617872714996,-0.9706700444221497,0.26993364095687866,0.08773502707481384,0.38038378953933716,-0.002306885408558089,-0.0885840254944549,0.08257035037186085,-0.9926376928027463,-0.1642537572540576,-0.17961334042042906,3.1221207255938035
1782665068505765888,3.011826992034912,1.5016695261001587,1.2972153425216675,0.5420237183570862,-0.1622953712940216,0.1535230576992035,-0.9747260808944702,0.3893766701221466,0.285334974527359,0.3858283758163452,-0.00011191315287413719,-0.08165662366695264,0.07726038801984979,-0.9936614453651113,-0.15413262088536955,-0.16498998668607828,3.12859819268046
1782665068515686144,3.02174711227417,2.1128623485565186,1.014381766319275,0.6734400391578674,-0.15028344094753265,0.13713207840919495,-0.97908616065979,0.36791956424713135,0.5200029611587524,0.40338730812072754,0.0032034467418582797,-0.07575928865200852,0.06868376043487823,-0.9947525853668849,-0.1375655560917958,-0.15230489811772674,3.137520579981252
1782665068525605888,3.0316669940948486,2.5116071701049805,1.0871175527572632,0.643093466758728,-0.13902951776981354,0.11521739512681961,-0.9835627675056458,0.28404903411865234,0.6188982129096985,0.26798659563064575,0.007025637781207251,-0.07020854382816054,0.05735302541719018,-0.9958574471368484,-0.11547384893178732,-0.1404226546995752,-3.1356130736579737
1782665068535526144,3.0415871143341064,2.6450846195220947,1.1870391368865967,0.6887688040733337,-0.12740874290466309,0.09047374129295349,-0.9877153038978577,0.19495940208435059,0.5022844076156616,0.16262680292129517,0.010889346951476229,-0.06439275552125215,0.044675747043946695,-0.9968646720336195,-0.09059762359159847,-0.1282849976902703,-3.125569438646214
1782665068545444864,3.0515060424804688,1.763407826423645,1.2588802576065063,0.8008239269256592,-0.11454077810049057,0.06892701983451843,-0.9910244345664978,0.15192481875419617,0.23914793133735657,0.1485103964805603,0.015066962243341454,-0.057914387497509955,0.0336703853984362,-0.9976398281681769,-0.06898171776184696,-0.11506759791176228,-3.1153644721817284
1782665068555365120,3.0614261627197266,0.17629650235176086,1.0979608297348022,0.9851180911064148,-0.1018897220492363,0.06028261035680771,-0.9929675459861755,0.1188117191195488,-0.07575502246618271,0.15840333700180054,0.019697049277843062,-0.05162051705621938,0.02918155270870156,-0.9980460174074984,-0.06031917959311267,-0.10225345792783402,-3.1052141003707416
1782665068565284864,3.0713460445404053,-1.057781457901001,0.8607040047645569,0.709341824054718,-0.09138879179954529,0.06583897024393082,-0.993636429309845,0.03366479277610779,-0.4072086215019226,0.06732112169265747,0.023715949335273618,-0.04653755766735855,0.031875533636104084,-0.9981261796446511,-0.06588663310940499,-0.09171604241374533,-3.0971052955812124
1782665068575205120,3.081266164779663,-2.1102516651153564,0.4015025496482849,0.936631977558136,-0.0846228376030922,0.08222454786300659,-0.9930146336555481,0.1007818952202797,-0.6172282099723816,0.025210678577423096,0.02696574713135675,-0.04348254646425423,0.04002427315291185,-0.997887826257426,-0.0823174832640621,-0.08501272287977969,-3.091063252763601
1782665068585124096,3.0911850929260254,-3.2108001708984375,0.002041876781731844,1.343605399131775,-0.08146663010120392,0.10952403396368027,-0.9906400442123413,-0.0025635212659835815,-0.5923731327056885,-0.03717672824859619,0.032100685019248856,-0.04257399097633271,0.05354847376584811,-0.9971406833309907,-0.10974418864631053,-0.08205172659916686,-3.081738809614755
1782665068595043840,3.101104974746704,-3.564509630203247,-0.17693106830120087,1.2946860790252686,-0.08012712001800537,0.143951877951622,-0.9863353967666626,-0.32456648349761963,-0.04725693166255951,-0.2249683141708374,0.03795970498475974,-0.042922939997742784,0.0706394146133399,-0.9958547257776136,-0.14445373326334116,-0.08105919382805467,-3.0712621600799292
1782665068604964096,3.111025094985962,-3.13431978225708,-0.14041559398174286,1.550026297569275,-0.07933902740478516,0.1783197671175003,-0.9807687401771545,-0.6394109725952148,1.1515294313430786,-0.4015706777572632,0.044252620705366764,-0.04380606572554293,0.08773052855594224,-0.9941961249907019,-0.17927858722260606,-0.0807189679348194,-3.0598883941606383
1782665068614883072,3.120944023132324,-1.7265863418579102,0.10865893959999084,0.7215451002120972,-0.07670731842517853,0.2033739686012268,-0.9760916829109192,-0.8773637413978577,1.862650752067566,-0.792737603187561,0.049547150206848696,-0.043636271708578304,0.10024980635782814,-0.9927693239184088,-0.20480268321687348,-0.07842500079406758,-3.0499224697289278
1782665068624803072,3.130864143371582,-1.232686161994934,-0.0209512859582901,-0.8126136064529419,-0.0768117755651474,0.21512943506240845,-0.973560094833374,-0.2672891616821289,0.5084728598594666,-0.7764703631401062,0.0493941766947083,-0.04399871629389019,0.10622645141941713,-0.9921392841247091,-0.21682436280665185,-0.07873472274702449,-3.0506775298102102
1782665068634723072,3.1407840251922607,-3.9536571502685547,0.19909852743148804,-1.3152629137039185,-0.07515474408864975,0.2389923632144928,-0.9681086540222168,0.30302950739860535,-0.7824646830558777,0.2703700661659241,0.04207170675630764,-0.04295539297242975,0.11874550685531497,-0.9911025301294405,-0.24132800483073208,-0.07747509878731554,-3.066143514476632
1782665068644643072,3.1507041454315186,-5.877284526824951,-0.28186944127082825,-0.19668981432914734,-0.0780927836894989,0.28551504015922546,-0.9551872611045837,0.4834577739238739,-0.45740529894828796,0.08697742223739624,0.03817386732864562,-0.045036390974200875,0.14275186813882523,-0.9879961758938398,-0.2895437807650477,-0.08157508632195548,-3.0762551844647925
1782665068654562048,3.160623073577881,-6.862287521362305,0.23682083189487457,0.040974948555231094,-0.07740146666765213,0.3465396761894226,-0.9348365068435669,0.16886264085769653,0.1484706699848175,0.0995093584060669,0.03620691839475491,-0.04580522108529319,0.17459562626872133,-0.9829076652521436,-0.3538796878396867,-0.0826083710132861,-3.0827321955279734
1782665068664482048,3.1705431938171387,-5.896903991699219,-0.16956888139247894,-0.694259762763977,-0.07922615855932236,0.4052978456020355,-0.9107452034950256,-0.07235465198755264,0.256643682718277,-0.3814300298690796,0.03335095984645003,-0.04757836581349022,0.20582439925764281,-0.9768625143961207,-0.41730461511436684,-0.08677203841544637,-3.091720980368283
1782665068674402048,3.1804630756378174,-4.361846923828125,0.18747472763061523,-0.5398361086845398,-0.0812484472990036,0.45006054639816284,-0.8892942070960999,0.1749221384525299,0.21575671434402466,-0.7124513983726501,0.02894862059430937,-0.048674981370342776,0.23018173543406534,-0.9714984273800864,-0.4668331265122023,-0.09110990063799461,-3.1036900055131467
1782665068684322048,3.190383195877075,-2.8531265258789062,0.14023619890213013,0.017461733892560005,-0.07820509374141693,0.4816601574420929,-0.8728616833686829,0.5424232482910156,0.0800616443157196,-0.7280142307281494,0.02669659838750392,-0.04725839985585233,0.24766068424252327,-0.967325303895234,-0.5025481256031707,-0.08935761410422806,-3.109362247761361
1782665068694241024,3.2003021240234375,-0.7909042239189148,-0.11085568368434906,0.4097549319267273,-0.07706616818904877,0.49655938148498535,-0.8645747900009155,0.84751296043396,-0.13869500160217285,-0.814487099647522,0.027425194369289713,-0.04719546649757076,0.2559007357582307,-0.9651607266568853,-0.5196304137012209,-0.08890268799499501,-3.108424541802582
1782665068704161024,3.210222005844116,-1.1088128089904785,-0.24648530781269073,0.40006205439567566,-0.07593806833028793,0.504423201084137,-0.8601108193397522,0.7266796827316284,0.22834962606430054,-0.0677914023399353,0.02965288374866498,-0.047393509478284614,0.26018924871942495,-0.9639378286558336,-0.5287138537978991,-0.08806037117004163,-3.103939120294975
1782665068714081024,3.220142126083374,-1.6770216226577759,-0.0837419256567955,-0.21678678691387177,-0.07666260749101639,0.5160161852836609,-0.8531413674354553,0.2945275902748108,0.6468256115913391,-0.07245677709579468,0.03009722072712335,-0.0481824430527362,0.26666040924331263,-0.9621148246252352,-0.5421935510461324,-0.08961851689964807,-3.1039722317673704
1782665068724001024,3.2300620079040527,-2.7890169620513916,0.46428510546684265,-0.6489884853363037,-0.07722105830907822,0.534482479095459,-0.8416444659233093,0.04092039167881012,0.755678653717041,-0.015762150287628174,0.027171733816456396,-0.048105934979227355,0.2772428293907974,-0.9592100681771099,-0.5638952969356824,-0.09149404982538814,-3.111472903155198
1782665068733920000,3.239981174468994,-3.5140573978424072,0.635776937007904,-1.0962404012680054,-0.07692740112543106,0.559960663318634,-0.8249401450157166,0.18068714439868927,0.07263821363449097,-0.08202695846557617,0.021469917744948445,-0.04684390849879346,0.2921225107909615,-0.9549917777622587,-0.5943383187869682,-0.09298319482564286,-3.1251301749761318
1782665068743840000,3.249901056289673,-4.46623420715332,0.47438737750053406,-1.3067342042922974,-0.07932417094707489,0.5910730361938477,-0.8027081489562988,0.3888639509677887,-0.5811853408813477,-0.019587993621826172,0.014022755498331221,-0.0463693238441525,0.31063774908390585,-0.9492931758729404,-0.6323884911152468,-0.09850088029136021,3.1388841663632467
1782665068753760000,3.2598211765289307,-5.3603949546813965,0.38742852210998535,-1.2151563167572021,-0.08348142355680466,0.6289611458778381,-0.7729415893554688,0.44226133823394775,-0.6655822396278381,0.00455474853515625,0.006202737082246887,-0.046532544695126445,0.33371232992479843,-0.9415053787767355,-0.6802162577723654,-0.10758777928540443,3.1166656714789984
1782665068763680000,3.2697410583496094,-4.881863594055176,0.1621532440185547,-1.0761566162109375,-0.08847689628601074,0.6668974757194519,-0.7398781776428223,0.31510043144226074,-0.3137633204460144,-0.25185155868530273,-0.0006542627920197476,-0.047179460190723006,0.35754024167154935,-0.9327050883766558,-0.7300373541330981,-0.11901788811627481,3.094661936004396
1782665068773598976,3.2796599864959717,-3.8953375816345215,-0.04108481854200363,-1.2758285999298096,-0.09569554775953293,0.6975059509277344,-0.7101604342460632,0.02132420986890793,0.3208351135253906,-0.35095101594924927,-0.007175696568538357,-0.04881556160735702,0.3775404858780457,-0.9246776636963543,-0.7719110608199041,-0.13394517348220272,3.0715779223642166
1782665068783518976,3.2895801067352295,-2.4761135578155518,-0.11774924397468567,-1.258127212524414,-0.10529268532991409,0.718482494354248,-0.6875291466712952,-0.16733607649803162,0.7143940329551697,-0.42060989141464233,-0.01356255771597071,-0.05153294218047081,0.39189257810877587,-0.9184664387094461,-0.8016181455944956,-0.15196579091228468,3.0475648123651498
1782665068793438976,3.299499988555908,-0.9224052429199219,0.026895027607679367,-1.1702790260314941,-0.11412578076124191,0.7286384105682373,-0.6753231287002563,-0.26345294713974,0.5954124927520752,-0.35836827754974365,-0.01939908832267411,-0.05389642621549738,0.3992913807137431,-0.9150328875944721,-0.8163318213630646,-0.1674125746382513,3.026662414219361
1782665068803357952,3.3094191551208496,0.24487848579883575,-0.0424051433801651,-1.2056750059127808,-0.12257758527994156,0.7292029857635498,-0.6732293963432312,-0.24206170439720154,0.1688530445098877,-0.2301061749458313,-0.024729288251105007,-0.05620504969604467,0.4002827733532482,-0.9143321524620395,-0.8171565252137937,-0.18010114480091868,3.009368323163952
1782665068813277952,3.3193390369415283,0.640386700630188,0.26278114318847656,-1.0177520513534546,-0.12986913323402405,0.7245786786079407,-0.6768454313278198,-0.06045372784137726,-0.12606793642044067,-0.09785854816436768,-0.029949062233926765,-0.05793685359224407,0.3977695509787,-0.9151643270062711,-0.8104228992757928,-0.1895701671483792,2.994649993146222
1782665068823198208,3.329259157180786,0.7425000071525574,0.33031484484672546,-0.7493072152137756,-0.13387078046798706,0.7187775373458862,-0.6822296977043152,0.13303156197071075,-0.2403382658958435,-0.008489847183227539,-0.034176427986908314,-0.05833059694057996,0.3943129345991371,-0.9164860606599392,-0.8020424083415303,-0.1937634838892896,2.9846790530165555
1782665068833117952,3.339179039001465,1.1296113729476929,0.19783321022987366,-0.7526337504386902,-0.1374453753232956,0.7114596962928772,-0.6891545057296753,0.1745547503232956,-0.1242099404335022,0.04759871959686279,-0.037698313889034815,-0.058837937466280923,0.3898215625524062,-0.9182353664349894,-0.7915732373323995,-0.19685761158377799,2.9770544586135177
1782665068843037184,3.3490982055664062,1.8580453395843506,0.42782655358314514,-0.7572214603424072,-0.14071814715862274,0.7002894878387451,-0.6998521685600281,0.09063877165317535,0.07076764106750488,0.07067131996154785,-0.04135646971547668,-0.059203954270533043,0.3828430429320206,-0.9209863471396484,-0.7758029557450783,-0.19842262866844634,2.9705453977621548
1782665068852956928,3.359018087387085,2.5927791595458984,0.4790721535682678,-0.6770457029342651,-0.14221489429473877,0.6835678815841675,-0.7158980369567871,0.08201894164085388,0.21192467212677002,0.01240682601928711,-0.04467651371015016,-0.05888144313956343,0.3722686751848139,-0.9251773613368469,-0.7526397602482275,-0.1960994958360272,2.9673891050096484
1782665068862876928,3.3689379692077637,2.7403931617736816,0.5826394557952881,-0.872039794921875,-0.143477201461792,0.6629026532173157,-0.7348294258117676,-0.035294756293296814,0.20556652545928955,0.06937843561172485,-0.04837620424081698,-0.0584371786845982,0.3594028018528904,-0.9300937364913291,-0.7246890329925395,-0.1928263961910192,2.9643703886159254
1782665068872796928,3.3788580894470215,2.4223451614379883,0.6447305083274841,-1.1485129594802856,-0.14552545547485352,0.6424536108970642,-0.7523800730705261,-0.05085517466068268,0.03175598382949829,0.12277191877365112,-0.05325040647196224,-0.05808535227994077,0.3470389959869663,-0.9345343435157466,-0.6976957400968653,-0.19106083122842402,2.958077123577689
1782665068882715904,3.388777017593384,2.0612998008728027,0.7637694478034973,-1.249126672744751,-0.14794370532035828,0.6237071752548218,-0.7675298452377319,-0.010534077882766724,-0.23463857173919678,0.12492120265960693,-0.05943552959680107,-0.05755572034884504,0.3360393237333755,-0.9382070183702792,-0.673476512244934,-0.19041772387548958,2.948224506246645
1782665068892636160,3.3986971378326416,1.8036978244781494,0.5409606099128723,-1.1738168001174927,-0.150167316198349,0.6068146824836731,-0.7805291414260864,0.1993006020784378,-0.4030335545539856,0.024303555488586426,-0.06560103195866958,-0.05702690833273176,0.3263178726024716,-0.9412550790209364,-0.6520469265860186,-0.19006927546345218,2.9379951943173133
1782665068902555904,3.4086170196533203,1.382346749305725,0.4971466362476349,-1.0731992721557617,-0.1529085487127304,0.5927898287773132,-0.7907080054283142,0.2436830997467041,-0.38177603483200073,0.04292052984237671,-0.07120211795998742,-0.056999124646305376,0.3184290915505972,-0.9435487313742638,-0.6345185128513778,-0.1910238991035674,2.9280605718956423
1782665068912476160,3.418537139892578,1.196530818939209,0.4429377317428589,-1.1612929105758667,-0.15558549761772156,0.5807386636734009,-0.7990843057632446,0.01944659650325775,-0.2955976724624634,0.05723249912261963,-0.07651290808269687,-0.05705617116007037,0.31177306753301637,-0.9453506160142245,-0.6196357364489299,-0.19229881918448982,2.9183418653242903
1782665068922394880,3.4284560680389404,0.3264634907245636,0.7394118905067444,-1.3257157802581787,-0.1581217348575592,0.5726028084754944,-0.804439902305603,-0.1632131189107895,-0.14853054285049438,0.23295247554779053,-0.08267404805552427,-0.056684044599071746,0.30751740697142654,-0.94624789541161,-0.6096771409213748,-0.19408691263523095,2.9060526167481413
1782665068932315136,3.4383761882781982,0.393753319978714,1.191624641418457,-1.053876280784607,-0.15646791458129883,0.5688551068305969,-0.8074166774749756,-0.18505430221557617,-0.3162916302680969,0.08648467063903809,-0.08997417547008502,-0.053609115237397954,0.30564314287443084,-0.946368368399261,-0.6051131430165209,-0.19141572158426373,2.8921027009019213
1782665068942234880,3.448296070098877,0.17657393217086792,1.366610050201416,-0.6822887659072876,-0.15089617669582367,0.5646146535873413,-0.8114435076713562,0.09410297870635986,-0.3294919729232788,0.1164361834526062,-0.09589091035395948,-0.04898566832296358,0.3031149024187278,-0.946850902637511,-0.5999663217995335,-0.18386000386098483,2.882717374085979
1782665068952153856,3.4582149982452393,-0.08775465190410614,1.1805675029754639,-0.70713210105896,-0.14419391751289368,0.5640156269073486,-0.8130772113800049,0.19863727688789368,-0.26096075773239136,0.13210797309875488,-0.10087448833156254,-0.04391588271650713,0.30254388577267943,-0.9467644350307975,-0.5992406569120399,-0.17551857021548528,2.8749529409205254
1782665068962074112,3.468135118484497,-0.02960779517889023,1.0135706663131714,-0.6573405861854553,-0.1392776519060135,0.5632520318031311,-0.8144623041152954,0.2740890681743622,-0.4456220269203186,-0.03768002986907959,-0.1056360318952955,-0.03986968249622747,0.3019590392956861,-0.9466108421876852,-0.5983162936393333,-0.16936740094159444,2.8669757851247426
