time,seconds_elapsed,rotationRateX,rotationRateY,rotationRateZ,gravityX,gravityY,gravityZ,accelerationX,accelerationY,accelerationZ,quaternionW,quaternionX,quaternionY,quaternionZ,pitch,roll,yaw
1782664559389438208,0.1762690544128418,0.8665680289268494,0.5802438855171204,-1.381225824356079,0.03907916694879532,0.759244441986084,-0.6496312618255615,-0.01684710755944252,-0.06915044784545898,0.20964407920837402,-0.5137148850665215,0.21869563346697268,-0.35687055871482254,0.7489410398294978,-0.8621513341465611,0.06008351502739748,-1.911522741873245
1782664559399358208,0.1861891746520996,1.5310890674591064,0.7037229537963867,-1.4745981693267822,0.03289736807346344,0.7561558485031128,-0.6535642147064209,-0.02870119735598564,0.09162247180938721,0.1477506160736084,-0.5078498523750863,0.21722848484506443,-0.3550066053225249,0.7542351946425127,-0.8574186341583399,0.05029288064115162,-1.9333978958047071
1782664559409278208,0.19610905647277832,2.027207612991333,0.8100813627243042,-1.5542458295822144,0.026197725906968117,0.7526065111160278,-0.6579492092132568,-0.025053340941667557,0.09965789318084717,0.15398192405700684,-0.5013156491793775,0.21555673527884692,-0.3529315544507445,0.7600377164435026,-0.8520116128679655,0.03979622205230914,-1.957352491684085
1782664559419198208,0.20602917671203613,1.838470458984375,0.9563773274421692,-1.6242138147354126,0.01941249705851078,0.7499168515205383,-0.6612471342086792,0.01832249015569687,-0.030754923820495605,0.17020410299301147,-0.4939789442606172,0.21404104854422207,-0.3515150901222655,0.7659035746893411,-0.8479364080054909,0.029348971843735472,-1.9826941178257727
1782664559429118208,0.21594905853271484,1.2067878246307373,1.0607444047927856,-1.6661022901535034,0.013718005269765854,0.746552050113678,-0.6651855707168579,0.04992642253637314,-0.252686083316803,0.1919037103652954,-0.4864490375993388,0.2117298347328493,-0.3501109821433711,0.7719844853048872,-0.8428645477696807,0.02061990266593148,-2.0077918364276237
1782664559439038208,0.22586917877197266,0.4243451952934265,1.0843122005462646,-1.624083161354065,0.009000327438116074,0.7445244789123535,-0.6675344705581665,0.09349294751882553,-0.4960198402404785,0.1751638650894165,-0.4786064369753289,0.20949210651628633,-0.34977966807099287,0.777626610876606,-0.8398222954301447,0.013482123609574894,-2.0321383893524647
1782664559448957184,0.23578810691833496,-0.12164437770843506,1.042633295059204,-1.4860440492630005,0.005193640943616629,0.7445475459098816,-0.6675492525100708,0.14458660781383514,-0.6720072627067566,0.1017228364944458,-0.47085467878179815,0.20779622119150212,-0.3507792754800852,0.7823493696947899,-0.8398568066666645,0.007780004155960932,-2.0545659453037812
1782664559458877440,0.24570822715759277,-0.3609387278556824,1.029294490814209,-1.3895745277404785,0.0021163104102015495,0.7459948062896729,-0.6659483313560486,0.16557779908180237,-0.6457293629646301,0.005593776702880859,-0.463372545663255,0.20649469942987284,-0.35268365875949564,0.7862950963428658,-0.8420274137577912,0.0031778789619840357,-2.0751234231561217
1782664559468797184,0.2556281089782715,-0.3273564577102661,1.0708279609680176,-1.320365309715271,-0.00016691692871972919,0.7474200129508972,-0.664351761341095,0.1502676159143448,-0.4698778986930847,-0.07417356967926025,-0.4561723031434925,0.20493513448197678,-0.35471918040654804,0.7899891073713426,-0.844170126953671,-0.0002512477968478883,-2.0943715417074404
1782664559478717440,0.2655482292175293,-0.06976433843374252,1.1337264776229858,-1.2524287700653076,-0.0014438792131841183,0.7474420070648193,-0.6643255949020386,0.12853431701660156,-0.28832030296325684,-0.12615597248077393,-0.4493539254653197,0.20249176352710777,-0.3561380390712095,0.793879033155596,-0.8442031521031966,-0.0021734477407936003,-2.112445283130411
1782664559488637184,0.275468111038208,0.3108799457550049,1.1480110883712769,-1.1757335662841797,-0.0016382025787606835,0.7449685335159302,-0.6670975685119629,0.13733461499214172,-0.18297207355499268,-0.1468672752380371,-0.4431135009535767,0.19879659688711243,-0.35627394658067335,0.7982475533096137,-0.8404876570673097,-0.0024557116868811706,-2.1291772697665596
1782664559498557440,0.2853882312774658,0.7759919762611389,1.1379637718200684,-1.0466318130493164,-0.0006711278692819178,0.739244818687439,-0.6734365224838257,0.176833838224411,-0.17463910579681396,-0.10865271091461182,-0.4377782109383562,0.19371170769912008,-0.3546230593351389,0.803161637706976,-0.8319482609497668,-0.0009965714786002746,-2.143934547484234
1782664559508477184,0.29530811309814453,1.2242727279663086,1.0778906345367432,-0.8909604549407959,0.0018621048657223582,0.7301347851753235,-0.6833006739616394,0.19766178727149963,-0.2443559765815735,-0.0790131688117981,-0.43359795914330884,0.18717951991119605,-0.3511601949948466,0.8084821005570476,-0.8185191773176534,0.0027251549793225987,-2.1558651546372705
1782664559518396160,0.30522704124450684,1.6777942180633545,1.0009626150131226,-0.7954885363578796,0.005372477695345879,0.7175073623657227,-0.6965302228927612,0.18604901432991028,-0.27146244049072266,-0.12759697437286377,-0.4305541609618523,0.17951439576601438,-0.3457014230120511,0.8141795346007914,-0.8002171839525313,0.007713048478170807,-2.1654574340629145
1782664559528316160,0.31514716148376465,2.1791305541992188,0.9945189952850342,-0.7747693657875061,0.009654504247009754,0.7010785937309265,-0.7130186557769775,0.15288211405277252,-0.215162456035614,-0.22893691062927246,-0.4282279941845074,0.17063471002987263,-0.3381929227246004,0.8204451762585077,-0.7769089917616757,0.013539497126675598,-2.173952153702455
1782664559538236160,0.32506704330444336,2.5032293796539307,0.9881489872932434,-0.7532070875167847,0.014774533919990063,0.6802592277526855,-0.7328227758407593,0.13120627403259277,-0.23505353927612305,-0.3679462671279907,-0.42642863527778274,0.16034975222159698,-0.3284457035665134,0.8273875336615231,-0.7481162236899267,0.02015839826363028,-2.1819096566688927
1782664559548156160,0.33498716354370117,2.374236822128296,0.9217879772186279,-0.8375716805458069,0.018990203738212585,0.6586962342262268,-0.7521693110466003,0.13407070934772491,-0.3067980408668518,-0.37197619676589966,-0.2841055407805838,0.09713850891652981,-0.3383481148264828,0.8918344894165657,-0.7190846276980614,0.025241882650812265,-2.5153064265537632
1782664559558076160,0.3449070453643799,2.4789140224456787,0.608262836933136,-1.0752390623092651,0.02038789540529251,0.6364991664886475,-0.7710078358650208,0.11407256126403809,-0.39014607667922974,-0.4287906885147095,-0.25663503972171786,0.08181217302850384,-0.3283334354414235,0.9053410193275634,-0.6899507463822796,0.02643701526075863,-2.5796491518031868
1782664559567996160,0.3548271656036377,2.8761231899261475,0.3120443820953369,-1.013306736946106,0.016251368448138237,0.6100655198097229,-0.7921842336654663,0.1293327510356903,-0.3358803987503052,-0.7254853844642639,-0.2429685258000261,0.07441100131433129,-0.31364132726417016,0.9149088876674127,-0.6561433020084548,0.020511755818698508,-2.6154620311611176
1782664559577916160,0.3647470474243164,2.3753702640533447,0.26792246103286743,-0.23158642649650574,0.022770727053284645,0.5836974382400513,-0.8116519451141357,0.3160049021244049,-0.31718742847442627,-0.8248379230499268,-0.23668642916176108,0.0646714039360958,-0.29998607439066427,0.9218489973824261,-0.6232749007430411,0.028047437169135304,-2.629910789851397
1782664559587836160,0.3746671676635742,3.135781764984131,-1.0435786247253418,-0.5148006081581116,0.014589738100767136,0.5475935935974121,-0.8366172313690186,0.5418677926063538,-0.4751296043395996,-0.09874653816223145,-0.23935576419009102,0.06399357821510998,-0.2785609535000104,0.9279103043809773,-0.5794856406544934,0.017437197312108833,-2.6314975491566384
1782664559597755136,0.3845860958099365,3.267103433609009,-0.29278796911239624,-0.510874330997467,0.008274230174720287,0.5083642601966858,-0.8611023426055908,-0.13455596566200256,-0.31668341159820557,-0.2416655421257019,-0.24442939991948515,0.0626176853488363,-0.2559840681586772,0.9331695465089189,-0.5332842456856849,0.009608585408561859,-2.626609430121739
1782664559607675392,0.39450621604919434,3.8336188793182373,-0.3225213289260864,-0.3255781829357147,0.003996049985289574,0.4653722941875458,-0.8851060271263123,-0.15507332980632782,-0.16889402270317078,-0.40339189767837524,-0.2501216551156527,0.05975848075904981,-0.2321118530457331,0.9380789998420602,-0.48405517688570693,0.0045147391734762995,-2.619338530436959
1782664559617595136,0.40442609786987305,4.695587635040283,-0.4064633846282959,-0.4122318625450134,-0.00031388000934384763,0.40989094972610474,-0.9121344685554504,-0.010809776373207569,-0.22210103273391724,-0.37122124433517456,-0.2579961495908945,0.05545965719031945,-0.2021311192875338,0.943135842125857,-0.42233451832343905,-0.00034411591226253015,-2.607628454960122
1782664559627515392,0.41434621810913086,5.347883224487305,-0.6252594590187073,-0.44260919094085693,-0.005812458693981171,0.33721184730529785,-0.9414108395576477,0.06205635145306587,-0.008308649063110352,-0.2303115725517273,-0.26818763652511507,0.049421011446046145,-0.16386622160723066,0.9480405728190374,-0.34395371767860666,-0.006174121304910095,-2.591298906758141
1782664559637435136,0.42426609992980957,6.422319412231445,-0.6159650087356567,-0.43744319677352905,-0.007220401428639889,0.24450591206550598,-0.969620943069458,0.056491024792194366,0.06932160258293152,-0.289503812789917,-0.2800347146326784,0.0382531927771825,-0.11715900444641932,0.9520457357219414,-0.24701009848169994,-0.007446485269018581,-2.5703730816202133
1782664559647355392,0.4341862201690674,7.62202262878418,-0.7505024671554565,-0.5081201195716858,-0.008399791084229946,0.15518003702163696,-0.9878504872322083,0.06833631545305252,0.010774537920951843,-0.2858158349990845,-0.29255947759510464,0.02686567326994946,-0.07316411707809635,0.9530656817700915,-0.15580969128357527,-0.008502894200991446,-2.546584429588187
1782664559657274368,0.4441051483154297,8.9099760055542,-0.967680037021637,-0.7315518856048584,-0.015277497470378876,0.0673963725566864,-0.9976093173027039,0.10599099844694138,0.1562669575214386,-0.12722283601760864,-0.3030059305263639,0.017506524561776336,-0.02981389913282886,0.9523613324322141,-0.06744749760444846,-0.015312911968631507,-2.526038307621214
1782664559667192832,0.4540238380432129,9.965935707092285,-1.098612666130066,-0.9521385431289673,-0.023904995992779732,-0.030672701075673103,-0.9992435574531555,0.13096065819263458,0.38781991600990295,0.022528469562530518,-0.3106561384137653,0.006596901724897075,0.01829453018601234,0.9503233148556045,0.0306775127009734,-0.02391852881176253,-2.509335447865054
1782664559677113088,0.4639439582824707,10.599353790283203,-1.2018498182296753,-1.2424222230911255,-0.032202716916799545,-0.13604691624641418,-0.9901788830757141,0.13489437103271484,0.5037684440612793,0.2740381360054016,-0.31517757710477473,-0.006231065636786035,0.06979779533068536,0.9464420168256897,0.13647012787326088,-0.032510660095548,-2.4964460058837155
1782664559687032832,0.4738638401031494,10.846455574035645,-1.0640372037887573,-1.481360673904419,-0.03483637049794197,-0.24625661969184875,-0.9685783982276917,0.10026606172323227,0.48014333844184875,0.48666006326675415,-0.31586016534125344,-0.022868987266931876,0.12323883958373756,0.9404900642085482,0.24881601929615593,-0.03595099826713438,-2.489075228191855
1782664559696953088,0.4837839603424072,9.775988578796387,-0.8703333735466003,-1.71156644821167,-0.036334045231342316,-0.3464333117008209,-0.9373706579208374,0.07445050030946732,0.3419319689273834,0.7220538854598999,-0.3136131397421967,-0.03858292436200287,0.17270210093640548,0.9329159578988676,0.3537662887158967,-0.03874226561773364,-2.486073908438056
1782664559706872832,0.49370384216308594,8.341249465942383,-0.6454489231109619,-1.9483702182769775,-0.03526904806494713,-0.42999204993247986,-0.9021435379981995,0.04161670058965683,-0.02153077721595764,1.0788555145263672,-0.30956540548784134,-0.05283203574749982,0.21479528891320973,0.9247924338339687,0.4444839792274288,-0.0390748200164232,-2.486728893966141
1782664559716793088,0.5036239624023438,7.050781726837158,-0.48102158308029175,-2.0919651985168457,-0.030311133712530136,-0.49864763021469116,-0.8662746548652649,0.04648543894290924,-0.36655622720718384,1.0604274272918701,-0.3042521148291534,-0.0664021257415463,0.24990685607915186,0.916824908677774,0.5220379021133823,-0.03497594260970605,-2.491411873888977
1782664559726712832,0.5135438442230225,6.014124393463135,-0.5097426772117615,-2.20539927482605,-0.022866057232022285,-0.5545847415924072,-0.8318130373954773,0.14788131415843964,-0.4370076656341553,0.9499313235282898,-0.2978658006685274,-0.07882640811367003,0.2790696764834626,0.909495756237498,0.587863867172802,-0.027482499207490862,-2.5002786704185067
1782664559736631808,0.5234627723693848,5.470704078674316,-0.51897794008255,-2.2132723331451416,-0.014040241949260235,-0.601533055305481,-0.7987244725227356,0.2201254516839981,-0.27291762828826904,0.8008760213851929,-0.29061257244428135,-0.09014090228722561,0.30415846210524294,0.9027217397942312,0.6454188280382788,-0.017576518741746365,-2.5128108197750785
1782664559746552064,0.5333828926086426,5.359849452972412,-0.3899853527545929,-2.205775260925293,-0.0035233062226325274,-0.644310712814331,-0.7647557258605957,0.2230515033006668,-0.010092973709106445,0.6094670295715332,-0.28280153395781243,-0.10146219923216498,0.32760886795857913,0.8957684537208074,0.7001216288083525,-0.0046070676104465556,-2.528300496183703
1782664559756471808,0.5433027744293213,5.487791538238525,-0.2718680500984192,-2.4402143955230713,0.009542131796479225,-0.6844941973686218,-0.7289559245109558,0.17487561702728271,0.3425447344779968,0.49708330631256104,-0.2739159007217018,-0.11334707203051567,0.35024918299383595,0.8885089358994802,0.7539096470389366,0.01308938832730841,-2.5486901948571417
1782664559766392064,0.5532228946685791,6.016983985900879,-0.17832458019256592,-2.535485029220581,0.02585134282708168,-0.7253067493438721,-0.687940239906311,0.11163035035133362,0.24256449937820435,0.2476326823234558,-0.2636949976116848,-0.12678734677842868,0.3741053906458824,0.8800199251175146,0.8114799063038378,0.03756021647555677,-2.5754640295506177
1782664559776311808,0.5631427764892578,5.964541912078857,-0.2254904955625534,-2.6214144229888916,0.04387764260172844,-0.7646518349647522,-0.6429481506347656,0.13112542033195496,0.0635409951210022,0.16231155395507812,-0.2521521106944449,-0.14060525819421768,0.3984420665067414,0.8705707740798287,0.8705009419620297,0.06813879553697715,-2.60943564503513
1782664559786232064,0.5730628967285156,5.79241418838501,-0.3151993155479431,-2.672408103942871,0.06299515813589096,-0.7997614145278931,-0.5970035791397095,0.11985088884830475,-0.051877379417419434,0.14223062992095947,-0.23971704835700106,-0.15400399087175334,0.42164082947372533,0.8608353267478491,0.9268976678126533,0.10512987488681004,-2.650988515797191
1782664559796151040,0.5829818248748779,5.440515518188477,-0.3274277448654175,-2.725768566131592,0.08326856046915054,-0.8301584124565125,-0.551274299621582,0.10865648090839386,-0.19764304161071777,0.023808538913726807,-0.22670881975156135,-0.16700315494523627,0.4432525137174008,0.8510230441038863,0.9793917059587066,0.14991415403667957,-2.7009051160992477
1782664559806071040,0.5929019451141357,5.171411037445068,-0.31239134073257446,-2.781947374343872,0.10501432418823242,-0.8556737303733826,-0.5067488551139832,0.05415009707212448,-0.27445316314697266,-0.07804417610168457,-0.213418633485105,-0.1798361074837216,0.4629087823012534,0.8413244935495995,1.0268513275752933,0.20433915094322844,-2.7602271209642
1782664559815991040,0.6028218269348145,5.191129207611084,-0.3083569407463074,-2.681766986846924,0.1273786872625351,-0.8776602745056152,-0.4620465934276581,-0.009489282965660095,-0.29477930068969727,-0.18251514434814453,-0.1999465031019825,-0.1924520525618842,0.4816003613400694,0.8312909692546147,1.0709584830301866,0.26900167867089997,-2.829734190249397
1782664559825911040,0.6127419471740723,5.411369800567627,-0.3307390511035919,-2.51906681060791,0.14916500449180603,-0.8973569273948669,-0.41533175110816956,-0.14168816804885864,-0.18377405405044556,-0.24761688709259033,-0.18659319093452018,-0.2047553701531779,0.5004092006645782,0.8202737213533968,1.1137433959749057,0.34479992350292427,-2.910232783957506
1782664559835831040,0.622661828994751,5.938135623931885,-0.41389307379722595,-2.411112070083618,0.1701507866382599,-0.9155970215797424,-0.3643226623535156,-0.33392333984375,-0.04950624704360962,-0.27672961354255676,-0.17309204657659807,-0.21688012954046923,0.5203860851385047,0.8075893751061879,1.156990129688313,0.43692813039406736,-3.007261858097645
1782664559845751040,0.6325819492340088,6.392905235290527,-0.47458434104919434,-2.4167943000793457,0.19108539819717407,-0.9319993257522583,-0.3079996109008789,-0.4756922721862793,0.045356810092926025,-0.276061087846756,-0.15846974157818974,-0.2287683953274287,0.5419088676400171,0.7930241312529488,1.1998903695830179,0.5552903463207501,-3.132219316054431
1782664559855671040,0.6425018310546875,6.674105644226074,-0.5433921813964844,-2.380141496658325,0.21227078139781952,-0.9453772902488708,-0.24739202857017517,-0.5405483841896057,0.053562164306640625,-0.19244258105754852,-0.14332361911390412,-0.24078299307101408,0.564205224704893,0.776630117543384,1.2387501675948716,0.7091397787000769,2.9904458043258235
1782664559865590016,0.6524209976196289,6.674460411071777,-0.6034916639328003,-2.2572216987609863,0.2330777794122696,-0.9546780586242676,-0.18510718643665314,-0.5069272518157959,0.016644001007080078,-0.03658777475357056,-0.12761657592800468,-0.2521015920273861,0.5864223690622711,0.7591229573683427,1.2685762239646865,0.8996103827753692,2.7920849619109496
1782664559875510016,0.6623408794403076,6.427165508270264,-0.6480274200439453,-2.119464635848999,0.2531280219554901,-0.9594866037368774,-0.12374052405357361,-0.4418029487133026,-0.04622018337249756,0.06041651964187622,-0.11212703958497343,-0.26268454743549674,0.6075578694469475,0.7411463028317345,1.2851744389354387,1.11611198098717,2.567610782928697
1782664559885430016,0.6722609996795654,5.9488325119018555,-0.7361195683479309,-1.878472924232483,0.2717148959636688,-0.9601072669029236,-0.06606780737638474,-0.3716600239276886,-0.07446908950805664,0.09264863282442093,-0.09731640423031605,-0.27206600563984823,0.6268541973683801,0.7235767987770191,1.2873856039556077,1.3322738999784958,2.343315277155589
1782664559895350016,0.6821808815002441,5.474230766296387,-0.872857391834259,-1.6615262031555176,0.2881771922111511,-0.9574815034866333,-0.013534778729081154,-0.30360376834869385,-0.07926172018051147,0.1001436710357666,-0.08345306735295775,-0.27984893849832343,0.6441406542495243,0.7069675087782566,1.2781421448161996,1.5238639531315172,2.1430866628352816
1782664559905270016,0.692101001739502,5.084963798522949,-1.0535074472427368,-1.625056505203247,0.3038967549800873,-0.9520925283432007,0.03415454924106598,-0.29876983165740967,-0.07372528314590454,0.053232546895742416,-0.06978199819768569,-0.2863370960940878,0.6596122667679694,0.6914138801570789,1.260007067663156,1.6827153405788517,1.9743355438120531
1782664559915190016,0.7020208835601807,4.5792975425720215,-1.089664101600647,-1.4858647584915161,0.3192014694213867,-0.9445608258247375,0.07691282778978348,-0.30633825063705444,-0.019336998462677002,0.0020057037472724915,-0.05631598484019831,-0.29174208568513416,0.6733074856666531,0.6770319418646225,1.2362544726196845,1.807243029549063,1.8388805164684674
1782664559925110016,0.7119410037994385,4.028605937957764,-1.164675235748291,-1.3318397998809814,0.33341988921165466,-0.935867428779602,0.11394451558589935,-0.30239877104759216,0.007736325263977051,-0.022559642791748047,-0.04383708899448485,-0.2962221311478118,0.6849997855141436,0.6641581615352286,1.2107128913095424,1.9000979960396216,1.7353145217915296
1782664559935028992,0.7218599319458008,3.4276652336120605,-1.1448168754577637,-1.2806806564331055,0.3469487726688385,-0.9266011714935303,0.14504078030586243,-0.2863714098930359,-0.06366366147994995,-0.028539910912513733,-0.03222853196753695,-0.2999312937675025,0.6946665478074631,0.6530244418895661,1.1852713893673519,1.9667627585191008,1.6581291875934072
1782664559944948992,0.7317798137664795,2.7099337577819824,-1.2184902429580688,-1.218607783317566,0.3602348566055298,-0.9173581004142761,0.16936635971069336,-0.2881675958633423,-0.14549285173416138,0.01428842544555664,-0.02149360752879305,-0.3030720197530778,0.7020188972765686,0.6440922697700944,1.1613920277309262,2.0102844923934042,1.6045034148858093
1782664559954868992,0.7416999340057373,2.1484291553497314,-1.1276836395263672,-1.1143333911895752,0.37298285961151123,-0.9086863994598389,0.18754449486732483,-0.25410160422325134,-0.17799878120422363,0.0003217458724975586,-0.01178002854148338,-0.3057251351552495,0.7073219827154054,0.6372511623437085,1.140126735601655,2.0367000753227753,1.5686735965756708
1782664559964788992,0.751619815826416,1.9172955751419067,-1.1008542776107788,-0.8900262117385864,0.3840508759021759,-0.9009835124015808,0.20182526111602783,-0.21760806441307068,-0.02745264768600464,-0.00579562783241272,-0.003523961884456285,-0.30793900284745457,0.7113973579512538,0.6317237132893547,1.1220310820977077,2.054648536953635,1.5426784051810558
1782664559974708992,0.7615399360656738,1.8657783269882202,-1.041972279548645,-0.886924147605896,0.39399755001068115,-0.8936293125152588,0.21492479741573334,-0.19294771552085876,0.2343733310699463,-0.06966114044189453,0.003997704593800708,-0.30987231576344304,0.7151514176116693,0.6265154875113005,1.1053677995100846,2.070176411756309,1.5197164439117774
1782664559984628992,0.7714598178863525,2.0880041122436523,-1.0502471923828125,-0.8638591170310974,0.4040648937225342,-0.8857305645942688,0.2285020351409912,-0.18102708458900452,0.37726181745529175,-0.12112590670585632,0.011789042345606491,-0.31169526648328566,0.7190946231560029,0.6209751155422594,1.088065452501176,2.0854680632815015,1.4964669375984363
1782664559994548992,0.7813799381256104,2.295348644256592,-1.1391621828079224,-0.7970219850540161,0.4137599468231201,-0.8771257996559143,0.2438298463821411,-0.11580157279968262,0.3133745789527893,-0.2101689577102661,0.020051007762829146,-0.3130151747850184,0.7238345268309284,0.6145592176481485,1.069844473516393,2.10331301620315,1.469266736561907
1782664560004467968,0.7912988662719727,2.1487929821014404,-1.152500033378601,-0.8043477535247803,0.42350906133651733,-0.8681296706199646,0.2588258683681488,-0.16453692317008972,0.19413375854492188,-0.22093835473060608,0.028516067188961984,-0.31406406034114276,0.7285442331624484,0.6080903332279234,1.0514215425548359,2.1193711186314443,1.443157941452611
1782664560014387968,0.8012189865112305,1.670570731163025,-1.2365970611572266,-0.7068928480148315,0.43327856063842773,-0.8596773743629456,0.27060091495513916,-0.24933376908302307,0.021710336208343506,-0.19223174452781677,0.03672483107793866,-0.314783313118574,0.7322649311724139,0.6027860109763962,1.0346377962721731,2.1290666651034864,1.423206570837872
1782664560024307968,0.8111388683319092,1.147003412246704,-1.114601731300354,-0.5271989703178406,0.4414861500263214,-0.8532582521438599,0.2775619626045227,-0.30395862460136414,-0.021772384643554688,-0.13881370425224304,0.04340265694101055,-0.3150627363898227,0.7345178341794019,0.5994458622503145,1.0222016666845615,2.1320512521872685,1.411344840199764
1782664560034227968,0.821058988571167,0.9050449132919312,-1.0210654735565186,-0.6690860986709595,0.4494178593158722,-0.8476352095603943,0.28202465176582336,-0.36999595165252686,0.05932050943374634,-0.14382579922676086,0.04922560426588652,-0.31565939168021384,0.7357795044972917,0.5971301505684369,1.0115122907824226,2.131215247808172,1.4049544651697385
1782664560044147968,0.8309788703918457,0.7134245038032532,-0.8611842393875122,-0.7338685393333435,0.45788154006004333,-0.8422307372093201,0.2845911383628845,-0.37644532322883606,0.23775368928909302,-0.11102232336997986,0.05592678373506077,-0.31527204195189434,0.736816879938379,0.5954634501792336,1.0014077110656123,2.126902815787468,1.3992067655250708
1782664560054067968,0.8408989906311035,0.8216532468795776,-0.7950406074523926,-0.6994410753250122,0.46583932638168335,-0.8368171453475952,0.28762948513031006,-0.32936474680900574,0.2927345633506775,-0.13092175126075745,0.062029370899730436,-0.31529354460253445,0.737837867890391,0.5935803274010711,0.9914435453215508,2.1239433094456657,1.3936004603127856
1782664560063987968,0.8508188724517822,0.7254078984260559,-0.8283210396766663,-0.7546334862709045,0.47425705194473267,-0.8311029076576233,0.2904273271560669,-0.26995718479156494,0.25235241651535034,-0.13695445656776428,0.0684050745790244,-0.3153525242971219,0.7387600789197819,0.591698432204315,0.9810880282355058,2.120271827128024,1.388365236892412
1782664560073906944,0.8607378005981445,0.7249644994735718,-0.9257903099060059,-0.7598990797996521,0.48312097787857056,-0.8252639770507812,0.292460560798645,-0.1871311068534851,0.1331406831741333,-0.1582900881767273,0.07508126463177518,-0.31530800937080367,0.739466790154014,0.5900274772707813,0.9706695084623438,2.1151453092454147,1.383970028402642
1782664560083826944,0.8706579208374023,0.39956751465797424,-0.9080456495285034,-0.7854727506637573,0.4919162392616272,-0.8198031187057495,0.29315802454948425,-0.13980433344841003,0.05281996726989746,-0.2372344434261322,0.08151718165688449,-0.3152755688814085,0.7397163829442771,0.5888769614768808,0.9610671267015062,2.108233385230417,1.3816831750182363
1782664560093746944,0.880577802658081,0.1327534168958664,-1.0044926404953003,-0.7979105114936829,0.500937283039093,-0.8152640461921692,0.29052746295928955,-0.07457625865936279,0.11064374446868896,-0.283157616853714,0.08768422764056326,-0.3151921191131993,0.7388624138324966,0.5891075295096436,0.9531850533761573,2.096356018880445,1.3845821734528911
1782664560103666944,0.8904979228973389,0.19413815438747406,-0.9476974606513977,-0.8571181893348694,0.5103338360786438,-0.8106639981269836,0.2870248258113861,-0.013324558734893799,0.10277825593948364,-0.356528639793396,0.09384250050076848,-0.315356055582008,0.7376062413345107,0.5896449499135354,0.9452852583341526,2.0831292712315324,1.389207900698214
1782664560113586944,0.9004178047180176,0.39272233843803406,-0.8982571959495544,-0.8898862600326538,0.5199706554412842,-0.8053645491600037,0.2846374809741974,0.09247136116027832,0.018316209316253662,-0.34588634967803955,0.10026408921308401,-0.3156800148417313,0.7366579070912959,0.5896001911694273,0.9362901908807466,2.071649393589165,1.3919787079044492
1782664560123506944,0.9103379249572754,0.44862276315689087,-0.8386256694793701,-0.8286275863647461,0.529225766658783,-0.7996198534965515,0.2837749421596527,0.09867340326309204,-0.10397511720657349,-0.2835460901260376,0.10655604534488816,-0.3161528145204625,0.7361622596528274,0.588861924898769,0.9266619240568684,2.062988820230348,1.3923708546567104
1782664560133426944,0.9202578067779541,0.41771891713142395,-0.7953109741210938,-0.6014416217803955,0.5372496843338013,-0.7945741415023804,0.282868355512619,0.09188538789749146,-0.18621492385864258,-0.1594095528125763,0.11239088397803969,-0.31610202248259295,0.735876134925945,0.5881615587711128,0.9183058650359818,2.0554278318203383,1.3914824146308504
1782664560143346176,0.9301769733428955,0.4480369985103607,-0.8241131901741028,-0.3907221257686615,0.5431436896324158,-0.7908401489257812,0.2820764482021332,0.1588674783706665,-0.2458268404006958,-0.08006533980369568,0.11734880975836186,-0.31522693890749054,0.7359824769075736,0.5875297092147066,0.9121804914424713,2.049796246627103,1.3886179379109662
1782664560153265920,0.9400968551635742,0.45554259419441223,-0.8658513426780701,-0.1508735865354538,0.5475722551345825,-0.7881897687911987,0.2809292674064636,0.17903590202331543,-0.2545958161354065,-0.050460606813430786,0.12184975566887113,-0.3135153397568384,0.7363238159318455,0.5871012903060344,0.907862068062612,2.0448254518167785,1.3844177988959823
1782664560163186176,0.950016975402832,0.17669424414634705,-0.8357186317443848,-0.17954860627651215,0.5509464740753174,-0.786510705947876,0.2790321707725525,0.20694226026535034,-0.3155553340911865,-0.033182501792907715,0.12578745522579507,-0.31140888892625873,0.7365735505023434,0.5870787403088705,0.9051384743182069,2.0395983070636206,1.3806458475494927
1782664560173105920,0.9599368572235107,-0.4109247922897339,-0.7702858448028564,0.054371483623981476,0.553471565246582,-0.7865157127380371,0.2739749848842621,0.16379833221435547,-0.3687577247619629,0.029278159141540527,0.12854090548384062,-0.30948331171237686,0.7356681118798496,0.5886337887556421,0.9051465781048106,2.030445461560271,1.3827300845226307
1782664560183026176,0.9698569774627686,-1.1688220500946045,-0.6617102026939392,0.27040615677833557,0.5540791749954224,-0.7895327806472778,0.2638832628726959,0.25926005840301514,-0.43591582775115967,0.033067941665649414,0.12953093057613055,-0.307189944938892,0.7331957213651523,0.5926889169587228,0.9100472807490292,2.0152685251317743,1.3927231348183644
1782664560192945920,0.9797768592834473,-1.9125876426696777,-0.5575308203697205,0.21537484228610992,0.5536707043647766,-0.7948768138885498,0.24823351204395294,0.23609375953674316,-0.43926942348480225,0.059353142976760864,0.12864930747106398,-0.30545919677453914,0.7285680741706881,0.5994436558564028,0.9188044965788311,1.9922701298921162,1.414043624152432
1782664560202864896,0.9896957874298096,-2.198779821395874,-0.5006251335144043,0.3043036162853241,0.5530597567558289,-0.8010674118995667,0.2289455533027649,0.19295769929885864,-0.38916391134262085,0.07236981391906738,0.12676686693378433,-0.3042814084001229,0.7224165027068478,0.6078301003089231,0.9290763154683482,1.9632804158534816,1.4436345661804182
1782664560212784896,0.9996159076690674,-2.0840184688568115,-0.25084540247917175,0.2885456681251526,0.5513080358505249,-0.8074954152107239,0.20978738367557526,0.20040100812911987,-0.3759152293205261,0.06003379821777344,0.12382726775677055,-0.30340904023856613,0.7161261370290932,0.616257380130355,0.9398937132068175,1.9344034393171592,1.4751392688045577
1782664560222704896,1.009535789489746,-1.9173128604888916,-0.17292560636997223,0.381389319896698,0.5491648316383362,-0.8132410645484924,0.19250231981277466,0.2162618637084961,-0.4419928193092346,0.10673788189888,0.12055114324277995,-0.30287568587212804,0.7102939372052018,0.6238720662296956,0.9497001870048316,1.9079490032868889,1.5052774654042125
1782664560232624896,1.019455909729004,-2.0385584831237793,-0.048381805419921875,0.5733944177627563,0.5458296537399292,-0.8192238211631775,0.175904780626297,0.2883378267288208,-0.484502375125885,0.11979532241821289,0.11667329171874508,-0.3020954611523201,0.7047628838596325,0.6312170934419091,0.9600562273226857,1.8825574864916306,1.5348556175234203
1782664560242544896,1.0293757915496826,-2.4587204456329346,0.07532498985528946,0.8061510324478149,0.5396660566329956,-0.8268964886665344,0.15812192857265472,0.3016272187232971,-0.566444456577301,0.09267149865627289,0.11084279101377713,-0.30091203659341675,0.6989369853043053,0.6392596013847651,0.9735663109010835,1.855818399264159,1.5679543115151584
1782664560252464896,1.0392959117889404,-3.2975945472717285,0.13908027112483978,0.9021009802818298,0.5325303673744202,-0.8356512188911438,0.13453009724617004,0.28108346462249756,-0.5659142732620239,0.10692499577999115,0.1035196661786593,-0.2997691434636764,0.6909439251605232,0.6496295621460799,0.9893173046979425,1.8182433615235658,1.6140683940313476
1782664560262384896,1.0492157936096191,-4.027770042419434,0.32523104548454285,0.9845794439315796,0.5244247317314148,-0.8448847532272339,0.10558581352233887,0.29138636589050293,-0.6108952164649963,0.13852429389953613,0.09420378612319057,-0.2992047659146036,0.6806389740720237,0.6620669976611908,1.0063497087876874,1.7694765941967299,1.675130914569435
1782664560272304128,1.0591349601745605,-4.607895374298096,0.3837289810180664,1.2222223281860352,0.5146307945251465,-0.8545548319816589,0.06993836909532547,0.4282556176185608,-0.6869491934776306,0.24562859535217285,0.08291439795721922,-0.29835052392224665,0.6677994830938142,0.6768722784490414,1.0246930411173845,1.7058689283201476,1.753453076091064
1782664560282223872,1.0690548419952393,-4.823144435882568,0.19634903967380524,1.2917121648788452,0.5038649439811707,-0.8632094860076904,0.031462326645851135,0.5277513861656189,-0.7247575521469116,0.24000680446624756,0.07079559721273904,-0.2970519913924365,0.6538281709595162,0.6922838832255646,1.041592846503364,1.6331573462137845,1.8414856167127345
1782664560292144128,1.078974962234497,-4.868791103363037,0.32467663288116455,1.6619246006011963,0.4909589886665344,-0.8711317181587219,-0.009429619647562504,0.5271989703178406,-0.7371446490287781,0.2802578806877136,0.057612370666736405,-0.29467791665413035,0.63910102126974,0.7080929836984803,1.0575023094249734,1.5515921544900637,1.9383738027715463
1782664560302063872,1.0888948440551758,-4.482519149780273,0.33200326561927795,1.8644376993179321,0.47476571798324585,-0.8787888288497925,-0.04824595898389816,0.47611621022224426,-0.8200483918190002,0.14841991662979126,0.04302727929473961,-0.29124227501108735,0.6253438715600248,0.722683615927174,1.0733181890813035,1.4695234191164501,2.0362538575960296
1782664560311984128,1.0988149642944336,-4.168571949005127,0.2630883753299713,1.8128046989440918,0.45878204703330994,-0.8845404386520386,-0.08430477976799011,0.46722808480262756,-0.7591668367385864,0.0946044921875,0.02917766138049218,-0.28749448122365767,0.6125312523489466,0.735731643185161,1.0855078378571787,1.3890659211263232,2.1311234055810164
1782664560321903872,1.1087348461151123,-4.054209232330322,-0.005686389282345772,1.840527057647705,0.4429113268852234,-0.8885060548782349,-0.11994392424821854,0.5918940305709839,-0.5635813474655151,0.09643012285232544,0.016284809119118723,-0.2829503592932744,0.5999726091483527,0.748135529199834,1.094079119065273,1.306331550276005,2.2258336143453277
1782664560331824128,1.1186549663543701,-3.7343590259552,-0.12877610325813293,2.0355515480041504,0.42555806040763855,-0.8916201591491699,-0.15464143455028534,0.6326848268508911,-0.5292478203773499,0.09180574119091034,0.003746084641018912,-0.2771439432584292,0.5881075704770516,0.7598070838064607,1.1009109350328037,1.2222472998661378,2.319576710685224
1782664560341743104,1.1285738945007324,-3.7074625492095947,-0.28365904092788696,2.0446083545684814,0.4071911573410034,-0.8937872052192688,-0.18798907101154327,0.6339619159698486,-0.705944299697876,0.12429890036582947,-0.008437035154202481,-0.27049789648791805,0.576919711108403,0.7706642838911743,1.1057197686549025,1.1382778282745811,2.4115282060953382
1782664560351662848,1.1384937763214111,-3.939829111099243,-0.34332823753356934,2.2301042079925537,0.3876250684261322,-0.8944284319877625,-0.22303536534309387,0.66001296043396,-0.8861197829246521,0.32075265049934387,-0.020807730483539528,-0.26297268344924846,0.5650908658536715,0.7817191652759211,1.107151531589304,1.0486694254418591,2.5082594535456297
1782664560361583104,1.148413896560669,-4.189097881317139,-0.521685779094696,2.48380184173584,0.36555153131484985,-0.8934959769248962,-0.26083922386169434,0.7039369940757751,-0.9058814644813538,0.43288207054138184,-0.034015453302304065,-0.2540929281558773,0.5522835957136031,0.7932607354085068,1.105070726994906,0.9510342964969105,2.612428837748056
1782664560371502848,1.1583337783813477,-4.193556785583496,-0.5659866333007812,2.6480438709259033,0.3414992094039917,-0.8907960057258606,-0.2997679114341736,0.6768876314163208,-0.7869384288787842,0.5476316213607788,-0.047766154306966783,-0.24417212139374486,0.5389768205418473,0.8047374907926407,1.0990939967171485,0.850382837033457,2.7190847322550855
1782664560381423104,1.1682538986206055,-4.279962539672852,-0.6111658811569214,2.9155986309051514,0.31500041484832764,-0.8865056037902832,-0.338943213224411,0.6756001710891724,-0.672210156917572,0.6894681453704834,-0.06264214567083325,-0.23340304859072325,0.5254059422687565,0.8158109469047004,1.0897377000957928,0.7488015499794886,2.8272816527942832
1782664560391342848,1.1781737804412842,-4.2446160316467285,-0.47587651014328003,2.7808940410614014,0.2881830632686615,-0.8798955678939819,-0.3778020441532135,0.5999242067337036,-0.6645838022232056,0.7164403200149536,-0.07763321491552626,-0.22242137999787567,0.5114955655574696,0.8263620143771467,1.0756424127876605,0.6516356737970774,2.9312150289206125
1782664560401263104,1.188093900680542,-4.202615737915039,-0.5060936212539673,2.8740100860595703,0.26172080636024475,-0.8710794448852539,-0.4155993163585663,0.5790842175483704,-0.6301564574241638,0.6649127006530762,-0.09264122644786908,-0.21160419250314652,0.49741733372990704,0.8361921259453745,1.0573959106861524,0.5620028309487058,3.0281860270718286
1782664560411181824,1.1980128288269043,-3.9997339248657227,-0.47970354557037354,2.9335873126983643,0.23484058678150177,-0.8605331182479858,-0.452031672000885,0.6514204144477844,-0.5471664667129517,0.6052451729774475,-0.10771496111997947,-0.20053731925229876,0.48349657853106287,0.845229750716113,1.0363153332331418,0.4791432755146136,3.1183660582326924
1782664560421102080,1.207932949066162,-3.7048935890197754,-0.3713684380054474,2.878025531768799,0.20815755426883698,-0.8491796255111694,-0.4853496253490448,0.6345548033714294,-0.4710412621498108,0.5841960906982422,-0.12265599028843811,-0.18966443346073897,0.4704812265338262,0.8530124241337268,1.0144299062715953,0.4051538438766536,-3.0832622175982056
1782664560431021824,1.2178528308868408,-3.593759536743164,-0.5998266935348511,2.8417463302612305,0.18163061141967773,-0.8368579745292664,-0.5164098739624023,0.5548348426818848,-0.37467461824417114,0.5656194686889648,-0.13701072184091895,-0.17860815589202214,0.4581420982169749,0.8599029804756816,0.9915180912560183,0.3382044398134739,-3.0097286722087397
1782664560440942080,1.2277729511260986,-3.7940733432769775,-0.6069862842559814,2.8474843502044678,0.1553468108177185,-0.8223353028297424,-0.5473864674568176,0.4167357087135315,-0.38310903310775757,0.5454791784286499,-0.15082411833134854,-0.16715091146815012,0.44538448031665145,0.8665709760533216,0.9655031340261917,0.27652647268905106,-2.942554948435096
1782664560450861824,1.2376928329467773,-4.408059597015381,-0.5141527652740479,2.9591681957244873,0.12857501208782196,-0.8038271069526672,-0.5808014869689941,0.14443521201610565,-0.432043194770813,0.5413270592689514,-0.1654428448414573,-0.15517428353665602,0.4307205622045967,0.8735155100711104,0.9337011742604695,0.2178615949330241,-2.87735866244569
1782664560460782080,1.2476129531860352,-5.619021415710449,-0.2624494731426239,2.8784921169281006,0.10329048335552216,-0.7777042984962463,-0.6200862526893616,-0.20795053243637085,-0.3345545530319214,0.5235745310783386,-0.18101600948679641,-0.14310424815933012,0.41167709816137626,0.8816327148164886,0.8910056381622597,0.16505887520769674,-2.8155404535594717
1782664560470701824,1.2575328350067139,-6.83352518081665,-0.0878869816660881,2.5628747940063477,0.08192894607782364,-0.7404050230979919,-0.6671492457389832,-0.40163108706474304,-0.16701990365982056,0.4742170572280884,-0.1969226069324154,-0.13126792587304384,0.3862565458699814,0.8915134444929806,0.8336727696284179,0.12219272392168468,-2.7609617911488638
1782664560480621056,1.2674520015716553,-7.404439449310303,-0.20679748058319092,2.47489857673645,0.0632043406367302,-0.693317711353302,-0.7178550362586975,-0.3874383270740509,-0.020579993724822998,0.4001670479774475,-0.2121412972460649,-0.11881259061676347,0.35630893745683584,0.9021771919766223,0.7660828031975588,0.08781964279887157,-2.715101828936937
1782664560490541056,1.277371883392334,-7.342423439025879,-0.3944091796875,2.2982075214385986,0.045441921800374985,-0.640140950679779,-0.7669124007225037,-0.3264477849006653,0.17715877294540405,0.41060441732406616,-0.22658319415449674,-0.10554992976040359,0.32465830700582793,0.912204086267458,0.6946817174900572,0.05918388223415729,-2.676096452209479
1782664560500461056,1.2872920036315918,-6.221837997436523,-0.7292123436927795,2.0492117404937744,0.027667855843901634,-0.5878273844718933,-0.8085131049156189,-0.4836767911911011,0.4741494059562683,0.3089403510093689,-0.23896038079819082,-0.09175119708089033,0.29550832987827685,0.9204099137996564,0.6283706227658512,0.03420731769422539,-2.6446777798535366
1782664560510381056,1.2972118854522705,-4.291641712188721,-0.7012747526168823,1.4726907014846802,0.01195576973259449,-0.5449581742286682,-0.8383780121803284,-0.7044758796691895,0.7413998246192932,0.06854158639907837,-0.24824011696754225,-0.07960935639250383,0.2728980529677218,0.926048554464294,0.5763392212433872,0.014259628940537351,-2.6220069349918025
1782664560520300800,1.3071317672729492,-1.7733738422393799,-0.47497132420539856,1.1137562990188599,0.0008049586904235184,-0.5197334885597229,-0.8543280959129333,-0.8053856492042542,0.8886299729347229,-0.16170889139175415,-0.25447763248248767,-0.07172844478961775,0.2601749162995836,0.9286577487977297,0.5465389494441193,0.0009422122933936212,-2.6069332962852174
1782664560530221056,1.317051887512207,0.5084960460662842,-0.7350655198097229,1.1379820108413696,-0.010872919112443924,-0.515068531036377,-0.8570800423622131,-0.6599797010421753,0.946892261505127,-0.3653014898300171,-0.25920893354913993,-0.06645879287817168,0.25892701025033044,0.9280899044253536,0.5410875798103598,-0.012685320961555209,-2.593368680572164
1782664560540140800,1.3269717693328857,1.79149329662323,-0.6930809617042542,0.3211805820465088,-0.020616138353943825,-0.5254733562469482,-0.8505602478981018,-0.7369675040245056,1.0479342937469482,-0.4427289366722107,-0.26139842179983425,-0.06391211751039493,0.2657726997501518,0.9257163922064517,0.5532713612792931,-0.024233560829777474,-2.5842941070841783
1782664560550060032,1.3368909358978271,1.8449853658676147,-0.9722047448158264,0.026118872687220573,-0.028123365715146065,-0.5416985750198364,-0.8401021957397461,-0.7362504005432129,1.0154078006744385,-0.16418546438217163,-0.2602092936382972,-0.06249155589777448,0.27576023147049095,0.9232238102706897,0.572456550264652,-0.03346362734469362,-2.582299047365595
1782664560559980032,1.3468108177185059,1.1803584098815918,-0.8257114291191101,-0.5984550714492798,-0.0349045991897583,-0.5547922849655151,-0.8312563896179199,-0.8138808012008667,1.0704783201217651,0.09923124313354492,-0.25752595091324965,-0.060453603162060776,0.2841076622829863,0.921579417826605,0.588113292129997,-0.04196551930510811,-2.5839040402585223
1782664560569900032,1.3567309379577637,0.06233164295554161,-0.6954711079597473,-1.590688943862915,-0.0346674919128418,-0.5607059001922607,-0.8272889256477356,-1.2395787239074707,1.2316806316375732,0.36987626552581787,-0.250947529940113,-0.05950527755775441,0.2877753374204946,0.9223175886152274,0.595238093504784,-0.041880434708477784,-2.5974391779996853
1782664560579820032,1.3666508197784424,-0.9203457236289978,-0.8404039740562439,-1.6998071670532227,-0.03184099867939949,-0.5574486255645752,-0.8296005725860596,-1.2418100833892822,1.1668541431427002,0.6755021214485168,-0.2427193693271028,-0.05785205139433333,0.2860993559090333,0.9251419009823318,0.591309461995835,-0.038362286218046326,-2.616753902200893
1782664560589740032,1.3765709400177002,-1.0966567993164062,-0.34780412912368774,-1.5684267282485962,-0.02837243862450123,-0.5494922399520874,-0.8350169658660889,-1.1229642629623413,0.8924793004989624,0.6611278057098389,-0.23420868276311768,-0.055772634055510285,0.2817462043518037,0.9287922042635525,0.5817563676289981,-0.03396521115865059,-2.637393596095209
1782664560599660032,1.386490821838379,-0.2924092710018158,-0.4227651357650757,-1.4319002628326416,-0.023558741435408592,-0.5437551140785217,-0.8389132022857666,-0.9462746381759644,0.8903737664222717,0.3863375186920166,-0.22696542298931544,-0.05517686319289213,0.2783862531459897,0.9316347519121424,0.5749050369349681,-0.028075074259342643,-2.6553608806796416
1782664560609580032,1.3964109420776367,0.17936334013938904,-0.7836306691169739,-1.3569964170455933,-0.021801134571433067,-0.5447449088096619,-0.838318407535553,-0.8942450284957886,0.9355225563049316,-0.13453620672225952,-0.219584798717127,-0.054001498277961864,0.27914986659028446,0.9332426293348222,0.5760849203015594,-0.02599993253830786,-2.6717111188704505
1782664560619500032,1.4063308238983154,0.5478633046150208,-0.43113917112350464,-1.2794520854949951,-0.020605379715561867,-0.5480019450187683,-0.8362232446670532,-0.9507691264152527,0.8254525065422058,-0.09540212154388428,-0.2121391458786965,-0.052825244950538114,0.2812434598114391,0.9344028212240387,0.5799737378394896,-0.024636017656705353,-2.6877460127923074
1782664560629419008,1.4162499904632568,0.7607042193412781,-0.19775916635990143,-1.1240497827529907,-0.01758132316172123,-0.554472029209137,-0.83201664686203,-0.8800169229507446,0.642759382724762,0.04759281873703003,-0.20670493863530698,-0.0535925407089382,0.28481487389010357,0.9344953370775068,0.587728405534712,-0.02112783089813403,-2.699820524633139
1782664560639339008,1.4261698722839355,0.5173845291137695,-1.0652118921279907,-0.8463274240493774,-0.017718739807605743,-0.561188817024231,-0.827498197555542,-0.7650571465492249,0.952118992805481,0.1364734172821045,-0.20118043634198235,-0.052718067911593364,0.28891473001420465,0.934492173075584,0.5958213867921319,-0.021409149498967033,-2.710925229839689
1782664560649259008,1.4360899925231934,-0.4016217589378357,-0.15784572064876556,-1.1105324029922485,-0.02096511609852314,-0.5623618960380554,-0.826625406742096,-0.2782902419567108,0.7783347964286804,0.2657734155654907,-0.19653985747139327,-0.049774285671142726,0.29018925460442796,0.93524589736674,0.5972393739192786,-0.02535685713630282,-2.7195193843663876
1782664560659180288,1.4460110664367676,-1.826138973236084,-0.9829962253570557,-1.3928141593933105,-0.023902107030153275,-0.5526283383369446,-0.8330850005149841,0.2597266733646393,0.10411149263381958,0.15051358938217163,-0.19010630139607884,-0.045077478765467,0.28535158281872,0.9382973950490012,0.5855145781105163,-0.02868320899928402,-2.733142979855692
1782664560669100032,1.4559309482574463,-0.8567121624946594,-0.3236135244369507,-1.2076294422149658,-0.02036122791469097,-0.5410217642784119,-0.8407620787620544,0.7856352925300598,0.14787906408309937,-0.0014925599098205566,-0.18375609911552332,-0.043592740101629314,0.2787806091023501,0.9416022676343281,0.5716515707435278,-0.024212853661085488,-2.74901638485643
1782664560679020288,1.465851068496704,0.2630015015602112,0.1774561107158661,-0.9769051671028137,-0.01736653409898281,-0.5392942428588867,-0.841938316822052,1.4482594728469849,0.5428495407104492,-0.3184773325920105,-0.1791173372687286,-0.04355392493296142,0.27772989648064367,0.942807617932444,0.5695988186915125,-0.02062392444281061,-2.7600637637204057
1782664560688940032,1.4757709503173828,-0.5014218688011169,-0.9645137190818787,-0.951778769493103,-0.015460840426385403,-0.5385288596153259,-0.8424652218818665,1.342410922050476,0.14970439672470093,-0.13104552030563354,-0.17478365026827186,-0.043167547819082344,0.2773156070793599,0.9437602102298114,0.568690164602939,-0.018349843040586192,-2.7699807607879916
1782664560698859264,1.4856901168823242,-1.8124852180480957,-0.5177728533744812,-0.5270929932594299,-0.01659572124481201,-0.528779149055481,-0.8485971689224243,0.944604754447937,-0.6049030423164368,0.3261820673942566,-0.1702824442332752,-0.04021366635577767,0.2721842621414366,0.9462042227647695,0.5571615372310962,-0.019554160948158476,-2.77988400214637
1782664560708779008,1.495609998703003,-2.1475026607513428,-0.9728173017501831,-1.1136888265609741,-0.019390853121876717,-0.5113039016723633,-0.8591811656951904,0.5913665294647217,-0.8268003463745117,0.26823878288269043,-0.16658367453848025,-0.03590844613112417,0.26290681247950615,0.9496527976905945,0.5367013301591754,-0.02256516110588482,-2.788090068798834
1782664560718699264,1.5055301189422607,-0.4826619625091553,-0.6756476163864136,-0.6757298111915588,-0.02380117028951645,-0.5003566741943359,-0.8654921650886536,0.18560537695884705,-0.37432289123535156,-0.07673799991607666,-0.1607168773990648,-0.030956652806974905,0.25747930840686933,0.9523214753919009,0.5240106634008705,-0.027493227071617,-2.799843550860027
1782664560728619008,1.5154500007629395,-0.25156083703041077,-1.1314908266067505,-0.34948939085006714,-0.028684666380286217,-0.4978751540184021,-0.8667742013931274,0.03932004049420357,-0.0672798752784729,-0.42002999782562256,-0.15781778275044384,-0.027444658135345874,0.25663142524120464,0.9531424860394518,0.5211469309499255,-0.03308151155291404,-2.8045960364260534
1782664560738539264,1.5253701210021973,-0.813501238822937,-0.13402211666107178,-0.9273513555526733,-0.03294546902179718,-0.49433639645576477,-0.8686461448669434,-0.2907697260379791,-0.29533645510673523,-0.18796396255493164,-0.1544617328223223,-0.02403882187321367,0.25514516930378667,0.9541827741532171,0.5170712753507725,-0.037909206967449684,-2.8105935510529787
1782664560748459008,1.535290002822876,-1.278159737586975,-0.06052897870540619,-0.3249426782131195,-0.03240802139043808,-0.48586270213127136,-0.8734341263771057,0.033720292150974274,-0.14342501759529114,0.1289883255958557,-0.15148217218628496,-0.022749808983274937,0.2505301908645305,0.9559133717786176,0.5073499283705319,-0.037087125845273,-2.817653172414294
1782664560758379264,1.5452101230621338,-1.713873028755188,-0.21259741485118866,-0.06816555559635162,-0.03427666798233986,-0.4735187292098999,-0.8801165223121643,0.27477043867111206,-0.3035656213760376,0.1428728699684143,-0.15056669886152743,-0.020459280419448007,0.24397365823642575,0.9578037099042919,0.4932814979988176,-0.0389259279961584,-2.8199434009743896
1782664560768298240,1.555129051208496,-2.210150718688965,0.06075369566679001,-0.29651325941085815,-0.03515167161822319,-0.45626136660575867,-0.8891512751579285,0.2718307375907898,-0.49884727597236633,0.15038174390792847,-0.14987960428439775,-0.01833061123959393,0.2347091049511674,0.9602665276530218,0.4737892082941184,-0.039513383871469784,-2.8223878548485213
1782664560778217984,1.5650489330291748,-1.6355972290039062,-0.01736210472881794,-0.3795197308063507,-0.03479979932308197,-0.4398394227027893,-0.8974019885063171,0.5230200290679932,-0.1484784483909607,0.04832667112350464,-0.1485843966111838,-0.016788499401915458,0.2258697944820672,0.9626130087860386,0.455419864556952,-0.03875896416035119,-2.826316783512603
1782664560788138240,1.5749690532684326,-1.480583667755127,0.021046536043286324,-0.5604533553123474,-0.03391312062740326,-0.4263066053390503,-0.9039428234100342,0.5191426277160645,0.2450779676437378,-0.12381291389465332,-0.1462554176379506,-0.015564966157926127,0.21860083524423526,0.9646662062339982,0.44040582196693073,-0.03749929866358745,-2.8322650991602365
1782664560798057984,1.5848889350891113,-1.0119491815567017,-0.26320475339889526,-0.12319668382406235,-0.03388464078307152,-0.4156225025653839,-0.9089058041572571,0.4922434091567993,0.11838129162788391,-0.16873091459274292,-0.1439837555379028,-0.014196826559201193,0.21294493389780422,0.9662927427211829,0.4286271246121054,-0.0372634393539828,-2.8376451262767413
1782664560807978240,1.5948090553283691,-0.7097296714782715,-0.11528825014829636,-0.10345546901226044,-0.034734100103378296,-0.40757617354393005,-0.9125103950500488,0.4107259213924408,-0.07193127274513245,-0.20615720748901367,-0.1436776208652255,-0.013052114352823803,0.20874492752460896,0.9672704297109898,0.4197982017065613,-0.03804596638983268,-2.8385645077356876
1782664560817897984,1.6047289371490479,-0.32953503727912903,0.016859665513038635,-0.00891864113509655,-0.035100191831588745,-0.4036597013473511,-0.9142356514930725,0.27924081683158875,-0.06353390216827393,-0.2458900809288025,-0.14323597076084524,-0.01245889590110656,0.206704971043956,0.96778168035606,0.41551339407605614,-0.03837408948428644,-2.839627111078387
1782664560827818240,1.6146490573883057,-0.023167407140135765,-0.23076026141643524,-0.296446293592453,-0.035128023475408554,-0.40200671553611755,-0.914962649345398,0.37309494614601135,0.034758180379867554,-0.14460766315460205,-0.14260807568646283,-0.012179504829176211,0.20584057867769917,0.968062101287429,0.41370740350745994,-0.03837400338305045,-2.8410167351963236
1782664560837736960,1.624567985534668,-0.22668498754501343,-0.04008582979440689,0.15745176374912262,-0.03592956066131592,-0.40100738406181335,-0.9153699278831482,0.2982891798019409,-0.009927064180374146,-0.0948076844215393,-0.1419422221800588,-0.011554188909682994,0.20538143913055304,0.9682650513517919,0.4126162669247131,-0.039231271463393544,-2.84226579525878
1782664560847657216,1.6344881057739258,-0.2713070511817932,-0.12451495975255966,0.02578161470592022,-0.03723724186420441,-0.3990854322910309,-0.9161573052406311,0.3623562753200531,-0.13364467024803162,-0.030574262142181396,-0.1424740887758231,-0.010854614068813185,0.20445909898760586,0.9683903160683612,0.4105191804914091,-0.04062267010952723,-2.8409808605709035
1782664560857576960,1.6444079875946045,-0.32072213292121887,-0.06666243076324463,0.21640396118164062,-0.03845492750406265,-0.3964458703994751,-0.9172523617744446,0.27597323060035706,-0.2767871618270874,0.03761368989944458,-0.1430526218594977,-0.01015288804307704,0.20315200209575265,0.9685877300779389,0.40764223607141514,-0.041899506483966995,-2.8396673256982647
1782664560867497216,1.6543281078338623,-0.6530851721763611,-0.2149813175201416,0.17261919379234314,-0.040547266602516174,-0.39220064878463745,-0.9189856052398682,0.32117167115211487,-0.25562646985054016,0.11391669511795044,-0.14364517659079806,-0.008884675804770472,0.20106777391397093,0.9689473197098945,0.40302269211099784,-0.044093165549754974,-2.8382302544761013
1782664560877416960,1.664247989654541,-0.544999897480011,0.0898912250995636,-0.013417351990938187,-0.041145700961351395,-0.3870904743671417,-0.921123206615448,0.2225421816110611,-0.1773321032524109,0.12426352500915527,-0.1439620291573951,-0.008243908249876102,0.19841982467226119,0.9694516208462295,0.3974739549437297,-0.04463937736363006,-2.8377588543628502
1782664560887337216,1.6741681098937988,-1.1771411895751953,0.14992687106132507,0.3594062626361847,-0.041382111608982086,-0.3793891370296478,-0.9243113398551941,0.14622525870800018,-0.22887197136878967,0.1596629023551941,-0.1446450882960895,-0.00765417171164971,0.19438557622265515,0.9701719004139289,0.3891359703749466,-0.044740874829127586,-2.836770516372201
1782664560897257216,1.6840879917144775,-1.1031101942062378,0.038206424564123154,0.09014678746461868,-0.04204952344298363,-0.3688427805900574,-0.9285401701927185,0.3667565584182739,-0.13614684343338013,0.170987069606781,-0.14604431378486565,-0.006759068170686296,0.18890269661090237,0.9710515754081734,0.3777636981765902,-0.04525470570939226,-2.834381788019203
1782664560907176192,1.694007158279419,-1.4943026304244995,0.0013501397334039211,0.35721737146377563,-0.04206465184688568,-0.35714462399482727,-0.9331014156341553,0.14554975926876068,-0.10740920901298523,0.10787558555603027,-0.14691586331977852,-0.005990072947783778,0.18279332989541988,0.9720938598026638,0.3652091093515966,-0.045049971316824484,-2.8332758313135047
1782664560917096192,1.7039270401000977,-1.4186089038848877,0.17785300314426422,0.37509456276893616,-0.042504191398620605,-0.3439859449863434,-0.9380123019218445,0.2427605390548706,-0.016899675130844116,0.15134543180465698,-0.1489449694839546,-0.005096138800678229,0.17597694450493845,0.9730474860734636,0.35115860117060843,-0.045282067804945245,-2.8297747140305654
1782664560927016192,1.7138471603393555,-1.6571190357208252,0.2069070190191269,0.38345369696617126,-0.04186724126338959,-0.3292435109615326,-0.9433164000511169,0.2185792773962021,-0.11902919411659241,0.07229894399642944,-0.15100749406998706,-0.004598169121275172,0.16828740615480373,0.9740919115991283,0.33550231338002967,-0.04435392137313008,-2.8264812741561762
1782664560936936192,1.7237670421600342,-1.202825903892517,0.12047775089740753,0.1795749068260193,-0.04112987592816353,-0.31602978706359863,-0.9478573203086853,0.2756422162055969,-0.07866930961608887,-0.0651736855506897,-0.1525892116002951,-0.004169030486400771,0.16141237451204685,0.9750104258199433,0.3215418809938696,-0.043365273278533234,-2.824077345539448
1782664560946856192,1.733687162399292,-1.0067229270935059,0.12217817455530167,0.3911747634410858,-0.04026021063327789,-0.3056682348251343,-0.9512864947319031,0.2627181112766266,-0.055919259786605835,-0.11580634117126465,-0.15420216427485373,-0.004025756585378299,0.1560145282090337,0.9756357044753433,0.31064019075098326,-0.04229661600639032,-2.821456256487399
1782664560956776192,1.7436070442199707,-0.6904889941215515,0.08668646216392517,0.18777763843536377,-0.03968797251582146,-0.29820188879966736,-0.9536773562431335,0.26629626750946045,0.02860960364341736,-0.10606080293655396,-0.1554683328926189,-0.003902184790058706,0.15213839865940226,0.9760473483780717,0.3028082834920165,-0.0415917228683986,-2.819332762114953
1782664560966696192,1.7535271644592285,-0.6039386987686157,0.12645889818668365,0.10823488235473633,-0.038611531257629395,-0.2919135093688965,-0.9556650519371033,0.2522345781326294,-0.011599063873291016,-0.05938011407852173,-0.15622533275732425,-0.004040883903294239,0.14883263439367714,0.9764354726136888,0.2962268714769749,-0.04038082419285403,-2.8182649599033724
1782664560976615168,1.7634460926055908,-0.32454970479011536,0.05339454859495163,0.08994279056787491,-0.038449376821517944,-0.28750765323638916,-0.9570062756538391,0.26765164732933044,-0.07855069637298584,-0.10685175657272339,-0.15699295005713182,-0.0038757511739505738,0.14656685499660782,0.9766557015481855,0.2916235875964937,-0.0401551276817288,-2.8169309189591183
1782664560986535168,1.7733659744262695,-0.1841028332710266,-0.08387063443660736,0.1646316796541214,-0.03826739266514778,-0.2850513458251953,-0.9577480554580688,0.22218158841133118,0.0065326690673828125,-0.13932836055755615,-0.15744500976918108,-0.003831626786164284,0.14529724319649168,0.9767728572262245,0.2890599980605364,-0.03993435306640433,-2.8161510229779094
1782664560996455168,1.7832860946655273,-0.2860552966594696,0.024878066033124924,0.3877498507499695,-0.039602264761924744,-0.28339868783950806,-0.9581841230392456,0.21573448181152344,0.024334996938705444,-0.13040834665298462,-0.15887583603540806,-0.0032415443555512185,0.14455939848997448,0.9766528001264703,0.2873362471577364,-0.04130702580663218,-2.813093716297329
1782664561006375168,1.793205976486206,0.006647945381700993,-0.07574841380119324,0.34330010414123535,-0.04099035635590553,-0.28182998299598694,-0.9585883617401123,0.18887853622436523,0.02543655037879944,-0.0641319751739502,-0.16022511416178686,-0.002618055893796074,0.14387134554441502,0.9765357992185063,0.2857008858138471,-0.04273513011458255,-2.810193156293851
1782664561016295168,1.8031260967254639,-0.17801403999328613,-0.1276945024728775,0.3970511853694916,-0.042577702552080154,-0.2813948392868042,-0.9586470127105713,0.21945759654045105,-0.0619431734085083,-0.12059187889099121,-0.16225050181781975,-0.00208889280407048,0.14377806405844046,0.976216313301689,0.28524736674379203,-0.04438520071568112,-2.805822118448907
1782664561026215168,1.8130459785461426,-0.15116538107395172,0.019686423242092133,0.3554646074771881,-0.043376799672842026,-0.27954986691474915,-0.9591508507728577,0.13680636882781982,-0.09253570437431335,-0.011994779109954834,-0.16381058821421243,-0.0017629030049363154,0.14290371972982674,0.9760847724483571,0.2833252390275275,-0.04519337517346522,-2.8025968700362753
1782664561036135168,1.8229660987854004,-0.5625853538513184,-0.0736597329378128,0.4871189594268799,-0.04441623017191887,-0.27607715129852295,-0.9601086378097534,0.23748569190502167,-0.21386730670928955,-0.04286682605743408,-0.16579405474574732,-0.001235606605079496,0.14122376531965858,0.9759952038066528,0.27971022558640507,-0.046228710048052624,-2.7985526090352146
1782664561046054144,1.8328850269317627,-0.29303908348083496,-0.15907636284828186,0.2802339494228363,-0.0472884327173233,-0.27134764194488525,-0.9613190293312073,0.3453841209411621,-0.035338759422302246,-0.016357362270355225,-0.16768722757837287,0.00033197668998127794,0.1390697022727463,0.9759817543669063,0.27479293597952104,-0.04915157622247603,-2.7944900487687794
1782664561055974144,1.8428051471710205,-0.3097681403160095,-0.002491927705705166,0.18860794603824615,-0.0493842251598835,-0.2691248655319214,-0.9618383646011353,0.1946478933095932,0.025594592094421387,-0.15232789516448975,-0.16896034285330436,0.001387677689159306,0.13812640145750005,0.9758952163964254,0.27248425506174717,-0.05129853497068316,-2.791690024941221
1782664561065894144,1.8527250289916992,-0.1375036984682083,-0.04627189785242081,0.189141646027565,-0.04960409179329872,-0.26663583517074585,-0.9625200033187866,0.12588277459144592,0.05249398946762085,-0.02855360507965088,-0.1696011743989888,0.0016253576499804588,0.13688445739971153,0.9759586802221754,0.26990079412462337,-0.05149009670030798,-2.7904784918182313
1782664561075814144,1.862645149230957,-0.19933784008026123,-0.14392244815826416,0.22872963547706604,-0.051029399037361145,-0.2653999626636505,-0.9627870321273804,0.26022741198539734,-0.05717083811759949,-0.07404768466949463,-0.1706395927586073,0.0022972962622281887,0.13638624175226471,0.9758461390344676,0.26861873065206165,-0.052952206379917106,-2.7882100902197453
1782664561085734144,1.8725650310516357,-0.28650525212287903,-0.16910529136657715,0.2576683461666107,-0.05250879377126694,-0.26301079988479614,-0.9633629322052002,0.19205042719841003,-0.09233587980270386,0.017882585525512695,-0.1718173395516474,0.0030802167002196732,0.13531092055015334,0.9757869830171864,0.2661415520580382,-0.05445184479761155,-2.7857135582151202
1782664561095654144,1.8824851512908936,-0.6992098689079285,-0.08441707491874695,0.23808082938194275,-0.05399870499968529,-0.2577328681945801,-0.9647061228752136,0.14751982688903809,-0.11323881149291992,0.014938056468963623,-0.1730573323987135,0.004120423172783619,0.13277786548408657,0.9759119280347922,0.26067506211121877,-0.05591590691592791,-2.783252414406461
1782664561105574144,1.8924050331115723,-0.5420019030570984,-0.12481989711523056,0.17355696856975555,-0.05546751990914345,-0.25197675824165344,-0.9661423563957214,0.20186035335063934,-0.09740370512008667,-0.05676102638244629,-0.17391235762795046,0.0052496327594423985,0.13000483402368435,0.9761279220306548,0.25472236835026685,-0.05734837968097842,-2.781616018033519
1782664561115493120,1.9023239612579346,-0.653279721736908,-0.19834169745445251,0.2216993272304535,-0.058014124631881714,-0.24621400237083435,-0.9674776792526245,0.2104189097881317,-0.14283934235572815,-0.11746799945831299,-0.17470124501083553,0.006926115449582637,0.12733106170786518,0.9763289676298853,0.2487720593320412,-0.059892586920655175,-2.779976013330393
1782664561125413120,1.9122440814971924,-0.5244948267936707,-0.20610001683235168,0.24480517208576202,-0.06030185893177986,-0.24056707322597504,-0.9687575101852417,0.16795261204242706,-0.06367789208889008,-0.12563329935073853,-0.17557903223417803,0.008455171311029843,0.12469860822050903,0.9764991967750004,0.2429500463060838,-0.06216638702762936,-2.778193884595339
1782664561135333120,1.922163963317871,-0.47608208656311035,-0.3621935248374939,0.271732360124588,-0.06294918060302734,-0.23553615808486938,-0.9698247909545898,0.19652462005615234,-0.055738866329193115,-0.15111637115478516,-0.17642924208442745,0.010113547427363246,0.12241454873655203,0.9766192769944793,0.23777021777039176,-0.06481686620031872,-2.776396922072531
1782664561145253120,1.932084083557129,-0.34197914600372314,-0.3416307270526886,0.1397692710161209,-0.06668718159198761,-0.23156224191188812,-0.970531702041626,0.2922883629798889,-0.05487574636936188,-0.15832877159118652,-0.17729900714264138,0.012216901470334711,0.12076798788456228,0.9766426548078762,0.23368327244635995,-0.06860417802155125,-2.7743700002196103
1782664561155173120,1.9420039653778076,-0.2755274176597595,-0.37483957409858704,0.27600911259651184,-0.07042402029037476,-0.22865337133407593,-0.9709572792053223,0.24557965993881226,-0.01705889403820038,-0.15863555669784546,-0.17810754014290817,0.014232436726296932,0.11966112629317298,0.9766044525108191,0.23069418059599575,-0.07240371458901834,-2.772416689744794
1782664561165093120,1.9519240856170654,-0.19038428366184235,-0.3105282187461853,0.24841585755348206,-0.07372172176837921,-0.22633226215839386,-0.9712563157081604,0.1909549981355667,-0.06668226420879364,-0.1265525221824646,-0.1789636018653362,0.015972470361994402,0.11881383151478127,0.9765245083104518,0.22831056732175115,-0.07575819928193207,-2.7703935786519254
1782664561175013120,1.9618439674377441,-0.24865958094596863,-0.38974183797836304,0.2672196328639984,-0.07756307721138,-0.2237163782119751,-0.9715631604194641,0.2659023106098175,-0.026512503623962402,-0.10906428098678589,-0.18021347647950448,0.017962298644120352,0.11788036117792577,0.9763733141217369,0.22562583765522812,-0.07966432814942598,-2.7675221643601584
1782664561184932352,1.9717631340026855,-0.22462747991085052,-0.3709748089313507,0.27518540620803833,-0.08186555653810501,-0.2215685397386551,-0.9717023372650146,0.22746491432189941,-0.01729254424571991,-0.13207268714904785,-0.181194741980341,0.020171570235640493,0.11722604132098022,0.9762271943005326,0.22342269119438582,-0.08405113390474818,-2.765120901899761
1782664561194852096,1.9816830158233643,-0.1041695773601532,-0.3440473973751068,0.2368306666612625,-0.08632666617631912,-0.2194780707359314,-0.9717906713485718,0.24430090188980103,-0.0804944634437561,-0.12830698490142822,-0.1824033015709151,0.02242805822896905,0.1166261182941733,0.9760248576896318,0.22127947170182632,-0.08860000499203954,-2.7622381196702612
1782664561204772352,1.991603136062622,-0.10913185030221939,-0.4615932106971741,0.2614675760269165,-0.09038528800010681,-0.21853961050510406,-0.9716331362724304,0.1500013768672943,-0.10473307967185974,-0.17163163423538208,-0.1830785252720357,0.024443339547692285,0.11655883002926595,0.9758579361408806,0.22031766190567767,-0.09275715125468545,-2.76042168282907
1782664561214692096,2.001523017883301,-0.19280511140823364,-0.43911105394363403,0.3786798417568207,-0.09519905596971512,-0.21687570214271545,-0.9715462327003479,0.265685498714447,-0.053555816411972046,-0.1201896071434021,-0.184476607048049,0.026814018106018654,0.11622346685482009,0.9755724598301609,0.21861286160105928,-0.09767534813943735,-2.7570868915354376
1782664561224612352,2.0114431381225586,-0.21652428805828094,-0.43371284008026123,0.23533813655376434,-0.10016527026891708,-0.2148382067680359,-0.9714996218681335,0.23215380311012268,-0.05296880006790161,-0.12925416231155396,-0.18552480537687613,0.02933784225024061,0.11571297313479202,0.9753616910467838,0.2165261659418453,-0.10274073573576215,-2.7544845466336056
1782664561234532096,2.0213630199432373,-0.34557193517684937,-0.5753237009048462,0.4139750003814697,-0.1056085005402565,-0.21199987828731537,-0.9715466499328613,0.2295709103345871,-0.14214135706424713,-0.15040159225463867,-0.18681194310507024,0.03214617962700018,0.11486207137194188,0.9751280786529525,0.21362090376238685,-0.10827628848325078,-2.751405483544171
1782664561244452352,2.031283140182495,-0.44425004720687866,-0.5579665899276733,0.3206014037132263,-0.11184355616569519,-0.2075297236442566,-0.971813976764679,0.2598385512828827,-0.1687520146369934,-0.13948363065719604,-0.1883462551814603,0.03547443686316958,0.11328976116217143,0.9749013491803498,0.2090490296599465,-0.11458329732735624,-2.7478710459542333
1782664561254372096,2.041203022003174,-0.4665259122848511,-0.3922153115272522,0.24687011539936066,-0.11677370220422745,-0.20299199223518372,-0.9721924662590027,0.15705689787864685,-0.16683527827262878,-0.17917472124099731,-0.1801645762067364,0.03927741213200319,0.11118030809566425,0.9765434137091875,0.20441257364242055,-0.1195410818489441,-2.764436330521718
1782664561264291072,2.051121950149536,-0.4911535084247589,-0.566175639629364,0.35737401247024536,-0.12167805433273315,-0.19819217920303345,-0.9725812673568726,0.12320393323898315,-0.07265132665634155,-0.20142996311187744,-0.1720690348801333,0.04304551330156801,0.1088873388838921,0.9781016500372047,0.19951316014693565,-0.12446169322337196,-2.78084033117151
1782664561274211072,2.061042070388794,-0.3439140021800995,-0.7721744775772095,0.18864288926124573,-0.12836971879005432,-0.1934736967086792,-0.9726711511611938,0.2510503828525543,-0.005073651671409607,-0.22067296504974365,-0.1641789643475971,0.047636553290929945,0.10674826465371492,0.9794798260578105,0.19470152019793716,-0.1312181558953718,-2.796610342227719
1782664561284131072,2.0709619522094727,-0.2575117349624634,-0.6776058673858643,0.1601412147283554,-0.13622763752937317,-0.19036805629730225,-0.9722149968147278,0.26199060678482056,-0.06625424325466156,-0.22473013401031494,-0.15587568213525677,0.05269573089216733,0.10543079177009962,0.9807193233554234,0.19153705268331234,-0.13921450856323195,-2.8129545701642904
1782664561294051072,2.0808820724487305,-0.29109987616539,-0.6353968381881714,0.2164555937051773,-0.1430424600839615,-0.18790489435195923,-0.9717152714729309,0.17694750428199768,-0.14002172648906708,-0.17177832126617432,-0.14761993472845644,0.0571636251964441,0.10428171068880751,0.9818686083818376,0.18902860810384908,-0.1461564525954708,-2.8292565235397027
1782664561303971072,2.090801954269409,-0.40406155586242676,-0.6104425191879272,0.2771463692188263,-0.14953961968421936,-0.1842097043991089,-0.9714446663856506,0.17062726616859436,-0.1402989625930786,-0.14859622716903687,-0.13995747471676726,0.06147986191797713,0.10245929327189557,0.9829212623231036,0.1852677451232484,-0.15273640499200156,-2.844498979230964
1782664561313891072,2.100722074508667,-0.5249432921409607,-0.6600084900856018,0.21470066905021667,-0.15579965710639954,-0.17965181171894073,-0.9713144302368164,0.19922617077827454,-0.12314359843730927,-0.1393117904663086,-0.13229946637685175,0.06570790927649714,0.10012622632945824,0.9839482684904949,0.18063249255650082,-0.15904608344829374,-2.859846593690627
1782664561323811072,2.1106419563293457,-0.8057610988616943,-0.6925078630447388,0.2550363838672638,-0.16271309554576874,-0.17264430224895477,-0.9714516997337341,0.22023873031139374,-0.16094335913658142,-0.08174043893814087,-0.12478699181403925,0.07036579386133476,0.09655467348150033,0.9849640801885783,0.17351365132353402,-0.16595430550545698,-2.875084765396326
1782664561333730304,2.120561122894287,-0.8388465642929077,-0.6606751680374146,0.23388931155204773,-0.16954739391803741,-0.16451117396354675,-0.97169429063797,0.23017056286334991,-0.20525506138801575,-0.05674809217453003,-0.11735357860532786,0.07499001135308676,0.09235454995800899,0.9859388195627925,0.16526241828976257,-0.17274724993125498,-2.890310612954788
1782664561343650048,2.130481004714966,-0.8509706258773804,-0.5762641429901123,0.21441921591758728,-0.1758316308259964,-0.1557004749774933,-0.9720290899276733,0.1869553178548813,-0.16752643883228302,-0.10359340906143188,-0.10993423918668335,0.07931303981553342,0.08772048058914265,0.9868784989139258,0.1563365370586156,-0.1789561570997306,-2.9056610434305825
1782664561353570304,2.1404011249542236,-0.8594009876251221,-0.6342073678970337,0.330083429813385,-0.18194454908370972,-0.14713707566261292,-0.9722380638122559,0.22485226392745972,-0.11281165480613708,-0.17148447036743164,-0.10309082475929612,0.08342431997404649,0.08319464044163404,0.987669653263078,0.1476732222195705,-0.18500006855920997,-2.9198665716127774
1782664561363490048,2.1503210067749023,-0.7355695962905884,-0.6819890141487122,0.22916080057621002,-0.18885347247123718,-0.1389671117067337,-0.9721226692199707,0.24302218854427338,-0.0678352415561676,-0.18070930242538452,-0.10376778986114489,0.08725909006880095,0.07952679889379156,0.9875694773810455,0.13941833047207933,-0.1918791249871313,-2.918774599758625
1782664561373410304,2.16024112701416,-0.6930617094039917,-0.6758599281311035,0.20389609038829803,-0.19559012353420258,-0.13176845014095306,-0.971792995929718,0.26198112964630127,-0.11992527544498444,-0.20885580778121948,-0.104292074869921,0.09097775671138579,0.07633191031992193,0.9874308658488672,0.13215277533632178,-0.19861378902162333,-2.917947703920623
1782664561383330048,2.170161008834839,-0.6217087507247925,-0.6528099775314331,0.20830468833446503,-0.20246803760528564,-0.12513911724090576,-0.9712604880332947,0.24418556690216064,-0.04847538471221924,-0.21565967798233032,-0.10479604447817238,0.09474698803881304,0.07343550872394948,0.9872426569119216,0.12546804648549587,-0.20551587680154007,-2.9171289999155143
1782664561393250304,2.1800811290740967,-0.5729870796203613,-0.7119032144546509,0.304120808839798,-0.2094193994998932,-0.11891584098339081,-0.9705681204795837,0.23554246127605438,-0.0559956431388855,-0.20698308944702148,-0.10546141684630031,0.09852751667781535,0.07076902799331014,0.9869963655995516,0.11919790682868955,-0.2125119408399204,-2.915970371634111
1782664561403169280,2.190000057220459,-0.6612242460250854,-0.7437700629234314,0.33174335956573486,-0.21644720435142517,-0.11237414926290512,-0.9698054790496826,0.23660406470298767,-0.10631480813026428,-0.20699810981750488,-0.1064082076359334,0.10235085464230043,0.06798210258895121,0.9867015560059923,0.11261201418554191,-0.2195873764560328,-2.9143113128360265
1782664561413089024,2.1999199390411377,-0.6317632794380188,-0.7073729038238525,0.2579983174800873,-0.22342152893543243,-0.1055619865655899,-0.9689888954162598,0.23112723231315613,-0.0633375346660614,-0.21902984380722046,-0.10734336559652251,0.10617131440267986,0.06506307439225371,0.9863932984821339,0.10575903042993937,-0.22661140212432299,-2.9127518157667915
1782664561423009280,2.2098400592803955,-0.5416549444198608,-0.7094192504882812,0.3095235526561737,-0.2305385172367096,-0.09934623539447784,-0.9679784774780273,0.1551753580570221,-0.06062690168619156,-0.23247623443603516,-0.10814195045416053,0.1100515192557944,0.062445423738678583,0.9860499014833061,0.0995103852310929,-0.23380912907207893,-2.9114259483267753
1782664561432929024,2.219759941101074,-0.4760873019695282,-0.6659634113311768,0.27214348316192627,-0.23734918236732483,-0.09384479373693466,-0.9668807983398438,0.19178643822669983,-0.024700738489627838,-0.27790069580078125,-0.10898933879845071,0.11374449141084787,0.060181231333689446,0.9856782924247494,0.09398308772319927,-0.2407193334732271,-2.9099665308455354
1782664561442849280,2.229680061340332,-0.45935437083244324,-0.6910109519958496,0.19983361661434174,-0.24392734467983246,-0.08891699463129044,-0.9657086730003357,0.20123325288295746,-0.021434567868709564,-0.2717791199684143,-0.10969823921871809,0.11730534673001956,0.058181827305238916,0.985302292169179,0.08903458086701309,-0.2474138388875566,-2.9087587544246047
1782664561452769024,2.2395999431610107,-0.5009092688560486,-0.6880935430526733,0.16225972771644592,-0.2503546476364136,-0.08385294675827026,-0.9645160436630249,0.20329657196998596,-0.05950336903333664,-0.21408802270889282,-0.11003793084689789,0.12082504303625445,0.05606492812852225,0.9849617857774656,0.08395152633637487,-0.2539605838181786,-2.9083553312886594
1782664561462689280,2.2495200634002686,-0.4948631227016449,-0.6915106177330017,0.14545278251171112,-0.2570192813873291,-0.07860877364873886,-0.9632039070129395,0.2244570255279541,-0.028294309973716736,-0.17836713790893555,-0.110326715261274,0.12448405194982265,0.05386806582622756,0.9845964212045476,0.07868996089373474,-0.2607622214285677,-2.9080947183989307
1782664561472608000,2.259438991546631,-0.3540906608104706,-0.6519187092781067,0.07881151139736176,-0.263319730758667,-0.0744081437587738,-0.9618347883224487,0.1824328899383545,0.003119073808193207,-0.13710319995880127,-0.11046547418990012,0.1279151804262376,0.05215662768221187,0.9842331354236867,0.07447697289778418,-0.26722061097406874,-2.908042930124416
1782664561482528256,2.2693591117858887,-0.25804030895233154,-0.6826699376106262,-0.008253882639110088,-0.26993900537490845,-0.071320541203022,-0.9602324366569519,0.18165165185928345,0.041779525578022,-0.0757325291633606,-0.11029056811271501,0.1314702855739751,0.05098381501745495,0.9838455962489014,0.07138114102224594,-0.2740454808074518,-2.908475171454782
1782664561492448000,2.2792789936065674,-0.08717375248670578,-0.5391044020652771,-0.038199666887521744,-0.27565574645996094,-0.06980984658002853,-0.9587181806564331,0.16907307505607605,0.021149568259716034,-0.017752766609191895,-0.10987338584864469,0.13449573476423737,0.050515556109156305,0.9835074068888309,0.06986667043110287,-0.27997319931813947,-2.9092347829219443
1782664561502368256,2.289199113845825,-0.18541564047336578,-0.45348215103149414,-0.03541719540953636,-0.28022485971450806,-0.06869614124298096,-0.9574731588363647,0.16964441537857056,-0.03756606578826904,0.07080018520355225,-0.10947818639331082,0.13691435366879523,0.050178447787053986,0.9832350024482678,0.06875028861648329,-0.28471967553845534,-2.909958629906564
1782664561512288000,2.299118995666504,-0.2237664759159088,-0.29629629850387573,-0.20211030542850494,-0.2836570739746094,-0.06718963384628296,-0.9565689563751221,0.22269824147224426,-0.001566469669342041,0.20486003160476685,-0.10856925999817296,0.1387992006608828,0.04950040657510809,0.9831058967815384,0.06724028716068203,-0.2882757237908594,-2.911850967412776
1782664561522208256,2.3090391159057617,-0.3532320559024811,-0.13258567452430725,-0.24680747091770172,-0.2853882312774658,-0.06537023931741714,-0.9561800360679626,0.2314484417438507,-0.07584984600543976,0.2742342948913574,-0.10726779616946282,0.13984770619578663,0.048503566163364806,0.983149834584279,0.06541688279094492,-0.2900498276011663,-2.9146823912250777
1782664561532128000,2.3189589977264404,-0.6720916032791138,0.05042295157909393,-0.16299356520175934,-0.28564995527267456,-0.06100374832749367,-0.9563904404640198,0.24806755781173706,-0.12655729055404663,0.3692780137062073,-0.1058868513122021,0.14027631980904898,0.04612310005448887,0.9833530650887398,0.061041648628586555,-0.29024080024122284,-2.9181366958999897
1782664561542048256,2.3288791179656982,-0.88344407081604,0.2833555340766907,-0.2775009572505951,-0.28394240140914917,-0.05439986288547516,-0.9572969079017639,0.19916456937789917,-0.17335282266139984,0.4247499108314514,-0.10437633426947833,0.13980956784827925,0.04248331043190556,0.9837449316431457,0.054426729379352924,-0.2883424416392346,-2.9222780872850977
1782664561551967232,2.3387980461120605,-1.141724705696106,0.4243830740451813,-0.18001914024353027,-0.28028231859207153,-0.045210227370262146,-0.9588523507118225,0.13178378343582153,-0.13577425479888916,0.4942527413368225,-0.10256083676347469,0.1384758762345728,0.037393233737541325,0.9843309051544052,0.0452256432814251,-0.2843870946243567,-2.927479375381669
1782664561561887232,2.3487181663513184,-1.078134298324585,0.6664737462997437,-0.18638330698013306,-0.27508437633514404,-0.035156458616256714,-0.9607771039009094,0.13528335094451904,-0.08570840954780579,0.5524519085884094,-0.10115483340453915,0.13637055958603642,0.03185165707170555,0.984965111335079,0.03516370555997013,-0.2788544613374248,-2.93197714340677
1782664561571807232,2.358638048171997,-0.7470406889915466,0.7919269800186157,-0.20060484111309052,-0.2680889070034027,-0.027053361758589745,-0.9630142450332642,0.1450268030166626,-0.012543192133307457,0.6095444560050964,-0.0996062655990188,0.13324304925164407,0.02718756555875858,0.9856904324591738,0.027056662476299384,-0.2715106592877167,-2.93647578536288
1782664561581727232,2.368558168411255,-0.6450533270835876,0.8952944278717041,-0.17604437470436096,-0.2598421573638916,-0.021023817360401154,-0.9654222130775452,0.1969301700592041,0.013974256813526154,0.6289048790931702,-0.09851884736192783,0.1293562862433463,0.023576337999233504,0.9864102090619928,0.021025365615689066,-0.26291822296601086,-2.9397204942408477
1782664561591647232,2.3784780502319336,-0.3648509681224823,1.0003457069396973,-0.19799095392227173,-0.2506178021430969,-0.016523348167538643,-0.9679450988769531,0.16623669862747192,0.060621246695518494,0.6550331115722656,-0.09721449141937744,0.1249009686606146,0.020668858841585282,0.9871787597844318,0.016524100545247663,-0.2533537075325935,-2.94316693058397
1782664561601567232,2.3883981704711914,-0.16790834069252014,1.0730929374694824,-0.1080205887556076,-0.24062958359718323,-0.014567644335329533,-0.9705076813697815,0.18209686875343323,0.017466813325881958,0.578402578830719,-0.09642887195815382,0.11992559739589584,0.01907888064436577,0.9879045156510771,0.014568159830421104,-0.24304075631302463,-2.945210988508758
1782664561611487232,2.39831805229187,-0.09422613680362701,1.1667373180389404,-0.009551807306706905,-0.22945868968963623,-0.013595138676464558,-0.9732234477996826,0.12382209300994873,0.04162553697824478,0.5883204936981201,-0.09613378297920927,0.11430057195354595,0.017990443217180307,0.9886202018966739,0.013595557282063027,-0.23154328541125274,-2.946140368137453
1782664561621405952,2.4082369804382324,-0.3211812376976013,1.2862448692321777,-8.453591726720333e-05,-0.21739761531352997,-0.011878377757966518,-0.9760108590126038,0.10713760554790497,0.02580965682864189,0.5878120064735413,-0.09626556965084948,0.10826388940703689,0.01653803197386644,0.9893120256710566,0.011878657201981432,-0.21916324591520409,-2.9462853176809145
1782664561631326208,2.4181571006774902,-0.09180246293544769,1.514207124710083,0.05921231210231781,-0.2035730481147766,-0.009653148241341114,-0.9790121912956238,0.06122380495071411,0.08226972073316574,0.6136404871940613,-0.09625783351565509,0.10137510241916198,0.014730986025016045,0.9900709980451947,0.009653298534321219,-0.20501569725087934,-2.9467625206972254
1782664561641246208,2.428076982498169,-0.03278275206685066,1.8028779029846191,0.042375706136226654,-0.18656609952449799,-0.009527507238090038,-0.9823961853981018,0.04777216911315918,-0.06839912384748459,0.4955645799636841,-0.09669320737563415,0.09278865757131868,0.013862172095851506,0.9908826959289265,0.009527651244812542,-0.18767433593088895,-2.946146130859113
1782664561651166208,2.4379971027374268,0.030717195942997932,1.7988828420639038,0.007639196701347828,-0.16735297441482544,-0.010044647380709648,-0.9858458638191223,0.05045539140701294,-0.1417345255613327,0.5140135884284973,-0.09694721137945572,0.08308540262380583,0.013186300792647035,0.9917278609918571,0.010044816494236365,-0.16815272025286726,-2.9458536283683325
1782664561661085440,2.447916269302368,-0.05432632565498352,1.795141339302063,-0.09862865507602692,-0.146010622382164,-0.01166745088994503,-0.9892142415046692,0.096633180975914,-0.16939334571361542,0.4600394368171692,-0.09671520103576979,0.07229066154819898,0.012920955857617357,0.9925992703641267,0.01166771571416223,-0.14654451213150085,-2.9464768023756287
1782664561671005184,2.457836151123047,-0.009361114352941513,1.7119204998016357,-0.07532645761966705,-0.12768706679344177,-0.011781614273786545,-0.9917445182800293,0.07916413247585297,-0.17454345524311066,0.4871516823768616,-0.0962898782250307,0.0631076189765959,0.012048425255541312,0.993277697602027,0.011781886880126366,-0.12804553829574936,-2.947558165827525
1782664561680925440,2.4677562713623047,-0.08412456512451172,1.794386386871338,-0.12590175867080688,-0.10992133617401123,-0.011516774073243141,-0.9938735365867615,0.08681953698396683,-0.08429316431283951,0.47800445556640625,-0.09591446064704563,0.05423646566698101,0.011028275344954042,0.9938497248688785,0.011517028736192108,-0.1101512400657897,-2.94853759950557
1782664561690844416,2.477675199508667,0.07134491205215454,1.8554822206497192,-0.06230959668755531,-0.09179212152957916,-0.011965150013566017,-0.99570631980896,0.09508801996707916,-0.03309405595064163,0.47634291648864746,-0.09553480300404495,0.04516202808161317,0.010355659300225735,0.9943471505239236,0.01196543523832665,-0.09192811366701106,-2.9494744539976563
1782664561700764416,2.487595319747925,0.2263486087322235,1.7947839498519897,-0.07507891952991486,-0.0733209028840065,-0.013137299567461014,-0.9972218871116638,0.1406731903553009,-0.07223562896251678,0.4643086791038513,-0.09538378765530788,0.035891023872356986,0.010044880485479968,0.9947427015887019,0.013137677423769435,-0.07339310505694323,-2.949919096995306
1782664561710684416,2.4975152015686035,0.3912810981273651,1.814570426940918,0.06308773905038834,-0.05580968037247658,-0.016708794981241226,-0.99830162525177,0.16893833875656128,-0.038848452270030975,0.3277236223220825,-0.0956056032571215,0.02698930400636765,0.01098975697010255,0.9949925715120962,0.0167095732826032,-0.055846495680818994,-2.9495405743946335
1782664561720604416,2.5074353218078613,0.781504213809967,1.8077481985092163,0.004295265302062035,-0.03778311237692833,-0.02232719585299492,-0.9990364909172058,0.15437552332878113,0.10725761950016022,0.2878701090812683,-0.09595630822398823,0.017737137340508618,0.01292837494388736,0.9951435051173373,0.022329051726840674,-0.03780153548980773,-2.9489157264171677
1782664561730524416,2.51735520362854,0.9492104649543762,1.7382889986038208,0.07368223369121552,-0.0201300960034132,-0.03101421520113945,-0.9993162155151367,0.14001840353012085,0.07747723162174225,0.21718120574951172,-0.09622195040224345,0.008527408253753612,0.01640657817688266,0.9951881218249001,0.031019189888552852,-0.020141146821244096,-2.948505057076738
1782664561740444416,2.527275323867798,1.0168219804763794,1.707440733909607,-0.05891043692827225,-0.0026529075112193823,-0.041214682161808014,-0.9991468191146851,0.17689302563667297,0.032211996614933014,0.20639169216156006,-0.09655482406848359,-0.0006700521256379209,0.020643521729191757,0.9951133699399002,0.04122635962949477,-0.002655166734900787,-2.9480855647329376
1782664561750364416,2.5371952056884766,0.9176652431488037,1.5614981651306152,-0.05720461159944534,0.013655068352818489,-0.050479426980018616,-0.9986317753791809,0.15300142765045166,0.005298152565956116,0.2077687382698059,-0.09628498920412935,-0.009229985207172147,0.02447312285617388,0.9950101241551386,0.050500891078567416,0.013672925788071595,-2.9490030151980235
1782664561760284416,2.5471153259277344,0.8819200396537781,1.5567593574523926,-0.09171918034553528,0.029238050803542137,-0.05979858711361885,-0.9977821707725525,0.1943184733390808,-0.02909911796450615,0.1655067801475525,-0.09598504465804071,-0.01743259717388581,0.02837283769919858,0.9948255984645471,0.05983428386856605,0.029294657834287013,-2.950096279613474
1782664561770203392,2.5570342540740967,0.5241719484329224,1.4143803119659424,-0.0960589349269867,0.04459284245967865,-0.06676989048719406,-0.9967713952064514,0.11014653742313385,-0.024035155773162842,0.2138429880142212,-0.09571732129107187,-0.025412503615418087,0.031120662123552,0.9945973399140805,0.06681960132750757,0.044707471835272766,-2.951203530140283
1782664561780123392,2.5669543743133545,0.24761494994163513,1.272912621498108,0.0701284408569336,0.05788080021739006,-0.07054431736469269,-0.9958279728889465,0.13534125685691833,0.020388677716255188,0.19407016038894653,-0.09575623139118347,-0.0322218144390374,0.03236939574387418,0.9943565004081218,0.07060295924309686,0.05805797103043542,-2.9516363139191024
1782664561790043392,2.576874256134033,0.018304402008652687,0.999462902545929,-0.00022448506206274033,0.06913866847753525,-0.0722091868519783,-0.9949902892112732,0.11620984226465225,0.006565876305103302,0.0714520812034607,-0.09598750749054796,-0.03792678022351898,0.03265600165570296,0.9941234633777872,0.0722720886266573,0.06937526237999123,-2.951588627539695
1782664561799963392,2.586794376373291,-0.06323733180761337,0.7895669341087341,0.14938178658485413,0.07779749482870102,-0.07175023853778839,-0.9943839311599731,0.11287632584571838,0.03462561219930649,-0.02031022310256958,-0.09644615269147039,-0.04224113010357875,0.031995444555421165,0.9939266548482282,0.07181194524356811,0.0780778310566512,-2.9509334905431372
1782664561809883392,2.5967142581939697,0.2781253159046173,0.6115818023681641,0.0593138113617897,0.0854632779955864,-0.07247136533260345,-0.9937021136283875,0.07632565498352051,0.058097586035728455,-0.20981955528259277,-0.09699231449581412,-0.046122334235485986,0.03196347809381687,0.9937019054564437,0.0725349502571535,0.08579380807616792,-2.9501097548854873
1782664561819803392,2.6066343784332275,0.2189916968345642,0.3218628764152527,0.06108081340789795,0.08971299231052399,-0.07581029087305069,-0.9930782318115234,0.022912129759788513,-0.0018722042441368103,-0.44872474670410156,-0.09735752357514892,-0.04842328464556581,0.033407616814162384,0.9935092095524138,0.07588309670558231,0.0900937392966446,-2.9496514772703555
1782664561829723392,2.6165542602539062,0.10820193588733673,0.2314193695783615,0.21880073845386505,0.09293008595705032,-0.07736007869243622,-0.992662787437439,-0.0024302080273628235,0.03205673396587372,-0.48042070865631104,-0.09803357893698574,-0.05013135747492456,0.033991928865325,0.9933382048392906,0.07743744579807944,0.09334491017073518,-2.94846630861037
1782664561839642368,2.6264731884002686,-0.09724469482898712,-0.09879662841558456,-0.008028678596019745,0.09407930821180344,-0.07752948254346848,-0.9925413131713867,-0.15563325583934784,0.05369526147842407,-0.6013307571411133,-0.09859816373210939,-0.050733549357304654,0.03399189040177544,0.9932518428718529,0.07760736533164593,0.09450394097029169,-2.9473765808730334
1782664561849562368,2.6363933086395264,-0.06856079399585724,-0.1469036191701889,0.07097309827804565,0.09307749569416046,-0.07729960232973099,-0.9926536679267883,-0.02297862619161606,0.10174418985843658,-0.6653205156326294,-0.09885799321336569,-0.05023015245702802,0.03391291897712596,0.9932541906234401,0.0773767901138744,0.09349296787395997,-2.946808796623442
1782664561859482368,2.646313190460205,-0.20428799092769623,-0.4170653223991394,0.08692862838506699,0.0907089039683342,-0.07580150663852692,-0.9929884076118469,-0.1410781741142273,0.06341137737035751,-0.6468583345413208,-0.09925174535582489,-0.04898398834479772,0.033261890771762496,0.9932991541748646,0.07587428787303335,0.09109657940035379,-2.9458711606363996
1782664561869402368,2.656233310699463,-0.2804519534111023,-0.5733898282051086,0.0070255715399980545,0.0860203430056572,-0.07405321300029755,-0.993537425994873,-0.1934269666671753,0.060961171984672546,-0.675163745880127,-0.0992280278043381,-0.04655251459174594,0.03262129611278878,0.9934397298248849,0.07412106232169793,0.0863645013089808,-2.9456906283857194
1782664561879322368,2.6661531925201416,-0.43944212794303894,-0.4784342646598816,-0.05181164667010307,0.081736259162426,-0.07039133459329605,-0.9941651225090027,-0.1807658076286316,-0.03194936364889145,-0.5947631001472473,-0.09922381432016346,-0.04422777610353847,0.031005713824487073,0.9935981402266563,0.07044959728285545,0.0820314861547201,-2.9454187673434205
1782664561889242368,2.6760733127593994,-0.6859930753707886,-0.45743122696876526,-0.006801160983741283,0.07975839823484421,-0.06529463082551956,-0.9946734309196472,-0.2367866039276123,-0.09165727347135544,-0.5656293034553528,-0.09893943692605073,-0.04297468728897564,0.02857388480650706,0.9937543934080402,0.06534111515421942,0.08001431835971222,-2.9457406394856758
1782664561899162368,2.685993194580078,-0.685664713382721,-0.5820364952087402,-0.05231218785047531,0.07599051296710968,-0.05892635136842728,-0.9953657984733582,0.09551826864480972,-0.029650915414094925,-0.5179092884063721,-0.09890534546270754,-0.04077323938029892,0.025585741408556524,0.9939319136345277,0.058960507698697436,0.07619650080649837,-2.9454753556388455
1782664561909082368,2.695913314819336,-0.737464427947998,-0.45566239953041077,0.07252698391675949,0.07125099748373032,-0.052134864032268524,-0.9960950016975403,0.09882346540689468,-0.08995497971773148,-0.4742419123649597,-0.09886691596163437,-0.03806752310347886,0.022435755818959582,0.9941190948339823,0.05215851015798131,0.07140869720467015,-2.94520447478042
1782664561919001344,2.7058322429656982,-0.8409900069236755,-0.567152738571167,0.23593588173389435,0.06621947884559631,-0.04448360949754715,-0.9968129992485046,0.3563879430294037,-0.13054995238780975,-0.4504830837249756,-0.0998760539517442,-0.03519517253877028,0.01883592146287797,0.9941987859328422,0.044498294114642394,0.06633373112947438,-2.9428234443735914
1782664561928921344,2.715752363204956,-0.9874891042709351,-0.6979207396507263,-0.21219272911548615,0.060377251356840134,-0.03526851162314415,-0.9975523352622986,0.5381029844284058,-0.12116459012031555,-0.5547853112220764,-0.10002838092073149,-0.031821514138337476,0.014533030801078975,0.9943694384535038,0.035275828086565396,0.06045164930459588,-2.9421443149470714
1782664561938841344,2.7256722450256348,-0.9650202989578247,-1.028421401977539,0.3435554504394531,0.05147799476981163,-0.025969302281737328,-0.9983364343643188,0.7475942969322205,-0.2769939601421356,-0.5370944738388062,-0.10057903818689487,-0.026926096701448684,0.010333169646296624,0.9945109259982181,0.025972221899469114,0.051518147687199436,-2.9406789072034907
1782664561948761344,2.7355923652648926,-1.2165553569793701,-1.163354516029358,0.3010064661502838,0.041031692177057266,-0.015266974456608295,-0.9990411996841431,0.6715842485427856,-0.3933786451816559,-0.42704522609710693,-0.1020932620334021,-0.021193191090032416,0.005499868496192026,0.9945338360134444,0.015267567783331154,0.04104800116832806,-2.9373139269906496
1782664561958681344,2.7455122470855713,-1.1461597681045532,-1.2794052362442017,0.4294286072254181,0.02892874926328659,-0.0036647545639425516,-0.9995747804641724,0.5441303253173828,-0.21851846575737,-0.33326518535614014,-0.10412465060541835,-0.014578098378589064,0.00031619039494306414,0.9944574233192304,0.0036647627744428746,0.02893298068303539,-2.932995997071193
1782664561968601344,2.755432367324829,-1.0556174516677856,-1.3437378406524658,0.33017265796661377,0.015779100358486176,0.007135699037462473,-0.9998500347137451,0.3773330748081207,-0.030985187739133835,-0.2894870638847351,-0.10618502088768696,-0.007466355662162529,-0.004385624675567876,0.9943086627410852,-0.007135759506557821,0.015780156164046516,-2.9287571606279585
1782664561978521344,2.765352249145508,-1.00837242603302,-1.1892553567886353,0.34065911173820496,0.0032249134965240955,0.017295606434345245,-0.9998452067375183,0.1143287941813469,-0.021156081929802895,-0.2643606662750244,-0.10778623950997829,-0.0006709376176879513,-0.008771565053732283,0.9941351703063047,-0.017296469363275835,0.00322540143693454,-2.9255642759617713
1782664561988440320,2.77527117729187,-0.9900534749031067,-1.0980242490768433,0.2748093903064728,-0.0077342442236840725,0.027119524776935577,-0.9996022582054138,0.06588548421859741,-0.06352699548006058,-0.2628946900367737,-0.10933549381353656,0.0053271735729787115,-0.013056895973484032,0.9939049591166489,-0.02712285098481869,-0.007737167038764519,-2.922566746473451
1782664561998360320,2.785191297531128,-0.837389349937439,-1.1644290685653687,0.21455033123493195,-0.01861928217113018,0.036250464618206024,-0.9991692900657654,0.11717580258846283,-0.07368027418851852,-0.3138189911842346,-0.11058898737960833,0.011259720651369917,-0.016987780454697,0.9936572218761188,-0.03625840780579817,-0.018632606548423716,-2.920252944426882
1782664562008280320,2.7951111793518066,-0.69942706823349,-1.247178316116333,0.18474869430065155,-0.03037276677787304,0.04386722296476364,-0.9985755681991577,0.1993180811405182,-0.014204137027263641,-0.3837181329727173,-0.11163091518518693,0.017546988293782387,-0.020107710365828008,0.9933912995407659,-0.04388130317483777,-0.030406717994372733,-2.9184517460570523
1782664562018200320,2.8050312995910645,-0.5471011996269226,-1.27318274974823,-0.12169725447893143,-0.042787227779626846,0.05020831525325775,-0.9978218078613281,0.22137609124183655,0.0019462257623672485,-0.3940238952636719,-0.11179762592552318,0.024080582988588017,-0.022565840859384373,0.9931828481479914,-0.050229434989996685,-0.0428543777251881,-2.9184830173254914
1782664562028120320,2.814951181411743,-0.36783677339553833,-1.2523082494735718,0.048201438039541245,-0.05555400624871254,0.05457549914717674,-0.9969630241394043,0.25111064314842224,-0.029825743287801743,-0.3564457893371582,-0.11171865512622099,0.030677018042942483,-0.024029347190458423,0.9929755792441948,-0.05460262871878091,-0.05566566925190872,-2.919037548403091
1782664562038040320,2.824871301651001,-0.30542853474617004,-1.1739212274551392,0.046577174216508865,-0.06727898865938187,0.05781178921461105,-0.9960578680038452,0.23111261427402496,-0.10030752420425415,-0.281316339969635,-0.11200878705362567,0.0367044902711038,-0.024976625850877614,0.9927149333366253,-0.057844041455496445,-0.06744281675896753,-2.9188333441392427
1782664562047960320,2.8347911834716797,-0.2540014386177063,-1.1967302560806274,0.12232592701911926,-0.07884583622217178,0.06055016443133354,-0.9950462579727173,0.2709082067012787,-0.10205407440662384,-0.19892346858978271,-0.11261998506134592,0.04263813388339555,-0.025668485576397955,0.992391056736844,-0.06058722363243627,-0.07907314815949387,-2.9179900013383744
1782664562057880320,2.8447113037109375,-0.1150834783911705,-1.1975622177124023,0.11368716508150101,-0.09073994308710098,0.06233375146985054,-0.9939219355583191,0.2741200625896454,-0.07843177020549774,-0.1898091435432434,-0.11325665058631267,0.04868642511388912,-0.02585877362230667,0.992035236914558,-0.062374189115488275,-0.09104246155662883,-2.9170873098831103
1782664562067799296,2.8546302318573,-0.09624361246824265,-1.147178292274475,0.14515088498592377,-0.10211198776960373,0.06350431591272354,-0.9927438497543335,0.18528765439987183,-0.03541288524866104,-0.1990591287612915,-0.11407008881956582,0.054448941649352156,-0.02575635701217079,0.9916450421523042,-0.06354707969010473,-0.10249788605406496,-2.915797734035839
1782664562077719552,2.8645503520965576,-0.21890321373939514,-0.9810042381286621,0.14287309348583221,-0.11263269186019897,0.06488382071256638,-0.9915159940719604,0.11182397603988647,0.036220915615558624,-0.17015087604522705,-0.11476266873705457,0.05980068263676951,-0.025804672557263826,0.9912555318031957,-0.06492943300749465,-0.11311156832885814,-2.9147461910974735
1782664562087639296,2.8744702339172363,-0.2668159008026123,-1.0121936798095703,0.18933086097240448,-0.1220037192106247,0.0677374005317688,-0.9902154803276062,0.1316320300102234,-0.0017584040760993958,-0.08734488487243652,-0.11565618653549745,0.06467561259229872,-0.02663295765167655,0.9908236353787377,-0.06778930505733508,-0.12259141690708478,-2.9133517354429523
1782664562097559552,2.884390354156494,-0.3362210690975189,-1.0725866556167603,0.1713646501302719,-0.13211849331855774,0.07080421596765518,-0.9887018799781799,0.19274167716503143,-0.014514550566673279,-0.09827315807342529,-0.11653126852991029,0.06994161003897517,-0.027517572335629105,0.9903389828988678,-0.07086351186555218,-0.13284127130377285,-2.912049404959627
1782664562107479296,2.894310235977173,-0.4045330584049225,-0.991892397403717,0.140623077750206,-0.14225292205810547,0.07459614425897598,-0.9870154857635498,0.13546276092529297,0.007526658475399017,-0.053572893142700195,-0.11729158038893973,0.07526603239469352,-0.028762704631890228,0.9898234773461593,-0.07466550098699118,-0.14313866065978553,-2.911053122088066
1782664562117399552,2.9042303562164307,-0.5556325912475586,-0.8834471702575684,0.19581308960914612,-0.15123389661312103,0.0795774906873703,-0.9852896928787231,0.06035254895687103,0.0010499581694602966,-0.09161460399627686,-0.11811773798740056,0.08009590680835475,-0.030656354954910536,0.9892890766576625,-0.07966171751274072,-0.15230315744261783,-2.910005866110067
1782664562127319296,2.9141502380371094,-0.6116015911102295,-0.8118754029273987,0.03673649579286575,-0.1591092199087143,0.08550165593624115,-0.983551561832428,0.12383091449737549,-0.010931961238384247,-0.17640626430511475,-0.1185355934149897,0.0844254103952266,-0.03311429706494191,0.9887998663367765,-0.08560617859886356,-0.1603806854438681,-2.9098585903182954
1782664562137238272,2.9240691661834717,-0.542975902557373,-0.7384978532791138,0.00645022839307785,-0.1666717827320099,0.0911836102604866,-0.9817872047424316,0.1756134331226349,-0.026593156158924103,-0.27782583236694336,-0.11867307674316525,0.08858112787067246,-0.035493565383437495,0.9883371811406262,-0.09131044275061292,-0.16816044458288887,-2.910290823420649
1782664562147158272,2.9339892864227295,-0.39715656638145447,-0.691017746925354,-0.14478212594985962,-0.17354944348335266,0.09578894823789597,-0.9801556468009949,0.17136743664741516,0.010381706058979034,-0.3111498951911926,-0.11816503963353518,0.09230748557956228,-0.03743674843397804,0.9879852818458393,-0.09593604206111248,-0.17524680647302968,-2.9119537496753325
1782664562157078272,2.943909168243408,-0.1471715122461319,-0.6284030675888062,-0.12075456231832504,-0.18024060130119324,0.09803497046232224,-0.9787248969078064,0.20787428319454193,0.07126128673553467,-0.29756593704223633,-0.11772288123133104,0.09579919639451842,-0.038210634855586206,0.9876759995382436,-0.0981926851615865,-0.18211807851595121,-2.9133017035535733
1782664562166998272,2.953829288482666,0.033914387226104736,-0.5160594582557678,-0.20299910008907318,-0.18590021133422852,0.09828032553195953,-0.9776411056518555,0.15582512319087982,0.07467804849147797,-0.15170764923095703,-0.11687707862244348,0.09863444992886398,-0.03808807676011676,0.9875020912627293,-0.09843923059784164,-0.1879084458318682,-2.915259734198983
1782664562176918272,2.9637491703033447,0.037268638610839844,-0.364072322845459,-0.18377666175365448,-0.19027747213840485,0.09745457768440247,-0.9768813252449036,0.13751257956027985,-0.057583361864089966,-0.039491355419158936,-0.11608692258119065,0.1007615996376689,-0.03750260650163507,0.9874029451674752,-0.09760950004846633,-0.19237185514904723,-2.9169564144149
1782664562186838272,2.9736692905426025,-0.1094687357544899,-0.3354264795780182,-0.10237748175859451,-0.19375017285346985,0.09751059114933014,-0.9761928915977478,0.15293291211128235,-0.14937521517276764,0.0374721884727478,-0.11543577248526965,0.10249339227856132,-0.03739867247401487,0.987304913249246,-0.0976657858596799,-0.19592906731593576,-2.9184154522327312
1782664562196758272,2.9835891723632812,-0.18973907828330994,-0.21868441998958588,-0.09293711185455322,-0.19652791321277618,0.09874337166547775,-0.9755134582519531,0.12377402186393738,-0.16037362813949585,0.0992928147315979,-0.11493617494015211,0.10395261823679913,-0.03790934095114054,0.9871912029104737,-0.09890453871395342,-0.1987999641587269,-2.9196529771534414
1782664562206678272,2.993509292602539,-0.219171404838562,-0.09535886347293854,-0.017129898071289062,-0.19806507229804993,0.10059716552495956,-0.975013017654419,0.06601552665233612,-0.11256006360054016,0.16786891222000122,-0.1145440076087906,0.10482706143314688,-0.03879128633118497,0.9871100751274877,-0.10076761026855445,-0.200413873370147,-2.920686547094164
1782664562216597248,3.0034282207489014,-0.2876167595386505,0.06921809911727905,-0.04774666205048561,-0.1982162743806839,0.10304555296897888,-0.9747266173362732,0.07153782248497009,-0.02009878307580948,0.2488660216331482,-0.11428340678868189,0.1050420232690626,-0.04003597736262663,0.9870676439045999,-0.10322879609815369,-0.20062016299489283,-2.9214565586867822
1782664562226517504,3.013348340988159,-0.1384076476097107,0.17017598450183868,0.06023116782307625,-0.19671259820461273,0.10513777285814285,-0.9748077988624573,0.12838372588157654,0.13180071115493774,0.3188019394874573,-0.11411984911467724,0.10440241863761822,-0.041185494130110384,0.9871071875107034,-0.10533243893347741,-0.19912216107483527,-2.9219252847416097
1782664562236437248,3.023268222808838,0.1269337385892868,0.30480968952178955,0.023043585941195488,-0.19457639753818512,0.10552126914262772,-0.9751949906349182,0.21064390242099762,0.2542809844017029,0.3868008255958557,-0.11434639803250955,0.10335572852486523,-0.041474018545124745,0.9871789735787767,-0.10571808170468808,-0.19693939160781448,-2.921410940249793
1782664562246357504,3.0331883430480957,0.6287924647331238,0.46825000643730164,0.10547860711812973,-0.19065867364406586,0.10188864171504974,-0.9763544201850891,0.12103283405303955,0.17379188537597656,0.4379175901412964,-0.11465217394874809,0.10116869306625084,-0.03984568332041722,0.987437181870759,-0.10206575769777143,-0.19284923356736505,-2.92028695332319
1782664562256277248,3.0431082248687744,0.6782284379005432,0.6455044150352478,0.15169298648834229,-0.18523962795734406,0.09546215087175369,-0.978045642375946,0.07618506252765656,-0.1451295018196106,0.5824005007743835,-0.11574862417459893,0.09808556096246766,-0.0368294337141766,0.9877373436456213,-0.09560774080406749,-0.1871806046221375,-2.917266423668325
1782664562266197504,3.0530283451080322,0.3814583718776703,0.9367570877075195,-0.46475887298583984,-0.17749038338661194,0.08994874358177185,-0.9800032377243042,-0.0010069310665130615,-0.44932374358177185,0.7815321683883667,-0.11507084883527761,0.09382122490458046,-0.03458248970576522,0.9883118186378079,-0.09007047883727116,-0.17916985840530766,-2.9178690145368695
1782664562276117248,3.062948226928711,0.13303205370903015,0.9209685325622559,-0.4207613170146942,-0.16870515048503876,0.08637842535972595,-0.981874406337738,0.09036652743816376,-0.49574121832847595,0.784517228603363,-0.11281542271048366,0.08910846478336537,-0.033503434683459836,0.9890449466983194,-0.08648620095729809,-0.17015799389364838,-2.921824903004017
1782664562286036224,3.0728671550750732,0.08287926763296127,0.8261334896087646,-0.5123897194862366,-0.16038277745246887,0.08501962572336197,-0.9833865165710449,0.30970528721809387,-0.10410837084054947,0.7003817558288574,-0.11036103796393108,0.08476124317481055,-0.0335003982685373,0.9897038372186139,-0.0851223826561072,-0.16166892231764116,-2.926391852918975
1782664562295956480,3.082787275314331,0.3183620870113373,0.9474242329597473,-0.40401503443717957,-0.15206849575042725,0.08220881968736649,-0.9849451184272766,0.27300965785980225,0.1880548596382141,0.5248163342475891,-0.10797581020951608,0.08034437984593032,-0.032744806632493385,0.9903604134168232,-0.08230170074555188,-0.1531833489680783,-2.9307164860929587
1782664562305876224,3.0927071571350098,0.39443737268447876,1.1328656673431396,-0.3772467076778412,-0.1418239027261734,0.07807183265686035,-0.9868083596229553,0.1905299574136734,0.10317206382751465,0.4740977883338928,-0.10602112274560208,0.0749094224268028,-0.03137499912926315,0.9910417501161549,-0.07815135927210112,-0.14274235883516007,-2.9340344600813184
1782664562315796480,3.1026272773742676,0.22971126437187195,1.1687592267990112,-0.12826190888881683,-0.13038447499275208,0.07420137524604797,-0.9886829853057861,0.20507624745368958,-0.13998201489448547,0.49933362007141113,-0.10480907081350135,0.06892595578266938,-0.030128393988146002,0.9916433464204155,-0.07426963308774912,-0.1311202923829298,-2.935868270472571
1782664562325716224,3.1125471591949463,-0.014430508017539978,0.9953868985176086,-0.1481901854276657,-0.11957228928804398,0.07338009029626846,-0.9901099801063538,0.2596021890640259,-0.21804867684841156,0.563184380531311,-0.1038636741961104,0.06343844548435061,-0.030340711406262457,0.9921025307111222,-0.07344610749720865,-0.12018464428679669,-2.93739254437214
1782664562335636480,3.122467279434204,-0.13309723138809204,1.0356919765472412,-0.023165954276919365,-0.10955557227134705,0.0735679417848587,-0.991254448890686,0.22404226660728455,-0.1997733861207962,0.47533953189849854,-0.10334475062159358,0.05842083200642173,-0.030980541501412894,0.9924450181052277,-0.07363446416690111,-0.11007540940792306,-2.9381362315203607
1782664562345556224,3.132387161254883,-0.13747520744800568,1.1259664297103882,-0.14424844086170197,-0.09844418615102768,0.07491004467010498,-0.9923191070556641,0.09348507970571518,-0.08697974681854248,0.47986793518066406,-0.1028089829943751,0.052920104080099506,-0.03224754762284305,0.9927688355607516,-0.07498028207846127,-0.09888262665689028,-2.9389245568073057
1782664562355476480,3.1423072814941406,0.10770844668149948,1.2623682022094727,-0.31990334391593933,-0.08619803190231323,0.07474163174629211,-0.9934704899787903,0.04391592741012573,0.058818548917770386,0.3767560124397278,-0.10139390572535527,0.046747913294716475,-0.032854131660285626,0.993204223614635,-0.07481139554068612,-0.0865478179618413,-2.9413631423537394
1782664562365395200,3.152226209640503,0.4179783761501312,1.306626796722412,-0.273630827665329,-0.07253186404705048,0.0715266764163971,-0.9947980046272278,0.11614148318767548,0.1191471517086029,0.3189862370491028,-0.09988537377748367,0.03971265861687167,-0.031998502872932995,0.9936910584354501,-0.07158780991754614,-0.07278235754120292,-2.9438340271361008
1782664562375315456,3.1621463298797607,0.5772289633750916,1.2467548847198486,-0.31176358461380005,-0.056841012090444565,0.06530819088220596,-0.9962449073791504,0.11368000507354736,0.07408084720373154,0.3053116798400879,-0.09836577315324364,0.03152709122046101,-0.029725119085405084,0.9942065223636436,-0.06535470225527648,-0.056993467817610104,-2.946220168214174
1782664562385235200,3.1720662117004395,0.8544314503669739,1.2112691402435303,-0.4185963273048401,-0.04224687069654465,0.057486340403556824,-0.9974520206451416,0.16826921701431274,0.08052940666675568,0.3180849552154541,-0.0964230604126668,0.0238133282931025,-0.026587924472595486,0.994700276011265,-0.057518049105084706,-0.042329489786552044,-2.9495407948224632
1782664562395155456,3.1819863319396973,1.0959339141845703,1.166227102279663,-0.2210686206817627,-0.029868178069591522,0.04727919399738312,-0.9984350800514221,0.16187196969985962,0.04039780795574188,0.24387270212173462,-0.09484165784215573,0.017116314337953836,-0.02212468623547788,0.9950992182488769,-0.04729682699114907,-0.02990607443541564,-2.952256602403406
1782664562405075200,3.191906213760376,1.1200203895568848,1.1350387334823608,-0.18561232089996338,-0.017771665006875992,0.035965315997600555,-0.9991949796676636,0.12409491091966629,0.002532605081796646,0.21684640645980835,-0.09383306664964061,0.010536439609321019,-0.017072768833544732,0.9953858149712413,-0.03597307478212689,-0.017784106992773257,-2.9539320227461854
1782664562414995456,3.201826333999634,0.8880084156990051,0.999665379524231,-0.05300820618867874,-0.006823147181421518,0.025743825361132622,-0.9996452927589417,0.12816104292869568,-0.04225383698940277,0.24464040994644165,-0.09321748513389892,0.00459711710220472,-0.012498916572555797,0.9955567729789867,-0.025746669932752663,-0.0068254621169384685,-2.9549579222594256
1782664562424915200,3.2117462158203125,0.7334908843040466,0.8982746005058289,0.01810242421925068,0.0029955811332911253,0.017679354175925255,-0.9998392462730408,0.1144055426120758,-0.1018773540854454,0.25626319646835327,-0.09301672914639282,-0.0006690524329044595,-0.008941034804809886,0.9956241558204783,-0.01768027542631772,0.002996053893706974,-2.955255874063442
1782664562434834176,3.221665143966675,0.3615732789039612,0.8021320700645447,0.05554886534810066,0.011707658879458904,0.012064601294696331,-0.9998586773872375,0.11442149430513382,-0.1780649721622467,0.16660672426223755,-0.09325343791707201,-0.005265952343244537,-0.0065521531044303956,0.9956068957141683,-0.012064894000812489,0.011708778216214116,-2.954737132179464
1782664562444754432,3.2315852642059326,-0.024970300495624542,0.6465350389480591,0.0469912625849247,0.019230986014008522,0.0103355897590518,-0.9997616410255432,0.11486325412988663,-0.16686025261878967,0.06830412149429321,-0.09346006697840897,-0.009090931021032467,-0.006044250912292161,0.9955632261901532,-0.010335773856451512,0.019233198429977432,-2.954288767183366
1782664562454674176,3.2415051460266113,-0.3079860210418701,0.4600072205066681,0.055635083466768265,0.02506488934159279,0.01202343124896288,-0.9996135234832764,0.12540203332901,-0.1820368617773056,-0.11475110054016113,-0.09374042365763079,-0.011914805370048099,-0.007160840986640736,0.9954996025619733,-0.012023720615215994,0.02506932628854586,-2.9536672110207425
1782664562464594432,3.251425266265869,-0.46806344389915466,0.19147028028964996,0.013922992162406445,0.028565989807248116,0.015849273651838303,-0.9994662404060364,0.038084402680397034,-0.0974227637052536,-0.2904507517814636,-0.09393517718360192,-0.013477120006959479,-0.009232674162296521,0.9954443020513454,-0.015849938093544815,0.02857346690370161,-2.953193272468212
1782664562474514176,3.261345148086548,-0.3990793228149414,0.008528424426913261,-0.05320730805397034,0.029872220009565353,0.020240938290953636,-0.9993487596511841,-0.08365945518016815,0.055412136018276215,-0.3925122022628784,-0.09378307411974575,-0.01392324359804521,-0.011478701329783444,0.9954291522129498,-0.020242321052527257,0.029882789337470416,-2.95341732335395
1782664562484434432,3.2712652683258057,-0.29921212792396545,-0.06791643798351288,0.05746634304523468,0.030159618705511093,0.023585442453622818,-0.9992668032646179,-0.2222372591495514,0.12991797924041748,-0.4547737240791321,-0.09369739617587136,-0.013910845614146251,-0.013156433261941507,0.9954165384471911,-0.02358762969193549,0.03017258855555459,-2.9535321407829063
1782664562494354176,3.2811851501464844,0.10181574523448944,-0.014884109608829021,0.03140837699174881,0.03068467229604721,0.024472376331686974,-0.9992294907569885,-0.2489158660173416,0.23454557359218597,-0.447776734828949,-0.09401571658963515,-0.014126459917662315,-0.01362729338778213,0.9953771877924705,-0.024474818832957015,0.030698685570716956,-2.952870988696241
1782664562504274432,3.291105270385742,0.2773001492023468,-0.04780177026987076,0.049775633960962296,0.03261607885360718,0.021695615723729134,-0.9992324709892273,-0.2593922019004822,0.288240909576416,-0.4746597409248352,-0.09426202422317809,-0.015215584734987641,-0.012339379840939404,0.9953547068828695,-0.021697318356463647,0.032629546244824156,-2.952397947358613
1782664562514193408,3.3010241985321045,0.5331628322601318,-0.436188668012619,0.12185700982809067,0.03094000183045864,0.01772920787334442,-0.9993640184402466,-0.1270703673362732,0.3352065682411194,-0.3880871534347534,-0.09444574261652487,-0.014565786763042661,-0.010287910979381795,0.995370279330826,-0.017730137475123572,0.030949805865764447,-2.952114637581744
1782664562524113408,3.3109443187713623,0.5706068277359009,-0.516299307346344,0.07927729934453964,0.026682527735829353,0.011803500354290009,-0.9995742440223694,0.022038783878087997,0.1696692705154419,-0.43548429012298584,-0.09504869647715859,-0.01272119118210478,-0.00714399040884391,0.9953656596930676,-0.011803774272894257,0.026687554406689164,-2.951029989540802
1782664562534033408,3.320864200592041,0.2846866250038147,-0.6503748297691345,0.06478624045848846,0.020897699519991875,0.007736049126833677,-0.9997516870498657,-0.10494311153888702,-0.016448818147182465,-0.4418834447860718,-0.09537721817090145,-0.010032888177962955,-0.004847333816322458,0.9953788394883349,-0.007736126252737265,0.020899846455232497,-2.950455076038288
1782664562543953408,3.330784320831299,0.2240910530090332,-0.6890260577201843,0.0167202427983284,0.014522048644721508,0.0051995026879012585,-0.9998810291290283,-0.05517146363854408,-0.053951334208250046,-0.4340484142303467,-0.09550951303692685,-0.0069797278135194886,-0.0032814809761740663,0.9953986214594839,-0.005199525899085031,0.014522754986844395,-2.950238540639274
1782664562553873408,3.3407042026519775,-0.38032639026641846,-0.6020402908325195,0.13623304665088654,0.008304888382554054,0.005649319384247065,-0.99994957447052,-0.0813639685511589,-0.23987172544002533,-0.37462317943573,-0.09590355892487677,-0.003862453790918493,-0.003209918975073383,0.9953779750533046,-0.005649349219443656,0.008305116174874663,-2.9494644064645117
1782664562563793408,3.3506243228912354,-0.585672914981842,-0.606487512588501,0.1228172555565834,0.002629308495670557,0.010743513703346252,-0.9999388456344604,-0.001729039940983057,-0.19662608206272125,-0.24491894245147705,-0.09655321697135524,-0.0007898555255295425,-0.005473678138889644,0.9953124786813526,-0.010743720813658366,0.0026294633724317407,-2.9481678330251886
1782664562573713408,3.360544204711914,-0.5808693766593933,-0.4744461178779602,0.2179594784975052,-0.0027740676887333393,0.016609802842140198,-0.9998582005500793,0.05784303694963455,-0.1530386358499527,-0.30298298597335815,-0.09746682738859387,0.0021899881798109733,-0.008130451136727295,0.9952031268080805,-0.016610567016051642,-0.002774453914625942,-2.9463651176707826
1782664562583632384,3.3704633712768555,-0.3772309422492981,-0.5019564628601074,0.21154488623142242,-0.007320208940654993,0.021500391885638237,-0.9997420310974121,0.15079860389232635,-0.035858914256095886,-0.3043351173400879,-0.0983534881052695,0.004700046965707173,-0.010338726635910574,0.9950867146153553,-0.021502047900438956,-0.007321966887673045,-2.944633112033682
1782664562593552384,3.380383253097534,0.06368866562843323,-0.677421510219574,0.2026965320110321,-0.012931900098919868,0.023193374276161194,-0.9996473789215088,0.3196335732936859,0.026702865958213806,-0.3428056240081787,-0.09935529909337562,0.007586913620435519,-0.010897774454543718,0.9949634235044827,-0.02319545401919146,-0.012935740228100246,-2.9426860963612107
1782664562603472384,3.390303373336792,0.43888863921165466,-0.8623506426811218,0.20845922827720642,-0.02063751220703125,0.020535482093691826,-0.9995760917663574,0.5331497192382812,0.046114906668663025,-0.3574490547180176,-0.1005292475235265,0.011299987387611335,-0.009179241178573787,0.9948275315663448,-0.020536925741598433,-0.020643331713055723,-2.9403844951456843
1782664562613392384,3.4002232551574707,0.41013821959495544,-1.064233422279358,0.303013414144516,-0.03006332367658615,0.015979057177901268,-0.9994202852249146,0.6049534678459167,-0.025317437946796417,-0.36004626750946045,-0.10177826285531008,0.015769144454336966,-0.006418840119208161,0.9946614540760391,-0.015979738019193366,-0.030071694418093695,-2.9378937024048275
1782664562623312384,3.4101433753967285,0.007066195365041494,-1.2766512632369995,0.23045669496059418,-0.04149576649069786,0.013860027305781841,-0.9990425705909729,0.5319132208824158,-0.20064286887645721,-0.3056601881980896,-0.10307797282166412,0.021356927222560367,-0.0047550581947111824,0.9944326488377399,-0.013860471550598124,-0.04151167540490305,-2.9353080120834862
1782664562633232384,3.4200632572174072,-0.5440480709075928,-1.3951880931854248,0.1773921400308609,-0.05461445823311806,0.01651804894208908,-0.998370885848999,0.31459370255470276,-0.3938526511192322,-0.24300789833068848,-0.10423866207987664,0.028031026121077426,-0.005368553343469899,0.9941427115436138,-0.01651880091450389,-0.05464910894942044,-2.9331019915259104
1782664562643152384,3.429983377456665,-0.8203000426292419,-1.2117596864700317,0.019633609801530838,-0.06768447160720825,0.023590445518493652,-0.9974278211593628,0.09078628569841385,-0.29757726192474365,-0.22600656747817993,-0.10458316445872465,0.034913243190122296,-0.008194120904493606,0.9938693364329901,-0.023592634518604758,-0.06775514023306171,-2.9327073592827544
1782664562653072384,3.4399032592773438,-0.865272045135498,-0.9670274257659912,0.051746536046266556,-0.07849477231502533,0.0318390391767025,-0.9964059591293335,-0.02625681459903717,-0.1073242723941803,-0.3145681619644165,-0.10464981087276623,0.04073558691563652,-0.011731569466809363,0.9936052084488808,-0.03184442177507403,-0.07861554020768623,-2.9329722140342414
1782664562662990848,3.449821710586548,-0.6615971922874451,-0.7957677245140076,0.032434090971946716,-0.0871613398194313,0.03963230550289154,-0.9954055547714233,-0.015087805688381195,0.05806972086429596,-0.32991182804107666,-0.10484903752250448,0.04547225892528237,-0.015149437989365189,0.9933325330745029,-0.03964268693604295,-0.08734087729229373,-2.932998399344017
1782664562672910848,3.4597418308258057,-0.42190659046173096,-0.9329663515090942,0.05593675374984741,-0.0955260619521141,0.04507102072238922,-0.9944060444831848,0.0721801146864891,0.09819374978542328,-0.3502442240715027,-0.10497120031532058,0.049937189888375255,-0.01741425892258636,0.9930680204722171,-0.04508629428656365,-0.0957695646098001,-2.933127886651956
1782664562682830848,3.4696617126464844,-0.13468268513679504,-1.0057064294815063,-0.04744749143719673,-0.10492601245641708,0.047641903162002563,-0.9933382272720337,0.22347155213356018,0.16732391715049744,-0.3474973440170288,-0.10494260109591004,0.05476764324189658,-0.01820452642314356,0.9928021816766605,-0.04765994595133465,-0.10523944462875559,-2.933478559841307
