time,seconds_elapsed,rotationRateX,rotationRateY,rotationRateZ,gravityX,gravityY,gravityZ,accelerationX,accelerationY,accelerationZ,quaternionW,quaternionX,quaternionY,quaternionZ,pitch,roll,yaw
1782664725188851712,0.16942691802978516,-0.14984679222106934,0.10513424873352051,-0.19762425124645233,0.2002905309200287,0.6104370951652527,-0.7663225531578064,0.07259765267372131,-0.019036948680877686,-0.034199297428131104,0.8982729330170144,-0.3417565551859239,0.0064168800219596535,0.27616486817963964,-0.6566123133405684,0.25564697256923724,0.6840399486517121
1782664725198771968,0.17934703826904297,-0.22338998317718506,0.15040531754493713,-0.2453819066286087,0.20167775452136993,0.6112845540046692,-0.7652824521064758,0.06344372034072876,-0.04265052080154419,-0.02403944730758667,0.8982415241634701,-0.34249926304524675,0.007281490299358987,0.27532420465945434,-0.6576827260821156,0.25767518167709025,0.6832045198129778
1782664725208691712,0.18926692008972168,-0.29149100184440613,0.18889953196048737,-0.33016934990882874,0.20440305769443512,0.6116340160369873,-0.7642796039581299,0.07524476945400238,-0.05061405897140503,-0.030749082565307617,0.8982302244327487,-0.34319182356705646,0.008920673283786618,0.2744491607009823,-0.6581243113207594,0.2613292748219068,0.6827603544120425
1782664725218610688,0.19918584823608398,-0.3106231391429901,0.1980714648962021,-0.41860148310661316,0.20808321237564087,0.6114030480384827,-0.7634708285331726,0.12786954641342163,0.009171843528747559,-0.04825097322463989,0.8983153293613257,-0.3437138320376084,0.011197918669625648,0.2734319549351109,-0.6578324569775246,0.26608611876939753,0.6822413972315259
1782664725228530944,0.2091059684753418,-0.20920617878437042,0.1879541426897049,-0.4873809218406677,0.21300923824310303,0.6110190749168396,-0.7624190449714661,0.20006142556667328,0.0939522385597229,-0.059419333934783936,0.8983598109597906,-0.3443687499248209,0.014165292777306859,0.2723217144805944,-0.6573472642390431,0.2724392950649575,0.6820802579758722
1782664725238450688,0.2190258502960205,-0.056870974600315094,0.1824198216199875,-0.5802820920944214,0.21606123447418213,0.6117854714393616,-0.7609442472457886,0.25622880458831787,0.15742534399032593,-0.048565030097961426,0.8985105228995657,-0.3453445690576414,0.01627941438359205,0.270464344566739,-0.6583157724943062,0.2766569742010993,0.6798112929411377
1782664725248370944,0.22894597053527832,0.09397712349891663,0.165551096200943,-0.6743177771568298,0.21750229597091675,0.6127393245697021,-0.7597652673721313,0.28603774309158325,0.19910454750061035,-0.018860220909118652,0.8989432426860303,-0.3461212356130652,0.017817224356352506,0.26792484302618735,-0.6595222177364332,0.27881858500017886,0.6753003008931457
1782664725258289920,0.23886489868164062,0.28292161226272583,0.13959935307502747,-0.73607337474823,0.21789592504501343,0.6130619049072266,-0.7593922019004822,0.3094783425331116,0.19716453552246094,0.0007709860801696777,0.8997216748179613,-0.34632186557732103,0.019106930595318244,0.2649473093599222,-0.6599304646993656,0.2794275591363311,0.6690175216072828
1782664725268209920,0.24878501892089844,0.4266774356365204,0.10237840563058853,-0.8269147276878357,0.21745039522647858,0.6126024127006531,-0.7598904967308044,0.3246791362762451,0.19548779726028442,0.022814691066741943,0.9008334306833145,-0.34589758466548093,0.02023896178563451,0.26161865686408287,-0.6593489981957043,0.2787118403802901,0.6611996709934558
1782664725278129920,0.25870490074157715,0.6165842413902283,0.07126390188932419,-0.9372281432151794,0.2160647064447403,0.6112620830535889,-0.7613637447357178,0.3291318416595459,0.20369458198547363,0.05176901817321777,0.9023264781855537,-0.344773277455661,0.021201956872077165,0.25785427783082204,-0.657654302230509,0.2765164061774001,0.6515811541017825
1782664725288049920,0.26862502098083496,0.7267476320266724,0.09006402641534805,-1.0926101207733154,0.21383745968341827,0.609163761138916,-0.763670802116394,0.3242332339286804,0.20486211776733398,0.08561599254608154,0.904207244902682,-0.34304058117266667,0.022085476020345444,0.25346530216690843,-0.6550056876238979,0.2730204143802444,0.6398745740760831
1782664725297969920,0.27854490280151367,0.843473494052887,0.11454007774591446,-1.2847414016723633,0.2107466608285904,0.6067500114440918,-0.7664464712142944,0.3091508150100708,0.18475383520126343,0.14404046535491943,0.9064279704231815,-0.34095913808300277,0.022882740630922913,0.24821675711879101,-0.6519656273793699,0.2683345151234737,0.6257694040474253
1782664725307888640,0.288463830947876,0.9175288677215576,0.19101175665855408,-1.5091280937194824,0.206904336810112,0.604117751121521,-0.7695663571357727,0.3041582703590393,0.14743858575820923,0.1833999752998352,0.9089879095525186,-0.3386081291073945,0.023693259380247102,0.24191765831656317,-0.6486582993814786,0.262647463286398,0.6089756186814131
1782664725317808896,0.2983839511871338,0.956583559513092,0.2628382742404938,-1.7534356117248535,0.20245498418807983,0.6017481684684753,-0.7726002335548401,0.31684738397598267,0.15498095750808716,0.2308979630470276,0.9117924653502731,-0.3362975434756609,0.024573164836552086,0.23438133807858327,-0.6456880916253778,0.2562813529618549,0.5893738550817429
1782664725327728640,0.3083038330078125,1.0311791896820068,0.28613418340682983,-1.9752094745635986,0.19721920788288116,0.5994844436645508,-0.7757080793380737,0.34816041588783264,0.12790203094482422,0.25556647777557373,0.9148292160879004,-0.333916780329471,0.025407762147807163,0.225702477005225,-0.6428568432417114,0.24896912567612672,0.5670531901893289
1782664725337648896,0.3182239532470703,1.1271833181381226,0.2639801502227783,-2.218402862548828,0.19090166687965393,0.5972065925598145,-0.7790384292602539,0.38314923644065857,0.10919904708862305,0.2953500747680664,0.9180902408441205,-0.33136585542732955,0.026028116676302126,0.21593859078695787,-0.6400138699858386,0.2403123922742898,0.5419923799630553
1782664725347567872,0.3281428813934326,1.3529951572418213,0.2003694623708725,-2.4577112197875977,0.18320654332637787,0.5942463874816895,-0.7831389307975769,0.41269493103027344,0.13046979904174805,0.3138090968132019,0.9212566677790328,-0.3282863319981944,0.025663635990950884,0.20701586050822599,-0.6363283220456302,0.2298060201079828,0.5180629712182626
1782664725357487872,0.33806300163269043,1.7745498418807983,0.13341492414474487,-2.682554006576538,0.1734241098165512,0.5893659591674805,-0.7890322208404541,0.4323498010635376,0.17317676544189453,0.3210299611091614,0.9254459722441319,-0.32378521875767946,0.025436388577060865,0.1951048091402159,-0.6302737453840651,0.21635327486881226,0.48633780984467373
1782664725367407872,0.34798288345336914,2.32098126411438,0.12951651215553284,-2.9470713138580322,0.1623009592294693,0.5809046030044556,-0.7976266741752625,0.425910085439682,0.2048315405845642,0.34718722105026245,0.9304098503186019,-0.317101471051194,0.025165774675367812,0.18207419078452589,-0.6198395770940422,0.20073931841657955,0.4509795910000663
1782664725377327872,0.35790300369262695,2.854548692703247,0.19093912839889526,-3.2969462871551514,0.15007759630680084,0.568381130695343,-0.8089620471000671,0.41074392199516296,0.23311734199523926,0.3766653537750244,0.9361902380581961,-0.30804325778198755,0.025066190167717262,0.16741829279520495,-0.6045368873335425,0.18343326089931677,0.4112616068938174
1782664725387246848,0.36782193183898926,3.304708480834961,0.26089802384376526,-3.6542556285858154,0.136995330452919,0.5519746541976929,-0.8225303888320923,0.4301433563232422,0.22869545221328735,0.4311119318008423,0.9426057851439384,-0.29681918580605604,0.025162915384631602,0.1508627277821934,-0.5847304932658268,0.16503857528761418,0.36718310973791096
1782664725397166848,0.37774205207824707,3.450944423675537,0.31011855602264404,-4.026971817016602,0.12325716763734818,0.5332037210464478,-0.8369596600532532,0.4753146171569824,0.17678773403167725,0.5134733319282532,0.949189470866255,-0.28439692011056816,0.025269760506737342,0.1323600644142767,-0.5623830156681265,0.14621676035604092,0.31940688653809096
1782664725407086848,0.3876619338989258,3.2917473316192627,0.29228806495666504,-4.359987258911133,0.10905788093805313,0.5146102905273438,-0.8504602313041687,0.5321011543273926,0.07364654541015625,0.5844385027885437,0.9553356531036037,-0.2722834597417987,0.025131475497959407,0.11208886545480826,-0.5405530590325164,0.12753791352197694,0.2689700391401282
1782664725417006848,0.3975820541381836,2.894733190536499,0.18525587022304535,-4.648990631103516,0.09434659779071808,0.4990251958370209,-0.8614363670349121,0.5998978018760681,-0.032747119665145874,0.6130843162536621,0.9604861372927294,-0.26207835671530694,0.024428627760026127,0.09046889661571593,-0.522473533038134,0.10908763420135228,0.2170183858315944
1782664725426925824,0.4075009822845459,2.3966872692108154,0.10798333585262299,-4.929550647735596,0.07979879528284073,0.4885213077068329,-0.8688952922821045,0.6563767194747925,-0.09347128868103027,0.5460804104804993,0.9642897335370681,-0.25495497101780695,0.02345860050070022,0.06777082945742141,-0.5103942683932275,0.09158245972439544,0.16423847319839346
1782664725436845824,0.4174208641052246,1.8483357429504395,0.025895126163959503,-5.182174205780029,0.0664147287607193,0.4847298860549927,-0.8721387982368469,0.6964026689529419,-0.08240142464637756,0.3973463177680969,0.9664956457712127,-0.25181162552658554,0.02283677302668349,0.044222438095485046,-0.5060543182645757,0.07600487128021562,0.11110844683664468
1782664725446765824,0.4273409843444824,1.4583191871643066,-0.04050740972161293,-5.403327465057373,0.05384165048599243,0.48671939969062805,-0.8718975186347961,0.7192754149436951,-0.03571540117263794,0.21515923738479614,0.9672370023625779,-0.25207128519765837,0.02261217676401989,0.020031995006554684,-0.5083303789494376,0.06167395370444947,0.057441754572771175
1782664725456685824,0.43726086616516113,1.2839303016662598,-0.016271047294139862,-5.605530738830566,0.039976272732019424,0.4898359179496765,-0.8708975911140442,0.6983050107955933,-0.011396616697311401,0.06996375322341919,0.9671730275183015,-0.2531169563372366,0.02197727507527464,-0.005008324532554456,-0.5119015431204297,0.045870179781335035,0.0016492150380176427
1782664725466605056,0.44718003273010254,0.9637006521224976,0.23685970902442932,-5.747877597808838,0.02440263330936432,0.49164289236068726,-0.8704549074172974,0.6337089538574219,-0.023945748805999756,0.07805073261260986,0.9665703182161389,-0.2536536496209961,0.020793444095565723,-0.03113304142402978,-0.5139754174993535,0.028027003167723594,-0.05703143740714753
1782664725476524800,0.45709991455078125,0.5324147939682007,0.4304688572883606,-5.918824672698975,0.008945412933826447,0.4951334595680237,-0.8687708377838135,0.5039787888526917,-0.13952744007110596,0.09934645891189575,0.9648794565492925,-0.25536738226609856,0.020051793746818758,-0.05824885316884376,-0.5179884476324329,0.010296267736422176,-0.11786375582300085
1782664725486445056,0.46702003479003906,0.27506041526794434,0.7012059688568115,-6.068626880645752,-0.004983910825103521,0.500889003276825,-0.8654972314834595,0.36445045471191406,-0.32223910093307495,0.06038248538970947,0.961938905986573,-0.2585122623589086,0.02056218619035792,-0.08615267250874706,-0.5246255861265416,-0.005758372892938928,-0.18019247408236805
1782664725496364800,0.4769399166107178,-0.19813509285449982,1.0702983140945435,-6.229896068572998,-0.013813638128340244,0.5118424892425537,-0.8589682579040527,0.23595106601715088,-0.3999955654144287,0.048665523529052734,0.9572769263431659,-0.26442423270412374,0.0244066189531735,-0.11447782957557856,-0.5373281228888239,-0.016080276487322902,-0.24247079805453356
1782664725506285056,0.4868600368499756,-0.44731375575065613,1.4760903120040894,-6.322124004364014,-0.005494516342878342,0.5381455421447754,-0.8428339958190918,0.14622631669044495,-0.4452652931213379,0.018340647220611572,0.9494608396372456,-0.27768317794155617,0.03840625166151276,-0.14121305594910571,-0.5682353335644679,-0.006519004202640269,-0.2971984725968894
1782664725516203776,0.4967789649963379,-0.6365582346916199,1.808248519897461,-6.307204246520996,-0.00482808705419302,0.5578843951225281,-0.8299046158790588,0.1468874216079712,-0.5639116168022156,-0.06677812337875366,0.9413772201817603,-0.2874458515852334,0.04921962095012922,-0.1695911528867798,-0.5918344173551222,-0.005817574971246223,-0.35825423068321904
1782664725526123776,0.5066988468170166,-0.6917669773101807,1.9342175722122192,-6.304509162902832,-0.018326016142964363,0.566589891910553,-0.8237961530685425,0.21731586754322052,-0.6860509514808655,-0.18090355396270752,0.9336657937622289,-0.2920712040540515,0.052880359414209585,-0.20041548164279901,-0.6023614312090855,-0.022242145999415448,-0.4298010280633401
1782664725536043776,0.5166189670562744,-0.6618391871452332,1.9237512350082397,-6.294518947601318,-0.03442453593015671,0.5723292827606201,-0.8193010091781616,0.3171851634979248,-0.8031337857246399,-0.2743574380874634,0.9252354403721567,-0.2954477868867065,0.05531823125823075,-0.2314948982360952,-0.6093435796085898,-0.04199225703768221,-0.5035425403978728
1782664725545963776,0.5265388488769531,-0.43888965249061584,1.7883923053741455,-6.2587056159973145,-0.05219551548361778,0.5750120878219604,-0.8164782524108887,0.3716230094432831,-0.9999694228172302,-0.38705873489379883,0.9162127419201878,-0.29756674839132496,0.05670021781887303,-0.26228474798324525,-0.6126189345678131,-0.06384075387928626,-0.5778243994473652
1782664725555883008,0.5364580154418945,-0.19611136615276337,1.5039645433425903,-6.135424613952637,-0.07184932380914688,0.5740545988082886,-0.8156586289405823,0.3571428954601288,-1.2869452238082886,-0.3881530165672302,0.906829578194941,-0.29828153208455216,0.056558122964133255,-0.2923856483470474,-0.6114490860817172,-0.08786071035280209,-0.6515511319717244
1782664725565802752,0.5463778972625732,-0.06262047588825226,1.2315891981124878,-5.68882417678833,-0.09246143698692322,0.5700811743736267,-0.8163689970970154,0.3144005239009857,-1.463132381439209,-0.3106299042701721,0.8974262458617821,-0.29798611850554396,0.05495253765596032,-0.32064100887419716,-0.6066046866323295,-0.11277878251983423,-0.7216369066786535
1782664725575723008,0.556298017501831,0.17234517633914948,0.9428239464759827,-5.056247234344482,-0.11262599378824234,0.5640518069267273,-0.818022608757019,0.26365751028060913,-1.3632309436798096,-0.22239792346954346,0.8885339618990676,-0.29708962940137223,0.05221552775879722,-0.34571475057533213,-0.5992845071832382,-0.13682059290799167,-0.7844519885264323
1782664725585640704,0.5662157535552979,1.0241456031799316,0.9113610982894897,-4.851534366607666,-0.13066047430038452,0.5529055595397949,-0.8229357600212097,0.15975898504257202,-0.9584994316101074,-0.03550845384597778,0.8805941154228598,-0.29352349277856576,0.04874500483767078,-0.3688113679516704,-0.5858472478051718,-0.15745924444466491,-0.8408298089983784
1782664725595559680,0.5761346817016602,2.2610361576080322,0.9686627388000488,-4.495763778686523,-0.14785800874233246,0.5322949886322021,-0.8335466980934143,0.14486727118492126,-0.45253729820251465,0.1169176697731018,0.8740737876491952,-0.2852702142646113,0.04298328831146305,-0.3908559731762862,-0.5613092172114496,-0.17555806991393783,-0.891715600060835
1782664725605479680,0.586054801940918,4.4240007400512695,0.4466037452220917,-3.769556999206543,-0.1610267609357834,0.49779775738716125,-0.852213442325592,0.09672623872756958,-0.25130727887153625,0.16453039646148682,0.8704595033171694,-0.26962011937024266,0.03461591308544093,-0.4103741588505268,-0.5210576893132511,-0.1867494974917255,-0.9310082298541926
1782664725615399680,0.5959746837615967,4.679355621337891,0.649929404258728,-3.474252700805664,-0.1760878711938858,0.45068979263305664,-0.8751410245895386,0.0567031055688858,-0.37966009974479675,0.12753665447235107,0.8694423548424417,-0.24899258697018561,0.020789152933523805,-0.42619304257090546,-0.4675379026420492,-0.19855957885904485,-0.9589683152675402
1782664725625319680,0.6058948040008545,3.966684103012085,0.43649983406066895,-4.795806407928467,-0.18486076593399048,0.4065755009651184,-0.8947194218635559,0.07611137628555298,-0.8888142108917236,0.2950642704963684,0.8652601077661757,-0.2291597847106681,0.011228334264025095,-0.4457405642367451,-0.41870262135397224,-0.2037461564904726,-0.9948237047015367
1782664725635238656,0.6158137321472168,3.5893423557281494,-1.5989570617675781,-3.6020538806915283,-0.2074233591556549,0.3625064194202423,-0.9086058735847473,0.3413497805595398,-1.6957736015319824,0.11960440874099731,0.8599559007387769,-0.2136996007908955,-0.005435475572167405,-0.46344220209280285,-0.3709558243625627,-0.22444132326379693,-1.0308682263371192
1782664725645158656,0.6257336139678955,1.870513916015625,-1.480573296546936,-2.6815340518951416,-0.23125077784061432,0.33096203207969666,-0.9148700833320618,0.2586555480957031,-2.0107715129852295,0.40624886751174927,0.9007669169129047,-0.2018396835710579,-0.04272834419011244,-0.3821702043946382,-0.3373228653302135,-0.24758307125064286,-0.8448763890615065
1782664725655078656,0.6356537342071533,0.7553038001060486,-0.8436610102653503,-2.5244245529174805,-0.2491585910320282,0.3124178349971771,-0.91668701171875,-0.2799704372882843,-1.631402850151062,0.5969085693359375,0.9159621226271818,-0.1942113482257763,-0.06275694157006403,-0.34548092686309434,-0.3177371974981433,-0.2653918770407987,-0.7641235744866817
1782664725664998656,0.645573616027832,0.4635356664657593,-0.45601481199264526,-2.47696590423584,-0.2618122100830078,0.30041632056236267,-0.9171719551086426,-0.4854564666748047,-1.206910490989685,0.4048581123352051,0.9225395216077613,-0.18933592726138337,-0.07460517539718643,-0.32788219300882654,-0.30512912110660295,-0.2780608178878195,-0.7260025878016687
1782664725674917632,0.6554927825927734,1.0045983791351318,-0.1653294563293457,-2.2745258808135986,-0.270781546831131,0.28658637404441833,-0.9189916253089905,-0.26113981008529663,-0.8187671303749084,0.0028997063636779785,0.9261379719848989,-0.183325040836231,-0.08304289877555161,-0.31900495260705125,-0.2906618447333112,-0.2865420170170281,-0.7056597153839659
1782664725684837632,0.6654126644134521,1.3949910402297974,-0.14847126603126526,-2.0192315578460693,-0.2773635983467102,0.2692948281764984,-0.9222525358200073,-0.059062182903289795,-0.5428391695022583,-0.0012551546096801758,0.9289128027421406,-0.17536168197122748,-0.09012220368866802,-0.3134443621405585,-0.27266073627880233,-0.292140895467783,-0.691226895168291
1782664725694757632,0.67533278465271,2.878063678741455,-0.46104755997657776,-1.6514713764190674,-0.2843089997768402,0.2441975325345993,-0.9271116256713867,0.10710868239402771,-0.5075032114982605,-0.006848335266113281,0.9309381388845084,-0.1638925616031949,-0.0978949045517501,-0.31130396780775804,-0.24669208143040075,-0.29755657456519025,-0.6825772516271452
1782664725704677632,0.6852526664733887,4.318790912628174,-0.7048893570899963,-1.4142779111862183,-0.2924807369709015,0.20534518361091614,-0.9339637756347656,0.16496306657791138,-0.47515106201171875,-0.10779953002929688,0.934146026959936,-0.14564053381239686,-0.10865975480945612,-0.30716926247854776,-0.2068163888368396,-0.3034866685646355,-0.667109236517407
1782664725714597632,0.6951727867126465,4.884186267852783,-0.7731339335441589,-1.5431549549102783,-0.3014790117740631,0.15673282742500305,-0.9405026435852051,0.10825696587562561,-0.32801273465156555,0.03205537796020508,0.9362452209704557,-0.1231756301839774,-0.12073291819433617,-0.30609863781749047,-0.15738172058661015,-0.31020263936392956,-0.6566337048554701
1782664725724516608,0.7050917148590088,5.092631816864014,-0.8911885023117065,-1.7532368898391724,-0.31060460209846497,0.10435537993907928,-0.9447934627532959,0.07471901178359985,-0.438660204410553,0.18325787782669067,0.9373922161708537,-0.09918567576686255,-0.13328712338488707,-0.30609251009213434,-0.10454572057398794,-0.31762347961099247,-0.6480004532264816
1782664725734436864,0.7150118350982666,5.520819664001465,-1.1698086261749268,-1.5860503911972046,-0.32101473212242126,0.04814355820417404,-0.9458497762680054,0.11044344305992126,-0.7321645617485046,0.21736466884613037,0.9371207337185374,-0.07396193711595382,-0.14698556334597973,-0.3077818363241993,-0.048162173651752994,-0.3271942424111297,-0.6426202431953882
1782664725744356608,0.7249317169189453,5.845761299133301,-1.359413743019104,-1.5906678438186646,-0.3325972855091095,-0.010766806080937386,-0.9430074691772461,0.147309809923172,-0.6423093676567078,0.3108663558959961,0.9359840829834525,-0.0476949184274494,-0.1619303995699712,-0.3089295631314241,0.010767014252057585,-0.3390767740791754,-0.635757576422002
1782664725754276864,0.7348518371582031,6.581538677215576,-1.341461420059204,-1.7927000522613525,-0.3437064588069916,-0.07540221512317657,-0.9360450506210327,0.08392557501792908,-0.3288031220436096,0.3967689275741577,0.9338777883289686,-0.01860431383743932,-0.17785202098262476,-0.30966904031998477,0.07547385163380234,-0.3519060966208964,-0.6269454316078984
1782664725764195584,0.7447707653045654,7.397889614105225,-1.3104299306869507,-2.0259649753570557,-0.3532595932483673,-0.14744462072849274,-0.9238331913948059,0.1384921669960022,0.023054972290992737,0.3938496708869934,0.9286092374580995,0.013218796472576698,-0.19470150064653238,-0.3155970058960778,0.14798414828737172,-0.3652290879215422,-0.6278489725582841
1782664725774115584,0.7546906471252441,8.050631523132324,-1.4381314516067505,-2.19502854347229,-0.36098065972328186,-0.22616663575172424,-0.904732882976532,0.26996198296546936,0.12432947754859924,0.393288791179657,0.9211220338890402,0.04828497485682531,-0.21284293490308118,-0.32233609877434444,0.22814053418152044,-0.37963660153380757,-0.629223099845741
1782664725784035584,0.764610767364502,7.898073196411133,-1.6426587104797363,-2.388813018798828,-0.3679520785808563,-0.30630770325660706,-0.8779447078704834,0.4044511020183563,-0.07787808775901794,0.5227811336517334,0.9113935763921394,0.08416571677169826,-0.23225802734481427,-0.32914152268466346,0.31131186723330434,-0.3968679974494292,-0.6300422929166152
1782664725793955584,0.7745306491851807,7.197935104370117,-1.5755093097686768,-2.6058592796325684,-0.3727358281612396,-0.3810949921607971,-0.8460701107978821,0.4700106382369995,-0.3562249541282654,0.6905983090400696,0.8997573929586586,0.11772835128204322,-0.25120703955606183,-0.33685575468223217,0.3909803670443757,-0.41496722228040617,-0.6331399858497612
1782664725803874816,0.7844498157501221,6.418999671936035,-1.212835669517517,-2.7996437549591064,-0.37244221568107605,-0.4478393793106079,-0.8128509521484375,0.44862934947013855,-0.6348785161972046,0.660736083984375,0.8870540597166342,0.1480962666494011,-0.26766026572608287,-0.34577523119720144,0.4643473682403801,-0.42964588571694473,-0.6402828962500453
1782664725813794560,0.7943696975708008,5.1939849853515625,-0.9646375775337219,-2.519160509109497,-0.3671349585056305,-0.5040748119354248,-0.7817419171333313,0.2566766142845154,-0.8236838579177856,0.6986578702926636,0.8745142706014511,0.1742402702332581,-0.2806587924595693,-0.35509956596255166,0.5283104173097191,-0.43906353435421847,-0.6508727882966819
1782664725823714816,0.8042898178100586,4.912337779998779,-0.4226316809654236,-2.229964256286621,-0.35866740345954895,-0.552378237247467,-0.7524864673614502,0.17218974232673645,-0.7679342031478882,0.8072655200958252,0.8628396425862052,0.1976771627614737,-0.2909991402745548,-0.3629750952184522,0.5852145784081783,-0.44478802466261413,-0.6603653828952939
1782664725833634560,0.8142096996307373,4.1940531730651855,0.019446128979325294,-2.0502512454986572,-0.3475634753704071,-0.5934838056564331,-0.7259315252304077,0.550093412399292,-0.6241523027420044,0.6318153142929077,0.8526381929795517,0.21893345640360692,-0.298500200309046,-0.368746421721021,0.6353805169059435,-0.44653017564696285,-0.6673289188962657
1782664725843553536,0.8241286277770996,4.026674270629883,-0.07729624211788177,-2.6558847427368164,-0.33213332295417786,-0.6311173439025879,-0.7009838819503784,-0.08041855692863464,-0.5157027244567871,0.5879467725753784,0.841725149537525,0.23872883450128504,-0.30416541393439495,-0.37681671665256167,0.6829928372040992,-0.44247712958027274,-0.6822888728299606
1782664725853473536,0.8340487480163574,4.413670539855957,0.14956353604793549,-2.50956654548645,-0.314581960439682,-0.66851806640625,-0.6738856434822083,-0.254967600107193,-0.5084075927734375,0.31341201066970825,0.8300042659300159,0.2591790292097575,-0.30965047232027176,-0.3847542203824613,0.7322143180746248,-0.43675146230077716,-0.6983896222819626
1782664725863393536,0.8439686298370361,4.8309760093688965,-0.05305386707186699,-2.775397300720215,-0.2949730455875397,-0.7074140310287476,-0.6423054933547974,0.10425347089767456,-0.20892208814620972,0.26964008808135986,0.8170133182915716,0.281522177499995,-0.3155828022629508,-0.39197204767823846,0.7858327467705987,-0.43051215219002953,-0.7139055295244385
1782664725873313792,0.853888750076294,5.102581024169922,0.11455829441547394,-2.7284297943115234,-0.27426832914352417,-0.7467643022537231,-0.6059042811393738,-0.11782151460647583,-0.28785789012908936,-0.025412917137145996,0.8023788846169215,0.30498439365602314,-0.32254052139136524,-0.39892382692858985,0.8431835940424085,-0.42506337115789006,-0.7298163001864337
1782664725883232512,0.8638076782226562,5.20518159866333,-0.09585452079772949,-2.70158314704895,-0.2528381645679474,-0.7845855951309204,-0.5661258101463318,-0.11106869578361511,-0.4665588140487671,0.06649202108383179,0.7868501254830697,0.3288250852854469,-0.32986537779053315,-0.4048825321776718,0.9020274438253846,-0.42003228865946146,-0.7447174800849777
1782664725893152768,0.8737277984619141,5.127378463745117,-0.30522316694259644,-2.9281342029571533,-0.23053215444087982,-0.8198015093803406,-0.5241949558258057,-0.2781500816345215,-0.43370795249938965,0.04056769609451294,0.7702449986453136,0.35213842435421966,-0.3374922830798523,-0.41087723701930445,0.9610643216712964,-0.4143252498480965,-0.7618204162213676
1782664725903072512,0.8836476802825928,5.236056804656982,-0.3315679728984833,-2.854084014892578,-0.2070906013250351,-0.8525779247283936,-0.4798169732093811,-0.2814042568206787,-0.40264052152633667,-0.02656117081642151,0.7525194071672354,0.37524285316029377,-0.3453756039964318,-0.41668093240810816,1.0208984884756886,-0.4074503996789834,-0.7810439082039038
1782664725912992768,0.8935678005218506,5.070104598999023,-0.3951866328716278,-2.749617338180542,-0.18349632620811462,-0.8819918036460876,-0.43407323956489563,-0.13077372312545776,-0.36228615045547485,0.015005886554718018,0.7344709373689056,0.3977966703826063,-0.35315886997228974,-0.42141319594211496,1.0800721329525083,-0.3999474185559602,-0.7999877914001182
1782664725922911744,0.9034867286682129,4.771390438079834,-0.4812810719013214,-2.706444263458252,-0.15996436774730682,-0.9072332382202148,-0.3890233039855957,-0.2487880438566208,-0.2949456572532654,0.1985326111316681,0.7163003789680448,0.4187951932026042,-0.36069229281795345,-0.4259405260613003,1.1366589924709531,-0.3901196578984867,-0.8219189168565038
1782664725932831488,0.9134066104888916,4.6316399574279785,-0.5622475743293762,-2.556438446044922,-0.1367664337158203,-0.928682267665863,-0.3447381854057312,-0.2553844153881073,-0.18896305561065674,0.2479669451713562,0.6978810932820358,0.4381756729991406,-0.3682838426148463,-0.4305011121715559,1.1908437994928727,-0.37768036092067564,-0.8479546148746564
1782664725942751744,0.9233267307281494,4.60270357131958,-0.7207481265068054,-2.3620078563690186,-0.11489506810903549,-0.946954607963562,-0.3001268804073334,-0.2151373028755188,-0.2078152894973755,0.24223506450653076,0.6793511977323349,0.45643636826489914,-0.37630093660978436,-0.43421815739902225,1.2436231836030074,-0.3656102940146569,-0.8740049176303666
1782664725952671488,0.9332466125488281,4.428382873535156,-0.9164544939994812,-2.272080659866333,-0.09412316977977753,-0.9621027112007141,-0.25592830777168274,-0.24256199598312378,-0.2090551257133484,0.19930297136306763,0.6605801104765232,0.47323269663105866,-0.3848202899575299,-0.43771921660168067,1.2946111320517217,-0.3524184378760217,-0.9028052328231289
1782664725962590720,0.9431657791137695,4.158054828643799,-1.094225525856018,-2.0831239223480225,-0.07444197684526443,-0.9741992354393005,-0.2130586951971054,-0.24835771322250366,-0.2150859236717224,0.1686861664056778,0.6418703200148504,0.48841536699321253,-0.3936001531190195,-0.44105751188675446,1.343145489770184,-0.3361371468711138,-0.9359962988451594
1782664725972510464,0.9530856609344482,3.9395177364349365,-1.1937295198440552,-1.7730739116668701,-0.05676933377981186,-0.9834010004997253,-0.1723359227180481,-0.19338327646255493,-0.27320605516433716,0.1918519288301468,0.623542390506259,0.5015389809216096,-0.40285318360973055,-0.4442553390392831,1.3883400852283057,-0.3182162290765646,-0.972531981342476
1782664725982430720,0.963005781173706,3.626981258392334,-1.3296177387237549,-1.5790449380874634,-0.041393011808395386,-0.9901270866394043,-0.13392069935798645,-0.1625864952802658,-0.34577977657318115,0.20395858585834503,0.6061042420294954,0.5129348579782528,-0.41223473890501733,-0.4467637836357286,1.4301606369901367,-0.29977157337532984,-1.0095951212854704
1782664725992350464,0.9729256629943848,3.37386155128479,-1.4047164916992188,-1.3417551517486572,-0.027445679530501366,-0.9947686791419983,-0.09839688241481781,-0.2077227532863617,-0.25994622707366943,0.1993338018655777,0.5906555661371531,0.5237466369761886,-0.42010833998902547,-0.4475761245177051,1.468464421711237,-0.27201466497805205,-1.051107425012976
1782664726002270720,0.9828457832336426,3.1858508586883545,-1.5081990957260132,-1.206568956375122,-0.014903001487255096,-0.9977728128433228,-0.06501971930265427,-0.1864366978406906,-0.267486035823822,0.10618793964385986,0.5757469755424905,0.5331193853747954,-0.4281049636936673,-0.4483585551027546,1.5040425424873136,-0.22531548042735866,-1.1124232930600122
1782664726012189696,0.9927647113800049,3.0113511085510254,-1.5320473909378052,-0.9903860688209534,-0.0036862476263195276,-0.999435544013977,-0.03339359164237976,-0.16582363843917847,-0.26730334758758545,-0.005470573902130127,0.5613404218409074,0.5412926998691737,-0.4362400905200833,-0.44899196442830575,1.5371952037940149,-0.10994274294954734,-1.2429930181087898
1782664726022109696,1.0026848316192627,2.8981242179870605,-1.5921448469161987,-0.8820001482963562,0.006531416438519955,-0.9999724626541138,-0.00351491617038846,-0.15208502113819122,-0.24331361055374146,-0.06897956132888794,0.5474153859329702,0.5484089113608558,-0.444398703756724,-0.4495484867373112,1.5633775884746066,1.077092437292368,-2.4456662388093178
1782664726032029696,1.0126047134399414,2.654531717300415,-1.5371404886245728,-0.5700219869613647,0.015000387094914913,-0.9995822906494141,0.02470158413052559,-0.146576926112175,-0.25270646810531616,-0.10653448104858398,0.534249314776904,0.55446805754631,-0.4526764466143857,-0.44969637374864363,1.541891087874872,2.5958489728877736,2.303172642442848
1782664726041949696,1.0225248336791992,2.539045572280884,-1.6160041093826294,-0.4228581488132477,0.021582094952464104,-0.9984763860702515,0.05078289657831192,-0.10631416738033295,-0.2775397300720215,-0.01983809843659401,0.5219884519490853,0.559299304642806,-0.4610593621865337,-0.4495959636507219,1.5155881001386968,2.7397326183472424,2.143560009259985
1782664726051868672,1.0324437618255615,2.546250104904175,-1.5879253149032593,-0.12611088156700134,0.026355350390076637,-0.9967707991600037,0.07585003226995468,-0.10736426711082458,-0.27007484436035156,0.04931782931089401,0.510278540270461,0.5631845686782728,-0.4698384368686928,-0.4490999236746743,1.4904106570410627,2.8071765644039477,2.060015767515303
1782664726061788672,1.0423636436462402,2.899534225463867,-1.7518486976623535,0.054945725947618484,0.029228659346699715,-0.9942668080329895,0.10285461694002151,-0.062401268631219864,-0.29583317041397095,0.07289610803127289,0.49821702002937235,0.5667349789473213,-0.4798320231043451,-0.4476074699673827,1.463664014598909,2.86471714441925,1.985490388494201
1782664726071708672,1.052283763885498,3.104163885116577,-1.8108896017074585,0.3709960877895355,0.030590135604143143,-0.990692675113678,0.13263589143753052,0.010272916406393051,-0.2729639410972595,0.05672562122344971,0.48536542697473667,0.5700757397393454,-0.4912551245082831,-0.4450870349654538,1.4342548281861318,2.914923717413068,1.9169134718680365
1782664726081628672,1.0622036457061768,3.1237900257110596,-1.7930883169174194,0.7895174622535706,0.028522981330752373,-0.9861035346984863,0.16366486251354218,0.004085030406713486,-0.3762163519859314,0.11288546025753021,0.47281861824417587,0.5725347803607908,-0.5040201972004162,-0.44114634109937934,1.4038905694851773,2.969048835714522,1.843919102094687
1782664726091547648,1.0721228122711182,2.9400668144226074,-1.7522215843200684,0.7750277519226074,0.024943280965089798,-0.9808353185653687,0.19323591887950897,0.025395488366484642,-0.4529874324798584,0.134736567735672,0.4609713486333121,0.5739407437132252,-0.5169235752003648,-0.43690677321800075,1.3747033424340362,3.013220486109596,1.7806644906959324
1782664726101467648,1.0820426940917969,2.884442090988159,-1.7964849472045898,1.0503077507019043,0.02157168835401535,-0.9748674631118774,0.22173914313316345,0.15886351466178894,-0.5073102712631226,0.04995882511138916,0.44937425930027847,0.5748887834772725,-0.5295020875496427,-0.4326583847952453,1.3461254259742739,3.044613751256309,1.7302822630380337
1782664726111387648,1.0919628143310547,3.158773899078369,-1.7649662494659424,1.471814513206482,0.01478107925504446,-0.9678410291671753,0.2511273920536041,0.23630227148532867,-0.5228204131126404,-0.012907207012176514,0.4381717812213003,0.5747228930655471,-0.5433758284512887,-0.4271319222270156,1.316501897276766,3.082801594355006,1.672322020734917
1782664726121307648,1.1018826961517334,3.7161145210266113,-1.840862512588501,1.5184316635131836,0.006754635833203793,-0.9587067365646362,0.28431662917137146,0.21359755098819733,-0.5865813493728638,-0.05912744998931885,0.4260299862479383,0.574659427911794,-0.5585023315210194,-0.41992882553867017,1.282419463617589,3.1178396785848044,1.6170417199912055
1782664726131226624,1.1118016242980957,4.083828449249268,-1.837477684020996,1.7676305770874023,-0.0013303947634994984,-0.9466705322265625,0.3222005069255829,0.3472929298877716,-0.61456298828125,-0.06675302982330322,0.41224215186016056,0.5749644906386765,-0.5749052822480395,-0.41104276371680104,1.242740372546578,-3.1374635872344565,1.567942963124995
1782664726141146624,1.1217217445373535,4.437015056610107,-1.8627551794052124,1.8552278280258179,-0.00957638118416071,-0.9318607449531555,0.3626895546913147,0.36493831872940063,-0.5198909044265747,-0.09392133355140686,0.3974989546488086,0.5751912783665861,-0.5920302073011176,-0.40081135860747974,1.1995080938355303,-3.1151949887819166,1.5238944988553786
1782664726151066624,1.1316416263580322,4.5996904373168945,-1.8005203008651733,2.171760082244873,-0.01837393082678318,-0.9139028191566467,0.40551742911338806,0.5517449378967285,-0.5362926721572876,-0.1966855823993683,0.3818687964075077,0.5750228791688032,-0.6100060724526651,-0.389124202616651,1.152796839493462,-3.0963137813011623,1.482336232566263
1782664726160986624,1.14156174659729,4.578522205352783,-1.757847785949707,2.359337091445923,-0.02746628224849701,-0.8935562372207642,0.44811031222343445,0.6701054573059082,-0.5058730840682983,-0.19887328147888184,0.36623322769908373,0.5742207904487052,-0.627953529349593,-0.3765873864822981,1.105204953139625,-3.080375664264465,1.4437038502061348
1782664726170905600,1.1514806747436523,4.035857677459717,-1.579927921295166,2.6105384826660156,-0.03695452958345413,-0.8720312714576721,0.48805320262908936,0.7366005182266235,-0.4199303984642029,-0.26811301708221436,0.351282823077116,0.5720793087608331,-0.6455632131479733,-0.36410686547581855,1.0593371977205646,-3.0660186234568076,1.4059836278423348
1782664726180825600,1.1614007949829102,3.011618137359619,-1.4660170078277588,2.6442677974700928,-0.045794520527124405,-0.8528413772583008,0.5201581120491028,0.7213468551635742,-0.3308286666870117,-0.13299691677093506,0.3388085631195988,0.5684179734636199,-0.6610446837968129,-0.3537367732198361,1.0214028372029933,-3.053779455341782,1.371180430619839
1782664726190745600,1.1713206768035889,1.8434947729110718,-1.2988970279693604,2.8145699501037598,-0.05421876162290573,-0.8382200002670288,0.5426302552223206,0.6243939399719238,-0.2880159616470337,-0.05830097198486328,0.3293959291548582,0.5625863498702616,-0.6743973152718372,-0.34667451243271397,0.9940109726966916,-3.0420047680453104,1.3364562679966574
1782664726200665600,1.1812407970428467,0.7997595071792603,-1.081695318222046,2.7197086811065674,-0.060008879750967026,-0.8292127251625061,0.5557026267051697,0.6791342496871948,-0.23861271142959595,0.016364634037017822,0.322499783520735,0.5554717811105607,-0.6850564969930926,-0.34371887007101853,0.9776977195501511,-3.0340221009698514,1.305375322133359
1782664726210585600,1.1911606788635254,0.4561901390552521,-1.0436604022979736,3.1140124797821045,-0.06086719036102295,-0.8232725858688354,0.5643739104270935,0.7333372831344604,-0.23298674821853638,-0.00417780876159668,0.3155237077224201,0.5482464187889541,-0.6939832970443256,-0.34388658337998457,0.9671523142887207,-3.0341588536562405,1.2807669220021312
1782664726220504832,1.2010798454284668,0.08758760243654251,-0.9863132834434509,3.014073610305786,-0.05673962086439133,-0.8190038204193115,0.5709758400917053,0.7237165570259094,-0.3234827518463135,-0.009040474891662598,0.3075164407076216,0.541243129234975,-0.7018146493844413,-0.346331846633149,0.95967276451122,-3.042544766373275,1.2622943164117342
1782664726230424576,1.2109997272491455,-0.1618560403585434,-0.9534178972244263,3.2591280937194824,-0.06506509333848953,-0.8166926503181458,0.5733935236930847,0.8369156718254089,-0.4597204923629761,-0.04267752170562744,0.3049846685874499,0.5309632693139623,-0.7104750382425453,-0.3468252129862789,0.9556562603628717,-3.0286022597937516,1.225029574696552
1782664726240344832,1.2209198474884033,0.3924689292907715,-0.8742562532424927,3.113999128341675,-0.08150853216648102,-0.814086377620697,0.574995756149292,1.0976675748825073,-0.4174964427947998,-0.11178457736968994,0.30556026941837916,0.5190980253996336,-0.7197465646388301,-0.3451596398911789,0.95115429240455,-3.0007758478793094,1.1770476323711188
1782664726250264576,1.230839729309082,1.2469913959503174,-0.8781015872955322,3.286526679992676,-0.09890885651111603,-0.8067682981491089,0.5825309753417969,1.153062343597412,-0.26804572343826294,-0.1858024001121521,0.30465286777884154,0.5080818892358456,-0.7301494950823589,-0.3404721001436384,0.9386620539261467,-2.9734050634651625,1.1304426801077958
1782664726260183552,1.2407586574554443,2.3000175952911377,-0.8714907765388489,3.350022792816162,-0.11773381382226944,-0.7927822470664978,0.598025918006897,1.1264923810958862,-0.3529849052429199,0.008953392505645752,0.301513538236977,0.49747764911700626,-0.7426499525508702,-0.3317779368707163,0.9153602795511897,-2.947207789241299,1.0844559966459972
1782664726270103808,1.2506787776947021,3.2350525856018066,-0.7997428178787231,3.414531946182251,-0.13641753792762756,-0.7722094058990479,0.6205505132675171,1.0017129182815552,-0.44013190269470215,0.09377443790435791,0.29627033561723587,0.48814249270610516,-0.7563016377434778,-0.3192939995626965,0.8823112425919462,-2.925201552736737,1.0438276907189152
1782664726280023552,1.2605986595153809,3.91806960105896,-0.7135766744613647,3.5639121532440186,-0.15622393786907196,-0.7447674870491028,0.6487798690795898,1.0915420055389404,-0.37823355197906494,0.12679380178451538,0.2895697587690812,0.4792980344585244,-0.7711441612725287,-0.30291812111654515,0.8401863868340694,-2.9052946581382124,1.0062714057558995
1782664726289943808,1.2705187797546387,4.332959175109863,-0.6089719533920288,3.697266101837158,-0.1765061765909195,-0.7117762565612793,0.6798681020736694,1.0752335786819458,-0.40356510877609253,0.1738765835762024,0.28199475223510495,0.470505341977892,-0.7864850815696263,-0.28380460099674315,0.7920237791106713,-2.8875822087673657,0.9715708879147693
1782664726299862528,1.280437707901001,4.36381196975708,-0.4782690107822418,3.8116235733032227,-0.1972806602716446,-0.6750230193138123,0.710932195186615,1.023010015487671,-0.48354649543762207,0.10239189863204956,0.2744082520706942,0.46121559262560713,-0.8017145932325646,-0.2631237443056275,0.7409959034057039,-2.8709076704689127,0.9384072030268414
1782664726309782784,1.2903578281402588,3.929474115371704,-0.2579196095466614,4.065969944000244,-0.2189403623342514,-0.6371488571166992,0.7389899492263794,0.9795147180557251,-0.44509589672088623,-0.020743608474731445,0.2679254258007959,0.4507641152274713,-0.816276112227012,-0.24232394898296802,0.6907933332661126,-2.853561611974391,0.9048247762828274
1782664726319702528,1.3002777099609375,3.1000783443450928,-0.07852566987276077,4.1724042892456055,-0.24203450977802277,-0.6018797159194946,0.7610259652137756,0.8552699089050293,-0.4553561210632324,-0.12239974737167358,0.2638909244096526,0.43850733804796754,-0.8295928482086289,-0.22326825072542122,0.6458528119798543,-2.8336712612862907,0.8687292730487985
1782664726329622784,1.3101978302001953,2.387253761291504,0.03763209283351898,4.235448360443115,-0.26517820358276367,-0.5708326101303101,0.7770657539367676,0.7397112250328064,-0.510206937789917,-0.26205092668533325,0.262026249736489,0.4248177235214886,-0.84146467048562,-0.20690459111730564,0.6075195415547452,-2.8127289233173562,0.8311170078363176
1782664726339541760,1.3201167583465576,2.000466823577881,0.12363211065530777,4.387390613555908,-0.28849542140960693,-0.5425166487693787,0.7889528870582581,0.7637761235237122,-0.5239507555961609,-0.44396668672561646,0.2617494334656653,0.409869992175594,-0.8523397425906541,-0.19238229767053164,0.5734300518817634,-2.791027785369891,0.7921269587568939
1782664726349461504,1.3300366401672363,1.8282074928283691,0.058313824236392975,4.5165557861328125,-0.31159597635269165,-0.5148807168006897,0.7986278533935547,0.7164573073387146,-0.49461042881011963,-0.5520302653312683,0.2621431548586843,0.3936040194318413,-0.862780270591856,-0.17879379896809527,0.5408685066498667,-2.769594090885726,0.7517638801940849
1782664726359381760,1.3399567604064941,1.95126473903656,-0.1443229466676712,4.573612213134766,-0.3326270282268524,-0.4862975776195526,0.8080063462257385,0.5268256664276123,-0.39517220854759216,-0.5732039213180542,0.26191110580439425,0.3766145695042346,-0.8730204092884133,-0.16552792600400215,0.5078475655566929,-2.7510718218275736,0.7119774288164138
1782664726369301504,1.3498766422271729,2.123041868209839,-0.5557416677474976,4.467538356781006,-0.34955957531929016,-0.45505058765411377,0.818985104560852,0.3469961881637573,-0.2629058361053467,-0.6210635304450989,0.25969078241758187,0.359533219224337,-0.883305398080802,-0.15188159015681027,0.47242901832949813,-2.7381810934722193,0.6747428835026985
1782664726379220736,1.3597958087921143,1.8851454257965088,-0.7915546298027039,4.303454875946045,-0.3614790439605713,-0.42434975504875183,0.8302168250083923,0.26099997758865356,-0.18175983428955078,-0.5985274910926819,0.2558393944812581,0.34260329299687503,-0.8931581069135035,-0.13941927512603774,0.4382436515406483,-2.7309435197098733,0.6398629338392042
1782664726389140480,1.369715690612793,1.4034501314163208,-0.929766833782196,4.21209716796875,-0.36962196230888367,-0.39675194025039673,0.8402188420295715,0.18198463320732117,-0.08747047185897827,-0.6509182453155518,0.25141857270266554,0.32553682670892015,-0.9022944010219627,-0.1291484993965169,0.4079756560052633,-2.727159894262906,0.605580280315412
1782664726399060736,1.3796358108520508,0.8074880242347717,-1.0724513530731201,4.232773303985596,-0.37462785840034485,-0.3742583096027374,0.8482834100723267,0.09916093945503235,0.04556873440742493,-0.5967575311660767,0.2469084512059546,0.30772352497142286,-0.9107403206370294,-0.12204314426000752,0.3835968201539599,-2.725720516232928,0.5697841314180091
1782664726408980480,1.3895556926727295,0.4591018259525299,-1.2597112655639648,4.034807205200195,-0.37486526370048523,-0.35826045274734497,0.8550587296485901,-0.16187790036201477,0.004332870244979858,-0.5390492081642151,0.24157925817898418,0.2899077899127523,-0.9184132117169828,-0.11878588339503066,0.36640401607837036,-2.728419673768036,0.5339037365522901
1782664726418899456,1.3994746208190918,0.057275235652923584,-1.3898950815200806,3.8579375743865967,-0.3621290922164917,-0.3578082323074341,0.8607180714607239,-0.18697363138198853,0.12073248624801636,-0.5203556418418884,0.23270394928892355,0.2742176956884396,-0.9247506128895017,-0.12445795663406994,0.3659196655592171,-2.7433451029889104,0.5019010143752057
1782664726428819712,1.4093947410583496,-0.26847249269485474,-1.3596197366714478,3.621615171432495,-0.3574705719947815,-0.35185515880584717,0.8651084303855896,-0.2651795446872711,0.26307958364486694,-0.5368461608886719,0.22690054498882561,0.25704481969613496,-0.9308502385060239,-0.12634038336315537,0.3595522725948134,-2.749751334787871,0.46674447546008296
1782664726438739456,1.4193146228790283,-0.14655151963233948,-1.4325393438339233,3.3130455017089844,-0.3557435870170593,-0.3439060151576996,0.869008481502533,-0.37556448578834534,0.5563845634460449,-0.5172016024589539,0.2224202641901082,0.2401518465115261,-0.9363927229220287,-0.12659043967513547,0.3510734797757425,-2.753037268435294,0.43234089382524055
1782664726448659712,1.4292347431182861,0.3770586848258972,-1.511613368988037,2.6635587215423584,-0.35203877091407776,-0.33375877141952515,0.8744564652442932,-0.5041776895523071,0.8347200155258179,-0.5685939788818359,0.2169700206639252,0.22550815143658332,-0.9414745395205208,-0.12528313512260864,0.34028820028704154,-2.7588640418743013,0.4036498043138956
1782664726458579456,1.4391546249389648,0.5346378087997437,-1.2442610263824463,2.171131134033203,-0.347120463848114,-0.3219973146915436,0.8808092474937439,-0.4716966450214386,0.732275664806366,-0.5580859184265137,0.21119939565034482,0.2139949995250959,-0.9458386506313134,-0.12243424379073088,0.3278384012780093,-2.766189141554423,0.38219379475659365
1782664726468498688,1.4490737915039062,0.4716945290565491,-1.1635595560073853,1.8911159038543701,-0.342794805765152,-0.31132665276527405,0.8863223791122437,-0.49913933873176575,0.5262772440910339,-0.4394840598106384,0.20628865939781107,0.20456201409835914,-0.9493764152908573,-0.11951477596094666,0.31658875960231586,-2.7725511687029396,0.36488019720782794
1782664726478418688,1.458993673324585,0.018992960453033447,-0.7239314317703247,1.8835667371749878,-0.33946898579597473,-0.30270713567733765,0.8905779719352722,-0.5540856719017029,0.35350367426872253,-0.3162829875946045,0.20230134561761856,0.19539886915273466,-0.9524223220327137,-0.1174102166556328,0.30753176933696597,-2.777416442463998,0.3476439430103405
1782664726488338688,1.4689137935638428,-0.4884353578090668,-0.7203705310821533,1.6398576498031616,-0.3382906913757324,-0.29992347955703735,0.8919669389724731,-0.5394100546836853,0.39757978916168213,-0.09013301134109497,0.20025659611949068,0.18659174272978088,-0.9545506769978453,-0.1179565542357104,0.30461243181210823,-2.779089178911318,0.3298385064046552
1782664726498258688,1.4788336753845215,-1.2900195121765137,-0.6985775232315063,1.2447830438613892,-0.3361242413520813,-0.3024497926235199,0.8919331431388855,-0.7999078631401062,0.7619377374649048,-0.016109108924865723,0.19840216491039667,0.17854995126413015,-0.9560787061047057,-0.12111994960307296,0.30726178620825423,-2.781201800233668,0.3128472766203237
1782664726508177664,1.488752841949463,-1.7488081455230713,-0.5386075973510742,0.8739417195320129,-0.3340117633342743,-0.3136802315711975,0.8888425230979919,-0.9681885242462158,1.0071463584899902,0.18884003162384033,0.19763260666019175,0.17149235325764853,-0.9565624054655744,-0.12853070296306462,0.31906642204170654,-2.782135825421994,0.29633953412752867
1782664726518097664,1.4986727237701416,-2.292273759841919,-0.32734209299087524,0.5910676717758179,-0.3313932418823242,-0.3292694091796875,0.8841724395751953,-0.9450350999832153,0.850204348564148,-0.01376497745513916,0.1972861643643977,0.16654309758396088,-0.9562162984377455,-0.13781196782773336,0.33552972064374925,-2.782991979650422,0.283506817241558
1782664726528017664,1.5085928440093994,-1.6855281591415405,-0.43295586109161377,1.203788161277771,-0.33069100975990295,-0.3438592851161957,0.8788654208183289,-0.6582006216049194,0.6854730248451233,0.20662963390350342,0.19738205861314698,0.15900962594353873,-0.9561112086465802,-0.14699544132710476,0.3510237099038329,-2.7817086953334775,0.26510470990561497
1782664726537937664,1.5185127258300781,-1.2358558177947998,-0.43549734354019165,1.647709846496582,-0.33082735538482666,-0.3534514307975769,0.8750003576278687,-0.5919936895370483,0.24430528283119202,0.2868192195892334,0.19721212237855643,0.15099550729049302,-0.9563997793006574,-0.1536465926808629,0.36125811883528,-2.780117214694738,0.24645718940669745
1782664726547856640,1.5284316539764404,-2.2649757862091064,-0.9845474362373352,1.0748090744018555,-0.33010753989219666,-0.36485037207603455,0.8705822825431824,-0.838349461555481,0.12066394090652466,0.39266252517700195,0.1965416064930396,0.14215859158665642,-0.9565992248048104,-0.1614940831756133,0.37347210641313244,-2.7791622071499886,0.22584869406323074
1782664726557776640,1.5383517742156982,-2.3278441429138184,-1.0464328527450562,1.8425790071487427,-0.32928338646888733,-0.37943851947784424,0.8646384477615356,-0.8746504187583923,-0.010179489850997925,0.25625723600387573,0.19550633693777095,0.13051217255420716,-0.9567056929660299,-0.1716340840869249,0.3891893624455282,-2.7777174141291803,0.19867695725830034
1782664726567696640,1.548271656036377,-1.4190987348556519,-1.0665974617004395,1.6433119773864746,-0.32688865065574646,-0.3911893367767334,0.8602991700172424,-0.8050693273544312,-0.07727071642875671,-0.03531748056411743,0.19341063272221234,0.1201241046703614,-0.9569324813899616,-0.18011865216049455,0.40192355872899027,-2.7784710640777757,0.17499348076977894
1782664726577616640,1.5581917762756348,-0.8998448848724365,-1.443601131439209,1.1114139556884766,-0.32196810841560364,-0.3956547975540161,0.8601130247116089,-0.45561981201171875,0.6853275895118713,-0.4932152032852173,0.18957869904411753,0.11178012956814906,-0.9578944098288941,-0.18440056367307872,0.4067807227128076,-2.783407453434831,0.15769809916815772
1782664726587536384,1.5681114196777344,-0.5812674760818481,-1.0146894454956055,0.5546479225158691,-0.31579914689064026,-0.4003340005874634,0.8602343797683716,-0.4697079658508301,0.29556724429130554,-0.2144520878791809,0.18548560999423186,0.10570350987520935,-0.9586156431050334,-0.18835549435376328,0.41188130627059816,-2.7897586561577383,0.14541377965006472
1782664726597456384,1.5780315399169922,-2.0149223804473877,-0.4185284674167633,1.0090761184692383,-0.3111185133457184,-0.4093984067440033,0.8576703071594238,-0.4694753885269165,-0.3835704028606415,-0.21265065670013428,0.18249422352872272,0.09959905167956958,-0.9586006352505161,-0.1945783760118672,0.4217945867648933,-2.7936061484383816,0.13183530155853762
1782664726607376384,1.587951421737671,-2.155696392059326,-0.6870608329772949,0.29586756229400635,-0.3102462887763977,-0.4262855648994446,0.8497223854064941,0.018315106630325317,-0.1490929126739502,0.09414064884185791,0.1821461174446969,0.09378436071453626,-0.9571132056302214,-0.2048454907630304,0.4403825680957367,-2.791516413404849,0.11622678359002661
1782664726617296384,1.5978715419769287,0.05439489334821701,-0.3591689467430115,-0.1479485034942627,-0.3055981397628784,-0.43582335114479065,0.8465619683265686,0.4702100157737732,0.026094436645507812,-0.1037948727607727,0.17979763524880976,0.09106322413154011,-0.9565502942585126,-0.210693282559661,0.4509528722549591,-2.7951632915635267,0.10960294903741395
1782664726627215360,1.607790470123291,0.8349469304084778,-0.8162190318107605,-0.7625671625137329,-0.29682374000549316,-0.4328247010707855,0.8512099385261536,0.48392704129219055,-0.5070861577987671,-0.26817166805267334,0.17547630950636842,0.09388853660768799,-0.9574914686639008,-0.20881349133888383,0.44762383890669205,-2.806069261358714,0.11842848644721443
1782664726637135360,1.6177103519439697,3.7647030353546143,-0.48716017603874207,0.5247188806533813,-0.2923904359340668,-0.41252800822257996,0.8627449870109558,1.096238613128662,-0.6207362413406372,-0.057096004486083984,0.1717948304478822,0.09502915203860167,-0.9603863549688153,-0.1977729886127594,0.42522745722140237,-2.8148341005333886,0.12611181632304147
1782664726647055360,1.6276304721832275,5.661703586578369,-1.0683213472366333,0.7568730115890503,-0.28787627816200256,-0.36914196610450745,0.8836638331413269,1.4816476106643677,-0.5336748361587524,-0.40383589267730713,0.16624026872677297,0.09510513130038986,-0.9658089535807197,-0.17473505539628684,0.378085612867991,-2.826659246144741,0.13557137111609152
1782664726656975360,1.6375503540039062,6.612363338470459,-1.2373543977737427,-0.49970465898513794,-0.27632632851600647,-0.31388673186302185,0.9083607792854309,0.8286181688308716,0.10818296670913696,-0.2574511766433716,0.1568847857609364,0.09825244866132075,-0.9718677085215149,-0.145625839013203,0.3192838969534492,-2.8462841166273694,0.1536207419999288
1782664726666894336,1.6474695205688477,6.199699878692627,-0.3858407735824585,-0.9891244173049927,-0.2670961320400238,-0.2591314911842346,0.9281759262084961,0.03862631320953369,0.6685858368873596,0.1101541519165039,0.1495797353651406,0.1069761645761566,-0.9760348679727118,-0.11635269190316645,0.2621228803201153,-2.861398478351375,0.18116049926481864
1782664726676814336,1.6573894023895264,5.475013256072998,-0.671001672744751,-1.7134275436401367,-0.2570176124572754,-0.20715853571891785,0.9439423680305481,0.15809491276741028,0.36577367782592773,0.20951521396636963,0.14198357790562022,0.1179695127677679,-0.9788025224333693,-0.08870996040319294,0.2086695893802089,-2.8757559741980794,0.2118911750398137
1782664726686734336,1.6673095226287842,3.9214205741882324,-0.3805285394191742,-0.6818893551826477,-0.2484232485294342,-0.16765382885932922,0.9540325999259949,0.19648230075836182,0.7509210109710693,0.5919421911239624,0.13558878062314236,0.12800731613740918,-0.9801175575329141,-0.06781896469004152,0.1684493282975622,-2.886856680686468,0.23811579287663256
1782664726696654336,1.677229404449463,3.2768800258636475,-0.16018545627593994,-0.5931905508041382,-0.24726346135139465,-0.13270911574363708,0.9598172307014465,0.7889199256896973,0.5479923486709595,0.7684084177017212,0.13276858332251745,0.13304250645046464,-0.9809221787729193,-0.049637669909829235,0.1331017718367817,-2.8894597425414323,0.2527211927715697
1782664726706574336,1.6871495246887207,2.2794718742370605,-1.182051181793213,-1.8480116128921509,-0.24030250310897827,-0.10900875180959702,0.9645578265190125,0.5471414923667908,0.4902343451976776,0.669826328754425,0.12779888723781996,0.1404202729514449,-0.9811019582719617,-0.03726302072490645,0.1092258073066186,-2.897430811959353,0.2709050315716057
1782664726716493312,1.697068452835083,1.1069490909576416,0.2875504493713379,-1.151315689086914,-0.23383940756320953,-0.09619305282831192,0.9675050377845764,0.28605496883392334,-0.2951948642730713,0.4018797278404236,0.12384737213425785,0.14962074034426895,-0.9804928070667226,-0.03015462179966748,0.09634201905953173,-2.9044472893780795,0.2913724771532767
1782664726726413312,1.7069883346557617,-0.19231688976287842,-0.27160021662712097,-0.7008313536643982,-0.2330886274576187,-0.09461331367492676,0.9678420424461365,0.43897545337677,-0.5153720378875732,0.2588731050491333,0.12349075923432852,0.15462496511235044,-0.9798021000676224,-0.028793471337926566,0.09475504573065777,-2.90525987489674,0.3017856168519974
1782664726736333312,1.7169084548950195,-2.4398136138916016,-0.3392745554447174,-1.6144640445709229,-0.22911080718040466,-0.11010636389255524,0.9671528339385986,0.716476559638977,0.28044024109840393,-0.06509912014007568,0.12288042550659886,0.15811252192142236,-0.9790693714450948,-0.036385826929032056,0.1103300653764688,-2.9089884193935402,0.30731793521329526
1782664726746253312,1.7268283367156982,-0.6435670852661133,-1.016732931137085,-1.0803745985031128,-0.22209680080413818,-0.13067252933979034,0.9662287831306458,0.8947652578353882,0.9019127488136292,-0.4584161043167114,0.1213562412940956,0.16403563000387164,-0.9778582262485019,-0.0464581826676571,0.13104729302018742,-2.9156577745607564,0.3175165353841493
1782664726756172544,1.7367475032806396,0.08528123795986176,-1.2475197315216064,-1.0402352809906006,-0.2094677984714508,-0.13504908978939056,0.9684447646141052,1.333567500114441,0.037392809987068176,-1.3043057918548584,0.11558863413832557,0.1683443348142542,-0.9776924677124333,-0.04916254645986177,0.13546300232695604,-2.928580969826647,0.3265224246264893
1782664726766092288,1.7466673851013184,1.186368703842163,-1.855089783668518,-1.6657702922821045,-0.1900191754102707,-0.13060910999774933,0.9730541110038757,0.5619215965270996,0.25534969568252563,-0.9869089126586914,0.10576451140341854,0.17541731956317907,-0.9776276539376689,-0.04782150340212537,0.1309833201180974,-2.948738487467793,0.34239711899921776
1782664726776012544,1.7565875053405762,1.5015727281570435,-2.227376937866211,-1.756226658821106,-0.16954466700553894,-0.1200338825583458,0.9781851768493652,0.49336668848991394,0.7189413905143738,-0.4151359796524048,0.09490586954349076,0.18341737496350874,-0.9774715608061826,-0.04359160501924561,0.12032400837571416,-2.9699719643383142,0.360612600694509
1782664726785932288,1.7665073871612549,1.055184245109558,-2.0534348487854004,-1.537747859954834,-0.14764045178890228,-0.11100848019123077,0.9827916026115417,0.4840357303619385,0.7017524838447571,-0.07814383506774902,0.08351101915817184,0.19232183976488423,-0.9769381345498401,-0.040374353448748956,0.11123774112745298,-2.992482079333246,0.3804352756801093
1782664726795851520,1.7764265537261963,0.8751741647720337,-1.7687366008758545,-1.2699987888336182,-0.12816768884658813,-0.10162004083395004,0.9865325093269348,0.6828399896621704,-0.22488752007484436,-0.09007865190505981,0.0731931805043453,0.19919971436573897,-0.9765171371433861,-0.03710120225914927,0.10179575751921126,-3.0123989213398814,0.39586772157606687
1782664726805771264,1.786346435546875,0.4723910093307495,-1.5202628374099731,-0.5125414133071899,-0.11234498023986816,-0.09734515100717545,0.988889753818512,0.5606024265289307,-0.7109434604644775,-0.09998881816864014,0.06509339151365777,0.20321411445093102,-0.9762934505877594,-0.03630535499811114,0.0974995534717117,-3.0284704777021445,0.4049117761356971
1782664726815691520,1.7962665557861328,0.24915041029453278,-1.4399421215057373,-0.9002894163131714,-0.09576807916164398,-0.09436173737049103,0.9909210801124573,0.4677620828151703,-0.6817460656166077,-0.335906982421875,0.05675392295721069,0.20684220937494854,-0.9760516656770428,-0.036311358907766204,0.09450233739766709,-3.045246366673667,0.4130962031244982
1782664726825611264,1.8061864376068115,0.409718781709671,-1.0701112747192383,-0.6522796154022217,-0.08238991349935532,-0.09212876111268997,0.9923326969146729,0.1861496865749359,-0.07391738146543503,-0.15306878089904785,0.05008508941443892,0.21064651469531206,-0.975599508558318,-0.036402365376124915,0.09225958590139685,-3.0587561440063946,0.42147490652434
1782664726835530240,1.8161053657531738,0.5374061465263367,-1.1119247674942017,-0.3826220631599426,-0.0717921108007431,-0.08774123340845108,0.9935531616210938,0.3462366759777069,0.3394196629524231,-0.03490424156188965,0.04449676732066812,0.2128844410540461,-0.9754264755815609,-0.03526452265452166,0.08785420846146086,-3.0694600722991967,0.42658436571533187
1782664726845450496,1.8260254859924316,0.4818480908870697,-0.9673132300376892,-1.096595287322998,-0.059886328876018524,-0.08273313194513321,0.9947707056999207,0.3292802572250366,0.11119077354669571,0.07844090461730957,0.038240296893307234,0.21625759035693407,-0.9749964076146181,-0.033945572068575146,0.08282780401694552,-3.0814640824359247,0.43404738729960873
1782664726855370240,1.8359453678131104,0.6858848929405212,-1.0296940803527832,-0.5014652013778687,-0.048965953290462494,-0.07777038216590881,0.9957680106163025,0.2713780701160431,0.1954461634159088,0.09218353033065796,0.0324896142042865,0.22028636731372078,-0.9743499954762235,-0.0325634235122616,0.07784899097566915,-3.0924581726754723,0.4427808095907361
1782664726865290496,1.8458654880523682,0.8339816927909851,-0.8075454831123352,-0.49205145239830017,-0.03874405845999718,-0.07082051038742065,0.9967361688613892,0.6128712892532349,0.38028401136398315,-0.07873708009719849,0.0267940109695659,0.22254190273800722,-0.9740858197474906,-0.030230873927465755,0.07087984618012012,-3.1027412850430616,0.4478372630805215
1782664726875210240,1.8557853698730469,0.379634290933609,-1.1709942817687988,-0.5329009294509888,-0.028392717242240906,-0.06527876108884811,0.9974632263183594,0.4614829123020172,-0.011305108666419983,-0.07986056804656982,0.021193164396440593,0.2249768152244731,-0.9737130145029979,-0.028623843706476287,0.06532521091707089,-3.1131354104735456,0.45320178716977905
1782664726885129472,1.8657045364379883,0.3214420974254608,-1.1633893251419067,-0.5260373950004578,-0.01579972170293331,-0.06226670369505882,0.9979344606399536,0.43898698687553406,-0.023350361734628677,-0.024896740913391113,0.014788508166562703,0.22756406507736826,-0.9732326699246393,-0.028531737831602157,0.0623070113558038,-3.1257615517931763,0.45889893694417166
1782664726895049216,1.875624418258667,0.23982147872447968,-1.0865453481674194,-0.3187010586261749,-0.005031582899391651,-0.05902530252933502,0.998244047164917,0.4334678649902344,0.12921571731567383,0.05607748031616211,0.009217454051966523,0.2291093066695491,-0.9729496167938899,-0.028162657106047883,0.059059629628921154,-3.136552262499611,0.462383061192332
1782664726904969472,1.8855445384979248,0.07060715556144714,-1.0095922946929932,-0.4622792601585388,0.005227265879511833,-0.057335544377565384,0.99834144115448,0.335684597492218,0.10241000354290009,0.08515477180480957,0.004086343766516184,0.2310863671978686,-0.9725069667498808,-0.02850722379871813,0.057367004534783696,3.136356751179224,0.466735600295949
1782664726914889216,1.8954644203186035,-0.10695451498031616,-1.175792932510376,-0.2796279489994049,0.01615028642117977,-0.0575033538043499,0.9982144832611084,0.536935031414032,-0.11183866858482361,-0.0067901611328125,-0.0011621884174490573,0.23263794023899825,-0.9721043335408998,-0.02985486682793434,0.057535090288610126,3.1254148908137007,0.47025751545264327
1782664726924808192,1.9053833484649658,-0.04461976885795593,-1.0955429077148438,-0.08751601725816727,0.027264654636383057,-0.05846211686730385,0.9979172348976135,0.46554845571517944,-0.23105815052986145,-0.11129003763198853,-0.006432609842746678,0.2334021926366055,-0.9718446492144233,-0.031622795506376665,0.0584954722124656,3.11427788920624,0.47219943543308124
1782664726934728448,1.9153034687042236,0.012368482537567616,-0.887837290763855,0.005001302808523178,0.03624428063631058,-0.05849015712738037,0.9976300597190857,0.2579604387283325,-0.15675033628940582,-0.20694994926452637,-0.0107809974955484,0.23389261334973613,-0.971652855509887,-0.03269344046547331,0.05852355975882798,3.1052782414932723,0.4735072852679765
1782664726944648192,1.9252233505249023,-0.5183531641960144,-0.8058177828788757,0.18044210970401764,0.045091189444065094,-0.061343178153038025,0.9970977306365967,0.3573441207408905,-0.2658357620239258,-0.15742182731628418,-0.014779006662789978,0.23311635037466485,-0.9717024337015752,-0.035110355575341534,0.06138171727497111,3.096401005238989,0.4722981033573455
1782664726954568448,1.9351434707641602,0.019307948648929596,-0.8020727038383484,0.03436002507805824,0.05331205576658249,-0.06376001238822937,0.9965404272079468,0.2999289035797119,-0.26048925518989563,-0.12588906288146973,-0.018517380435643525,0.23261474824371645,-0.971679258415912,-0.037242148332313235,0.0638032948113897,3.0881464680579067,0.47165094979769967
1782664726964487424,1.9450623989105225,-0.04180920124053955,-0.6465230584144592,0.08816014230251312,0.0609125979244709,-0.0641300156712532,0.9960808753967285,0.3174290657043457,-0.1352108120918274,-0.07445001602172852,-0.02218938792645027,0.23224506509559087,-0.9716494506935744,-0.03830433240988222,0.06417405443484342,3.080516448943384,0.4712000921567852
1782664726974407424,1.9549825191497803,0.16134856641292572,-0.7971463203430176,0.2556685209274292,0.06762230396270752,-0.06352348625659943,0.9956868290901184,0.391560435295105,0.04133719950914383,0.10836291313171387,-0.025579558384689505,0.23094564607605883,-0.9718577646611408,-0.03876002528834946,0.06356628757642613,3.0737815505782513,0.4687685504705914
1782664726984327424,1.964902400970459,0.09596876800060272,-0.5586802363395691,-0.2765546441078186,0.07347472757101059,-0.06318666785955429,0.9952937364578247,0.3182184100151062,-0.0368194580078125,0.24019551277160645,-0.028443490986111927,0.2316119364866913,-0.9715980470933296,-0.03929730614122195,0.06322878951308157,3.0679041604052455,0.4703614824855448
1782664726994247424,1.9748225212097168,-0.019602566957473755,-0.4845154881477356,0.047419432550668716,0.07857494056224823,-0.0623159296810627,0.9949588179588318,0.37671682238578796,-0.2117777168750763,0.32501816749572754,-0.031022916154738966,0.23178387025095204,-0.9714708730005662,-0.03947475619069391,0.06235633085975678,3.0627831618982118,0.4708831790875111
1782664727004166400,1.984741449356079,0.10051505267620087,-0.2607164978981018,0.10701058804988861,0.08268765360116959,-0.06271018832921982,0.9946004152297974,0.2713620066642761,-0.14020118117332458,0.5807626247406006,-0.0329878240009718,0.23164172060186372,-0.9714125337577294,-0.04014406817582842,0.06275136426256513,3.058646843123004,0.47077893563801215
1782664727014086144,1.9946613311767578,-0.11980107426643372,-0.12107522040605545,0.02253272570669651,0.08464799076318741,-0.06174318864941597,0.9944961667060852,0.1975633203983307,-0.17687375843524933,0.6457321643829346,-0.03408371572778685,0.2309543977105028,-0.9715493530883496,-0.03987793171995892,0.06178248669169757,3.0566808567573274,0.4693970320781701
1782664727024006400,2.0045814514160156,-0.37801530957221985,0.052987389266490936,-0.2764070928096771,0.0854310393333435,-0.06548598408699036,0.9941895008087158,0.164736807346344,0.08352188020944595,0.8574338555335999,-0.03398631177458826,0.23205291610116693,-0.9712086317185387,-0.04183407546491589,0.06553288059997094,3.055872892058143,0.47188141218686935
1782664727033926144,2.0145013332366943,-0.30105575919151306,0.5381088852882385,0.0507914274930954,0.08226790279150009,-0.06759274005889893,0.9943152666091919,0.2933577001094818,-0.10611330717802048,0.6885916590690613,-0.03218267773063233,0.23244783156711699,-0.9711465588845537,-0.04250353559568536,0.06764431284066483,3.059042432308376,0.4726628191459842
1782664727043845376,2.0244204998016357,-0.9349743723869324,0.7468724846839905,-0.036234814673662186,0.07555173337459564,-0.07480635493993759,0.9943321943283081,0.27550724148750305,-0.1523360013961792,0.777396559715271,-0.02805991741770277,0.232692876177372,-0.9710922334978629,-0.04524031806000581,0.07487630280451706,3.065755984680471,0.4732127533506592
1782664727053765376,2.0343403816223145,-0.9803576469421387,0.9029308557510376,0.13055187463760376,0.06840268522500992,-0.08448567986488342,0.9940742254257202,0.3384576737880707,-0.27206647396087646,0.6729333400726318,-0.023445518431979426,0.2327865773444777,-0.9710033656113073,-0.04912510564561873,0.08458651347855688,3.0728905108168543,0.47350336309149843
1782664727063685376,2.0442605018615723,-1.868774652481079,1.100906491279602,-0.16887503862380981,0.059072960168123245,-0.09804286062717438,0.9934276938438416,0.34533074498176575,-0.6180521249771118,0.7197226285934448,-0.017308385542137452,0.2330016363952703,-0.970785292468196,-0.054650923647093036,0.09820061606512798,3.082198816368905,0.4740351355704355
1782664727073605376,2.054180383682251,-1.8021351099014282,1.267596960067749,0.011384500190615654,0.04904281720519066,-0.11713098734617233,0.9919046759605408,0.44778335094451904,-0.7554275989532471,0.9595569372177124,-0.010125452670923518,0.23401114167864698,-0.9701500518252297,-0.06280983334848693,0.11740048892585206,3.09218980814418,0.47628381695198635
1782664727083525376,2.064100503921509,-1.5622553825378418,1.1575490236282349,-0.1662435382604599,0.04678461700677872,-0.13659806549549103,0.989521324634552,0.635023832321167,-0.5753770470619202,0.6728627681732178,-0.006657339308848168,0.23501825672957344,-0.9692920582599082,-0.07207696223198869,0.13702646645834124,3.094347789078332,0.4789892308071012
1782664727093444352,2.074019432067871,-1.516818642616272,1.360749363899231,0.1380036622285843,0.03678354620933533,-0.15249104797840118,0.9876202940940857,0.3007256090641022,-0.2267814427614212,0.7661488056182861,0.00017239362469783552,0.23588817221366803,-0.9685901687258168,-0.07867606106447773,0.15308831321102923,3.1043652361002283,0.48063001882603973
1782664727103364352,2.083939552307129,-1.051003098487854,1.652366280555725,0.11016803234815598,0.022372256964445114,-0.16518113017082214,0.9860095381736755,0.2477693408727646,-0.20954421162605286,0.5731946229934692,0.00870551255628835,0.2358014516925168,-0.9681954538727858,-0.08318339960200886,0.16594165485248583,3.118906849019756,0.47967955427588516
1782664727113284352,2.0938594341278076,-0.9161823987960815,1.8721693754196167,0.12008428573608398,0.005490672774612904,-0.17517071962356567,0.9845228791236877,0.19813786447048187,-0.17118853330612183,0.565159797668457,0.018158140790996733,0.2360488711685169,-0.9677511855122296,-0.08607496613317821,0.17607916488756437,3.136015722910624,0.4789788858798063
1782664727123204352,2.1037795543670654,-0.3670719265937805,2.073672294616699,0.41412174701690674,-0.014044474810361862,-0.1815856695175171,0.9832748770713806,0.31613796949386597,-0.1029755026102066,0.6375442743301392,0.02842010466579383,0.2355704137678854,-0.9675453596804182,-0.08691882169553493,0.1825986961294173,-3.127310258678894,0.4763433697561733
1782664727133123328,2.1136984825134277,-0.575444757938385,2.210114002227783,0.46762803196907043,-0.03534690663218498,-0.18538621068000793,0.9820300340652466,0.3916548788547516,-0.09723712503910065,0.6148024797439575,0.03917119299808597,0.23431822324570215,-0.967527772197851,-0.08631750626481406,0.18646487843552845,-3.1056144750274215,0.47185064902874185
1782664727143043328,2.1236183643341064,-0.3295433819293976,2.4281487464904785,0.6043763160705566,-0.058907099068164825,-0.19046281278133392,0.9799255132675171,0.38655906915664673,-0.18249250948429108,0.7555938959121704,0.05115287986918308,0.23254667719279482,-0.967411396207264,-0.0861432620419539,0.19163356629711106,-3.0815510549307947,0.4660367833242965
1782664727152963328,2.1335384845733643,0.23162400722503662,2.344607353210449,0.7791367769241333,-0.08322067558765411,-0.19029106199741364,0.9781940579414368,0.4028922915458679,-0.27833688259124756,0.526246190071106,0.0628630020200841,0.2303883751954819,-0.9674803550071649,-0.0833739133568978,0.19145861164309777,-3.056721188645187,0.4594021689367465
1782664727162883328,2.143458366394043,0.3259933888912201,2.494130849838257,0.7134482860565186,-0.10777756571769714,-0.18673540651798248,0.9764803051948547,0.42807480692863464,-0.2616136074066162,0.4790860414505005,0.07428378187684966,0.2277448312409891,-0.9676633932864689,-0.07900470330314002,0.18783805213172344,-3.03166408826335,0.45193231278450924
1782664727172802560,2.1533775329589844,0.36577489972114563,2.611849308013916,0.8534528017044067,-0.13363660871982574,-0.18260207772254944,0.9740623235702515,0.42555251717567444,-0.4091489911079407,0.4938787817955017,0.0863241377515855,0.2250408142185801,-0.9676713286823464,-0.07427582105857825,0.18363237466170101,-3.0052487217200023,0.44442195202835477
1782664727182722304,2.163297414779663,-0.06959415972232819,2.3848679065704346,0.8371403813362122,-0.15920285880565643,-0.17994044721126556,0.9707087278366089,0.4844439923763275,-0.45822784304618835,0.4169100522994995,0.09843611430315463,0.22208509849287472,-0.9674877594478953,-0.07039781940778804,0.18092590812018106,-2.9790330368665354,0.43650032700129743
1782664727192642560,2.173217535018921,0.05458158254623413,2.453782320022583,0.791605532169342,-0.1838163584470749,-0.1792115718126297,0.9664857983589172,0.4887327551841736,-0.304934561252594,0.363012433052063,0.11034602130341932,0.2188386606016421,-0.9671362572075892,-0.06768209495600389,0.18018498531897173,-2.953646910094358,0.42802695735479335
1782664727202562304,2.1831374168395996,0.03869875520467758,2.2736566066741943,0.8620357513427734,-0.20734050869941711,-0.17706191539764404,0.9621118307113647,0.3644297122955322,-0.26301681995391846,0.2838447093963623,0.12163247008856985,0.21589868045288096,-0.9666662742643295,-0.06441795784037203,0.17800039107327564,-2.9293332654330486,0.42046250363477483
1782664727212481280,2.193056344985962,-0.5671361684799194,2.114668369293213,0.8218985199928284,-0.23005591332912445,-0.1772070825099945,0.9569075703620911,0.35642915964126587,-0.1524132937192917,0.2751634120941162,0.13278963890387513,0.2121027322203714,-0.9661605579318506,-0.06255533057154207,0.1781478858900744,-2.905654350690474,0.41103769009545965
1782664727222401280,2.2029764652252197,0.17732733488082886,1.9240902662277222,0.7552374601364136,-0.2504899203777313,-0.17805440723896027,0.9516045451164246,0.1465623676776886,-0.013168692588806152,0.1667730212211609,0.14299679641740756,0.2091675915427764,-0.9654279894123399,-0.061233889762750085,0.17900891523544388,-2.8842024300024955,0.40349388011276477
1782664727232321280,2.2128963470458984,0.31664708256721497,1.5401667356491089,0.5283350944519043,-0.26818567514419556,-0.17362648248672485,0.94759202003479,0.20425131916999817,-0.010852307081222534,-0.2268582582473755,0.1512820470513547,0.20643605690227973,-0.9649767671917586,-0.05760052534556447,0.1745108888122187,-2.8657874860353894,0.39722395165396085
1782664727242241280,2.2228164672851562,0.9125632047653198,1.2620735168457031,0.5099619030952454,-0.28180748224258423,-0.16687197983264923,0.9448481798171997,0.17336329817771912,0.2639331817626953,-0.24793362617492676,0.157362262752912,0.20512485220171037,-0.9645454287527543,-0.053037504558820725,0.16765631563688665,-2.8517358062300615,0.3945601193322005
1782664727252161280,2.232736349105835,1.2303191423416138,1.215206503868103,0.4507670998573303,-0.29368069767951965,-0.15531261265277863,0.9432015419006348,0.12223303318023682,0.3028498888015747,-0.46848565340042114,0.16204385002822375,0.20386042192345363,-0.9643866917356146,-0.046269796265457915,0.1559438922103296,-2.8397414044496805,0.3928802900514682
1782664727262080512,2.2426555156707764,1.4732640981674194,0.9543270468711853,0.4728098213672638,-0.30447107553482056,-0.1415177881717682,0.9419500827789307,0.028912633657455444,0.3113939166069031,-0.43728095293045044,0.16598250923223198,0.20322350879074397,-0.9641966779062845,-0.03840227324980718,0.14199446246743713,-2.828958106149494,0.39304315169504894
1782664727272000256,2.252575397491455,1.0781168937683105,0.7527116537094116,0.7055191397666931,-0.3132084906101227,-0.1276685893535614,0.9410640597343445,0.1155613362789154,0.1490156203508377,-0.31978702545166016,0.16886855891924424,0.20187897964444584,-0.9642494076488637,-0.03084604664229535,0.1280179753310209,-2.8203007931709743,0.39199378119396605
1782664727281920512,2.262495517730713,0.48517024517059326,0.7181200981140137,0.6060199737548828,-0.3205415606498718,-0.11844654381275177,0.9398000836372375,0.05873116850852966,0.007728733122348785,-0.28898191452026367,0.1715393899552249,0.19923880961373763,-0.9644708020120709,-0.025968610247100385,0.1187252629508664,-2.812891570795197,0.38771305909664405
1782664727291840256,2.2724153995513916,0.16529332101345062,0.2983969748020172,0.6405444741249084,-0.32588621973991394,-0.1139192283153534,0.9385202527046204,-0.007853925228118896,-0.11201762408018112,-0.4204387664794922,0.17373679444063483,0.19701480955610218,-0.9645959231722668,-0.023565197729869213,0.11416707995438204,-2.807384025302833,0.38367192945067835
1782664727301759232,2.282334327697754,-0.36711758375167847,-0.018318941816687584,0.2383272349834442,-0.32772141695022583,-0.1132422387599945,0.9379632472991943,0.03910139203071594,0.03359134495258331,-0.6337028741836548,0.17455500142742852,0.19485851282884742,-0.964889519554027,-0.023430240013066376,0.11348568223050719,-2.8054552488063655,0.37926275606517235
1782664727311679488,2.2922544479370117,0.07735013961791992,-0.30039218068122864,0.09358976036310196,-0.32615500688552856,-0.11419589817523956,0.9383935332298279,-0.017656028270721436,0.22555452585220337,-0.7725762128829956,0.17382663029422402,0.19387861393695904,-0.9651983410731079,-0.02424028392246869,0.11444556299044274,-2.8070865904349414,0.37711999954805553
1782664727321599232,2.3021743297576904,-0.1786736398935318,-0.5318224430084229,0.2855019271373749,-0.32310280203819275,-0.1141280084848404,0.9394570589065552,0.02122288942337036,0.2451399564743042,-0.9651527404785156,0.17222519855894822,0.19284901191175266,-0.9656799664210884,-0.024698185635323635,0.11437722514301644,-2.8103400492301573,0.37508029896577993
1782664727331519488,2.3120944499969482,-0.07061967998743057,-0.9021409749984741,-0.2604430615901947,-0.31578391790390015,-0.11595643311738968,0.9417189359664917,-0.013622790575027466,0.5588275194168091,-0.852073609828949,0.16865333976770902,0.1925517557012746,-0.9663246365286192,-0.026392496834542832,0.11621787450211488,-2.8180487625369617,0.37438429829310277
1782664727341438208,2.3220133781433105,0.3695395886898041,-1.0855531692504883,-0.37638482451438904,-0.3058517575263977,-0.11615032702684402,0.9449674487113953,-0.0675308108329773,0.6055607795715332,-0.8256133794784546,0.16364529544976228,0.19456924535176603,-0.966760846339539,-0.02713682626325295,0.1164130859069732,-2.828569786401726,0.37882102565934644
1782664727351358464,2.3319334983825684,0.7415283918380737,-1.3428096771240234,-0.31527575850486755,-0.29289567470550537,-0.11209674179553986,0.9495507478713989,-0.08421003818511963,0.45534318685531616,-0.7489739656448364,0.15666179248053144,0.19650669696550427,-0.9675538675968697,-0.026110464771738593,0.11233284457709303,-2.8423952075006103,0.3837934027118364
1782664727361278208,2.341853380203247,0.8503565788269043,-1.102621078491211,-0.2616085410118103,-0.27750304341316223,-0.10537007451057434,0.9549288153648376,-0.06850522756576538,0.30468037724494934,-0.6495547890663147,0.14819005261900683,0.19877517016779295,-0.9684796460032962,-0.02398453533958412,0.10556603986387941,-2.8587811572093,0.3898248948946995
1782664727371198464,2.351773500442505,0.8231211304664612,-1.0570939779281616,-0.3927117586135864,-0.26171165704727173,-0.10029330104589462,0.9599211812019348,0.014381885528564453,0.18470489978790283,-0.4235135316848755,0.13970240215676738,0.2002917649664993,-0.9694554072749332,-0.022863773244010756,0.10046220171696564,-2.8754230554036178,0.3940111009559355
1782664727381118208,2.3616933822631836,0.7795014977455139,-1.4826735258102417,-0.46704965829849243,-0.24813194572925568,-0.09335792809724808,0.9642171859741211,0.02912256121635437,-0.043589696288108826,-0.6421347260475159,0.1321879018545308,0.203148575781059,-0.9699686828793045,-0.02043898891563003,0.09349407428760637,-2.8897174847639455,0.4010627224850255
1782664727391037440,2.371612548828125,0.19556793570518494,-1.2253473997116089,-0.16353747248649597,-0.23444917798042297,-0.08927024155855179,0.9680207967758179,0.33965855836868286,-0.3038724660873413,-0.45009177923202515,0.12491548415805527,0.2047244061561645,-0.9706174855249923,-0.01963891385210277,0.08938923860448597,-2.9039738548033656,0.40507226418463116
1782664727400957440,2.3815324306488037,-0.4733576774597168,-1.2875839471817017,-0.2632230520248413,-0.2212076038122177,-0.09175866842269897,0.9709003567695618,0.4604349136352539,-0.442909300327301,-0.33604317903518677,0.11856803244517179,0.20535815445401503,-0.9712250998323901,-0.022168313816805417,0.09188792326346279,-2.9175789810340795,0.4064039891749516
1782664727410877440,2.3914525508880615,-0.9471284747123718,-1.316918969154358,-0.23458795249462128,-0.2084227204322815,-0.09926747530698776,0.9729881882667542,0.4303770661354065,-0.23731088638305664,-0.37607961893081665,0.11300855116453866,0.20611613247342742,-0.971601887148478,-0.027110745279751294,0.09943123155397635,-2.9305727706684603,0.4075441752316805
1782664727420797440,2.4013724327087402,-0.7727076411247253,-1.23576819896698,-0.21660096943378448,-0.19548408687114716,-0.10837440192699432,0.9747006893157959,0.5956305265426636,0.08637120574712753,-0.3957972526550293,0.10754966955678097,0.2064431081302484,-0.9719730432542193,-0.03290658551839638,0.10858767649850426,-2.943660554532282,0.40777944733358223
1782664727430716160,2.4112913608551025,-0.5503395795822144,-1.2643474340438843,-0.2576836943626404,-0.18297970294952393,-0.11539137363433838,0.9763211011886597,0.5844689607620239,0.10692276805639267,-0.461276113986969,0.10210495833172015,0.2070032630505179,-0.9722706467139375,-0.03760231354468,0.11564899306864261,-2.9563243628108986,0.40879390995084997
1782664727440636416,2.4212114810943604,-0.22688618302345276,-1.5326404571533203,-0.24567446112632751,-0.16917607188224792,-0.12013962119817734,0.9782359004020691,0.6083698272705078,0.09482531994581223,-0.4102887511253357,0.09579377847601812,0.20777874469671684,-0.9725975289951745,-0.041297556232277044,0.12043052424843378,-2.9703465150491644,0.4105886568884748
1782664727450556160,2.431131362915039,0.22244828939437866,-1.5817806720733643,-0.11160596460103989,-0.1539902687072754,-0.12034772336483002,0.9807159304618835,0.6823258399963379,0.13263101875782013,-0.3874235153198242,0.08831443712529727,0.20836703821212554,-0.9731090095277487,-0.042926377554537334,0.12064014568318156,-2.9858460937495432,0.41245446782968964
1782664727460476416,2.441051483154297,0.6080263257026672,-1.4881527423858643,-0.1830412745475769,-0.1389632672071457,-0.11654600501060486,0.983415961265564,0.4700789451599121,0.2567284405231476,-0.3625965118408203,0.08049349051382344,0.20888520845240283,-0.9736914068867315,-0.04257930511979903,0.11681147212401317,-3.0012153614778865,0.41443061757429756
1782664727470395392,2.450970411300659,0.82620769739151,-1.5168192386627197,-0.038730695843696594,-0.12413658946752548,-0.1099189817905426,0.9861582517623901,0.4210115969181061,0.2819618284702301,-0.34234416484832764,0.07248101487449309,0.20936807201126126,-0.9742916030940574,-0.04083405688283263,0.1101415338453241,-3.0163722955419776,0.41643508459640505
1782664727480315392,2.460890531539917,0.4611034691333771,-1.493343710899353,-0.2900790572166443,-0.10856916010379791,-0.10358406603336334,0.9886772632598877,0.4585905373096466,0.018836766481399536,-0.23690742254257202,0.06416181000579897,0.21013790735242532,-0.9747721167076748,-0.039300675725175316,0.10377019977333996,-3.03221834512902,0.4189684518821931
1782664727490235392,2.4708104133605957,0.05716358497738838,-1.3838814496994019,-0.1943569779396057,-0.09381158649921417,-0.10099934786558151,0.9904537796974182,0.2939916253089905,-0.13375714421272278,-0.04588890075683594,0.056669683494672045,0.21121481461871247,-0.9749949659795422,-0.03951835568543465,0.10117185566699945,-3.047158605811159,0.4218858361502648
1782664727500155392,2.4807305335998535,-0.33923277258872986,-1.299362301826477,-0.251604825258255,-0.07993659377098083,-0.10289580374956131,0.991474986076355,0.33321723341941833,-0.07644074410200119,0.07204735279083252,0.05008833648790746,0.21189092438936077,-0.9751101086974858,-0.0418769494234457,0.10307824080878526,-3.0611427501132225,0.42379378915144467
1782664727510074368,2.490649461746216,-0.7219052910804749,-1.0110175609588623,-0.24589791893959045,-0.06783822923898697,-0.1080923080444336,0.9918237924575806,0.21368172764778137,-0.1560068428516388,0.10247576236724854,0.044758355927842185,0.21286791415642914,-0.9749867480455139,-0.045660656039776065,0.10830391008050216,-3.0733015536627604,0.4262087399781426
1782664727519994368,2.5005693435668945,-0.9765711426734924,-0.8718757629394531,-0.21928682923316956,-0.05807522311806679,-0.11682530492544174,0.9914531111717224,0.204361230134964,-0.17968350648880005,0.17483723163604736,0.04095176290412634,0.21352196223001804,-0.9747486442783494,-0.05095524034614064,0.1170926914973879,-3.08308364259405,0.4278639990487913
1782664727529914368,2.5104894638061523,-0.8843283653259277,-0.7740830183029175,-0.2181188017129898,-0.04960649833083153,-0.12631618976593018,0.9907488822937012,0.2556459307670593,-0.05112825334072113,0.15556758642196655,0.03786624616443257,0.21409372274491817,-0.9744425731034435,-0.05649503531115223,0.12665453360061146,-3.0915647323260034,0.42937225079966784
1782664727539834368,2.520409345626831,-0.7699120044708252,-0.6196489930152893,-0.25974029302597046,-0.04203435778617859,-0.1341211348772049,0.9900733232498169,0.1662409007549286,0.03414551913738251,0.2163935899734497,0.03506357709914636,0.21498922248228822,-0.9740720145413745,-0.06110664602763592,0.13452652603035384,-3.099162331531005,0.4315996686563546
1782664727549754368,2.530329465866089,-0.618728756904602,-0.40056338906288147,-0.23847326636314392,-0.03631393611431122,-0.14174829423427582,0.9892363548278809,0.18107406795024872,0.151697039604187,0.42522281408309937,0.03315895420772824,0.21590203787769752,-0.9736552199160241,-0.065439035081372,0.14222731311165737,-3.1049000704897667,0.4338119810172232
1782664727559673344,2.540248394012451,0.13530533015727997,-0.19124187529087067,-0.125473752617836,-0.03291361406445503,-0.1442883014678955,0.98898845911026,0.17147867381572723,0.11226007342338562,0.42746996879577637,0.03182813597751975,0.21669955481021563,-0.9734143616197559,-0.06702901859013025,0.14479371304302566,-3.1083248538669297,0.43567926325325473
1782664727569593344,2.550168514251709,0.9681549072265625,0.03898988664150238,-0.03678968548774719,-0.03154532238841057,-0.13892023265361786,0.9898008108139038,0.10147635638713837,0.09074826538562775,0.5844787359237671,0.03058671932284252,0.21703522690103488,-0.973548202148432,-0.06452862025302535,0.13937099433152075,-3.109733060872302,0.4364668017746027
1782664727579513344,2.5600883960723877,1.158823013305664,0.645512044429779,-0.06856545805931091,-0.03456540033221245,-0.12815441191196442,0.991151750087738,-0.13164860010147095,-0.06410633027553558,0.8784009218215942,0.030914566655992754,0.2176870200029583,-0.9737495784150781,-0.05889348288043706,0.12850781799549724,-3.1067328089294945,0.43763495728483087
1782664727589433856,2.5700089931488037,0.8961637020111084,1.3622286319732666,-0.00508824922144413,-0.04412618279457092,-0.11797548830509186,0.9920355677604675,-0.13342508673667908,-0.39525386691093445,1.0910789966583252,0.0344953134680152,0.21820779672041732,-0.9738599114645905,-0.052841888480588975,0.11825088278388628,-3.0971415093488948,0.43821668398357555
1782664727599353088,2.579928159713745,0.432304710149765,1.6910078525543213,0.09075918793678284,-0.058509886264801025,-0.11161210387945175,0.9920278191566467,0.10526281595230103,-0.56789231300354,1.089972734451294,0.04085245778678697,0.2186574619921565,-0.9737570709388774,-0.04813660213726466,0.11184514180839954,-3.082680818000972,0.4384738767983647
1782664727609272832,2.589848041534424,-0.1154290959239006,1.8750662803649902,0.17761358618736267,-0.07301601022481918,-0.11076107621192932,0.9911614656448364,0.4081447720527649,-0.7158533334732056,1.1031991243362427,0.047856348357296755,0.2185235864213103,-0.9735646719696491,-0.046142593250032025,0.11098880832578419,-3.0680583610726684,0.4375087173322087
1782664727619193088,2.5997681617736816,-0.26294583082199097,1.8609274625778198,0.23516157269477844,-0.09044812619686127,-0.11259341984987259,0.9895159602165222,0.565072774887085,-0.647660493850708,1.0280773639678955,0.0565886265559417,0.2180987678353327,-0.9732373344687141,-0.04516349547409247,0.11283268317492952,-3.050439524939397,0.4357564654125532
1782664727629112832,2.6096880435943604,-0.11508414894342422,2.004246950149536,0.17541317641735077,-0.10888019949197769,-0.1149200052022934,0.9873896241188049,0.598641574382782,-0.3713012933731079,0.9474857449531555,0.06587255333291782,0.21747732035817444,-0.9728301068019322,-0.044338898003896454,0.11517446828346464,-3.0317656169427813,0.4335320037085835
1782664727639031808,2.6196069717407227,0.19741515815258026,2.1287591457366943,0.39641082286834717,-0.1290108859539032,-0.11453332006931305,0.9850069880485535,0.5662361979484558,-0.21140970289707184,0.8460021018981934,0.07569336454831965,0.21650693152538847,-0.9724341911048595,-0.04203731561048982,0.11478521776259676,-3.011359374963457,0.4306491039689858
1782664727648952064,2.6295270919799805,0.7421244382858276,2.31880784034729,0.4166111350059509,-0.15090477466583252,-0.10946192592382431,0.982469379901886,0.55262291431427,-0.11996922641992569,0.8728773593902588,0.08587821176576028,0.215258259731164,-0.972058931378946,-0.03728680309580199,0.10968170977401163,-2.989186296632226,0.4274750242576551
1782664727658871808,2.639446973800659,1.0023314952850342,2.506993532180786,0.3489825427532196,-0.1743040531873703,-0.1000959575176239,0.9795912504196167,0.500887930393219,-0.1657579243183136,0.8886491060256958,0.0963807197617537,0.21433556148402522,-0.9715224660751801,-0.030251654731918064,0.10026386082537506,-2.9655001462522184,0.42542173724991
1782664727668792064,2.649367094039917,0.7260265946388245,2.598735809326172,0.3251487910747528,-0.19930598139762878,-0.09103703498840332,0.9756994247436523,0.5132403373718262,-0.3171203136444092,0.9253931045532227,0.10776063791241011,0.2134785653414519,-0.9707093305529652,-0.02319327832997089,0.09116325600680532,-2.9400948535331635,0.4237261982489105
1782664727678711808,2.6592869758605957,0.40772345662117004,2.4369871616363525,0.4063730537891388,-0.22388294339179993,-0.08472452312707901,0.9709262251853943,0.5789397954940796,-0.4443739652633667,0.9341333508491516,0.11928065189387278,0.2122591497792192,-0.9697469605159954,-0.01757556657860483,0.08482621510880002,-2.914966845503425,0.42130634105260534
1782664727688631040,2.669206142425537,0.10979590564966202,2.2468955516815186,0.4729001522064209,-0.2467028647661209,-0.08150883764028549,0.9656573534011841,0.720350980758667,-0.5206182599067688,0.8600567579269409,0.13031577301601008,0.21049333249983926,-0.9687730537903576,-0.013753291431525995,0.08159936311126627,-2.8914662116535244,0.4176412792331935
1782664727698551040,2.679126024246216,0.03972147777676582,2.1298627853393555,0.5157957077026367,-0.267692506313324,-0.07971860468387604,0.9602009057998657,0.666709840297699,-0.32840824127197266,0.7154582738876343,0.14064356152244278,0.20835046841051566,-0.9678277389782585,-0.010907054785024928,0.07980328260306423,-2.869708179622132,0.41315901846435227
1782664727708471040,2.6890461444854736,0.05860641598701477,2.076558828353882,0.5537046790122986,-0.2879199981689453,-0.07778666913509369,0.9544904232025146,0.5042589902877808,-0.2432277798652649,0.590187668800354,0.15062693458500426,0.2058698241940492,-0.9668830513175815,-0.008153823884047388,0.07786532850450194,-2.8486247384315773,0.4080826513176737
1782664727718391040,2.6989660263061523,0.13536298274993896,2.015014886856079,0.5434659123420715,-0.30763599276542664,-0.07511752843856812,0.9485342502593994,0.39546555280685425,-0.24530178308486938,0.41021502017974854,0.16033253780151985,0.20336621493740617,-0.9658723089943008,-0.005127532699104571,0.0751883499264248,-2.827968903851553,0.4031478683839871
1782664727728309760,2.7088849544525146,0.24058035016059875,1.9229087829589844,0.6159985065460205,-0.3264285922050476,-0.07173763960599899,0.9424959421157837,0.32769498229026794,-0.2300812304019928,0.2577911615371704,0.16955399985238506,0.2007471743241907,-0.9648567399746365,-0.0018980376333098627,0.07179931491180129,-2.808177813441657,0.3981783893653346
1782664727738230016,2.7188050746917725,0.41594254970550537,1.9386224746704102,0.6477175354957581,-0.34466010332107544,-0.06664491444826126,0.9363589286804199,0.20461484789848328,-0.16179442405700684,0.06820356845855713,0.1783710348288063,0.19809158692538054,-0.9638149182946638,0.0020868553180003893,0.06669435139353774,-2.788897790741392,0.3935226829211277
1782664727748149760,2.728724956512451,0.5566288232803345,1.9001377820968628,0.7130247354507446,-0.3625861704349518,-0.05978287383913994,0.9300311207771301,0.1299658715724945,-0.03456224501132965,-0.02454376220703125,0.18691562279230478,0.1952867423455847,-0.9627453661818693,0.006866515423998533,0.05981854230556988,-2.7698541338659366,0.3890051521964456
1782664727758070016,2.738645076751709,0.5779964327812195,1.9199870824813843,0.7790591716766357,-0.38055408000946045,-0.05162320286035538,0.9233166575431824,0.05303940176963806,-0.032986778765916824,-0.03833746910095215,0.19542943396054466,0.19214207629023822,-0.9616338993345792,0.012206948792662157,0.0516461593460501,-2.7506477831260967,0.38419357721473646
1782664727767988992,2.7485640048980713,0.5011661052703857,1.728087306022644,0.6852847337722778,-0.3974599242210388,-0.043913181871175766,0.9165681600570679,0.022261589765548706,-0.010057147592306137,-0.050601422786712646,0.2035191236415004,0.18906291351476895,-0.9604890862294958,0.01720095296339125,0.04392730747533436,-2.732427301501693,0.37959531453574086
1782664727777908992,2.758484125137329,0.2989189624786377,1.4791285991668701,0.7401407957077026,-0.41208189725875854,-0.037408750504255295,0.910378634929657,0.05240166187286377,-0.0004483126103878021,-0.1601496934890747,0.21060943183033984,0.18592413219396928,-0.9594902520011446,0.02131652755225097,0.03741748146208729,-2.7165380745726915,0.3747285222828143
1782664727787828992,2.768404006958008,0.177390456199646,1.0023250579833984,0.5855753421783447,-0.42332226037979126,-0.03270392864942551,0.9053888916969299,-0.006548374891281128,0.07617621123790741,-0.29624271392822266,0.21615155916052456,0.18285661135242604,-0.9587793772036773,0.024169041101715777,0.03270975948093416,-2.70423340739038,0.36964013920889865
1782664727797748992,2.7783241271972656,-0.09360934793949127,0.7892335653305054,0.44919779896736145,-0.4311145842075348,-0.029905717819929123,0.9018012881278992,-0.11585187911987305,0.17816011607646942,-0.480735182762146,0.22007374157329543,0.18039102972612497,-0.9583108709829719,0.02582300833872873,0.029910177992713897,-2.6956510749936293,0.3653402404106167
1782664727807667968,2.788243055343628,-0.11998502910137177,0.7331859469413757,0.25360816717147827,-0.4382031559944153,-0.029678519815206528,0.8983860611915588,-0.3058917820453644,0.23797623813152313,-0.5201358795166016,0.22387653252349365,0.17836634331752743,-0.9577987659564198,0.026198382552554463,0.029682878570378796,-2.6877791772813096,0.36137876278008835
1782664727817587968,2.7981631755828857,-0.02253330871462822,0.43243837356567383,0.2240564227104187,-0.44332078099250793,-0.028928449377417564,0.895896315574646,-0.39948323369026184,0.3045631945133209,-0.6429665088653564,0.22657136775499725,0.1770161108392088,-0.9573993178503356,0.02678355573646709,0.028932485052018245,-2.6820856338131507,0.3588887233809493
1782664727827507968,2.8080830574035645,-0.003337576985359192,0.26575830578804016,0.04150588437914848,-0.4465845823287964,-0.028599577024579048,0.8942844867706299,-0.4894506335258484,0.5170333981513977,-0.6887331008911133,0.22829786532250773,0.1765197154223241,-0.9570700209484473,0.027165500171711408,0.028603477004988765,-2.6784440319450264,0.3580306558648487
1782664727837427968,2.8180031776428223,-0.11700848489999771,0.35167694091796875,-0.11632821708917618,-0.44878795742988586,-0.02932632528245449,0.8931569457054138,-0.507434606552124,0.539793848991394,-0.7574911117553711,0.22954667009573204,0.1764843130050321,-0.9567819876987808,0.02701579302629497,0.02933052967727755,-2.675967972932902,0.35785662441333077
1782664727847347968,2.827923059463501,-0.15155227482318878,0.18032673001289368,-0.35146066546440125,-0.451021671295166,-0.031383611261844635,0.891960859298706,-0.3778204023838043,0.4170495271682739,-0.8387841582298279,0.23090000472639224,0.1778905585716615,-0.9562088562486544,0.02654558668910204,0.03138876552411563,-2.673433775468536,0.3603839148737299
1782664727857266944,2.8378419876098633,-0.22152496874332428,-0.47649240493774414,-0.42802974581718445,-0.44904959201812744,-0.034399837255477905,0.8928440809249878,-0.040635377168655396,0.3545597791671753,-0.8255378603935242,0.23009791017318104,0.17928205978532158,-0.9561798978787327,0.025154794001120938,0.03440662597472561,-2.6755935023745185,0.3625266923960037
1782664727867186944,2.847762107849121,-0.4101395010948181,-0.6504178047180176,-0.360463947057724,-0.4440476894378662,-0.039513666182756424,0.895131528377533,-0.011366128921508789,0.22893626987934113,-0.7680562734603882,0.2278831646361125,0.1808810625721578,-0.956476760361204,0.02243955746687373,0.039523957006573913,-2.6810941645312285,0.36454335377256886
1782664727877106944,2.8576819896698,-0.8183802366256714,-0.7450245022773743,-0.32446733117103577,-0.43805229663848877,-0.046498771756887436,0.8977460861206055,-0.05830082297325134,0.13269567489624023,-0.7468977570533752,0.2253501291669601,0.1819625636784274,-0.9569548961874935,0.018554586174082108,0.04651554271704077,-2.6876340481370495,0.3650635406924993
1782664727887026944,2.8676021099090576,-1.067609190940857,-0.8979856371879578,-0.4128914475440979,-0.43037766218185425,-0.05733073130249977,0.9008261561393738,0.10316824913024902,0.10397687554359436,-0.6147394180297852,0.2223288883104545,0.1828406607915916,-0.9575919651954694,0.012516181793712656,0.057362183901499844,-2.6958957704045186,0.3643317480715858
1782664727896945920,2.87752103805542,-0.7034133672714233,-1.0673378705978394,-0.38077211380004883,-0.42110371589660645,-0.06650493294000626,0.9045711159706116,0.3205482065677643,0.07485148310661316,-0.6297144889831543,0.21831739429975452,0.18396583169212488,-0.9583538689085868,0.007210773739905229,0.0665540582245962,-2.705900464205138,0.36456890637712225
1782664727906866176,2.8874411582946777,-0.3993200659751892,-1.2755545377731323,-0.47935569286346436,-0.4098016321659088,-0.07378105074167252,0.9091858863830566,0.4025689661502838,0.2932634651660919,-0.5722413063049316,0.21307237275300053,0.18523300377531046,-0.959313133747383,0.0026868273960794164,0.07384815777621002,-2.7181279258961246,0.36560277549383474
1782664727916785920,2.8973610401153564,-0.06085093691945076,-1.3805397748947144,-0.5519401431083679,-0.3974573612213135,-0.07802217453718185,0.914297878742218,0.4037286341190338,0.35001006722450256,-0.6701875925064087,0.2070051387688783,0.18748073254392192,-0.9602082616036025,-0.00020996804248546943,0.07810155332592461,-2.73152367939579,0.369398740443004
1782664727926706176,2.9072811603546143,-0.19334998726844788,-1.5293409824371338,-0.5153608918190002,-0.38268738985061646,-0.08120684325695038,0.9203017950057983,0.5451935529708862,0.2805781960487366,-0.6686693429946899,0.19960169580240417,0.1896672591258942,-0.9613413637154489,-0.0028559224492820602,0.0812963655850708,-2.7475162232125356,0.37334763531265674
1782664727936624896,2.9172000885009766,-0.41669386625289917,-1.626002311706543,-0.5385400056838989,-0.3635403513908386,-0.08722490817308426,0.9274860620498657,0.5399166941642761,0.05888933688402176,-0.5610920190811157,0.19027482849723,0.1925508175223326,-0.9626355600403999,-0.007245607199717824,0.08733589010598183,-2.7680337634012635,0.37832344020750586
1782664727946544896,2.9271199703216553,-0.3785264492034912,-1.6958796977996826,-0.4659910500049591,-0.34639590978622437,-0.09299146384000778,0.9334680438041687,0.6400360465049744,0.012165650725364685,-0.5168877840042114,0.1820246113385849,0.19435930990768915,-0.9638249260807661,-0.01153482544559078,0.09312600705724168,-2.7862587983042095,0.3812377744344145
1782664727956464896,2.937040090560913,-0.880041241645813,-1.869107723236084,-0.5553441047668457,-0.32845884561538696,-0.10075199604034424,0.9391292333602905,0.5574322938919067,-0.038026683032512665,-0.4218868613243103,0.1736384085437909,0.1962983240789009,-0.9648997727180937,-0.01688369058755265,0.1009232339618962,-2.8051420853533857,0.3842463564687396
1782664727966384896,2.946959972381592,-1.099718689918518,-1.8915899991989136,-0.5442236661911011,-0.30957159399986267,-0.11180038005113602,0.9442806243896484,0.5605787038803101,-0.09558179974555969,-0.2583218812942505,0.16517322458972847,0.1979105206541849,-0.965904620261233,-0.024029984212055936,0.11203460805439004,-2.824795529950975,0.3862842992229333
1782664727976304896,2.9568800926208496,-1.1382746696472168,-2.084764242172241,-0.5331467986106873,-0.289699912071228,-0.12416599690914154,0.9490297436714172,0.46297866106033325,0.006184995174407959,-0.27326345443725586,0.15640622528795445,0.19927563544052235,-0.9668526693078374,-0.03197493149749049,0.12448727815428999,-2.845318062449286,0.3879217683917216
1782664727986223872,2.966799020767212,-0.8714717626571655,-2.0706729888916016,-0.5867528319358826,-0.269277960062027,-0.13541455566883087,0.9534947872161865,0.3486694097518921,0.15889781713485718,-0.260303258895874,0.14731290037818554,0.20087237803780533,-0.9676764400679583,-0.03938939044733031,0.13583185995180602,-2.8663491066550684,0.390509982504855
1782664727996144128,2.9767191410064697,-0.6892979741096497,-2.0513112545013428,-0.4644540250301361,-0.24893873929977417,-0.14448770880699158,0.9576811194419861,0.2963477373123169,0.2479117512702942,-0.23847317695617676,0.13808423116912708,0.2023838869735368,-0.9684427366221798,-0.04574129920421951,0.144995225005375,-2.8872816758960926,0.3934587006914287
1782664728006063872,2.9866390228271484,-0.11818446218967438,-1.934441328048706,-0.5573991537094116,-0.228737011551857,-0.1496851146221161,0.9619117379188538,0.2894364595413208,0.2896386981010437,-0.26940667629241943,0.12857449777522184,0.2042480483346326,-0.9691432354854698,-0.05012826094186654,0.15024978750470847,-2.908134404600646,0.3977716761433204
1782664728015984128,2.9965591430664062,0.05095156282186508,-1.811750054359436,-0.5457853674888611,-0.20949570834636688,-0.15083786845207214,0.9661055207252502,0.2457810938358307,0.20680709183216095,-0.2844341993331909,0.11916516505979124,0.206361566169043,-0.9697771202365405,-0.05241186355987426,0.15141578794529864,-2.9280531254812945,0.40307198646242465
1782664728025903104,3.0064780712127686,-0.18422579765319824,-1.47526216506958,-0.5300992727279663,-0.19258606433868408,-0.15238985419273376,0.9693751335144043,0.180729940533638,-0.03894011676311493,-0.06329286098480225,0.11100835216799697,0.20853627139506248,-0.9701547225333516,-0.05467752610573023,0.15298592282864523,-2.945475965263232,0.4083807893602417
1782664728035822848,3.0163979530334473,-0.5085415840148926,-1.2605195045471191,-0.45452967286109924,-0.17855609953403473,-0.156791552901268,0.9713567495346069,0.18426290154457092,-0.2350083440542221,0.08841180801391602,0.10460754178267336,0.2102600392801947,-0.9702932964770724,-0.05812777895916138,0.1574411894504833,-2.959800783394573,0.4124162045790779
1782664728045743104,3.026318073272705,-0.8432828187942505,-1.0329245328903198,-0.42122882604599,-0.16665370762348175,-0.16403894126415253,0.9722744822502136,0.26145654916763306,-0.24909277260303497,0.0218508243560791,0.09959148628030955,0.21173522276809684,-0.9702089719023208,-0.06280342152210851,0.16478367188009022,-2.971836276858089,0.4156838021693938
1782664728055662848,3.036237955093384,-0.9995265007019043,-0.8887531757354736,-0.5053163170814514,-0.15653717517852783,-0.1738204061985016,0.972256600856781,0.28579437732696533,-0.2972794771194458,0.02301335334777832,0.09577089526343747,0.2132247044304798,-0.9698780948398956,-0.06855447418644894,0.17470781445434574,-2.9819586335601085,0.4187988222644051
1782664728065582080,3.046157121658325,-0.9415485262870789,-0.8885613679885864,-0.4709473252296448,-0.14684972167015076,-0.1842470020055771,0.971847653388977,0.30750954151153564,-0.18313883244991302,0.020538032054901123,0.09227238718563471,0.21487276092380642,-0.9694088449312016,-0.0745781070985445,0.1853056897874392,-2.9916235110150136,0.42229268510380735
1782664728075501824,3.056077003479004,-0.6576731204986572,-0.7727434039115906,-0.5002356767654419,-0.13765470683574677,-0.19277136027812958,0.9715398550033569,0.24622100591659546,-0.02330830693244934,0.050218820571899414,0.08882888591743468,0.21657271988516663,-0.9689510800381945,-0.0796198771505228,0.19398569996141823,-3.000842392534107,0.4260791693298067
1782664728085422080,3.0659971237182617,-0.34009191393852234,-0.6022176146507263,-0.4378820061683655,-0.12994037568569183,-0.19843372702598572,0.9714625477790833,0.11243855953216553,-0.03630748391151428,0.12422525882720947,0.08581673413359223,0.2183797626046445,-0.9685254483799898,-0.08309149538372942,0.19975961494736633,-3.0086244066385253,0.43019127458011625
1782664728095341824,3.0759170055389404,0.11448013782501221,-0.4520089626312256,-0.319828599691391,-0.1239234209060669,-0.2002044916152954,0.9718855023384094,0.11975777894258499,-0.08078610897064209,0.22875237464904785,0.08318200880809308,0.2199379995144623,-0.9682819919292335,-0.08448712815358171,0.2015666408574874,-3.014768758789431,0.43386334625572665
1782664728105262080,3.0858371257781982,0.6776803135871887,-0.33616045117378235,-0.2153516411781311,-0.11925388127565384,-0.1965596228837967,0.973212480545044,0.14693334698677063,-0.09630228579044342,0.32444053888320923,0.08056233830885952,0.22125707415575044,-0.9683240957341506,-0.08308666929966338,0.1978478503185689,-3.01966416482121,0.43716075235177726
1782664728115181056,3.0957560539245605,1.0387663841247559,-0.1292799562215805,-0.00893029198050499,-0.11654989421367645,-0.1880979686975479,0.9752101898193359,0.12030357122421265,-0.0815553218126297,0.5439088940620422,0.07830355512861738,0.2220611858901273,-0.9686557349238578,-0.0791414307856963,0.18922518038995945,-3.0226442481918703,0.4394047823469642
1782664728125101056,3.1056761741638184,0.9068344235420227,0.40398702025413513,0.4002363085746765,-0.11801113933324814,-0.17867860198020935,0.9768048524856567,0.06680262833833694,-0.19368164241313934,0.8394489288330078,0.07788383389603702,0.2215524079026988,-0.96918365899918,-0.0743759414867863,0.1796432706246997,-3.021361928316822,0.4386294368690113
1782664728135021056,3.115596055984497,0.6632140278816223,1.101077675819397,0.6053242683410645,-0.125620499253273,-0.1701555848121643,0.9773772358894348,0.001963287591934204,-0.5046795606613159,1.0371489524841309,0.08051611220596849,0.21974738506520203,-0.9697420748895368,-0.0694871231492417,0.17098755359245155,-3.013765298429298,0.43471114251265763
1782664728144941056,3.125516176223755,0.11734836548566818,1.6978428363800049,0.5575706958770752,-0.13838492333889008,-0.16606271266937256,0.9763567447662354,-0.03841865062713623,-0.7022234201431274,1.1363445520401,0.08620951787203013,0.21772759796845229,-0.9699345626541725,-0.06625309418495424,0.16683559145481763,-3.0007944598268006,0.4298406052129168
1782664728154860032,3.135435104370117,-0.48212069272994995,1.9947400093078613,0.5745587348937988,-0.15634672343730927,-0.16727584600448608,0.9734345078468323,0.20184841752052307,-0.7703615427017212,1.1064910888671875,0.09509612831180896,0.2155900579132524,-0.9696587957102426,-0.06511170727173804,0.16806592496739498,-2.9823392643529245,0.42411241519474907
1782664728164779776,3.145354986190796,-0.6674270629882812,1.9622968435287476,0.5520562529563904,-0.1763128936290741,-0.17225413024425507,0.9691454768180847,0.4881109595298767,-0.626314640045166,0.9516769647598267,0.10542084552087307,0.21322158892553494,-0.9690765228675251,-0.06568011953955658,0.1731175422608614,-2.9616346593844667,0.41749149210768305
1782664728174700032,3.1552751064300537,-0.18663908541202545,1.7438297271728516,0.481983482837677,-0.19461199641227722,-0.1759723424911499,0.9649661779403687,0.6679549217224121,-0.4014507532119751,0.7747340202331543,0.114822915553044,0.21110701591306963,-0.96846110407981,-0.06582221054875995,0.17689344256518807,-2.942584604083645,0.41154347983393946
1782664728184619776,3.1651949882507324,0.3995419144630432,1.7410783767700195,0.5047829747200012,-0.21200516819953918,-0.17381766438484192,0.9616866111755371,0.6242061257362366,-0.2831677794456482,0.6380752921104431,0.12317264059330446,0.20948500955403213,-0.9679666006776718,-0.0631282220865639,0.17470502941772909,-2.924611818057132,0.4071849516320273
1782664728194539008,3.175114154815674,0.8626347184181213,1.7885711193084717,0.5458033680915833,-0.22946062684059143,-0.16654600203037262,0.9589630961418152,0.5363454222679138,-0.2416571080684662,0.6419737339019775,0.1310146837296561,0.20790685126839092,-0.96760337905055,-0.0579102437125865,0.16732569781264445,-2.9067286356641886,0.4035139203290533
1782664728204459008,3.1850340366363525,1.0995153188705444,1.965840220451355,0.6485580205917358,-0.24796460568904877,-0.155753955245018,0.9561663866043091,0.43767714500427246,-0.3396531343460083,0.6698101162910461,0.13902979429115317,0.20626010182033444,-0.9672331467248698,-0.05086744342599656,0.15639067631058512,-2.88785033733603,0.4002123593281265
1782664728214379008,3.1949541568756104,1.1897295713424683,2.1665701866149902,0.7970795631408691,-0.2683793008327484,-0.14312762022018433,0.9526211023330688,0.3931809663772583,-0.3370969593524933,0.7196658253669739,0.14783841575797518,0.20407326079063134,-0.9667805669076759,-0.04281627858296908,0.14362086177474656,-2.866983019631318,0.3961848093913123
1782664728224299008,3.204874038696289,1.1418452262878418,2.264836549758911,0.7787668704986572,-0.2904588580131531,-0.13011522591114044,0.9479997158050537,0.37598440051078796,-0.356365442276001,0.7326184511184692,0.1575204902380053,0.20167368311589473,-0.9660888000782687,-0.0344584046420244,0.13048519927283164,-2.844282645117345,0.3920260191811327
1782664728234219008,3.214794158935547,1.2040244340896606,2.0934159755706787,0.7139421105384827,-0.311732679605484,-0.11684221029281616,0.9429587721824646,0.43302473425865173,-0.2853642404079437,0.6466716527938843,0.16685704907049567,0.19932776968752544,-0.9652708503757258,-0.026067153016756568,0.11710971647092307,-2.822313181730159,0.3883972588402341
1782664728244137984,3.224713087081909,1.2260242700576782,2.0453338623046875,0.7869536280632019,-0.33164480328559875,-0.10313662141561508,0.9377498626708984,0.41334033012390137,-0.2686285376548767,0.5493413209915161,0.17554218002844132,0.197026223304014,-0.9643939080379115,-0.01760888014345615,0.1033203466415734,-2.8016608209416853,0.38530724672313105
1782664728254057984,3.234632968902588,0.8617419600486755,1.9887351989746094,0.705575168132782,-0.3509865403175354,-0.09070166200399399,0.9319770336151123,0.33899322152137756,-0.390713095664978,0.4611959457397461,0.18415645988183904,0.19453700234882335,-0.9634022320669454,-0.009887445158682789,0.09082649143247211,-2.781416224696544,0.3819486912178111
1782664728263977984,3.2445530891418457,0.4454348683357239,1.9355616569519043,0.7973403930664062,-0.3695797622203827,-0.08196879923343658,0.9255765080451965,0.3102383315563202,-0.4680037200450897,0.4888063669204712,0.1928580505534647,0.19163338481134928,-0.962322665616977,-0.004184002094817161,0.08206087058970529,-2.7616926214843747,0.37734369041008387
1782664728273897984,3.2544729709625244,0.05945896357297897,1.8880388736724854,0.7582630515098572,-0.38761332631111145,-0.07695743441581726,0.9186043739318848,0.2870425581932068,-0.5105975270271301,0.41946959495544434,0.20173662162321662,0.18817177964035686,-0.9611938175305819,-0.0005384738403389322,0.07703359955149576,-2.74230061071472,0.3710532071423038
1782664728283816960,3.264392137527466,-0.05817119777202606,1.8328498601913452,0.8184379935264587,-0.4050214886665344,-0.07403811067342758,0.9113049507141113,0.20510074496269226,-0.3350805640220642,0.3111532926559448,0.21058049514923963,0.18442093943073135,-0.9600215517137928,0.0018920385939634864,0.07410591896140287,-2.723371000371807,0.36384454306501723
1782664728293736960,3.2743120193481445,-0.10985969752073288,1.720658302307129,0.7321808934211731,-0.4214498996734619,-0.07164609432220459,0.9040172100067139,0.20706382393836975,-0.1040131002664566,0.17206323146820068,0.2190349513211281,0.18059433510247414,-0.9588505119712901,0.0038936474504125945,0.07170752828459373,-2.705351448967572,0.35642732201449434
1782664728303656960,3.2842321395874023,-0.0022803018800914288,1.6546127796173096,0.7061465978622437,-0.43693074584007263,-0.06922576576471329,0.8968271017074585,0.11928859353065491,0.03628206253051758,0.016273856163024902,0.22705129469632904,0.17705107538066636,-0.9576358686605997,0.005833943222055087,0.0692811754844727,-2.6882404563697886,0.349653139896615
1782664728313576960,3.294152021408081,0.08553211390972137,1.4842517375946045,0.6371289491653442,-0.4512518346309662,-0.06590069085359573,0.889959990978241,0.01285165548324585,0.12992659211158752,-0.13373446464538574,0.23442152651997353,0.17383884511817793,-0.9564308905976107,0.008156596123458069,0.06594848739165503,-2.6723230780621057,0.3438206768661591
1782664728323495936,3.3040709495544434,0.2893404960632324,1.300925374031067,0.5881812572479248,-0.463761568069458,-0.06178291141986847,0.8838030099868774,-0.07745233178138733,0.24951180815696716,-0.18669015169143677,0.24079418123824858,0.17112488730077408,-0.9553102996163195,0.010796932405761166,0.06182228601138125,-2.6583541186924426,0.3392608587067795
1782664728333415936,3.313991069793701,0.4859960377216339,1.1521145105361938,0.4323365390300751,-0.47466403245925903,-0.05590256303548813,0.8783901929855347,-0.18414950370788574,0.25860029458999634,-0.2945735454559326,0.24616989155123706,0.1690991753877904,-0.9542539267808521,0.014331451749302037,0.05593172095784624,-2.646165614520987,0.3366209288099928
1782664728343335936,3.32391095161438,0.33986592292785645,0.862109363079071,0.2792487144470215,-0.48348334431648254,-0.05067603290081024,0.8738856315612793,-0.28575804829597473,0.17643895745277405,-0.30639588832855225,0.2504987047210895,0.16790107573448051,-0.9532848752295492,0.01754038595017991,0.05069774967910956,-2.636252306660572,0.33558959741659794
1782664728353255936,3.3338310718536377,0.2812982201576233,0.782102644443512,0.30035319924354553,-0.49061334133148193,-0.04667280614376068,0.870126485824585,-0.2756830155849457,0.19761276245117188,-0.32703572511672974,0.2540413491314566,0.1668215820780009,-0.952488215375466,0.019993083444349365,0.04668976840157541,-2.628184786883742,0.33451077487889375
1782664728363175936,3.3437509536743164,0.26294583082199097,0.4925624430179596,0.1567026823759079,-0.49614712595939636,-0.04309048876166344,0.867168664932251,-0.3650589883327484,0.34164395928382874,-0.4027978181838989,0.2567603057336818,0.1659642015943784,-0.9518614536665617,0.022133236191849474,0.0431038356874772,-2.6219058494522707,0.3337834728394305
1782664728373094912,3.353670120239258,0.2551960349082947,0.3271745443344116,0.162614107131958,-0.4993383586406708,-0.040496643632650375,0.8654600977897644,-0.35138484835624695,0.4364774823188782,-0.3705107569694519,0.258281434443562,0.16562233555606867,-0.9514721720209003,0.023677888933062153,0.04050772109473115,-2.618284455566945,0.3338363676131247
1782664728383014912,3.3635900020599365,-0.061241891235113144,0.444216251373291,0.15709039568901062,-0.5026640295982361,-0.038612883538007736,0.8636188507080078,-0.30994266271591187,0.40735679864883423,-0.39868372678756714,0.2599543465787959,0.16494339424978818,-0.9511062546733436,0.02478304612488153,0.03862248564521787,-2.61448087949248,0.33300676680703356
1782664728392934912,3.3735101222991943,-0.45809870958328247,0.23728090524673462,-0.10192091763019562,-0.5057918429374695,-0.040831420570611954,0.8616887927055359,-0.332693874835968,0.5183857083320618,-0.3960667848587036,0.261892696786624,0.16445835453717247,-0.9506828388161858,0.023829957394344733,0.040842775113473916,-2.6108036346369308,0.3314861820803708
1782664728402854912,3.383430004119873,-0.3258882462978363,-0.4028322398662567,-0.39689040184020996,-0.5051013827323914,-0.04552958533167839,0.8618582487106323,-0.04506951570510864,0.43922159075737,-0.4441641569137573,0.2619265674735549,0.1652027283525778,-0.9505983361323506,0.02157187758708734,0.045545329997937326,-2.611485590697222,0.3317743723122712
1782664728412774144,3.3933491706848145,-0.436298131942749,-0.9362388849258423,-0.5107733011245728,-0.49874284863471985,-0.050429943948984146,0.8652816414833069,0.046823322772979736,0.31600916385650635,-0.5657211542129517,0.2588470539004962,0.16688041724135733,-0.9512054169111779,0.018903942511008093,0.050451343575547127,-2.6187116448921257,0.3338453754859682
1782664728422693888,3.403269052505493,-1.0994938611984253,-0.7214452028274536,-0.4533745348453522,-0.49148029088974,-0.06014467403292656,0.8688095211982727,0.02154010534286499,0.44997620582580566,-0.6049544811248779,0.25575573089537074,0.16811203877711514,-0.9519154973417406,0.013576079078465282,0.060180994760216135,-2.6267802489706638,0.3337562253444494
1782664728432614144,3.413189172744751,-0.9850490093231201,-0.6193305253982544,-0.5136948823928833,-0.4856804609298706,-0.0715675801038742,0.8712018132209778,-0.3070593774318695,0.1977119892835617,-0.7010052800178528,0.25365863486905726,0.16926651333044315,-0.9523390989212533,0.007510060028103356,0.07162881292450146,-2.633022260766956,0.33317687800598605
1782664728442533888,3.4231090545654297,-1.0997388362884521,-0.8013778924942017,-0.5564022660255432,-0.47909045219421387,-0.08326953649520874,0.8738067150115967,-0.07088199257850647,0.11268850415945053,-0.7095460295677185,0.2511871704519316,0.17048789973499637,-0.952804926533315,0.0012485287108167569,0.0833660684236562,-2.6400711807385226,0.33275175015556413
1782664728452452864,3.433027982711792,-1.0306202173233032,-1.24025559425354,-0.5359233617782593,-0.4694855511188507,-0.0951608419418335,0.8777968883514404,0.15466633439064026,0.24234715104103088,-0.6325883269309998,0.24712784923398576,0.17164905068152256,-0.9536430410166655,-0.005412047155538464,0.09530505496034544,-2.6504589125000275,0.33226945003455777
1782664728462373120,3.44294810295105,-1.011926531791687,-1.4488418102264404,-0.6131647825241089,-0.45736163854599,-0.10701543092727661,0.882818341255188,0.2000221312046051,0.3196771740913391,-0.6204739809036255,0.24174767772026215,0.17314154398978818,-0.9546890412745718,-0.012204131964532797,0.10722075654803284,-2.6635938162808066,0.33266955887206046
1782664728472292864,3.4528679847717285,-0.41983067989349365,-1.283074975013733,-0.5976691246032715,-0.4440716803073883,-0.11602285504341125,0.8884472846984863,0.19095900654792786,0.35441094636917114,-0.6262557506561279,0.23552126143603022,0.17532660325039295,-0.9557636903651427,-0.017492069596269297,0.11628474819609323,-2.6780818858735533,0.3353766158949371
1782664728482213120,3.4627881050109863,-0.24175719916820526,-1.2582963705062866,-0.709686815738678,-0.4322058856487274,-0.12203089892864227,0.8934797644615173,0.12358173727989197,0.49162933230400085,-0.6425033807754517,0.22982053637852728,0.17793116272651394,-0.956598334019152,-0.021036220204275743,0.12233581601580347,-2.691042900358493,0.33973656413002173
1782664728492131840,3.4727070331573486,-0.17021510004997253,-1.3526383638381958,-0.6663596034049988,-0.41974058747291565,-0.12749122083187103,0.8986456394195557,0.28825560212135315,0.4253733158111572,-0.5812628269195557,0.22380409132885012,0.18101505569712187,-0.9573695083601016,-0.024268269668224946,0.1278391477775674,-2.7046250623946477,0.3453182348396275
1782664728502052096,3.4826271533966064,0.18481335043907166,-1.564993143081665,-0.6489567756652832,-0.40479424595832825,-0.12994875013828278,0.9051268696784973,0.6406952142715454,0.23544803261756897,-0.6215882301330566,0.2162109948010012,0.18412743038911022,-0.9584678079282328,-0.026254401752584144,0.13031728880925206,-2.721049856757276,0.35173681802272244
1782664728511971840,3.492547035217285,0.07154805213212967,-1.7184783220291138,-0.7163054347038269,-0.38760945200920105,-0.13152118027210236,0.9123929738998413,0.6489009857177734,0.01582905650138855,-0.6114439368247986,0.20741098190236776,0.1874828594098423,-0.9597117650961633,-0.0280027672822465,0.13190333220239525,-2.7398683019146897,0.35895327901822166
