time,seconds_elapsed,rotationRateX,rotationRateY,rotationRateZ,gravityX,gravityY,gravityZ,accelerationX,accelerationY,accelerationZ,quaternionW,quaternionX,quaternionY,quaternionZ,pitch,roll,yaw
1782664918107917312,0.16241025924682617,0.01897718384861946,0.18829452991485596,-0.21144482493400574,0.05053454637527466,0.643718421459198,-0.7635920643806458,0.0010554231703281403,-0.0634419322013855,0.07369643449783325,0.6943336365232259,-0.23531893060221515,0.25065705157714174,-0.6322158118802973,-0.6993473821087551,0.06608366416984077,-1.4531058437682873
1782664918117837312,0.17233014106750488,-0.11029052734375,0.16442382335662842,-0.16779188811779022,0.0508863739669323,0.6441826820373535,-0.7631770968437195,0.016145475208759308,-0.08249145746231079,0.05107992887496948,0.6934710133047853,-0.23509326098716968,0.251281959237884,-0.6329980139490543,-0.6999542383378766,0.06657847437016792,-1.4553714054240772
1782664918127756288,0.1822493076324463,-0.2064523994922638,0.13499388098716736,-0.10345280170440674,0.051962096244096756,0.6448715329170227,-0.7625225186347961,0.01587846875190735,-0.0750320553779602,0.022379755973815918,0.6928585954104363,-0.23482904095470775,0.252178609340008,-0.6334100257232155,-0.7008552172656316,0.06803980750296491,-1.4563307090772923
1782664918137676288,0.192169189453125,-0.22872735559940338,0.11682446300983429,-0.06431978195905685,0.05330609902739525,0.6456125974655151,-0.7618023753166199,-0.0018840022385120392,-0.04589641094207764,-0.002464592456817627,0.6924483417264501,-0.23457793190900822,0.2531244771882724,-0.6335744091320603,-0.701825172095958,0.06985978821658427,-1.4564748000723016
1782664918147596288,0.2020893096923828,-0.19699251651763916,0.09934838116168976,-0.05035160481929779,0.05448130890727043,0.6460843086242676,-0.761319100856781,-0.01085643470287323,-0.009518206119537354,-0.02603435516357422,0.6921670422379044,-0.23429824434731808,0.25385974318442844,-0.6336910158727678,-0.7024430658493007,0.07143994146973592,-1.4564586199338703
1782664918157515264,0.21200823783874512,-0.125421941280365,0.07803643494844437,-0.05064614862203598,0.055244654417037964,0.6460536122322083,-0.7612902522087097,-0.005638349801301956,0.027850806713104248,-0.03462344408035278,0.6919771814527328,-0.23393951972085675,0.25421874709734105,-0.6338871010231912,-0.7024027995035147,0.07244016089745907,-1.4566751042405666
1782664918167435264,0.22192811965942383,-0.023653434589505196,0.07159534841775894,-0.04952652007341385,0.055755458772182465,0.6453354954719543,-0.7618618011474609,-0.0041502490639686584,0.050190627574920654,-0.03293794393539429,0.6918970670873882,-0.2333586144132558,0.25419056600694173,-0.6341997595491023,-0.7014623610934358,0.07305293256820827,-1.4570956452120871
1782664918177355264,0.23184823989868164,0.13058620691299438,0.062040459364652634,-0.03896176069974899,0.05612942948937416,0.6438466906547546,-0.7630929946899414,-0.012382466346025467,0.06730443239212036,-0.016921043395996094,0.6919477112270541,-0.2324816964441703,0.2537829079053423,-0.6346296933941286,-0.699515039933605,0.07342293808831671,-1.4576434114447323
1782664918187274240,0.24176716804504395,0.32116076350212097,0.04892062768340111,-0.03395751491189003,0.056165311485528946,0.6416947245597839,-0.7649008631706238,-0.016690824180841446,0.055082619190216064,-0.007758438587188721,0.6920851862020365,-0.23141904942376673,0.2529719158810433,-0.6351916987682873,-0.6967058789897544,0.07329668227730496,-1.458490085079782
1782664918197194240,0.25168728828430176,0.4211009442806244,0.058595623821020126,-0.05698986351490021,0.05591841787099838,0.6389013528823853,-0.7672536969184875,-0.018519125878810883,0.040068984031677246,0.006343662738800049,0.6922687312208378,-0.23014915905973116,0.25180255731600804,-0.635917279605589,-0.6930692500062118,0.07275263560862606,-1.4597108376233607
1782664918207114240,0.26160717010498047,0.4645938575267792,0.06261174380779266,-0.11407841742038727,0.05531006306409836,0.6359226703643799,-0.769768238067627,-0.021832279860973358,0.003832578659057617,0.04650163650512695,0.6923136759349122,-0.22886238865584876,0.25047531394429773,-0.6368562983020826,-0.6892035035424452,0.07172960385777019,-1.4616431115085708
1782664918217033472,0.2715263366699219,0.47985032200813293,0.06378593295812607,-0.21308301389217377,0.05415777117013931,0.6329703330993652,-0.7722794413566589,-0.02327398955821991,-0.026265621185302734,0.08975380659103394,0.6921012837431004,-0.2276858895577464,0.24903699754336467,-0.6380717748381514,-0.6853840118506433,0.07001255296492317,-1.4646170478630265
1782664918226953216,0.2814462184906006,0.6089571118354797,0.017830274999141693,-0.33347365260124207,0.05215311795473099,0.6296472549438477,-0.7751286029815674,-0.028196822851896286,-0.009148597717285156,0.13839459419250488,0.6916164996855445,-0.22652526622268473,0.24722863109532736,-0.6397116008620994,-0.6810990948001376,0.06718192575646899,-1.4690470870121508
1782664918236873472,0.2913663387298584,0.8476082682609558,-0.028839226812124252,-0.564849317073822,0.04895969480276108,0.6249281764030457,-0.7791455388069153,-0.028451863676309586,0.06885844469070435,0.18431216478347778,0.6909039062518545,-0.22501300985148198,0.24453299857132307,-0.6420471291337683,-0.6750395002374435,0.06275516546168017,-1.475492713707469
1782664918246792192,0.3012852668762207,1.355002522468567,-0.06776166707277298,-0.9202638864517212,0.04367775842547417,0.6178413033485413,-0.7850887775421143,-0.03089088574051857,0.21057361364364624,0.25359463691711426,0.6896398040064963,-0.22289355700474367,0.24036238318827702,-0.6457099480301323,-0.6659943545739325,0.05557687381165903,-1.4857976515069737
1782664918256712192,0.3112051486968994,2.112154960632324,-0.0866706445813179,-0.9874642491340637,0.03680292144417763,0.6060797572135925,-0.7945520281791687,0.012803390622138977,0.30839473009109497,0.3052942156791687,0.6882319330524403,-0.21909091160731087,0.2339298377545921,-0.650855492854179,-0.6511226691802086,0.04628600289132837,-1.499359774955611
1782664918266632192,0.3211252689361572,2.6718759536743164,-0.1700057089328766,-0.9558168053627014,0.029664311558008194,0.5895247459411621,-0.8072054386138916,0.09019345790147781,0.3558793067932129,0.3679811954498291,0.6874588404526818,-0.2134782721275493,0.22544245251826825,-0.6565082719616501,-0.6304703155804784,0.036732863308016166,-1.512765854379528
1782664918276551168,0.33104419708251953,3.294240951538086,-0.12001843750476837,-0.9542274475097656,0.022966748103499413,0.5685034394264221,-0.8223602175712585,0.051526665687561035,0.24239438772201538,0.42541807889938354,0.6872292603645193,-0.20603879563806007,0.21533206340352826,-0.6624923246295604,-0.6046856039810058,0.027920586029113657,-1.5254364983969777
1782664918286471424,0.34096431732177734,3.901059865951538,-0.1476605236530304,-1.1973180770874023,0.016149701550602913,0.541573166847229,-0.8404985070228577,0.04091817885637283,0.18837672472000122,0.43775802850723267,0.6870866942980962,-0.1963035213575555,0.20301647194639494,-0.6694483343579426,-0.5723073290146492,0.01921206970777611,-1.5391398210120908
1782664918296391168,0.35088419914245605,4.247814655303955,-0.26093143224716187,-1.3345584869384766,0.007717075292021036,0.509736180305481,-0.8602961301803589,0.1163979172706604,0.37913405895233154,0.4995478391647339,0.683394020497327,-0.18443244165816966,0.18930557264714756,-0.6805297251184625,-0.534878129487166,0.00897001360438006,-1.5641384484068592
1782664918306310144,0.36080312728881836,4.615725994110107,-0.2244299203157425,-1.3504146337509155,-0.0007410586113110185,0.47383758425712585,-0.8806119561195374,0.12651923298835754,0.41173675656318665,0.5631528496742249,0.6810475132604448,-0.17186819498386569,0.17365293387430453,-0.6902756388164972,-0.49364356393092934,-0.0008415266356582304,-1.5844670882014555
1782664918316230400,0.37072324752807617,4.7222771644592285,-0.1946917325258255,-1.4469074010849,-0.008544807322323322,0.43471282720565796,-0.900528609752655,0.08717333525419235,0.28394562005996704,0.597244918346405,0.6793765931381881,-0.15853862360598314,0.15684770587255392,-0.6990792590757979,-0.44971936053265066,-0.009488372129003868,-1.601551295000294
1782664918326150144,0.3806431293487549,4.826009273529053,-0.16767913103103638,-1.5892492532730103,-0.016134746372699738,0.39357396960258484,-0.9191513657569885,0.06844188272953033,0.27959802746772766,0.627845823764801,0.6778137461994544,-0.14494974037929495,0.13933376995774358,-0.7072087016560402,-0.40451610170237545,-0.017552157571803298,-1.6168361695972868
1782664918336069376,0.3905622959136963,4.773487091064453,-0.11477650701999664,-1.707067847251892,-0.023229127749800682,0.3505343496799469,-0.936261773109436,0.07101966440677643,0.3056088387966156,0.5682045221328735,0.6745148171277526,-0.13070591807046208,0.12159394559110998,-0.7163522749966558,-0.3581416006902129,-0.024805416868219007,-1.635428631027886
1782664918345989120,0.400482177734375,4.224586009979248,-0.06289950013160706,-1.9321266412734985,-0.029695754870772362,0.3095179796218872,-0.9504297971725464,0.06653047353029251,0.3039921522140503,0.6176661252975464,0.6700518262157314,-0.11737680032245815,0.10491802342590265,-0.7254277673655626,-0.31468607141405475,-0.03123439179062185,-1.6550753217384206
1782664918355909376,0.4104022979736328,3.5963799953460693,-0.009204576723277569,-2.1525871753692627,-0.03565073013305664,0.273231565952301,-0.9612874388694763,0.05539559945464134,0.17772668600082397,0.6555165648460388,0.6637934429516837,-0.10583235786524053,0.09030942402312221,-0.7348619121456217,-0.2767508296336581,-0.037069452905423066,-1.6774961116234666
1782664918365828352,0.4203212261199951,2.710042715072632,0.022725887596607208,-2.359121799468994,-0.04109443724155426,0.2434353232383728,-0.9690461754798889,0.08400215208530426,0.0566592812538147,0.5919404625892639,0.6563540979762524,-0.09667582732520122,0.07829875817111281,-0.7441252960245217,-0.24590615934336923,-0.04238170371653952,-1.70121532913092
1782664918375748352,0.43024134635925293,1.946334958076477,0.031012047082185745,-2.5517215728759766,-0.046257924288511276,0.2214154750108719,-0.974081814289093,0.12116332352161407,0.005665823817253113,0.492880642414093,0.6474614020197569,-0.09027769656427109,0.0693471624722078,-0.753547958126543,-0.22326573210965048,-0.0474530974398393,-1.7272712197654476
1782664918385668352,0.44016122817993164,1.7299290895462036,-0.007699242793023586,-2.635540723800659,-0.051399003714323044,0.2037358433008194,-0.97767573595047,0.17163825035095215,-0.0338292270898819,0.30906611680984497,0.6373973763021461,-0.0855000464283786,0.06206344884263907,-0.7632578526181862,-0.20517229062726094,-0.05252429549947762,-1.7554400892973199
1782664918395587328,0.45008015632629395,1.8405158519744873,0.08034113794565201,-2.641134738922119,-0.05602272227406502,0.1861114501953125,-0.9809301495552063,0.23548133671283722,-0.006027236580848694,0.13339602947235107,0.6271385618811098,-0.08077514432965728,0.05486613802884709,-0.772762869260554,-0.1872029493417016,-0.057049862205581676,-1.783457274970671
1782664918405507328,0.46000027656555176,2.1983399391174316,0.14921294152736664,-2.588479995727539,-0.05913688242435455,0.16601915657520294,-0.9843477606773376,0.26581716537475586,0.06022290885448456,-0.020748674869537354,0.6163691166714081,-0.07488710135901294,0.04709620478474455,-0.782472362534274,-0.1667914141393531,-0.0600051041341771,-1.8121936748854204
1782664918415427328,0.46992015838623047,2.835468053817749,0.11229328066110611,-2.519232988357544,-0.061394933611154556,0.1409311294555664,-0.9881138801574707,0.26804471015930176,0.1189718097448349,-0.24237006902694702,0.6061686815305491,-0.06741450006637913,0.03739430875144236,-0.7915911964088331,-0.1414018672516235,-0.06205368414888188,-1.8389661883017518
1782664918425346304,0.4798393249511719,3.6607894897460938,0.03320843353867531,-2.515789270401001,-0.06341313570737839,0.1085599958896637,-0.9920652508735657,0.263455867767334,0.1709962785243988,-0.36900341510772705,0.5956889178335013,-0.057952689205482306,0.02467490360014028,-0.8007416662940873,-0.10877437000853715,-0.06383348051822217,-1.8658698831911908
1782664918435266304,0.4897592067718506,4.720768451690674,-0.05180153250694275,-2.518911838531494,-0.06521754711866379,0.06679735332727432,-0.9956328272819519,0.2783523201942444,0.18308056890964508,-0.3415558338165283,0.5853860746717204,-0.04604543016827475,0.00796178383512681,-0.8094069186063533,-0.06684712678972048,-0.06541016287832613,-1.891488499472936
1782664918445186304,0.4996793270111084,5.91415548324585,-0.14532752335071564,-2.3829565048217773,-0.06662677228450775,0.0137015450745821,-0.9976838827133179,0.33101582527160645,0.12620629370212555,-0.24361860752105713,0.5753860257410714,-0.031200794014101394,-0.013585518053418389,-0.8171737075836009,-0.01370197416126803,-0.06668243318452982,-1.9150820452023682
1782664918455105280,0.5095982551574707,6.872704982757568,-0.359342098236084,-2.1646149158477783,-0.06798435747623444,-0.05022484064102173,-0.9964213967323303,0.39150118827819824,0.02115684747695923,-0.08754771947860718,0.5655184195902928,-0.013820856167338452,-0.03997858463617694,-0.8236502017381075,0.05024598078306556,-0.06812294080497523,-1.9365280052261489
1782664918465025280,0.5195181369781494,6.410067081451416,-0.9115812182426453,-2.013059616088867,-0.07114478200674057,-0.11754970997571945,-0.9905152916908264,0.39530250430107117,-0.11406344920396805,0.06305557489395142,0.5556188409995386,0.003196993458711545,-0.06879060872644878,-0.8285803533254246,0.11782212639349966,-0.07170290030185267,-1.9559656396337515
1782664918474945280,0.5294382572174072,6.318711280822754,-0.3686012923717499,-2.110309362411499,-0.06897200644016266,-0.1777792125940323,-0.9816503524780273,0.33606186509132385,-0.4012308120727539,-0.07558536529541016,0.5457291558081413,0.019984469711897098,-0.09367734536921894,-0.8324691401651576,0.17872925409980414,-0.07014600118783569,-1.9747642225016628
1782664918484864256,0.5393571853637695,4.982633113861084,-1.464726209640503,-1.0148195028305054,-0.07661370933055878,-0.2348865270614624,-0.9689987897872925,0.55073481798172,-0.9221569299697876,0.17406165599822998,0.5367464584687929,0.03155909179580541,-0.12043516710619777,-0.8345073569189247,0.2371018279011674,-0.07890067935509482,-1.9890445498058194
1782664918494784256,0.5492773056030273,3.3673624992370605,-0.6922982335090637,-0.5187863111495972,-0.08382033556699753,-0.27356842160224915,-0.9581933617591858,0.3434333801269531,-1.0048282146453857,0.6386438012123108,0.531656808179535,0.03855291252189779,-0.13934490846418943,-0.8345284502000043,0.27710102741070153,-0.08725535907453251,-1.9949478077999783
1782664918504704256,0.559197187423706,2.2751386165618896,-0.9143691658973694,-0.8320453763008118,-0.08889862149953842,-0.30024635791778564,-0.9497100114822388,-0.02055266499519348,-0.8445595502853394,0.31163328886032104,0.5278616517866433,0.043243285185110954,-0.15256146255149017,-0.834396242561408,0.30495092637313737,-0.0933341008426808,-1.9991096718229606
1782664918514623232,0.5691161155700684,1.2838929891586304,-0.7987064719200134,-1.1651438474655151,-0.09344927221536636,-0.31714949011802673,-0.9437602758407593,0.06068865954875946,-0.6111341714859009,0.2702220678329468,0.5218178980506623,0.04492946169781494,-0.1615586802564866,-0.8364127728726299,0.32272228587796165,-0.09869629774224131,-2.009933281233474
1782664918524543232,0.5790362358093262,1.0226178169250488,-0.6261926889419556,-1.0442378520965576,-0.09589949250221252,-0.3282066583633423,-0.9397253394126892,0.039930254220962524,-0.4865058660507202,0.2961401343345642,0.516330227507294,0.045903819069111666,-0.16742215888508558,-0.8386094438683106,0.33440444761928706,-0.10169849000236628,-2.020649211574618
1782664918534463232,0.5889561176300049,1.2336430549621582,-0.6016007661819458,-1.0643255710601807,-0.09793632477521896,-0.33917051553726196,-0.9356130957603455,0.06656424701213837,-0.34124940633773804,0.15816253423690796,0.5111069841400208,0.04702853179716075,-0.17315248084587168,-0.8405807844602111,0.34603501004233983,-0.10429627560966323,-2.030728137981351
1782664918544382208,0.5988752841949463,2.0342352390289307,-0.5190793871879578,-1.1982632875442505,-0.09875290095806122,-0.35482364892959595,-0.9297032356262207,0.07693283259868622,-0.08787959814071655,0.1637578010559082,0.5054404459812694,0.04983553021329695,-0.18073410346265686,-0.8422479705165192,0.3627254362734351,-0.10582301809602108,-2.0411705945119314
1782664918554302208,0.608795166015625,3.192000389099121,-0.5573431849479675,-1.2610348463058472,-0.09880778938531876,-0.37964701652526855,-0.9198397397994995,0.13053083419799805,0.11504435539245605,0.12452113628387451,0.4990668014616156,0.055297494641709855,-0.19241182302827442,-0.8431205999598491,0.38941473258097614,-0.1070081638578432,-2.051544469014887
1782664918564222208,0.6187152862548828,4.390528202056885,-0.6323429346084595,-1.3045244216918945,-0.09867613762617111,-0.41493552923202515,-0.9044841527938843,0.2032904028892517,0.21023887395858765,0.14462697505950928,0.4920790116745504,0.06354958886557308,-0.20909180535461439,-0.8426745344949369,0.42787193004547536,-0.10866683295647903,-2.060894049587995
1782664918574141184,0.6286342144012451,5.771088123321533,-0.7966868877410889,-1.4565283060073853,-0.098629891872406,-0.46110954880714417,-0.8818447589874268,0.2284364402294159,0.20201531052589417,0.23311734199523926,0.484001531693995,0.07453647938313855,-0.23134808413887303,-0.8406337410174385,0.47924521237014056,-0.11138206649994371,-2.069546491700277
1782664918584061440,0.6385543346405029,6.746128082275391,-0.8471965789794922,-1.6569875478744507,-0.09784118831157684,-0.516517698764801,-0.8506683111190796,0.23526185750961304,0.13321691751480103,0.3132537603378296,0.47436016121919555,0.08815035836774074,-0.25864136250366293,-0.8368492795190119,0.5427791593259361,-0.11451365507243252,-2.0783353233164608
1782664918593981184,0.6484742164611816,7.322144508361816,-0.7679827213287354,-1.7509959936141968,-0.09471911936998367,-0.576174259185791,-0.8118199110031128,0.18733997642993927,0.056398868560791016,0.4097965955734253,0.4632816091800378,0.10386151662328164,-0.28862231029517654,-0.8314325624469318,0.6140400992601918,-0.1161498928887743,-2.088008631687894
1782664918603900160,0.658393144607544,7.744132041931152,-0.8133903741836548,-1.9098119735717773,-0.08953859657049179,-0.6368151903152466,-0.7657997608184814,0.2059479057788849,-0.05015075206756592,0.46897053718566895,0.4506406073621461,0.12070959438743044,-0.3202019894564477,-0.8245137424508546,0.6903604950068286,-0.11639321453644555,-2.099313141979221
1782664918613820416,0.6683132648468018,8.122968673706055,-0.9320719838142395,-2.0793395042419434,-0.0823957622051239,-0.6964836716651917,-0.7128263711929321,0.2144147753715515,-0.10669320821762085,0.48563826084136963,0.4363265493637419,0.13816374414096994,-0.3528421850482426,-0.8161079689625274,0.7704854376562001,-0.1150795134985012,-2.112931097577107
1782664918623740160,0.6782331466674805,8.93137264251709,-1.2522493600845337,-2.221647262573242,-0.07370184361934662,-0.7553899884223938,-0.6511175036430359,0.2121906280517578,-0.1334497332572937,0.46718811988830566,0.4197778469937537,0.15607948374825864,-0.38740215567045583,-0.8058196938040727,0.8562490731657981,-0.11271309013519225,-2.129606205063198
1782664918633659392,0.6881523132324219,9.065712928771973,-1.3389643430709839,-2.280580997467041,-0.06419293582439423,-0.8123300671577454,-0.5796542763710022,0.2836143374443054,-0.07663166522979736,0.278720498085022,0.40130798232945764,0.17414722709237676,-0.42408208164074673,-0.7929558268041658,0.9481363857891765,-0.1102940620003666,-2.147941533028594
1782664918643579136,0.6980721950531006,8.93942928314209,-1.383687138557434,-2.6502420902252197,-0.05059900879859924,-0.861768901348114,-0.5047714114189148,0.15850916504859924,0.09254282712936401,0.47816002368927,0.3811066595570828,0.1920553459882128,-0.45905232924674183,-0.7791941106799409,1.0387462690122355,-0.09990769207714473,-2.1746554024159557
1782664918653499392,0.7079923152923584,9.895679473876953,-1.6096508502960205,-2.4484164714813232,-0.0351707749068737,-0.9062581658363342,-0.4212590754032135,0.1232902854681015,0.03150230646133423,0.3534337282180786,0.359053412113183,0.210074529250132,-0.4952162628834028,-0.7626993199496018,1.1343466173490904,-0.08329647472952817,-2.2085384160028907
1782664918663418368,0.7179112434387207,9.932793617248535,-1.6562196016311646,-2.8424251079559326,-0.016813168302178383,-0.9438053965568542,-0.33007389307022095,0.08027448505163193,0.08787888288497925,0.39097172021865845,0.33487902266790726,0.22822707505101045,-0.5318603776763877,-0.7435677786692303,1.2339612370433215,-0.05089360488759267,-2.2591674426646793
1782664918673338112,0.7278311252593994,9.707223892211914,-1.6187998056411743,-3.0188474655151367,0.006718168035149574,-0.9716578722000122,-0.23629608750343323,-0.08739139139652252,-0.11933028697967529,0.41978299617767334,0.3085500299194514,0.24643230971952848,-0.566677223832669,-0.7231493252682761,1.3321459419436243,0.02842348857626859,-2.3573530685767734
1782664918683257344,0.7377502918243408,8.714639663696289,-1.4474527835845947,-2.955570936203003,0.03300284221768379,-0.9886385202407837,-0.14664508402347565,-0.039106335490942,-0.3111509084701538,0.45069169998168945,0.28235875684990436,0.263671238380009,-0.597624412337032,-0.7025639506936916,1.419911755940507,0.2213644106765753,-2.567765376894094
1782664918693177344,0.7476701736450195,7.5783233642578125,-1.3946970701217651,-2.911038637161255,0.060417626053094864,-0.9959614872932434,-0.06641210615634918,-0.06328625977039337,-0.5413463711738586,0.4753934144973755,0.2576209372819502,0.2793114787287967,-0.6235214857359911,-0.6832551363256816,1.4808937591626066,0.7381692873101546,-3.1000554169910517
1782664918703097344,0.7575902938842773,6.096493244171143,-1.1636590957641602,-2.8932626247406006,0.08881700783967972,-0.9960480332374573,0.000298293714877218,-0.13799604773521423,-0.7180176377296448,0.40236592292785645,0.23478976089072073,0.2931792722743398,-0.643579879392809,-0.6668768513024209,1.4818629109659034,1.5741548342087295,2.3334294083704723
1782664918713016320,0.7675092220306396,4.862109184265137,-0.9568018317222595,-2.661055088043213,0.11670202016830444,-0.9917420148849487,0.053183432668447495,-0.24667638540267944,-0.7561064958572388,0.2794734239578247,0.21487786896923483,0.30563857734477246,-0.6581616641696235,-0.653632762466146,1.4421930208864344,1.9983967151310242,1.8986806938520084
1782664918722936320,0.7774293422698975,4.0801215171813965,-0.8720337152481079,-2.459578514099121,0.14253628253936768,-0.9851273894309998,0.09595676511526108,-0.2783852517604828,-0.6348983645439148,0.13109399378299713,0.19748106911737065,0.3165197475705668,-0.6691738432380627,-0.642668609499923,1.398113670956456,2.1633148595677087,1.7251414760092052
1782664918732856320,0.7873492240905762,3.6286122798919678,-0.7746094465255737,-2.336888313293457,0.16687318682670593,-0.9770702719688416,0.1322384923696518,-0.32789918780326843,-0.41114383935928345,0.08799159526824951,0.18173675271223882,0.3263821329283003,-0.6779335882959165,-0.6331291485272065,1.3562368739274484,2.240916027171004,1.6401541673182432
1782664918742775296,0.7972681522369385,3.606877088546753,-0.6734338402748108,-2.195148229598999,0.1898745447397232,-0.9676673412322998,0.16603419184684753,-0.3604068160057068,-0.24960243701934814,0.062328800559043884,0.1668799842528272,0.3356603395015211,-0.6858201166854717,-0.6238059624179357,1.3158123613605661,2.2893099586610193,1.5850833430829916
1782664918752695296,0.8071882724761963,3.7848196029663086,-0.6543024778366089,-2.0445191860198975,0.2113078534603119,-0.9566752314567566,0.2003035992383957,-0.3754313886165619,-0.1768086552619934,0.06123208999633789,0.15247612613023512,0.3445618273997421,-0.6938508079862529,-0.6136768344139101,1.2753601595359036,2.329466267518433,1.538657709046145
1782664918762615296,0.817108154296875,4.1228814125061035,-0.6837394833564758,-1.8971881866455078,0.2313302755355835,-0.9436981678009033,0.23647437989711761,-0.366874098777771,-0.12069392204284668,0.06915915012359619,0.13781914342607052,0.3528244859966886,-0.7026749421024062,-0.6023028549274707,1.2336369877515405,2.3671903274404493,1.4936590796313998
1782664918772534272,0.8270273208618164,4.4212117195129395,-0.7323104739189148,-1.7187281847000122,0.24985608458518982,-0.9284298419952393,0.27493661642074585,-0.36495310068130493,-0.07509493827819824,0.028484463691711426,0.12290753619014286,0.36049700608419133,-0.7123975132883815,-0.5894281058857204,1.1901637966415268,2.4039494592887447,1.4487388033752397
1782664918782454272,0.8369472026824951,4.548604965209961,-0.8058516383171082,-1.5898419618606567,0.2670864462852478,-0.9109219908714294,0.31446149945259094,-0.3819393515586853,-0.03313928842544556,0.012458086013793945,0.1078683529127373,0.36752487312971466,-0.7226037773155851,-0.5754421617816343,1.1455132182235281,2.4374786937562973,1.4062470608227073
1782664918792374272,0.8468673229217529,4.414828777313232,-0.8572368025779724,-1.5039873123168945,0.28356799483299255,-0.8916888236999512,0.3528174161911011,-0.40510427951812744,-0.027851521968841553,-0.013019472360610962,0.09284121235942916,0.37382110489697096,-0.7325752453862977,-0.5612234517910015,1.1010625490180956,2.464584811780366,1.3693430962886082
1782664918802293248,0.8567862510681152,4.202731609344482,-0.9134438037872314,-1.3820103406906128,0.299315482378006,-0.8715474009513855,0.388349711894989,-0.409667044878006,-0.0824015736579895,-0.05860722064971924,0.07811961762482832,0.3792214777542377,-0.7418665175336687,-0.5474691763401587,1.0583494289528423,2.4849514446437206,1.33837172573904
1782664918812213248,0.866706132888794,4.022634029388428,-0.9845951795578003,-1.1881260871887207,0.3140162229537964,-0.8509284853935242,0.42108774185180664,-0.4168909192085266,-0.16335386037826538,-0.16095584630966187,0.06396789824954806,0.3837851437235988,-0.7505017247436396,-0.5341950472874901,1.0177503313826264,2.5008323287654273,1.311486729593737
1782664918822133248,0.8766262531280518,3.7224528789520264,-1.0701045989990234,-1.0545510053634644,0.3275810480117798,-0.8304777145385742,0.4505520164966583,-0.41499873995780945,-0.15546882152557373,-0.2492276132106781,0.050439771157652705,0.38728140821250845,-0.7584781566108657,-0.5217084759911125,0.9799647546539341,2.5129315736664597,1.2875775869707433
1782664918832052224,0.8865451812744141,3.180868148803711,-1.0259813070297241,-0.9576851725578308,0.34051015973091125,-0.8110328316688538,0.4756873548030853,-0.47002679109573364,-0.09887921810150146,-0.2591194212436676,0.03786216403207419,0.39017833774059735,-0.7652480260840142,-0.5106101631587328,0.945915482390261,2.5203229053595937,1.2686542325456864
1782664918841972224,0.8964653015136719,2.511005401611328,-1.0721930265426636,-0.8907487988471985,0.3526509702205658,-0.7940512895584106,0.49509528279304504,-0.5098776817321777,-0.03218144178390503,-0.22950100898742676,0.026721884776520315,0.39246228253319393,-0.7704031410814499,-0.501735126902291,0.917445238431524,2.5226664953986226,1.25553966335228
1782664918851892224,0.9063851833343506,1.9288018941879272,-1.0371357202529907,-0.8146476149559021,0.3644680678844452,-0.7798035144805908,0.5089889764785767,-0.5503353476524353,-0.010601818561553955,-0.20919948816299438,0.016877289931571424,0.39437941750958105,-0.7739246582262908,-0.4951977069972261,0.8943519403058371,2.5201674711636772,1.2481668778534651
1782664918861811456,0.916304349899292,1.1827540397644043,-0.953893780708313,-0.7668300867080688,0.37537840008735657,-0.7688003778457642,0.5177225470542908,-0.5290954113006592,-0.0023329854011535645,-0.1942976713180542,0.00807827204438895,0.3950392922645067,-0.7764053284308866,-0.4909922082953562,0.8769631622742678,2.514247048697157,1.2432426878121017
1782664918871731200,0.9262242317199707,0.5274057388305664,-0.9747940301895142,-0.6398556232452393,0.38561880588531494,-0.7617265582084656,0.5206449031829834,-0.5403275489807129,0.07328039407730103,-0.17326325178146362,0.001066893407982364,0.39552953299767907,-0.7770964133778864,-0.48956767949763436,0.8659738046017482,2.5040985399447773,1.244362742431567
1782664918881651200,0.9361441135406494,0.32447218894958496,-1.0442417860031128,-0.5441362261772156,0.3949300944805145,-0.7572879195213318,0.5201396346092224,-0.5401937961578369,0.10952180624008179,-0.32618510723114014,-0.004945230207200009,0.3953076551294682,-0.7770467746130566,-0.48980171762063757,0.8591503027127447,2.4921806507166364,1.2472215770519808
1782664918891570432,0.9460632801055908,0.15397074818611145,-1.0522688627243042,-0.5979661345481873,0.4042610228061676,-0.7536824941635132,0.5182042717933655,-0.5739541053771973,0.14175933599472046,-0.4780126214027405,-0.010765730557703012,0.39488746079881126,-0.7766376461213997,-0.49069536471194997,0.8536471824576491,2.4790923394811077,1.2510870887167453
1782664918901490176,0.9559831619262695,-0.15881772339344025,-1.0317051410675049,-0.7833461761474609,0.41465672850608826,-0.7509086728096008,0.5140001773834229,-0.6325979232788086,0.19484776258468628,-0.4639512896537781,-0.016368005286771105,0.39506497339830926,-0.7751927260084999,-0.49267847880284105,0.8494369686993992,2.4627646111428443,1.2593322700708354
1782664918911410432,0.9659032821655273,0.01117212325334549,-0.9951301217079163,-0.6867480278015137,0.4252793490886688,-0.748275637626648,0.5091379880905151,-0.6975570917129517,0.18682831525802612,-0.4945199489593506,-0.02194421561972579,0.39534623669296487,-0.7734793688208508,-0.4949238249173572,0.8454588843312822,2.445699008634712,1.2684934860504433
1782664918921329152,0.9758222103118896,0.04351022094488144,-0.8656943440437317,-0.7155938744544983,0.4349879026412964,-0.7449551224708557,0.5057942867279053,-0.5760552883148193,0.09735667705535889,-0.3970142602920532,-0.027320264010651362,0.39568709845609895,-0.7722233331226197,-0.49634322985490553,0.8404675258045216,2.431316182776528,1.2754933509517248
1782664918931249408,0.9857423305511475,-0.13332447409629822,-1.1601406335830688,-0.6391260027885437,0.44530242681503296,-0.7419833540916443,0.5011648535728455,-0.4030967056751251,0.07445722818374634,-0.23857641220092773,-0.033205349768713685,0.39544487948661355,-0.7708474319137831,-0.4983120648217338,0.8360239566571671,2.4151481130960275,1.2824936937470133
1782664918941168384,0.9956612586975098,-0.4091269075870514,-0.9903806447982788,-0.5210813283920288,0.4545460045337677,-0.7409877777099609,0.49429211020469666,-0.26555073261260986,0.03590977191925049,-0.1401815116405487,-0.0379646832921673,0.3950558798431245,-0.7688152597855601,-0.5014105260514538,0.8345401390785421,2.398059241754151,1.291634851702199
1782664918951087360,1.0055804252624512,-0.2194616198539734,-1.1362736225128174,-0.4710293114185333,0.4627343714237213,-0.7399025559425354,0.48828405141830444,-0.20188531279563904,-0.0385245680809021,-0.1835353970527649,-0.042212982392243574,0.3947740186927001,-0.7670042400077417,-0.5040596383504797,0.8329255338070984,2.383053638036911,1.2996845475443601
1782664918961007360,1.0155003070831299,-0.9104869365692139,-0.928979754447937,-0.5172879695892334,0.4707706868648529,-0.7404255867004395,0.47973400354385376,-0.10307970643043518,0.06755882501602173,-0.20884481072425842,-0.04594050670547987,0.3942536426594143,-0.7644809137266612,-0.5079590553156335,0.8337033128059798,2.3656242614191294,1.3103503744246185
1782664918970927360,1.0254204273223877,-1.393229603767395,-0.8823965191841125,-0.6380565166473389,0.47945335507392883,-0.743253231048584,0.46658265590667725,-0.04434889554977417,0.07188171148300171,-0.17314082384109497,-0.0485798022142055,0.3944436737111024,-0.7600694186323271,-0.514148574226947,0.8379200553307021,2.3425904740505903,1.3290949911641554
1782664918980846336,1.03533935546875,-1.2733256816864014,-0.857564389705658,-0.6782073378562927,0.4881175756454468,-0.7463697791099548,0.45240864157676697,-0.012318015098571777,0.08157485723495483,-0.2634589672088623,-0.050821104714066756,0.3949496632223293,-0.7551285245961615,-0.5207810937300492,0.8425906195360474,2.318245762455479,1.3502344247554674
1782664918990766336,1.0452592372894287,-0.9591965675354004,-0.8179075121879578,-0.7380882501602173,0.497214138507843,-0.7475734353065491,0.44035476446151733,0.013024568557739258,0.1651453971862793,-0.31907790899276733,-0.05369652145151644,0.3958167138222828,-0.7506707094279406,-0.5262503002486622,0.8444010122636005,2.2956231377669805,1.3695250078748824
1782664919000686336,1.0551793575286865,-0.5466452836990356,-0.9053779244422913,-0.8124905228614807,0.5062967538833618,-0.746883749961853,0.4310785233974457,0.12500524520874023,0.18767958879470825,-0.3629785180091858,-0.057254992497386956,0.39673198401983684,-0.7470896841263854,-0.5302666727178128,0.8433632498723117,2.2761226328225748,1.3849917429549348
1782664919010605312,1.0650982856750488,-0.47893866896629333,-0.9703130125999451,-0.8174929618835449,0.5165572166442871,-0.7448888421058655,0.4222669005393982,0.16117721796035767,0.1607060432434082,-0.4092511534690857,-0.06211683873222885,0.39724195108676763,-0.7438630779452938,-0.5338614859026682,0.8403682576623511,2.2560956784652513,1.398507214272953
1782664919020525568,1.0750184059143066,-0.5847140550613403,-1.0037753582000732,-0.7249671220779419,0.5261396765708923,-0.7431849241256714,0.41334348917007446,0.15194553136825562,0.12285423278808594,-0.413770854473114,-0.0666013588862746,0.39767095642704214,-0.7406278131636815,-0.5374870992926373,0.8378179897743403,2.236704513052637,1.4118055792209312
1782664919030445312,1.0849382877349854,-0.6029516458511353,-0.8892634510993958,-0.7408613562583923,0.5350669622421265,-0.7418250441551208,0.4042263627052307,0.08125078678131104,-0.0021172165870666504,-0.32263755798339844,-0.07065690373010534,0.39807345144796724,-0.7373267295498841,-0.541197216546237,0.8357878550943505,2.2177882685907204,1.4252077698461607
1782664919040364288,1.0948572158813477,-0.5738288760185242,-0.8502775430679321,-0.6902191042900085,0.5438057780265808,-0.7404090762138367,0.39505690336227417,0.037660956382751465,-0.053948283195495605,-0.24582582712173462,-0.074654510968924,0.3984440993303266,-0.7340100492437229,-0.5448838107502934,0.8336787727964556,2.199065345641905,1.438465218042114
1782664919050284288,1.1047773361206055,-0.6436945199966431,-0.8467333912849426,-0.6884081959724426,0.552435040473938,-0.7386718392372131,0.38623782992362976,0.06690394878387451,-0.06282657384872437,-0.1723400354385376,-0.07865923787875931,0.3988962461581894,-0.7307535115693696,-0.5483556200810334,0.8310978527974087,2.1809550851197645,1.451271567717001
1782664919060204288,1.1146972179412842,-0.8147262334823608,-0.5699007511138916,-0.46657076478004456,0.5594820976257324,-0.7382755875587463,0.3767349123954773,0.07178932428359985,-0.14731407165527344,-0.039500296115875244,-0.08143846179405898,0.39928466396277246,-0.727282068032778,-0.5522684148716127,0.8305101635096568,2.1634209857301556,1.4651249292257726
1782664919070123520,1.1246163845062256,-1.0049912929534912,-0.6678062677383423,-0.2205687016248703,0.564616858959198,-0.7396036982536316,0.3663251996040344,0.1177409291267395,-0.2675984501838684,-0.05004096031188965,-0.08310599816570144,0.39904499592961773,-0.723827112585053,-0.5567142891619644,0.8324813899919082,2.1463297205222993,1.4790470331125172
1782664919080043264,1.1345362663269043,-0.7927062511444092,-0.5389930605888367,-0.24662324786186218,0.5687946677207947,-0.7414774298667908,0.355926513671875,0.22933149337768555,-0.32692766189575195,-0.10554507374763489,-0.0843106652918444,0.3985329547856414,-0.7205100513251476,-0.5611848041588732,0.8352695891041138,2.129938897665014,1.4924928703959448
1782664919089963520,1.144456386566162,-1.0756031274795532,-0.7291470170021057,-0.15009324252605438,0.5726445913314819,-0.7434774041175842,0.34542638063430786,0.2775750756263733,-0.330130934715271,-0.21691694855690002,-0.08536275122730448,0.39792535543955626,-0.7171949535112002,-0.5656853857357389,0.8382552054543331,2.1135746220399447,1.5059880524324651
1782664919099882240,1.1543753147125244,-1.2348098754882812,-0.7027084827423096,-0.061968013644218445,0.5761022567749023,-0.7467494606971741,0.3323723375797272,0.2644585967063904,-0.39340245723724365,-0.17334523797035217,-0.08612493834741607,0.39665799425143794,-0.7133362451618849,-0.5713110440357635,0.843161320398604,2.094081986580101,1.5218638734965189
1782664919109802240,1.1642951965332031,-1.5704118013381958,-0.8442475199699402,0.18240605294704437,0.5781922936439514,-0.7516589760780334,0.3173368275165558,0.15569448471069336,-0.4897046685218811,-0.11743137240409851,-0.08590092532470814,0.3948670520621919,-0.7090475468957034,-0.5778864056502012,0.8505738099250899,2.072750862009093,1.5400818269937953
1782664919119722240,1.174215316772461,-1.8435451984405518,-0.748206615447998,0.6173096895217896,0.5777415633201599,-0.7592177391052246,0.299671471118927,0.1533069610595703,-0.5295547842979431,0.041682928800582886,-0.08439655698334494,0.3916824456307725,-0.7045712141814827,-0.5856973922154713,0.8621103502129044,2.0492875869100935,1.559907275900053
1782664919129641216,1.1841342449188232,-2.2574939727783203,-0.6478906273841858,0.7171066403388977,0.5745558142662048,-0.7689570784568787,0.28034043312072754,0.15600454807281494,-0.6267338991165161,0.19063737988471985,-0.08085560583805212,0.3881449026186215,-0.6996525973588279,-0.5943839072040906,0.8772082429810539,2.0247377614855027,1.5831498131473294
1782664919139561472,1.194054365158081,-2.7748520374298096,-0.7183313965797424,1.1076503992080688,0.5696393251419067,-0.7807651162147522,0.2567431926727295,0.30095088481903076,-0.6420101523399353,0.2648022174835205,-0.07587545573958558,0.38387608822697544,-0.6935493854543694,-0.6048730425386988,0.895889397808584,1.9942420684418525,1.6131640703478825
1782664919149481216,1.2039742469787598,-3.2518539428710938,-0.4645819664001465,1.5100075006484985,0.5611063838005066,-0.7953540682792664,0.22928521037101746,0.4057515263557434,-0.7568309903144836,0.2349177598953247,-0.06843690412484399,0.3785630280860908,-0.6865366965082551,-0.6169877199839439,0.9195914714323408,1.9587206186052473,1.6500146896020225
1782664919159400448,1.2138934135437012,-3.548156976699829,-0.6374139189720154,2.0735580921173096,0.5477320551872253,-0.8125714659690857,0.1992919147014618,0.5205816030502319,-0.9532366991043091,0.1943848431110382,-0.058228896559444784,0.3719003556202795,-0.6792172584620715,-0.6300503836817217,0.948550487965773,1.9197553667520066,1.6921289197641476
1782664919169320448,1.2238132953643799,-4.041036128997803,-0.5309410095214844,2.519019842147827,0.5301019549369812,-0.8317586183547974,0.1648319810628891,0.4816473126411438,-0.9424418210983276,0.2725611925125122,-0.04615082541684493,0.36315414748815095,-0.6712190835783954,-0.6445573079392527,0.9822680778140248,1.872262942899416,1.742168449311034
1782664919179240448,1.2337334156036377,-4.541818618774414,-0.21956291794776917,2.5292930603027344,0.5092960000038147,-0.8512053489685059,0.12675489485263824,0.3150142431259155,-0.8817046880722046,0.30194079875946045,-0.03152108846736874,0.3542139963730636,-0.6617476028536418,-0.6600218765135659,1.0182777045527387,1.8147230096726672,1.805775340813733
1782664919189159424,1.24365234375,-4.831919193267822,0.0896010622382164,2.1847777366638184,0.4895288944244385,-0.8677125573158264,0.08623543381690979,0.3254430294036865,-0.9485258460044861,0.3550640344619751,-0.015887114820541018,0.34692822567995374,-0.6501988323882603,-0.6757439951282938,1.050581740720366,1.7451673418513265,1.8857516692624698
1782664919199079168,1.2535722255706787,-4.966481685638428,0.31965479254722595,2.140796184539795,0.47059178352355957,-0.8812081217765808,0.04489590972661972,0.5413863658905029,-1.011110544204712,0.43293309211730957,0.0005217126760138532,0.3409709459728754,-0.6373278343248736,-0.6910512238354668,1.0784118134172014,1.6659115408687946,1.9789332926717864
1782664919208999424,1.2634923458099365,-4.928940773010254,0.38310807943344116,2.2815701961517334,0.45088714361190796,-0.8925786018371582,0.0020509567111730576,0.674845278263092,-0.9478449821472168,0.5752195119857788,0.017739923142538052,0.3349189714513114,-0.6235822006371771,-0.7061584861472814,1.1030320759683576,1.5753450096461916,2.0847291926222664
1782664919218918400,1.2734112739562988,-4.6449079513549805,0.16670508682727814,2.548069477081299,0.4275641143321991,-0.9031112194061279,-0.03973788768053055,0.7646355628967285,-0.7751572132110596,0.61407870054245,0.03568493786213512,0.32713212605005326,-0.6108319142490033,-0.7201357991887982,1.1269606292426635,1.4781223616948571,2.1957310026836105
1782664919228838400,1.2833313941955566,-4.235034942626953,0.06699846684932709,2.818568706512451,0.40227553248405457,-0.9120668172836304,-0.07942700386047363,0.7627940773963928,-0.5767637491226196,0.5408222675323486,0.05326995173582133,0.31807642671201775,-0.5992611153686779,-0.7327181627105983,1.148296697079413,1.3758593871007714,2.3095116858481024
1782664919238758400,1.2932512760162354,-4.186741828918457,-0.05653659254312515,2.8022348880767822,0.3765445351600647,-0.9189684987068176,-0.11709537357091904,0.6987423896789551,-0.4740980267524719,0.41276490688323975,0.0700762063726339,0.3084539359982209,-0.5884798066323885,-0.7440679683369493,1.1654566664632253,1.2693027401426433,2.4258387543142694
1782664919248677376,1.3031702041625977,-4.401334762573242,0.045486971735954285,2.787963390350342,0.3504069447517395,-0.9234631657600403,-0.15630415081977844,0.7466695308685303,-0.46629220247268677,0.32048875093460083,0.0870983348088728,0.2984636825104768,-0.5768599110970705,-0.755358262313364,1.177010687372139,1.1512198642245628,2.5538061672910484
1782664919258597376,1.3130903244018555,-4.499802589416504,-0.06983364373445511,2.7257091999053955,0.3253289759159088,-0.9248722195625305,-0.1969074159860611,0.8538550138473511,-0.6300594210624695,0.2751239538192749,0.10382319170399339,0.28859384016642037,-0.564145269818669,-0.7665993298642452,1.1806994886045528,1.0265208274744764,2.6885877639180844
1782664919268517376,1.3230102062225342,-4.782166481018066,-0.19604803621768951,2.736337661743164,0.29973313212394714,-0.9233764410018921,-0.23986679315567017,1.0175275802612305,-0.5585571527481079,0.34782272577285767,0.12060335646516923,0.2779127023811104,-0.5503009488056833,-0.778067003033756,1.1767846527363879,0.8958920653442788,2.8286221134866403
1782664919278436352,1.3329293727874756,-4.787093639373779,-0.43997716903686523,2.6958775520324707,0.2743125855922699,-0.9185425043106079,-0.2846620976924896,1.0084633827209473,-0.43039560317993164,0.43169572949409485,0.13661230977187155,0.2663082523610414,-0.5354893717820068,-0.7897266989060808,1.1643776285431875,0.7668851278533741,2.965028568437279
1782664919288356352,1.3428492546081543,-4.578972816467285,-0.5392293930053711,2.8317134380340576,0.24741937220096588,-0.9115584492683411,-0.32839730381965637,0.9311084151268005,-0.38365328311920166,0.521817684173584,0.15234164937641206,0.2536567683650378,-0.5210178375586174,-0.8006189056738083,1.1470585375577314,0.6456829597864989,3.091996298116506
1782664919298276352,1.352769374847412,-4.208734035491943,-0.6131044030189514,2.7807388305664062,0.2202705293893814,-0.9028852581977844,-0.3691602349281311,0.7970024943351746,-0.3113787770271301,0.5969128608703613,0.16746037776651554,0.24078701450569848,-0.5073869230933227,-0.8102698956271694,1.126434683757268,0.5379747276709382,-3.0786691558955157
1782664919308195328,1.3626883029937744,-3.6299169063568115,-0.6192762851715088,2.8030431270599365,0.19296903908252716,-0.8935520052909851,-0.40537381172180176,0.7555021047592163,-0.19430822134017944,0.6199886202812195,0.18170753337380016,0.2278952870444396,-0.49535525929301444,-0.8183332870048287,1.1051954916266196,0.44428625476251765,-2.9813921256582896
1782664919318115584,1.3726084232330322,-3.0936615467071533,-0.5537638664245605,2.8383665084838867,0.16553236544132233,-0.8846322298049927,-0.4359183609485626,0.6970469951629639,-0.11954861879348755,0.6113486289978027,0.1954729907780694,0.21547050516158828,-0.48540012959721945,-0.8244692011589125,1.0857047302440317,0.36291323246795587,-2.8964983161130635
1782664919328035328,1.382528305053711,-2.5761234760284424,-0.4148550033569336,2.6998631954193115,0.13918675482273102,-0.8763284683227539,-0.46116745471954346,0.6381417512893677,-0.0951223373413086,0.548127293586731,0.20859678330988823,0.20406343963401716,-0.4772571433756005,-0.8288975182498747,1.068186750392208,0.29312008470949774,-2.8226899977310445
1782664919337954304,1.3924472332000732,-2.3952198028564453,-0.36642903089523315,2.816520929336548,0.11354134231805801,-0.8683647513389587,-0.4827536940574646,0.5471642017364502,-0.09646373987197876,0.4502219557762146,0.2213467351811436,0.1933476048898829,-0.4703614034838582,-0.8320952988492393,1.0518953683942482,0.23099691561090066,-2.7560987950361717
1782664919347874304,1.402367353439331,-2.6942570209503174,-0.2347775101661682,2.7610323429107666,0.08812907338142395,-0.8589622974395752,-0.5043977499008179,0.43817710876464844,-0.1040198802947998,0.46200883388519287,0.23450749510877603,0.18281055983822156,-0.46301340252349305,-0.8349881436564008,1.0332396022087267,0.17297530891259433,-2.692427219780734
1782664919357794304,1.4122872352600098,-3.468083381652832,-0.14668938517570496,2.703434944152832,0.06423615664243698,-0.8454243540763855,-0.5302181243896484,0.25996729731559753,-0.12407326698303223,0.5242977738380432,0.2480322953867719,0.1722460406177305,-0.4530146265375311,-0.8388020668066132,1.0073592301204346,0.12056287704665494,-2.633078502752877
1782664919367713536,1.4222064018249512,-4.594858169555664,0.019310496747493744,2.609961986541748,0.041701607406139374,-0.8253060579299927,-0.5631436705589294,0.06184452399611473,-0.17370212078094482,0.5224485397338867,0.2623181287920396,0.1610212983723144,-0.4387485606706436,-0.8442517072799951,0.9707439758204768,0.07391654207921698,-2.578085214895827
1782664919377633280,1.4321262836456299,-6.283622741699219,0.10295292735099792,2.2514257431030273,0.02266268990933895,-0.7948246002197266,-0.6064159274101257,-0.135409876704216,-0.15604209899902344,0.35568350553512573,0.2767914558728064,0.14897663907943742,-0.41784925477435936,-0.8524051092960444,0.9187184877746416,0.03735414427908604,-2.5321175518413384
1782664919387553536,1.4420464038848877,-7.850203037261963,0.13391031324863434,2.0846683979034424,0.006731217261403799,-0.7506956458091736,-0.6606138944625854,-0.23062342405319214,-0.002508699893951416,0.17861926555633545,0.2912283660216116,0.13515226165750538,-0.3891361088075098,-0.8634193782457023,0.8491144444404322,0.010188983555528105,-2.4955722660308974
1782664919397472256,1.45196533203125,-8.844937324523926,0.1937258243560791,1.6837074756622314,-0.005689553916454315,-0.6935375332832336,-0.7203980088233948,-0.32330521941185,0.19970208406448364,0.19302374124526978,0.3050057505972898,0.12005917795831055,-0.3540999799887208,-0.8758826690211449,0.7663879176475573,-0.007897628319029508,-2.46822052717316
1782664919407392256,1.4618852138519287,-9.16617202758789,0.1377003788948059,1.2828608751296997,-0.014074856415390968,-0.6261368989944458,-0.7795860767364502,-0.4697660803794861,0.3596726655960083,0.2777397632598877,0.3167524744666609,0.10442016309320393,-0.31512438342134236,-0.888516136958563,0.6765887679696974,-0.01805230686750055,-2.4503410300264914
1782664919417312256,1.4718053340911865,-8.27187728881836,0.09599561244249344,0.9559133648872375,-0.019466884434223175,-0.5559048652648926,-0.8310179114341736,-0.5676608085632324,0.4189267158508301,0.3410734534263611,0.326101971593908,0.08944233126680762,-0.2765702588778253,-0.899536759694598,0.5894511413286172,-0.02342106416729394,-2.4389093681890572
1782664919427231232,1.4817242622375488,-6.460073947906494,0.20665448904037476,0.6638253331184387,-0.022601107135415077,-0.4936283826828003,-0.8693792223930359,-0.6581240296363831,0.4357060194015503,0.3740789294242859,0.3330120266173385,0.07696178182563992,-0.24369506298032464,-0.9076301454130634,0.5162569438741009,-0.02599098027570195,-2.4314242842657974
1782664919437151488,1.4916443824768066,-4.311034679412842,0.2912292778491974,0.39294227957725525,-0.0226893350481987,-0.4467446804046631,-0.8943737149238586,-0.6923069953918457,0.4442422688007355,0.4207104444503784,0.3374657094110856,0.06865010302042829,-0.2193177995676817,-0.9128547071030649,0.4631234173431598,-0.02536352290371226,-2.42741192622536
1782664919447071232,1.5015642642974854,-2.411083221435547,0.08263666182756424,0.7085623145103455,-0.02357623353600502,-0.4174758195877075,-0.9083821177482605,-0.6549363136291504,0.5140029191970825,0.4419972896575928,0.34118785605563856,0.06333022085842777,-0.2044461249467512,-0.9153042211794412,0.43066569821383816,-0.025948266402169445,-2.422307806976839
1782664919456990464,1.5114834308624268,-1.2700047492980957,0.32478851079940796,0.22122006118297577,-0.023974722251296043,-0.40184059739112854,-0.9153957366943359,-0.8733488917350769,0.6871799230575562,0.33179283142089844,0.34414824024725216,0.060733789364741525,-0.19650330361374707,-0.9161112014235704,0.41352599690319497,-0.02618457004634517,-2.4173977791408294
1782664919466910464,1.5214033126831055,-0.7426871657371521,0.05610617622733116,-0.140112042427063,-0.022819049656391144,-0.3937685191631317,-0.9189263582229614,-1.065697193145752,0.8487246036529541,0.2794457674026489,0.34485433726186965,0.05986268500534915,-0.19223237381638728,-0.9168089093504277,0.4047277488527832,-0.024827192360960596,-2.416947847028727
1782664919476830464,1.5313234329223633,-0.6733182668685913,0.0846821591258049,-0.2173987478017807,-0.021707482635974884,-0.38844171166419983,-0.9212175607681274,-1.092977523803711,1.06704580783844,0.26052725315093994,0.34420514888933157,0.059224521547448915,-0.18942986809286214,-0.9176772296064801,0.3989399181354438,-0.023559544091099022,-2.419142703427754
1782664919486749440,1.5412423610687256,-1.196221947669983,0.0883682444691658,-0.6455668807029724,-0.021447302773594856,-0.3825019598007202,-0.9237057566642761,-1.0321415662765503,1.1766914129257202,0.3040005564689636,0.34258828541133945,0.057873451387926364,-0.18654168284368297,-0.918959260189438,0.3925026510037608,-0.023214589724740706,-2.4232956081768204
1782664919496669184,1.5511622428894043,-0.6238786578178406,0.24940992891788483,-0.4848463535308838,-0.018714608624577522,-0.3752882182598114,-0.9267191886901855,-1.02228581905365,1.1359083652496338,0.3535075783729553,0.3406071777907093,0.057402660911481385,-0.18260703085223173,-0.9205141471455891,0.3847077104338261,-0.02019173040184317,-2.4288676835852687
1782664919506589440,1.561082363128662,-0.1169554814696312,-0.059508226811885834,-1.237897515296936,-0.015859194099903107,-0.37266600131988525,-0.9278300404548645,-0.9828285574913025,1.0719305276870728,0.2982829213142395,0.3373777022601371,0.057633172801667104,-0.18100665633062138,-0.9220039527776355,0.38188032075586126,-0.017091114600678387,-2.4367198284607094
1782664919516508416,1.5710012912750244,1.47006094455719,-0.4053402543067932,-1.5667729377746582,-0.012765354476869106,-0.3786754012107849,-0.9254415035247803,-1.1363739967346191,1.1878795623779297,0.2840840816497803,0.33048825756744615,0.05887195625096903,-0.18388403748555748,-0.9238496778110877,0.38836469394128575,-0.013792924820730378,-2.451791864821392
1782664919526428416,1.5809214115142822,1.576617956161499,-0.3529369831085205,-1.7752587795257568,-0.010237579233944416,-0.3941335082054138,-0.9189961552619934,-0.927338719367981,0.6586598753929138,-0.008585631847381592,0.3219434419944793,0.0611870425528204,-0.19172391827157886,-0.925121823731303,0.40512483779677133,-0.011139498082401946,-2.469518766768189
1782664919536348416,1.590841293334961,1.267982006072998,-0.35443589091300964,-1.531731128692627,-0.007223543245345354,-0.4069397449493408,-0.9134264588356018,-0.9835754036903381,0.4229462146759033,0.1043749451637268,0.3136268821617652,0.06320328454881866,-0.19822241986771189,-0.9264725449769932,0.4191013681920802,-0.007908017998871326,-2.487093318151073
1782664919546267392,1.6007602214813232,0.26182085275650024,-0.6785039305686951,-1.4839463233947754,-0.006819650065153837,-0.4156864583492279,-0.9094824194908142,-0.8444529175758362,0.4857090413570404,-0.04805237054824829,0.30677354505030996,0.06347008473127157,-0.20305256050363507,-0.9277020669265412,0.4286974171861066,-0.0074982453192607695,-2.501236976607176
1782664919556187392,1.610680341720581,-1.2046416997909546,-0.4769223928451538,-1.2825523614883423,-0.007603947538882494,-0.41004884243011475,-0.912031888961792,-1.0522104501724243,0.8172754049301147,0.3057239055633545,0.2994361896640606,0.060514600573584154,-0.20080350800039928,-0.93078138119398,0.4225076278525189,-0.008337177336055055,-2.5173087734267314
1782664919566107392,1.6206002235412598,-0.7736014127731323,-1.0447022914886475,-1.8316495418548584,-0.010855789296329021,-0.4015258550643921,-0.9157833456993103,-0.6471337080001831,0.3345245122909546,0.007717549800872803,0.292494580324259,0.05601099477984776,-0.197410982793598,-0.9339906934772347,0.4131823087051802,-0.011853547059407506,-2.53212447782326
1782664919576026368,1.6305193901062012,-1.8610695600509644,-0.1599227488040924,-2.052546501159668,-0.010259687900543213,-0.38901379704475403,-0.9211748242378235,-0.9677523970603943,-0.25261828303337097,-0.09310740232467651,0.282083876466561,0.052105889346120905,-0.19156611353691289,-0.93862457228482,0.3995608113959766,-0.011137151609225673,-2.555453529442194
1782664919585946368,1.6404392719268799,-0.8268661499023438,-0.27098348736763,-1.3748059272766113,-0.006141274701803923,-0.37426939606666565,-0.9272996783256531,-0.4727405607700348,0.22572508454322815,0.10770434141159058,0.275340992199128,0.0504670245519258,-0.18385656482872348,-0.9422511422992104,0.38360878483451916,-0.006622654151026108,-2.5717057461244646
1782664919595866368,1.6503593921661377,-0.7577333450317383,0.2175995409488678,-1.270607829093933,-0.0025393804535269737,-0.36851659417152405,-0.929617702960968,-0.41855740547180176,0.13394322991371155,-0.2608272433280945,0.2687662930174883,0.05008541975869492,-0.1807832756889508,-0.9447611863158738,0.3774127996406114,-0.002731632752511362,-2.5867535154650376
1782664919605785344,1.6602783203125,-0.6687595248222351,-0.8618358373641968,-0.164788156747818,-0.0031966823153197765,-0.36127859354019165,-0.9324524402618408,0.0018081280868500471,0.07195669412612915,0.02890324592590332,0.26565240172996574,0.04809909986787281,-0.17737039861035234,-0.9463905018858669,0.3696387487130753,-0.00342823890646007,-2.5936351714562327
1782664919615705344,1.6701982021331787,-1.2661899328231812,0.2902979850769043,-0.8170194625854492,-0.0032634998206049204,-0.3533896505832672,-0.9354705214500427,0.529356062412262,-0.2630959451198578,-0.18003851175308228,0.2633981090339474,0.046494616451671855,-0.1735021181614752,-0.9478168286118988,0.3611920760424433,-0.0034886043978024266,-2.598835446248206
1782664919625625344,1.6801183223724365,-0.6130459308624268,0.23206263780593872,-1.654963493347168,0.0052386862225830555,-0.34418511390686035,-0.9388871788978577,0.8843944668769836,0.18129757046699524,0.16068899631500244,0.25779390288477655,0.04833026001794569,-0.1679898557971494,-0.9502556712994106,0.3513707383325598,0.005579617990687242,-2.61275738768355
1782664919635544320,1.6900372505187988,0.033403392881155014,0.4224703907966614,-0.41381317377090454,0.010394320823252201,-0.3428525924682617,-0.9393317103385925,1.2303130626678467,0.05240154266357422,-0.09963923692703247,0.2532712585212078,0.049875844152435664,-0.1668728358176982,-0.951587977011185,0.3499518796815222,0.011065203717845083,-2.6232969631024186
1782664919645464320,1.6999573707580566,1.8407379388809204,0.13086970150470734,-0.3756234347820282,0.014186429791152477,-0.35147935152053833,-0.9360881447792053,1.1143231391906738,0.20795518159866333,-0.11771434545516968,0.25195127745040363,0.0527084392173614,-0.17081495183165038,-0.9510860291037319,0.3591508031151197,0.015153854689035079,-2.626422146189258
1782664919655384320,1.7098772525787354,1.7102299928665161,-0.3652351200580597,-0.6729691028594971,0.015967434272170067,-0.3665742874145508,-0.9302517175674438,0.6009911894798279,0.08382895588874817,-0.23385649919509888,0.2485137926140968,0.05505765079546252,-0.1784454599449006,-0.9504560142681151,0.37532432045180897,0.017162952741939443,-2.633366702431044
1782664919665303552,1.7197964191436768,1.6655828952789307,-0.5720854997634888,-0.13381586968898773,0.01132806483656168,-0.3826819062232971,-0.9238107204437256,0.5915619730949402,-0.16507810354232788,0.10690093040466309,0.24648440377226044,0.054620100664440355,-0.18738005931819443,-0.9492896239904348,0.3926974209139044,0.012261708291809378,-2.635948619156164
1782664919675223296,1.7297163009643555,0.47960299253463745,-0.5031567811965942,0.24366751313209534,0.006457172334194183,-0.39221519231796265,-0.9198508262634277,0.2925082743167877,-0.12554603815078735,0.30046606063842773,0.24526345341814934,0.053296378557923144,-0.19296135978285797,-0.9485626782084742,0.40303851303158117,0.007019688428758108,-2.636983043590181
1782664919685143552,1.7396364212036133,-0.9493091702461243,-0.36689746379852295,-1.0208549499511719,0.002276402898132801,-0.3911689519882202,-0.9203161001205444,0.12075521051883698,-0.2802330255508423,0.45879876613616943,0.24246686282992563,0.0505160238854084,-0.1931064365600073,-0.9494039631377099,0.4019014144862337,0.0024734960704114574,-2.64200904829566
1782664919695062272,1.7495553493499756,-0.38048064708709717,0.0074632358737289906,-0.3894539475440979,0.0023524602875113487,-0.38454198837280273,-0.9231045246124268,0.03185774013400078,0.020238399505615234,0.5132992267608643,0.23876373211044843,0.04890636508413717,-0.18988395458490007,-0.9510752162969633,0.39471159811458106,0.0025484168620633187,-2.650176212198382
1782664919704982272,1.7594752311706543,-1.1077401638031006,0.18491312861442566,-0.750785231590271,0.004936217796057463,-0.3769438564777374,-0.9262229800224304,0.18344879150390625,-0.10576793551445007,0.2748405337333679,0.23657587745008274,0.04873644986714086,-0.1857774907089185,-0.9524407677264214,0.3864945339634456,0.005329354982773267,-2.655711751951978
1782664919714902528,1.769395351409912,-1.2637773752212524,0.7355991005897522,0.18558380007743835,0.010573524050414562,-0.3658353388309479,-0.9306195378303528,0.16290366649627686,-0.052942126989364624,0.2936261296272278,0.23587876145829173,0.04992047572298038,-0.17943849799895104,-0.9537668089181619,0.3745301903682959,0.011361323174979017,-2.65884963029109
1782664919724821248,1.7793142795562744,-1.4838780164718628,0.7677367925643921,-0.3321506977081299,0.017078779637813568,-0.35236355662345886,-0.9357073307037354,0.5516620874404907,-0.17140960693359375,0.11057311296463013,0.23686332875705943,0.05154175934280407,-0.17172585064903217,-0.9548557804983648,0.3600954336090111,0.01825024042638545,-2.6586072310214246
1782664919734741504,1.7892343997955322,-1.1798111200332642,0.3931489884853363,-0.4789622128009796,0.023503189906477928,-0.3392716646194458,-0.9403947591781616,0.5660353899002075,-0.1491011381149292,-0.010655045509338379,0.23556166647689483,0.052771707909377616,-0.16437080504090681,-0.9564036796338511,0.346142535562826,0.024987695158773082,-2.6629757109080914
1782664919744661248,1.799154281616211,-1.0665396451950073,0.29228895902633667,-0.4306567311286926,0.026906698942184448,-0.3287085294723511,-0.9440480470657349,0.6810858249664307,0.0017584562301635742,-0.19663798809051514,0.23495416418514775,0.05297955753573603,-0.15864784774684332,-0.9575074742519443,0.3349357970861381,0.028493695256141836,-2.6651564847193168
1782664919754580224,1.8090732097625732,-0.5881041884422302,0.3282276690006256,0.15474918484687805,0.029765306040644646,-0.3204771876335144,-0.946788489818573,0.4430282711982727,0.2414366602897644,-0.2918437123298645,0.23419585236871887,0.053206469743248816,-0.15419091001550944,-0.958408347523238,0.32623319363547704,0.03142782869015843,-2.66744018388292
1782664919764500480,1.818993330001831,-0.41755959391593933,0.2877553403377533,-0.14064624905586243,0.03227105364203453,-0.3158518075942993,-0.9482595324516296,0.5198529362678528,0.036203980445861816,-0.3520791530609131,0.23476498561081788,0.05393926909612998,-0.15152813335043608,-0.9586527330754405,0.32135430057198505,0.03401875072042971,-2.666778664269086
1782664919774420224,1.8289132118225098,-0.9167461395263672,0.2339259684085846,-0.06038772687315941,0.03600650280714035,-0.3101468086242676,-0.9500066041946411,0.26839107275009155,-0.18948698043823242,-0.2670191526412964,0.23445430215051138,0.055000902092697965,-0.14822824691610656,-0.9591843021830618,0.31534745492024135,0.03788318729343018,-2.6681558678575277
1782664919784339456,1.8388323783874512,-0.6075986623764038,0.37815746665000916,-0.06338750571012497,0.03767489269375801,-0.3026193678379059,-0.9523665904998779,0.3585958480834961,-0.20911464095115662,-0.15468907356262207,0.23514413195100273,0.0549656734144894,-0.14420638398358349,-0.9596303944811501,0.3074396893019986,0.03953861654211693,-2.6671168748350538
1782664919794259200,1.8487522602081299,-0.9650312066078186,0.12191292643547058,-0.8120582699775696,0.04076419398188591,-0.2950670123100281,-0.9546065926551819,0.1436230093240738,-0.18332654237747192,-0.18411105871200562,0.233438111398449,0.05527413729322963,-0.14014804674083772,-0.9606299458630249,0.29952564160336875,0.04267668152555541,-2.671263976190542
1782664919804179456,1.8586723804473877,-0.6382046341896057,0.0017364504747092724,0.12763941287994385,0.042427629232406616,-0.2877371907234192,-0.9567691683769226,0.11022129654884338,0.06805640459060669,-0.08212548494338989,0.23208926267476088,0.05497617581179219,-0.13635631450979582,-0.9615192558768396,0.29186328000713996,0.04431565588620426,-2.6744127219042184
1782664919814098432,1.86859130859375,-0.4843766987323761,0.45699429512023926,-0.3245600163936615,0.045394156128168106,-0.28187116980552673,-0.9583778381347656,0.1272895634174347,-0.07255998253822327,-0.050182342529296875,0.23205180730555144,0.055696834336745396,-0.1330750081155455,-0.9619464858281374,0.2857438053796385,0.047330242539966344,-2.6749843364555086
1782664919824018432,1.8785114288330078,-0.5016584992408752,0.335703581571579,0.020246103405952454,0.048489030450582504,-0.27829933166503906,-0.959269642829895,0.0933414176106453,-0.011816024780273438,-0.03514564037322998,0.23191562006023356,0.05675514547098745,-0.1309351659458181,-0.9622109879535012,0.28202302434064974,0.05050487422391332,-2.6757381599237737
1782664919833938432,1.8884313106536865,-0.35901978611946106,0.14105124771595,-0.03941919282078743,0.05170639231801033,-0.2734633684158325,-0.9604916572570801,0.3123988211154938,0.08249962329864502,0.12086153030395508,0.23158264392714586,0.05769083627665937,-0.12816372243005203,-0.9626085228092337,0.2769918210993613,0.053781343810982936,-2.6769075787540104
1782664919843857408,1.8983502388000488,-0.3086804449558258,0.25285473465919495,-0.14598610997200012,0.053245481103658676,-0.27015599608421326,-0.9613431692123413,0.3365097641944885,0.04428014159202576,0.06820046901702881,0.23163930905723912,0.058044076040136464,-0.12633015522204505,-0.9628160978618767,0.27355504569176814,0.05533001935254342,-2.6770135445524352
1782664919853777408,1.9082703590393066,-0.6100335717201233,-0.0010257801041007042,-0.05511210113763809,0.05548577755689621,-0.2667843699455261,-0.962157666683197,0.2545728087425232,0.04750034213066101,0.1088709831237793,0.2308173015267824,0.058621044914255904,-0.12443763755317622,-0.9632248861685183,0.2700549145524382,0.05760427213679729,-2.6790308784392654
1782664919863697408,1.9181902408599854,-0.19536927342414856,0.2146894633769989,-0.07086176425218582,0.05680867284536362,-0.2618076205253601,-0.9634466767311096,0.5079038143157959,0.12026709318161011,0.22923952341079712,0.23098624371063667,0.058677528302301066,-0.12179326787242327,-0.9635188876494845,0.2648946888257215,0.05889581165492405,-2.678858394202713
1782664919873616384,1.9281094074249268,-0.43629926443099976,-0.06307618319988251,0.09474746882915497,0.05744447559118271,-0.2597227990627289,-0.9639731049537659,0.3177843987941742,-0.06512153148651123,-0.0019081830978393555,0.23106621868033822,0.058742537520692306,-0.12067623009537085,-0.9636362484582642,0.2627351529051448,0.059520978446455326,-2.678774553528803
1782664919883536384,1.9380292892456055,-0.6101104617118835,0.29477888345718384,-0.3237552344799042,0.05893135443329811,-0.25413185358047485,-0.9653725028038025,0.2403392791748047,-0.059421002864837646,0.08635944128036499,0.2308735221710056,0.05875976396011132,-0.11773288132463076,-0.9640454358298919,0.2569499688031457,0.060969536452997936,-2.6793572842615
1782664919893456384,1.9479494094848633,-0.4677525460720062,0.24742603302001953,-0.05587826296687126,0.06185680627822876,-0.24911919236183167,-0.9664953947067261,0.11674731224775314,-0.08187444508075714,-0.09518057107925415,0.2306168100022583,0.05955043741350726,-0.11491755508502594,-0.9643980177783942,0.2517706636069056,0.06391396828272633,-2.680238930216978
1782664919903375360,1.9578683376312256,-0.9121158719062805,0.02795599400997162,-0.4297618269920349,0.06348275393247604,-0.24178555607795715,-0.9682508707046509,0.16034843027591705,-0.07420870661735535,-0.008677840232849121,0.22924060728549092,0.059290916090958,-0.11117178235413037,-0.9651809697689367,0.2442055766944252,0.06547066198359502,-2.683250194021846
1782664919913295360,1.9677882194519043,-1.042443871498108,0.000843035988509655,-0.19274745881557465,0.06373538076877594,-0.23256854712963104,-0.9704893827438354,0.26860103011131287,-0.15501995384693146,-0.03504955768585205,0.2281817420720415,0.05817691720280713,-0.10663370834327934,-0.9660112464507813,0.2347178112635052,0.06557927191858676,-2.685410107101838
1782664919923215360,1.977708339691162,-0.6500648856163025,0.14773207902908325,-0.13096106052398682,0.06538105010986328,-0.2249021828174591,-0.9721853137016296,0.12544536590576172,-0.0796327292919159,-0.13126927614212036,0.22748591933295254,0.05798660001026571,-0.10268829644306746,-0.9666141331302424,0.2268426506248531,0.0671505188186978,-2.686970580192056
1782664919933134336,1.9876272678375244,-0.5031038522720337,0.1740480661392212,-0.16830454766750336,0.06642971932888031,-0.21811088919639587,-0.9736604690551758,0.16693821549415588,0.14555534720420837,-0.09173870086669922,0.22721298522875588,0.057658915557602865,-0.09922301900089321,-0.9670597703194413,0.2198783346780187,0.06812121080651583,-2.6875814328946945
1782664919943056640,1.9975495338439941,-0.42905813455581665,0.005842284299433231,-0.19693484902381897,0.06759078800678253,-0.21429918706417084,-0.9744266867637634,0.17305558919906616,0.05383776128292084,-0.14479023218154907,0.22631860410628116,0.05768346081396817,-0.09725882315406552,-0.9674675082733829,0.21597428798268994,0.06925374266199451,-2.689510067768507
1782664919952976384,2.007469415664673,-0.424202024936676,0.1465873420238495,-0.05083033815026283,0.06889084726572037,-0.20986689627170563,-0.9752998948097229,0.21971386671066284,0.01946774125099182,-0.043834567070007324,0.22600100200465875,0.05776360659053975,-0.09493896353012855,-0.9677672164174171,0.21143882495410138,0.070518426204746,-2.690245144942337
1782664919962895360,2.017388343811035,-0.39828363060951233,0.031891919672489166,-0.06797283887863159,0.07033799588680267,-0.2057860791683197,-0.9760658740997314,0.17705273628234863,0.008093222975730896,-0.07154148817062378,0.22559307790656238,0.057951178384730836,-0.09278313005330023,-0.9680602283421791,0.2072669176076633,0.07193840075971714,-2.6911775814021808
1782664919972815616,2.027308464050293,-0.2958432734012604,0.1971593201160431,-0.11149647831916809,0.07119613885879517,-0.20230701565742493,-0.9767307639122009,0.26834243535995483,-0.020257681608200073,-0.12519794702529907,0.22571259255275467,0.05797229847133906,-0.09096059349667256,-0.9682041753595344,0.20371306966790767,0.07276359863700062,-2.6909644538020965
1782664919982735360,2.0372283458709717,-0.3762776553630829,-0.016303688287734985,0.09023930132389069,0.07174371182918549,-0.19834765791893005,-0.9775024652481079,0.19841314852237701,0.09028491377830505,-0.07396543025970459,0.2253664084305785,0.05774128205723568,-0.08896469352992559,-0.9684840427158231,0.1996718005696933,0.073263555170378,-2.691671922536105
1782664919992654592,2.047147512435913,-0.26831963658332825,0.027408979833126068,-0.11258937418460846,0.0719074159860611,-0.19586732983589172,-0.977990448474884,0.2531658411026001,0.016088277101516724,-0.12900418043136597,0.22533095221140081,0.0575259570171118,-0.08772422685827082,-0.9686182410314923,0.19714183380707884,0.07339361694288644,-2.691721775315926
1782664920002574336,2.057067394256592,-0.04812495782971382,-0.05827769637107849,0.13438232243061066,0.07186120748519897,-0.19422805309295654,-0.9783207178115845,0.14475256204605103,0.09319961071014404,-0.07368123531341553,0.22524648489726407,0.057302533244981316,-0.0869255925877287,-0.9687231040971017,0.19547045076801398,0.07332195027895559,-2.6918659855531586
1782664920012494592,2.0669875144958496,0.22176538407802582,-0.04432672634720802,-0.0778963714838028,0.07189500331878662,-0.1949405074119568,-0.9781765341758728,0.17712843418121338,0.03435701131820679,-0.0843539834022522,0.22532688967445377,0.057410282201609646,-0.08726854979281587,-0.9686671317191561,0.19619679848860708,0.07336708675914269,-2.6917142981669295
1782664920022413568,2.076906442642212,-0.046509481966495514,-0.07894115895032883,0.008398298174142838,0.07163780927658081,-0.19641385972499847,-0.9779006242752075,0.1773093342781067,-0.034772053360939026,-0.04784095287322998,0.22484814392499908,0.05741408451126709,-0.08805290099475534,-0.9687072112430303,0.1976991910736365,0.07312611632810197,-2.692702128810546
1782664920032333312,2.0868263244628906,0.03753914684057236,-0.08785959333181381,0.20780985057353973,0.07054727524518967,-0.19549861550331116,-0.9781632423400879,0.26479512453079224,-0.02900393307209015,0.07343918085098267,0.22529584630108104,0.05681134125322568,-0.08769741672659012,-0.9686710267864999,0.19676584678080916,0.07199752419360948,-2.6916626878654766
1782664920042253568,2.0967464447021484,0.14124344289302826,-0.0256902277469635,-0.029585935175418854,0.06998925656080246,-0.19720101356506348,-0.9778615832328796,0.22754186391830444,-0.07736563682556152,-0.06219273805618286,0.22546868460068745,0.05675369359928503,-0.08859023492784651,-0.968552867127936,0.1985020455532591,0.07145194336070329,-2.691278967070141
1782664920052172544,2.1066653728485107,0.323348730802536,-0.17261183261871338,0.10992532223463058,0.0688994824886322,-0.19912496209144592,-0.9775490164756775,0.2392822802066803,0.06060568988323212,0.039850711822509766,0.2255489079705918,0.056452896071267,-0.08965799280188044,-0.9684534676108533,0.20046492440476413,0.07036550335801385,-2.6910379092364365
1782664920062092544,2.1165854930877686,0.17781789600849152,-0.22277753055095673,0.08847835659980774,0.06735935062170029,-0.20186664164066315,-0.9770939350128174,0.2512136399745941,-0.020606502890586853,-0.020022153854370117,0.2258637024996047,0.05604988775522539,-0.0911670879297268,-0.9682626175738935,0.20326342066557118,0.06882955827457268,-2.6902767987018787
1782664920072012544,2.1265053749084473,0.20465198159217834,-0.20718914270401,0.27874860167503357,0.0653528943657875,-0.20347477495670319,-0.9768966436386108,0.2195744812488556,-0.044953569769859314,0.02580106258392334,0.22665447055994814,0.05533006806776616,-0.09214266893607798,-0.9680269077220945,0.20490564564064237,0.06679894214912552,-2.6884680825906964
1782664920081932544,2.136425495147705,-0.08676176518201828,-0.14162451028823853,0.001152935205027461,0.06358285993337631,-0.20357120037078857,-0.9769933223724365,0.1601567566394806,-0.10627375543117523,-0.007671535015106201,0.22714961949712736,0.05451978530198612,-0.09236299905539186,-0.9679357641323438,0.20500412354930933,0.06498848868860056,-2.687273320434296
1782664920091851520,2.1463444232940674,0.04399997740983963,-0.2640528678894043,-0.0026959984097629786,0.061938006430864334,-0.20418280363082886,-0.9769713878631592,0.29311874508857727,-0.004801571369171143,-0.04564213752746582,0.22723888797586728,0.05379371787782796,-0.09284691143449977,-0.9679091632638573,0.20562884986099977,0.06331324106374778,-2.686933789578613
1782664920101771520,2.156264543533325,-0.23412325978279114,-0.19790607690811157,0.05769144371151924,0.05932113528251648,-0.20315192639827728,-0.9773486256599426,0.17009475827217102,-0.14812065660953522,-0.04781311750411987,0.22721733258419805,0.052384885478008195,-0.09263648758509939,-0.9680117281913486,0.2045758989040739,0.06062161384497796,-2.6867129687658697
1782664920111691520,2.166184425354004,-0.22519007325172424,-0.17868152260780334,0.09924055635929108,0.056952767074108124,-0.2004288285970688,-0.978051483631134,0.20372837781906128,-0.1522628217935562,-0.029806792736053467,0.22782439149182865,0.05095708350003659,-0.09152947168112235,-0.9680504868396359,0.20179561551428496,0.05816516511897459,-2.6852080968906673
1782664920121610496,2.176103353500366,-0.23333428800106049,-0.22437924146652222,-0.0388568639755249,0.055515356361866,-0.19843995571136475,-0.9785395264625549,0.1315116286277771,-0.10449278354644775,-0.09305471181869507,0.2278133013149702,0.050014707208459575,-0.0907125146589955,-0.968179109701572,0.19976596399479135,0.056672118238710475,-2.6850796406176265
1782664920131530496,2.186023473739624,-0.47673529386520386,-0.09824611246585846,0.13795596361160278,0.05369628965854645,-0.19429990649223328,-0.9794714450836182,0.17567382752895355,-0.08458498120307922,-0.019170522689819336,0.22822984233125068,0.04866971778357319,-0.08885690923118596,-0.9683216810686949,0.19554370566830456,0.054766879079174255,-2.684022340185167
1782664920141450496,2.1959433555603027,-0.2726127803325653,-0.0937349870800972,0.050388824194669724,0.05298218876123428,-0.1911119967699051,-0.980137288570404,0.1763269007205963,-0.10648016631603241,-0.06420475244522095,0.22875152253728392,0.04798835933175979,-0.08734114502260377,-0.9683705382963103,0.19229490668876018,0.05400332459019265,-2.6828607708843553
1782664920151369472,2.205862522125244,-0.2979311943054199,-0.160807803273201,0.036614689975976944,0.05138775706291199,-0.18779140710830688,-0.9808637499809265,0.203159362077713,-0.016157567501068115,-0.023088276386260986,0.22900609270203465,0.0468352819316525,-0.08587539935062437,-0.9684978193752213,0.18891305990721685,0.052342458021906665,-2.6821719790424545
1782664920161289472,2.215782403945923,0.08556053787469864,-0.1750626415014267,0.028539450839161873,0.049509283155202866,-0.18670979142189026,-0.9811667799949646,0.23709654808044434,0.07445088028907776,-0.0715218186378479,0.22899094097428258,0.04578540771152495,-0.08555873441745951,-0.9685797094913035,0.18781197565607116,0.05041683842973568,-2.682028986626708
1782664920171209472,2.2257025241851807,-0.061478376388549805,-0.09728090465068817,-0.046574439853429794,0.048732221126556396,-0.18714061379432678,-0.9811236262321472,0.1520276665687561,0.0028449594974517822,-0.07957583665847778,0.228905130472576,0.04544841673234313,-0.08586402541302433,-0.9685887691233718,0.18825052288292105,0.049629019979909324,-2.682137654271612
1782664920181128448,2.235621452331543,-0.10206841677427292,-0.16944298148155212,0.046085987240076065,0.04761998727917671,-0.1860608607530594,-0.9813835620880127,0.1592281609773636,-0.06612114608287811,0.010649919509887695,0.22897290743426688,0.044781591594237405,-0.08545658716895775,-0.9686398943173331,0.18715146751456269,0.04848528799436146,-2.6818938665491747
1782664920191048448,2.2455413341522217,0.06552451103925705,-0.2107265442609787,-0.019617557525634766,0.04558795690536499,-0.18598558008670807,-0.9814943075180054,0.2156882882118225,-0.09871289134025574,-0.05112898349761963,0.22900346528019028,0.04378040727776509,-0.08565112908675178,-0.9686612350141128,0.18707485561768414,0.04641414026449875,-2.681647679898974
1782664920200968448,2.2554614543914795,-0.11544820666313171,-0.2564927041530609,0.10706288367509842,0.04383758082985878,-0.18548740446567535,-0.9816682934761047,0.15333649516105652,-0.05961450934410095,-0.03240025043487549,0.2288074442945768,0.04284705798678954,-0.08561523865666412,-0.9687524918876037,0.186567849835693,0.04462655502746339,-2.681893981747696
1782664920210887424,2.265380382537842,-0.017762988805770874,-0.18763282895088196,0.047875966876745224,0.041630711406469345,-0.18472164869308472,-0.9819087386131287,0.23673537373542786,0.009947478771209717,-0.03174787759780884,0.22937445162641523,0.041726079570131726,-0.08546671302283763,-0.9686803957861949,0.18578863282199318,0.04237236082289948,-2.6805243194765085
1782664920220807680,2.2753005027770996,0.038681644946336746,-0.23923903703689575,0.04808183014392853,0.04015900567173958,-0.1848626434803009,-0.9819434881210327,0.13008329272270203,-0.0398382693529129,-0.06604534387588501,0.22920738245066394,0.04100776509097858,-0.08571235928484341,-0.968728928257955,0.1859321005321549,0.0408746915262898,-2.6807367978472887
1782664920230727424,2.2852203845977783,0.08051977306604385,-0.405484139919281,0.03211810812354088,0.03747117519378662,-0.1856544464826584,-0.9819003939628601,0.2571302652359009,-0.012694552540779114,-0.08070641756057739,0.22950413743374087,0.03981271081293906,-0.08639886130184748,-0.9686475113110621,0.18673784695448895,0.03814338106384508,-2.6798796730953556
1782664920240646656,2.2951395511627197,0.36966609954833984,-0.2933325469493866,0.026784328743815422,0.034474119544029236,-0.18729808926582336,-0.9816979765892029,0.19768835604190826,0.030788689851760864,-0.08817201852798462,0.22940907012293668,0.038532679043474884,-0.08755703445707703,-0.968617780017499,0.18841083746582352,0.03510240407604094,-2.679796518785523
1782664920250566400,2.3050594329833984,0.45988065004348755,-0.36992084980010986,-0.021974023431539536,0.03155266493558884,-0.19120295345783234,-0.98104327917099,0.21332037448883057,-0.019154712557792664,-0.11185222864151001,0.22909292462906605,0.03753716598969622,-0.08982948217027228,-0.9685236149921225,0.19238755938405716,0.032151276726303,-2.680156719519982
1782664920260486656,2.3149795532226562,0.2139286994934082,-0.40751218795776367,0.00874580629169941,0.028676273301243782,-0.19497226178646088,-0.9803894758224487,0.16292834281921387,-0.10530544817447662,-0.03239738941192627,0.2291142580908728,0.03657845381034493,-0.09201786175006299,-0.9683498609503152,0.19622916513580071,0.029241541650436697,-2.6798105394022813
1782664920270405632,2.3248984813690186,0.1307581067085266,-0.25657323002815247,0.05114329606294632,0.026128800585865974,-0.19670233130455017,-0.9801150560379028,0.11591526865959167,-0.13383355736732483,0.030148625373840332,0.2290825984658331,0.035533915964506474,-0.0931655702091049,-0.9682864912535538,0.1979933992024615,0.026652598541706325,-2.67961199198088
1782664920280325376,2.3348183631896973,-0.07920844107866287,-0.21880854666233063,0.09109976887702942,0.02418883889913559,-0.19684207439422607,-0.9801367521286011,0.1716119349002838,-0.19230280816555023,0.00613778829574585,0.2293935658545749,0.03463113563447798,-0.09344676103944934,-0.9682184727702321,0.19813593603798862,0.02467403599665027,-2.6787774829512916
1782664920290245632,2.344738483428955,-0.3274672031402588,-0.1970655918121338,0.09145279973745346,0.022618839517235756,-0.1950463205575943,-0.9805331826210022,0.1142219826579094,-0.2391730397939682,0.0364261269569397,0.22957773074154142,0.03366749849889168,-0.09273569370440049,-0.9682771495980661,0.19630467916732666,0.02306380691191615,-2.678263088981192
1782664920300164352,2.3546574115753174,-0.3371746838092804,-0.21534846723079681,0.12407492101192474,0.020626071840524673,-0.191580668091774,-0.9812601208686829,0.18838882446289062,-0.197793111205101,-0.0025045275688171387,0.23021736426801287,0.032341887788775635,-0.09123566094371824,-0.9683129543575848,0.19277239885858696,0.021016888159134203,-2.6767899893894707
1782664920310084608,2.364577531814575,-0.5009337067604065,-0.2587282657623291,0.06959813833236694,0.018654586747288704,-0.18814872205257416,-0.9819633960723877,0.15067219734191895,-0.15853096544742584,-0.0896003246307373,0.23063430173624358,0.03100892894874303,-0.08975945342445682,-0.9683953519909221,0.1892768612448942,0.018994948762081718,-2.675784362395865
1782664920320004352,2.374497413635254,-0.3917350471019745,-0.35369500517845154,0.24663017690181732,0.01572188176214695,-0.18336088955402374,-0.9829199314117432,0.2315773069858551,-0.09042754769325256,-0.04202812910079956,0.23134685239008446,0.029071355944728657,-0.08772050357685263,-0.9684723109659148,0.18440422393100894,0.015993714818850438,-2.674103660083602
1782664920329924608,2.3844175338745117,-0.49302762746810913,-0.302981436252594,0.17655597627162933,0.013280794955790043,-0.1795426905155182,-0.9836605191230774,0.17553146183490753,-0.14537794888019562,-0.10828888416290283,0.23218941816211208,0.02749959166409727,-0.08610171698557767,-0.968461842574879,0.18052156078176887,0.013500580684054988,-2.6721960485170344
1782664920339843584,2.394336462020874,-0.5380238890647888,-0.3212416470050812,0.210968017578125,0.010770668275654316,-0.17472483217716217,-0.9845584034919739,0.14108480513095856,-0.13069508969783783,-0.03204315900802612,0.23295533861360992,0.025766224883841244,-0.08400539266707434,-0.968509705122234,0.17562629777483307,0.010939156892547486,-2.6704642384398123
1782664920349763328,2.4042563438415527,-0.5633487105369568,-0.22807076573371887,0.20508413016796112,0.008792534470558167,-0.1697380691766739,-0.9854499697685242,0.15101276338100433,-0.1598059982061386,-0.05324631929397583,0.23386153666924314,0.024282135976095454,-0.08176419884627845,-0.9685214089355898,0.17056387565788425,0.008922118347941115,-2.66850076544756
1782664920359683584,2.4141764640808105,-0.6858181953430176,-0.31585919857025146,0.11456967890262604,0.007332272361963987,-0.1635308563709259,-0.9865109920501709,0.19725756347179413,-0.1022925078868866,-0.0285189151763916,0.23454341021223707,0.022883010047398105,-0.07887257197708586,-0.9686303544458729,0.1642686328306321,0.007432393014116997,-2.6670709968509203
1782664920369602560,2.424095392227173,-0.4875907301902771,-0.3168858587741852,0.14358235895633698,0.005635284353047609,-0.15852372348308563,-0.9873390793800354,0.21212288737297058,-0.022048771381378174,-0.08135592937469482,0.23496621917877827,0.0214894656225349,-0.07660717703193026,-0.9687416716673424,0.15919529304791602,0.005707484985061537,-2.666142562715428
1782664920379522560,2.4340155124664307,-0.3205506205558777,-0.3007694482803345,0.14844821393489838,0.004142098128795624,-0.1547824591398239,-0.9879398941993713,0.13579624891281128,0.06641881167888641,-0.08209794759750366,0.23543412939764827,0.020349646966555255,-0.07493961844014291,-0.9687830387382599,0.15540726134586788,0.004192637395429566,-2.665121024424911
1782664920389442560,2.4439353942871094,-0.1967906653881073,-0.3774850368499756,0.2170894294977188,0.001954725943505764,-0.153024360537529,-0.9882204532623291,0.20092612504959106,0.09646004438400269,-0.10296601057052612,0.23617192255661537,0.019129447098091574,-0.07432242619856225,-0.9686758433109095,0.15362795117688685,0.0019780236457965757,-2.663457934733683
1782664920399361280,2.4538543224334717,0.13031423091888428,-0.2678331136703491,-0.018916180357336998,7.327336788875982e-05,-0.15264613926410675,-0.9882808923721313,0.20959775149822235,0.054913610219955444,-0.08667021989822388,0.2364659771757996,0.01818988033401731,-0.07435505842007367,-0.9686197989903308,0.15324523974944199,7.414225084786751e-05,-2.6627117955901616
1782664920409281536,2.4637744426727295,-0.08417503535747528,-0.4198525846004486,-0.0019814723636955023,-0.002491808496415615,-0.15327413380146027,-0.9881805777549744,0.1793564260005951,-0.050598546862602234,-0.11982113122940063,0.23635446892776793,0.01700721079873551,-0.07496980440276689,-0.968621148480382,0.15388071530788341,-0.0025216071850839685,-2.662729673739488
1782664920419201280,2.473694324493408,0.05038011074066162,-0.4655798673629761,0.1826363056898117,-0.006546370219439268,-0.15292412042617798,-0.9882162809371948,0.18461643159389496,-0.03251594305038452,-0.057392239570617676,0.23638737926894024,0.014992519567007473,-0.07528013460968587,-0.9686222936218797,0.15352652113415619,-0.006624333811086795,-2.662350942488618
1782664920429120512,2.4836134910583496,0.04962623864412308,-0.45017027854919434,0.08312226831912994,-0.010881826281547546,-0.1535680592060089,-0.9880781769752502,0.14454881846904755,-0.05585882067680359,-0.09660810232162476,0.23702189731147896,0.013007880958396875,-0.07610333383703702,-0.9684316418731824,0.15417815846059016,-0.011012677645224803,-2.660682644037532
1782664920439040512,2.4935333728790283,0.1228562444448471,-0.3494356870651245,0.15382306277751923,-0.014456738717854023,-0.15488991141319275,-0.9878259301185608,0.07720088213682175,-0.03956809639930725,-0.05746215581893921,0.2373472495680112,0.011451921296384218,-0.07717432342824815,-0.9682867682552527,0.15551602411815857,-0.014633860377377956,-2.6596899351703036
1782664920448960512,2.503453493118286,0.08914375305175781,-0.35549941658973694,0.22326496243476868,-0.018013041466474533,-0.15574806928634644,-0.9876325726509094,0.16411595046520233,-0.050535500049591064,-0.032509028911590576,0.23806094096437505,0.009880999883049371,-0.07801337323824341,-0.9680616160068257,0.15638471435222573,-0.018236583598874055,-2.6579030628888174
1782664920458879488,2.5133724212646484,-0.14730526506900787,-0.41588684916496277,0.17231708765029907,-0.021676888689398766,-0.1558590829372406,-0.9875414371490479,0.16756616532802582,-0.0842379629611969,-0.05843329429626465,0.23888745248617663,0.008177511552897124,-0.07850107263176681,-0.9678343993685085,0.15649710908213402,-0.021946834516463027,-2.6558919608659033
1782664920468799488,2.5232925415039062,-0.120171457529068,-0.4458518624305725,0.170219287276268,-0.025600265711545944,-0.15382914245128632,-0.9877657890319824,0.19492705166339874,-0.007715657353401184,-0.002682209014892578,0.2394574931554502,0.006067538878363292,-0.07797627429854342,-0.9677515020993759,0.15444238822945433,-0.02591154471101857,-2.6544577379087553
1782664920478719488,2.533212423324585,-0.1174696758389473,-0.4391856789588928,0.12794959545135498,-0.029566055163741112,-0.15307682752609253,-0.9877719283103943,0.22405457496643066,-0.05618220567703247,-0.11437040567398071,0.24005104635260416,0.004094009767333059,-0.07808512613507806,-0.9676060780779927,0.1536810503946592,-0.029923132982117132,-2.652932820867433
1782664920488638464,2.5431313514709473,-0.07892181724309921,-0.3256716728210449,0.178668811917305,-0.03340859338641167,-0.15236349403858185,-0.9877597093582153,0.16205544769763947,-0.09592752158641815,-0.09573638439178467,0.24074355751361937,0.0021934354412021183,-0.07820061596839822,-0.9674308589209603,0.1529592442959011,-0.033809704754723065,-2.6512127398593783
1782664920498558464,2.553051471710205,-0.4420701861381531,-0.35495924949645996,0.20734891295433044,-0.0367404967546463,-0.14952102303504944,-0.9880757331848145,0.1216251403093338,-0.11837753653526306,-0.05359601974487305,0.24150784835512204,0.0002870182046585238,-0.07721441284370262,-0.9673219672710004,0.15008383924138996,-0.03716676393246517,-2.6494685787909678
1782664920508478464,2.562971353530884,-0.4575878381729126,-0.42221033573150635,0.1325392872095108,-0.04068727418780327,-0.14495281875133514,-0.9886016249656677,0.20684023201465607,-0.12521928548812866,-0.0657501220703125,0.24220364602909458,-0.002136197225404472,-0.07546264131400027,-0.9672839673329593,0.14546528533277883,-0.04113317320359708,-2.6478933387400274
1782664920518398464,2.5728914737701416,-0.3702974319458008,-0.5140907168388367,0.21221786737442017,-0.04537977650761604,-0.1410996913909912,-0.9889547824859619,0.19253553450107574,-0.10864090919494629,-0.13175749778747559,0.24272015231682167,-0.004849610278794099,-0.07415586402807635,-0.9672457388730602,0.14157213087462286,-0.04585443733283016,-2.6466154140015665
1782664920528317440,2.582810401916504,-0.2962048053741455,-0.4146308898925781,0.16136573255062103,-0.05035027861595154,-0.13720808923244476,-0.9892617464065552,0.18572625517845154,-0.02036944031715393,-0.11748874187469482,0.24361861232687404,-0.007674844174228672,-0.07287129614092935,-0.967099256352577,0.1376422859966515,-0.05085294250454001,-2.644542206226895
1782664920538237696,2.5927305221557617,-0.23414596915245056,-0.45187440514564514,0.1347050964832306,-0.05462310463190079,-0.13488946855068207,-0.9893538951873779,0.11523101478815079,6.280839443206787e-05,-0.18229222297668457,0.2441257550562893,-0.00999836240328793,-0.07227088503965333,-0.966995079308719,0.13530190696165734,-0.05515488729683818,-2.643273002024806
1782664920548157440,2.6026504039764404,-0.26917484402656555,-0.57863450050354,0.20811524987220764,-0.05996124446392059,-0.13207878172397614,-0.9894239902496338,0.2364596575498581,0.021788254380226135,-0.1713273525238037,0.24477453234780552,-0.01289014358478193,-0.07156706926330024,-0.9668492370366033,0.13246583584568328,-0.060528144921119964,-2.6416619218645447
1782664920558076416,2.6125693321228027,-0.20871175825595856,-0.6069151163101196,0.11722927540540695,-0.06581742316484451,-0.1294296532869339,-0.9894018769264221,0.20810562372207642,-0.0727493017911911,-0.17116636037826538,0.2453373665564221,-0.016020807733310428,-0.07100989971997446,-0.9667008572455681,0.1297937763035891,-0.06642456902573717,-2.6401924218250574
1782664920567996416,2.6224894523620605,-0.34035617113113403,-0.6482657194137573,0.1321599930524826,-0.07197577506303787,-0.12683965265750885,-0.9893084168434143,0.15165719389915466,-0.08791252970695496,-0.20546996593475342,0.24565681239559622,-0.01930944441000984,-0.07051896724153642,-0.9665955835430021,0.12718224324081995,-0.07262566875464496,-2.6392113646534376
1782664920577916416,2.6324093341827393,-0.36385801434516907,-0.6053723096847534,0.10622718930244446,-0.07837407290935516,-0.12311294674873352,-0.9892930388450623,0.19081608951091766,-0.030604101717472076,-0.18036943674087524,0.24610611542062452,-0.022846260820206174,-0.06950921004331435,-0.9664773363926896,0.12342608352297267,-0.07905718396832893,-2.63801874170747
1782664920587835648,2.6423285007476807,-0.260080486536026,-0.6209810376167297,0.1529499590396881,-0.08447187393903732,-0.11994319409132004,-0.9891805648803711,0.13044661283493042,-0.03385014086961746,-0.2007455825805664,0.24635328576738844,-0.026183628497945213,-0.06873244509367817,-0.9663852452224261,0.12023266491711532,-0.08518913081858877,-2.637249870155903
1782664920597755392,2.6522483825683594,-0.27222156524658203,-0.6227759718894958,0.17200221121311188,-0.09081225097179413,-0.11705566197633743,-0.9889646768569946,0.15377001464366913,-0.03354858607053757,-0.17242753505706787,0.24691010267449662,-0.029582934505090048,-0.06813602539888458,-0.9661871950727617,0.11732463820001932,-0.09156878592222732,-2.6358185389367152
1782664920607675648,2.662168502807617,-0.11569514870643616,-0.6168276071548462,0.0669572502374649,-0.09725169092416763,-0.11524740606546402,-0.988564670085907,0.20450571179389954,0.01362387090921402,-0.16368752717971802,0.24725699707264295,-0.032912643330698634,-0.06807652616590676,-0.9659949894467328,0.11550405926393914,-0.09806112783515747,-2.6347564776604284
1782664920617594368,2.6720874309539795,-0.0837412104010582,-0.6093619465827942,0.09564428776502609,-0.10331504046916962,-0.11455263197422028,-0.988030195236206,0.16306845843791962,-0.009882792830467224,-0.14424824714660645,0.2473359041593366,-0.03594133057844693,-0.06850631640704326,-0.9658364657041655,0.1148046575587961,-0.10418804356607654,-2.6342057398854863
1782664920627514624,2.6820075511932373,-0.1215483695268631,-0.6575164198875427,0.15430326759815216,-0.10985539853572845,-0.11316640675067902,-0.9874842762947083,0.24243901669979095,-0.058098241686820984,-0.08816879987716675,0.24787617094621192,-0.03925583127523605,-0.068679333753474,-0.9655566489649181,0.11340935395990479,-0.11079218822945362,-2.632713487177895
1782664920637434368,2.691927433013916,-0.18495796620845795,-0.5809446573257446,0.13589496910572052,-0.11609883606433868,-0.1119345873594284,-0.9869101643562317,0.17190024256706238,-0.0907479077577591,-0.11213463544845581,0.24823766472428427,-0.042420424660847035,-0.06888697907101422,-0.9653150952788856,0.11216965967365485,-0.11710050703174325,-2.6316040087905783
1782664920647354624,2.701847553253174,-0.34270817041397095,-0.6630995273590088,0.24643266201019287,-0.12224060297012329,-0.10890606045722961,-0.9865073561668396,0.1777825951576233,-0.03248187154531479,-0.0586739182472229,0.2488183672076677,-0.045744522785308044,-0.06821858555165998,-0.9650611868358402,0.10912250113581733,-0.12328409432171676,-2.6301886726606045
1782664920657273600,2.711766481399536,-0.6532399654388428,-0.5883080959320068,0.16369757056236267,-0.12866821885108948,-0.10374382138252258,-0.9862462878227234,0.18370667099952698,-0.09919807314872742,-0.06747990846633911,0.24957291480310395,-0.04946379609670401,-0.06655972111338765,-0.9647987156017539,0.10393082178519546,-0.12972985730856676,-2.6285755704332128
1782664920667193344,2.721686363220215,-0.681777834892273,-0.5931491851806641,0.1743229180574417,-0.13419924676418304,-0.09700470417737961,-0.9861950278282166,0.12379278242588043,-0.1472122073173523,-0.06985044479370117,0.24993799250675616,-0.052973465296232654,-0.06400229405334021,-0.9646909434586591,0.09715748585779281,-0.13524708823737788,-2.627983749541973
1782664920677113600,2.7316064834594727,-0.8919997811317444,-0.5266782641410828,0.23699907958507538,-0.13998188078403473,-0.08885016292333603,-0.9861595630645752,0.15661396086215973,-0.18243584036827087,-0.1230170726776123,0.2504998764829442,-0.05677318658900279,-0.06080308234835039,-0.9645359464133495,0.08896748436130839,-0.141004497927554,-2.6271124190081365
1782664920687032576,2.741525411605835,-1.068519115447998,-0.48163679242134094,0.15092508494853973,-0.14499305188655853,-0.07924911379814148,-0.9862537980079651,0.15080666542053223,-0.19337967038154602,-0.12019145488739014,0.2511745975720227,-0.06037684597509596,-0.056813087679082115,-0.9643849269302542,0.07933229913107588,-0.14596831356880277,-2.6262092586214605
1782664920696952576,2.7514455318450928,-0.815683126449585,-0.6216186285018921,0.09342876821756363,-0.15015794336795807,-0.06964626908302307,-0.9862058758735657,0.15804673731327057,-0.11637363582849503,-0.12049883604049683,0.2512167459033279,-0.06409719215203287,-0.052807395174392424,-0.9643615547713098,0.06970269500903574,-0.15109773204797705,-2.6266408217360526
1782664920706872576,2.7613654136657715,-0.6946507692337036,-0.6235427856445312,0.06649605929851532,-0.15653277933597565,-0.0625268742442131,-0.9856915473937988,0.20824483036994934,-0.1168707013130188,-0.2187303900718689,0.2513120003582891,-0.0680949990273571,-0.05017253648299574,-0.9642033742591775,0.062567691572011,-0.15748989962425294,-2.6267151649529414
1782664920716791296,2.771284341812134,-0.5828016996383667,-0.5757944583892822,0.12618282437324524,-0.16227896511554718,-0.055841803550720215,-0.9851635694503784,0.10656912624835968,-0.09110033512115479,-0.11652100086212158,0.25139412411136464,-0.07173510808193297,-0.047668612445798376,-0.96404498335434,0.055870866837748834,-0.16325681386044405,-2.62684208932487
1782664920726711552,2.7812044620513916,-0.5320318341255188,-0.4902590215206146,-0.0615900419652462,-0.16700509190559387,-0.05054524913430214,-0.9846595525741577,0.08982615172863007,-0.10156961530447006,-0.07332378625869751,0.2512942178981871,-0.07471367779145074,-0.04569550137783885,-0.9639404040243984,0.05056679680286684,-0.16800811135427446,-2.627296522169468
1782664920736631296,2.7911243438720703,-0.5128501653671265,-0.416744589805603,0.11078545451164246,-0.17143763601779938,-0.045325227081775665,-0.9841517806053162,0.12044276297092438,-0.08298593759536743,0.04115861654281616,0.2511317862141483,-0.07754332168844959,-0.043716514644176994,-0.9638510134221201,0.045340761660624215,-0.17246774320177313,-2.6279052683840005
1782664920746550528,2.8010435104370117,-0.5287716388702393,-0.35935020446777344,0.03137994557619095,-0.17517751455307007,-0.04028764367103577,-0.9837121963500977,0.19913382828235626,-0.09640058875083923,0.12763315439224243,0.25118941467654243,-0.08000282830155182,-0.041754458058878445,-0.9637219064099297,0.04029855102511482,-0.17623064121068444,-2.6280875232196785
1782664920756470528,2.8109633922576904,-0.5598440766334534,-0.3761315941810608,0.10480303317308426,-0.17873507738113403,-0.03478976711630821,-0.9832819700241089,0.21758395433425903,-0.07748439908027649,0.2373865842819214,0.2512745473053276,-0.0824316545413934,-0.03954787164925328,-0.9635881415415554,0.03479678859431867,-0.1798107105188084,-2.6282777855433967
1782664920766390528,2.8208835124969482,-0.684260368347168,-0.2434513121843338,0.04681466147303581,-0.18178388476371765,-0.028762605041265488,-0.9829177856445312,0.24815961718559265,-0.05708334594964981,0.25821685791015625,0.2513833316051209,-0.08467926124428697,-0.03702080089051442,-0.9634653203682074,0.02876657326282904,-0.18287677712638115,-2.6285034370996203
1782664920776310528,2.830803394317627,-0.8839377760887146,-0.12101088464260101,0.09170037508010864,-0.1834518164396286,-0.021066734567284584,-0.9828029274940491,0.1485702246427536,-0.08385270088911057,0.3383632302284241,0.251286783720744,-0.08647093086212519,-0.03348592278495171,-0.9634606736529912,0.021068293818420424,-0.18453814948675096,-2.6293770391124283
1782664920786229248,2.8407223224639893,-1.025042176246643,0.09366219490766525,0.1527162343263626,-0.1837836056947708,-0.011486904695630074,-0.9828996062278748,0.08017642796039581,-0.12208853662014008,0.38150495290756226,0.251523134126698,-0.08783718598034836,-0.028893335931557393,-0.9634241173563675,0.011487157342616816,-0.18484658829812503,-2.6297840064458717
1782664920796149504,2.850642442703247,-1.1793166399002075,0.41039565205574036,0.12716586887836456,-0.18104885518550873,-0.0005457866936922073,-0.9834739565849304,0.03833340108394623,-0.14973802864551544,0.4146720767021179,0.25167622968138104,-0.08788075928002301,-0.023237800025955255,-0.9635331867287836,0.0005457867359800757,-0.18205285822991316,-2.630556770599759
1782664920806069248,2.860562324523926,-1.2379287481307983,0.5720425248146057,0.06774014979600906,-0.17628881335258484,0.01159066054970026,-0.9842702150344849,0.11339209973812103,-0.10601204633712769,0.47120875120162964,0.25174175115406056,-0.08709063897861383,-0.01673616371073809,-0.9637226218478356,-0.011590920326417913,-0.1772269723138022,-2.6316052120969826
1782664920815988480,2.870481491088867,-0.9823334217071533,0.6728817820549011,0.04913876950740814,-0.1701679676771164,0.022638000547885895,-0.9851549863815308,0.1958180069923401,-0.06791083514690399,0.515779435634613,0.25155609368903925,-0.085503012679606,-0.010570329131011653,-0.9640005544463432,-0.02263993548055642,-0.17104438353277984,-2.6330180165508312
1782664920825908480,2.880401372909546,-0.6999188661575317,0.6306314468383789,0.02332138828933239,-0.16334377229213715,0.030889637768268585,-0.9860855340957642,0.25767362117767334,-0.0004483535885810852,0.5439926385879517,0.2514693316659743,-0.08321614930024014,-0.005684633982548218,-0.9642644348550117,-0.030894552584409922,-0.16415804529531783,-2.633920867830019
1782664920835828480,2.8903214931488037,-0.05874044820666313,0.6189635992050171,-0.09941358864307404,-0.15671847760677338,0.03453961759805679,-0.9870391488075256,0.22707676887512207,0.1538453847169876,0.5709472894668579,0.2511324677800231,-0.08044359395531293,-0.0030397999055423518,-0.964599424325113,-0.03454648928798049,-0.15746192465239353,-2.634928613952473
1782664920845747456,2.900240421295166,0.5776088237762451,0.8224048614501953,-0.12096335738897324,-0.14806316792964935,0.031050650402903557,-0.9884903430938721,0.09302471578121185,0.2780008614063263,0.48928380012512207,0.25064352653385447,-0.07577547065478495,-0.0035926809909170424,-0.9651026090664622,-0.0310556424937842,-0.1486817969107897,-2.6357193788492
1782664920855667712,2.910160541534424,0.9498079419136047,1.1183662414550781,0.0009521661559119821,-0.13811740279197693,0.02344464138150215,-0.9901383519172668,-0.0027517378330230713,0.35367631912231445,0.47745829820632935,0.2506686897738895,-0.06996113950170402,-0.006022380775305541,-0.9655228995176196,-0.023446789512229234,-0.13859869438678848,-2.6351967601764095
1782664920865587456,2.9200804233551025,1.182234287261963,1.301415205001831,0.16936351358890533,-0.1259019523859024,0.01266067661345005,-0.9919618964195251,0.006868138909339905,0.2172587513923645,0.49475425481796265,0.251558870465463,-0.06263995795091554,-0.009761498738044806,-0.9657634758942882,-0.012661014493999746,-0.12624713648856728,-2.632763919850351
1782664920875506432,2.929999351501465,0.8523798584938049,1.4355874061584473,0.02906952239573002,-0.11224144697189331,0.002508323872461915,-0.9936777949333191,0.0058266520500183105,-0.07732217013835907,0.5986582636833191,0.25244703212566394,-0.054700788314020005,-0.012997104167081957,-0.9659759275271852,-0.0025083264539609955,-0.11247882395433142,-2.6304904811352823
1782664920885426432,2.9399194717407227,0.4095090627670288,1.5982248783111572,0.005405371077358723,-0.09710727632045746,-0.0036533933598548174,-0.9952672123908997,-0.03933681547641754,-0.2380000501871109,0.6905797123908997,0.25276936526951427,-0.04656598039601221,-0.014071313003490984,-0.9663028564346756,0.0036534014096083318,-0.09726119328659581,-2.629712451936509
1782664920895346432,2.9498393535614014,0.1673067957162857,1.6746615171432495,-0.011241782456636429,-0.08082496374845505,-0.006393785122781992,-0.9967077970504761,-0.023011095821857452,-0.25839197635650635,0.6703222990036011,0.25291489223401664,-0.038318756051333995,-0.013333103335935771,-0.9666374149452901,0.006393828533473156,-0.08091488519833485,-2.629519089511849
1782664920905265664,2.9597585201263428,0.20324529707431793,1.6520965099334717,-0.11942407488822937,-0.06427142769098282,-0.008084828034043312,-0.9978997111320496,-0.0030045732855796814,-0.17747730016708374,0.6412102580070496,0.2527268041455838,-0.030085036519305653,-0.012043196036212962,-0.9669949105165381,0.008084916361801416,-0.0643178676295072,-2.6300631115672854
1782664920915185408,2.9696784019470215,0.5386728048324585,1.755201816558838,0.11516153067350388,-0.047274406999349594,-0.011972804553806782,-0.9988101720809937,0.037707146257162094,-0.05833969637751579,0.6037906408309937,0.2528637754005125,-0.02136073254509628,-0.011774010404910919,-0.9671944536173172,0.011973090232365407,-0.04729542444872123,-2.6298758195586642
1782664920925105664,2.9795985221862793,0.607458770275116,1.7813231945037842,0.02353706955909729,-0.02963588945567608,-0.017472466453909874,-0.9994080662727356,0.05922268331050873,0.05168267339468002,0.6058228611946106,0.2533914312685803,-0.012121978130420687,-0.01220813351077286,-0.9672108253485708,0.017473356143253734,-0.02964475639055583,-2.628887063080049
1782664920935024384,2.9895174503326416,0.8915911912918091,1.823763370513916,0.11639910191297531,-0.011696359142661095,-0.024822216480970383,-0.9996234774589539,0.061119578778743744,0.07502363622188568,0.5942737460136414,0.25375631214372324,-0.002507264025149383,-0.01349021403738146,-0.9671708687078557,0.02482476562429258,-0.011700231305718366,-2.6282746136236304
1782664920944943360,2.999436378479004,1.2263710498809814,1.8823267221450806,0.07482729107141495,0.006739897187799215,-0.03559180721640587,-0.9993436932563782,0.13081808388233185,0.02901526913046837,0.5498655438423157,0.25437180753422384,0.007787858972006253,-0.016355661994813513,-0.9669368479422881,0.03559932680391414,0.006744221161852395,-2.6272302308983986
1782664920954863360,3.0093562602996826,0.84945148229599,1.8656339645385742,0.052001867443323135,0.02532445825636387,-0.04619481787085533,-0.9986113905906677,0.16942346096038818,-5.457177758216858e-05,0.5504912734031677,0.25479424160461006,0.018137447530221937,-0.019113798700459497,-0.9666362638778796,0.0462112617585229,0.02535423772329651,-2.626725800332424
1782664920964783360,3.0192763805389404,0.9105603098869324,1.7980833053588867,0.29995667934417725,0.04326300695538521,-0.05478068068623543,-0.9975607395172119,0.2367815524339676,-0.04218892380595207,0.6047842502593994,0.25569607658107596,0.027936435428351204,-0.020956994104597195,-0.9661263159935012,0.05480811671598401,0.04334163772634028,-2.6253228355413474
1782664920974702336,3.0291953086853027,0.41731658577919006,1.8577992916107178,0.11780551820993423,0.06133449450135231,-0.06174387037754059,-0.9962056875228882,0.220037579536438,-0.2635582685470581,0.5253347158432007,0.25685561765260845,0.03760921925706807,-0.02197048512027741,-0.9654678103899197,0.06178316934738114,0.06149048708575417,-2.6234539911721506
1782664920984622592,3.0391154289245605,0.23115988075733185,1.6405351161956787,0.16346322000026703,0.07845255732536316,-0.0647994726896286,-0.994809627532959,0.16820576786994934,-0.2347915917634964,0.577359676361084,0.2576721145768126,0.046317696430910646,-0.02120965801571525,-0.964888610591838,0.06484490689814029,0.07869900349405817,-2.6222287471467003
1782664920994542336,3.0490353107452393,0.10245250165462494,1.4563424587249756,0.09886345267295837,0.0936981663107872,-0.06616754829883575,-0.9933995008468628,0.2087157666683197,-0.09044866263866425,0.4538029432296753,0.2583135883006923,0.053902864604839146,-0.019868201278758567,-0.9643515285361539,0.06621592250901079,0.09404251228687172,-2.6212727073274276
1782664921004461312,3.0589542388916016,0.4040548801422119,1.4260190725326538,0.05557733029127121,0.10802765190601349,-0.06835276633501053,-0.9917953014373779,0.1392868012189865,0.11382395774126053,0.34935450553894043,0.258747519033034,0.06115348739115336,-0.01904202526606765,-0.9638191824760871,0.06840610211358188,0.10849361931620108,-2.620755540243961
1782664921014381312,3.0688743591308594,1.034355640411377,1.3883291482925415,0.1798686534166336,0.12207746505737305,-0.07597994059324265,-0.9896080493927002,0.06919144839048386,0.25008273124694824,0.19628840684890747,0.2592141973288116,0.06899403182846675,-0.020875497859778085,-0.9631261902952518,0.07605323793518205,0.12273931860123564,-2.6204510185171532
1782664921024301312,3.078794240951538,1.0167790651321411,1.2553905248641968,-0.18630175292491913,0.134541854262352,-0.0862433910369873,-0.9871476888656616,0.09781898558139801,0.3092658519744873,0.17032945156097412,0.25916328051734394,0.07641495544982274,-0.024226203640057793,-0.9625010235388247,0.08635066405272308,0.1354589040858918,-2.621409245007667
1782664921034221312,3.088714361190796,1.3508944511413574,1.431170105934143,0.023487968370318413,0.14798997342586517,-0.09794959425926208,-0.9841264486312866,0.12767530977725983,0.2624240815639496,0.20734727382659912,0.25818115549715853,0.0844967054885092,-0.028232746447733246,-0.9619800700982654,0.0981068964201282,0.14925861728131168,-2.624521580869379
1782664921044140288,3.098633289337158,1.1755720376968384,1.2037194967269897,0.1769520491361618,0.16095513105392456,-0.11059699207544327,-0.9807454943656921,0.19133979082107544,0.15451177954673767,0.07997339963912964,0.25852084979093864,0.09252631490858905,-0.03265160883963128,-0.9610096941717992,0.1108237032454783,0.1626650305101817,-2.625058273656557
1782664921054060544,3.108553409576416,0.3081653118133545,1.1693494319915771,-0.11909078061580658,0.17234107851982117,-0.1179954782128334,-0.9779446125030518,0.07668235898017883,0.014113642275333405,-0.003515958786010742,0.25822190727803895,0.09908200518386236,-0.03479169525847064,-0.9603612042557272,0.11827101444845588,0.17443678161484588,-2.626610974512472
1782664921063980288,3.1184732913970947,-0.5968083143234253,0.9289198517799377,0.3179023563861847,0.1826712191104889,-0.11648273468017578,-0.9762494564056396,-0.07564607262611389,-0.22166728973388672,-0.02182793617248535,0.25869651940770305,0.10396464568699766,-0.032659236847101696,-0.9597920329963275,0.1167477667447851,0.18497629547797403,-2.6258787349567805
1782664921073899520,3.128392457962036,-1.7636795043945312,1.1099807024002075,0.22631676495075226,0.19204667210578918,-0.10654935240745544,-0.9755846261978149,-0.23933365941047668,-0.40989962220191956,-0.20559823513031006,0.2610954931002501,0.10730310254931665,-0.026339040594672077,-0.9589688991026876,0.10675199639256451,0.19436768807385124,-2.620362760340507
1782664921083819264,3.138312339782715,-2.8906493186950684,1.4320025444030762,-0.060818422585725784,0.20423775911331177,-0.08318578451871872,-0.9753804802894592,-0.48307687044143677,-0.10504663735628128,-0.26641029119491577,0.2626850828737086,0.11016094760907638,-0.01320344322641162,-0.9584814453115045,0.08328202519011314,0.20641067372568522,-2.6152320559670317
1782664921093739520,3.1482324600219727,-2.859593629837036,1.3122133016586304,-0.05577785521745682,0.2167682945728302,-0.05501501262187958,-0.9746716618537903,-0.3972339928150177,0.23274938762187958,-0.5829760432243347,0.26412584556332475,0.11251154194078818,0.0023068159313466004,-0.9579004601491831,0.05504280196220581,0.21883963894251884,-2.609543862738046
1782664921103658496,3.158151388168335,-2.1469407081604004,0.8427148461341858,0.06042264774441719,0.22714650630950928,-0.030463771894574165,-0.9733840227127075,-0.21080434322357178,0.6089397072792053,-0.710469126701355,0.2651534109796876,0.11428108668773498,0.01574265510190534,-0.9572803078193076,0.030468486357128042,0.2292548981497812,-2.604677176199306
1782664921113578240,3.1680712699890137,-1.958365797996521,0.5229395031929016,-0.4648294150829315,0.2345542311668396,-0.011044112034142017,-0.9720402956008911,-0.0371360182762146,0.8799558281898499,-0.7296351194381714,0.2651515226186199,0.11530206897703825,0.026177950718250395,-0.9569298766222603,0.011044336523749435,0.23677470329740583,-2.602297957656881
1782664921123498496,3.1779913902282715,-1.7242655754089355,0.33009073138237,-0.2190280258655548,0.23919877409934998,0.008541828952729702,-0.9709330797195435,-0.08976943790912628,1.0269958972930908,-0.46552932262420654,0.26429788480857586,0.11498419310254165,0.03622304620971258,-0.9568768215907743,-0.008541932480209595,0.24154956683773868,-2.601576484808977
1782664921133418240,3.18791127204895,-1.0522570610046387,0.38897669315338135,0.5512691736221313,0.24173131585121155,0.021870912984013557,-0.9700967073440552,0.03166040778160095,0.5161539912223816,-0.4161185026168823,0.26602737072669325,0.11437005774184511,0.04325657734235269,-0.9561788109833333,-0.021872657865176774,0.2442092913711476,-2.5961951655859514
1782664921143337472,3.1978304386138916,-1.8124536275863647,0.3065366744995117,-0.05901516228914261,0.24549153447151184,0.03477269783616066,-0.9687748551368713,-0.036659762263298035,0.07080286741256714,-0.3505762815475464,0.26723786452152803,0.11442315219541484,0.05019861882182706,-0.95549537334354,-0.03477970970484859,0.24817994826170683,-2.591820710293969
1782664921153257472,3.2077503204345703,-2.6461575031280518,0.5744009017944336,0.08692020177841187,0.24915583431720734,0.05484410747885704,-0.9669092297554016,0.00436893105506897,-0.18382665514945984,-0.1789494752883911,0.2690325103129487,0.1134089775822753,0.06069415212349796,-0.9545030876128522,-0.05487163866976044,0.25219631843082063,-2.5851767692180774
1782664921163177472,3.217670440673828,-3.8644561767578125,0.36992573738098145,0.09156282246112823,0.25609710812568665,0.08790571242570877,-0.9626457691192627,-0.025414735078811646,-0.4094389081001282,-0.0839698314666748,0.2710375772489848,0.112189422023079,0.0780426394840913,-0.9528176572845947,-0.08801932104321143,0.26001221526640533,-2.575799883052798
1782664921173096448,3.2275893688201904,-3.8214571475982666,0.04917008802294731,-0.30497440695762634,0.25739824771881104,0.12310974299907684,-0.95843106508255,0.17538678646087646,-0.38051024079322815,-0.36247652769088745,0.27317705885116067,0.1078314781658873,0.09569133083572644,-0.9510992820629666,-0.12342285561887667,0.26237112264570056,-2.565900620016503
1782664921183016192,3.237509250640869,-6.929814338684082,-0.02980682998895645,-1.554274559020996,0.2570209503173828,0.17701096832752228,-0.9500564932823181,0.2709941864013672,-0.04647202789783478,-0.7548385262489319,0.2707596698371099,0.1005799568761745,0.12188283267804896,-0.9495880408830792,-0.17794862802023953,0.26420789094600433,-2.5623598961532554
1782664921192936448,3.247429370880127,-7.037089824676514,0.034144457429647446,-1.1488213539123535,0.2547071874141693,0.24770739674568176,-0.9347541332244873,0.6568528413772583,0.5641059875488281,0.1287238597869873,0.26848621111920346,0.09019110751327264,0.1564880097475397,-0.946198817938535,-0.25031319147222664,0.2660272364854287,-2.5549571645630302
1782664921202856192,3.2573492527008057,-5.376296043395996,0.32220855355262756,-1.3170537948608398,0.25397875905036926,0.30877944827079773,-0.9165970087051392,0.5045814514160156,1.1379520893096924,-0.40681302547454834,0.26495344231789686,0.08219504715090993,0.18693710619940973,-0.9423895629338351,-0.3139094899908621,0.2703071228285544,-2.55040825006809
1782664921212775424,3.267268419265747,-4.146535396575928,0.034455325454473495,-1.5518181324005127,0.25039440393447876,0.354510635137558,-0.9009022116661072,0.5105003714561462,0.8827482461929321,-0.38692426681518555,0.2597515227864829,0.07533449782342047,0.2094602446159545,-0.9396702925569363,-0.3623906621842735,0.27109502018616755,-2.5522434045396603
1782664921222695424,3.277188301086426,-3.0884265899658203,0.20591792464256287,-1.024001121520996,0.24688436090946198,0.38998231291770935,-0.8871087431907654,0.5437498092651367,0.43701353669166565,-0.005148947238922119,0.2549763607702192,0.06993226037109157,0.22705751277106517,-0.9373053544474629,-0.4006123690193896,0.27143369257928024,-2.5549488387012684
1782664921232615424,3.2871084213256836,-1.9195630550384521,0.21341073513031006,-1.3589082956314087,0.24369201064109802,0.41427913308143616,-0.8769190311431885,0.4490112364292145,0.12629398703575134,-0.13380789756774902,0.25010189093606483,0.06631043780763331,0.23904686498615746,-0.9358999085181688,-0.42715064367524674,0.27105630047662294,-2.5602006132793207
1782664921242534400,3.297027349472046,-2.1148617267608643,0.36334213614463806,-1.3260856866836548,0.24063298106193542,0.4347522258758545,-0.8678054213523865,0.2806377410888672,0.342423677444458,0.09001916646957397,0.24399952141954867,0.06367407111431835,0.24908410838870146,-0.9350759243735811,-0.44976311560159415,0.270493119991353,-2.5688589313021803
1782664921252454400,3.3069474697113037,-1.510359525680542,0.3427268862724304,-1.0992001295089722,0.23852142691612244,0.4534943103790283,-0.8587493300437927,0.38022246956825256,0.6249663829803467,0.18739312887191772,0.23848292310158947,0.06167955233607119,0.2584975203282556,-0.9340773474760677,-0.47068209736894095,0.2709251784137877,-2.5763045716805624
1782664921262374400,3.3168673515319824,-1.6143745183944702,0.42419543862342834,-1.09848952293396,0.2370050698518753,0.4689265787601471,-0.8508445620536804,0.3717443346977234,0.4771641194820404,0.11225813627243042,0.23348466389793068,0.060346327110121625,0.26633822280580666,-0.9332240268837602,-0.48807505356224584,0.2716661411045649,-2.5832370996098857
1782664921272293376,3.3267862796783447,-1.7167584896087646,0.6281427145004272,-1.055669903755188,0.23630818724632263,0.48557063937187195,-0.8416528701782227,0.14523784816265106,0.39754700660705566,0.29825687408447266,0.22817997039008095,0.059435206176568146,0.2750291347567318,-0.9320730628171974,-0.5070158182462935,0.27371962368044833,-2.5900865437600937
1782664921282213376,3.3367063999176025,-1.943176507949829,0.7050889730453491,-1.4349783658981323,0.2353423684835434,0.5036656856536865,-0.8312249183654785,0.03739321231842041,0.2973291873931885,0.321688175201416,0.22222597265339208,0.05849023982177273,0.2845460016733399,-0.9307137979467357,-0.5278367344190023,0.2759061756874528,-2.597833349548375
1782664921292133376,3.3466262817382812,-2.00593638420105,1.300911545753479,-1.7339104413986206,0.23570814728736877,0.5235381722450256,-0.8187487125396729,-0.16536512970924377,0.32947391271591187,0.46430230140686035,0.21384403932084078,0.05888332141079017,0.295226025040162,-0.9293250743200371,-0.5509984844610228,0.28030841219780006,-2.6095325506748637
1782664921302053376,3.356546401977539,-2.0776820182800293,1.6418753862380981,-1.6180363893508911,0.23867572844028473,0.5443766713142395,-0.8041691184043884,-0.001325264573097229,0.3579975962638855,0.4377750754356384,0.2044349550812579,0.06101787966431082,0.30690758342227914,-0.9275186721310908,-0.5756458308512408,0.2885165272045502,-2.6217508840312362
1782664921311972352,3.3664653301239014,-2.1130759716033936,1.6483596563339233,-1.751219391822815,0.24253049492835999,0.5648773312568665,-0.7887284755706787,0.3848498463630676,0.35469359159469604,0.3273637294769287,0.1948075259350872,0.06395705682899867,0.3186616747855885,-0.9254265467609115,-0.6002845678967548,0.2983191908621565,-2.6336884525071125
1782664921321892608,3.376385450363159,-1.8077902793884277,1.6280500888824463,-1.826482892036438,0.2452700287103653,0.5844719409942627,-0.7734565734863281,0.5520627498626709,0.37779301404953003,0.2661476731300354,0.18456830910703992,0.06687883762259776,0.3298468195579784,-0.9233973907342575,-0.624229136254982,0.307078265498833,-2.647247786751696
1782664921331812352,3.386305332183838,-1.525708556175232,1.550905704498291,-1.888198971748352,0.24659742414951324,0.6019920706748962,-0.7594703435897827,0.653793215751648,0.4322638511657715,0.14956134557724,0.17393640494746956,0.06966520936092437,0.3397227986942872,-0.9216730578730575,-0.6459935275182994,0.3139574297084277,-2.662683500289021
1782664921341731328,3.3962242603302,-1.7333464622497559,1.5831043720245361,-1.7781132459640503,0.24720025062561035,0.618488609790802,-0.7458980679512024,0.6094739437103271,0.4268452525138855,0.1701534390449524,0.16326986332387955,0.0724149761961815,0.3490086531374387,-0.9199413305667516,-0.6668178422405676,0.3200211810040447,-2.6786185260145343
1782664921351651328,3.406144380569458,-2.34013032913208,1.7975215911865234,-1.884302020072937,0.24842220544815063,0.6373408436775208,-0.7294402122497559,0.5399689078330994,0.37509506940841675,0.41965627670288086,0.15306411309438617,0.07534441622171223,0.36000431063965693,-0.9172194322521063,-0.6910424820714078,0.328245357800451,-2.6917961783459177
1782664921361571328,3.4160642623901367,-3.819577932357788,2.2596654891967773,-1.8561358451843262,0.2506771385669708,0.6641607284545898,-0.7043092250823975,0.2923373579978943,0.27558231353759766,0.77970290184021,0.14166655782924387,0.07896166059136396,0.3763116261113855,-0.9121870414280608,-0.7263706155925238,0.34193825297541813,-2.702400952773764
1782664921371490560,3.425983428955078,-4.721724033355713,2.707348108291626,-1.5277814865112305,0.2562215328216553,0.6975710391998291,-0.669137716293335,0.2642710208892822,-0.0038607120513916016,1.0502870082855225,0.13117592468762385,0.0839597461745963,0.3979722422603838,-0.9040806718930251,-0.7720019021671223,0.36568997420647265,-2.703408841013406
1782664921381410304,3.435903310775757,-5.4687042236328125,2.9475789070129395,-1.6830291748046875,0.2637225389480591,0.7343276143074036,-0.6254706382751465,0.3612164258956909,-0.2596266269683838,0.8986334800720215,0.12041852439233959,0.09055442701012603,0.42316023598278035,-0.8934398662516969,-0.8246755537458245,0.39902003694171184,-2.6972150419961207
1782664921391330560,3.4458234310150146,-6.1494293212890625,2.979038953781128,-1.7697193622589111,0.26841869950294495,0.7737898230552673,-0.5737600922584534,0.34568649530410767,-0.1855635643005371,0.8461599946022034,0.10899811771505692,0.0965574374915892,0.4514383948209231,-0.8803404606727356,-0.8848023637405501,0.4375770685777536,-2.685333162040955
1782664921401250304,3.4557433128356934,-6.378359317779541,2.826359272003174,-1.5022653341293335,0.271312952041626,0.8123483061790466,-0.5162165760993958,0.4758946895599365,-0.003281533718109131,0.6204646825790405,0.09825984425145576,0.10216237537062443,0.48109723741050675,-0.8651319708863968,-0.9481676351503233,0.48390132293818555,-2.663489078637823
1782664921411169280,3.4656622409820557,-6.568934440612793,2.847743511199951,-1.2659670114517212,0.2734898328781128,0.847221314907074,-0.45543333888053894,0.5647364854812622,0.07994848489761353,0.536961019039154,0.08890244495816578,0.10767489974042073,0.5105775672728867,-0.8484180303767564,-1.0107326861497055,0.5407904998352944,-2.6284276072943844
