time,seconds_elapsed,rotationRateX,rotationRateY,rotationRateZ,gravityX,gravityY,gravityZ,accelerationX,accelerationY,accelerationZ,quaternionW,quaternionX,quaternionY,quaternionZ,pitch,roll,yaw
1784027966707178496,0.5666694641113281,2.2244985103607178,-0.35856685042381287,-2.2219901084899902,0.22186237573623657,0.45852693915367126,-0.8605406284332275,-0.17169147729873657,-0.06507906317710876,0.49413132667541504,0.597868628243024,-0.05709206340982836,0.257818136455347,-0.756850994447374,-0.47633689958462183,0.2523226176118451,-1.742870980634568
1784027966717099776,0.5765905380249023,3.314394235610962,-0.3876376152038574,-2.1506824493408203,0.20867697894573212,0.440464049577713,-0.873181164264679,-0.06551903486251831,0.016551941633224487,0.27888184785842896,0.5899446316286056,-0.05325584926818057,0.24611630306321236,-0.7671739604435057,-0.45611549142756513,0.23458480408082,-1.775827736816737
1784027966727019776,0.5865106582641602,5.001889705657959,-0.40244027972221375,-2.036102771759033,0.1963101029396057,0.40911561250686646,-0.8911154866218567,-0.012762129306793213,0.14630430936813354,0.11914283037185669,0.5826514981275105,-0.04523405034996371,0.22890205676236197,-0.778508167839933,-0.42148464494594473,0.21683361378182536,-1.8100547636185376
1784027966736939776,0.5964305400848389,6.719403266906738,-0.4819380044937134,-2.036011219024658,0.18451672792434692,0.36095860600471497,-0.9141457676887512,-0.007453739643096924,0.35116907954216003,0.07329493761062622,0.5754401829119874,-0.03224779250466415,0.2046636296170274,-0.7911646200854304,-0.3692955848306413,0.19916999473563682,-1.8466019717984188
1784027966746860800,0.6063516139984131,8.199588775634766,-0.5445414781570435,-2.1581571102142334,0.17280934751033783,0.2966325581073761,-0.9392262697219849,-0.02980397641658783,0.5951215624809265,0.12703144550323486,0.5675787494665051,-0.015114627273360968,0.17366174464322506,-0.8046535795844536,-0.3011645796249072,0.1819561546719926,-1.8852672654381273
1784027966756780544,0.6162714958190918,9.512703895568848,-0.5253377556800842,-2.190075397491455,0.16200527548789978,0.21735413372516632,-0.9625546336174011,-0.02225002646446228,0.7090679407119751,0.2374875545501709,0.558186906021704,0.005734140174577818,0.13671061470183024,-0.8183548143017939,-0.21910297961040207,0.16674484387561972,-1.9260089121322996
1784027966766701824,0.626192569732666,10.62031078338623,-0.4827328026294708,-2.034425735473633,0.15347449481487274,0.1242339164018631,-0.980311930179596,0.04391317069530487,0.6423371434211731,0.3613544702529907,0.5475832211700308,0.030038496125818936,0.0945606408987526,-0.830848154207065,-0.12455572750986245,0.15529621342572802,-1.966445906126021
1784027966776621568,0.6361124515533447,11.34217643737793,-0.5484241843223572,-1.784020185470581,0.146952822804451,0.020306341350078583,-0.9889350533485413,0.11560516059398651,0.5121796131134033,0.41926342248916626,0.535822460006584,0.05667042217917686,0.048176145649909616,-0.8410480911837218,-0.020307736439287925,0.14751758016639144,-2.005601451041155
1784027966786542592,0.646033525466919,11.075706481933594,-0.563836932182312,-1.5611612796783447,0.1418757438659668,-0.08689635992050171,-0.9860630035400391,0.1743931621313095,0.4421514868736267,0.48565107583999634,0.5234684400748064,0.08347693691208016,0.0002940798631886467,-0.847945962988507,0.08700608823000038,0.1429003020759374,-2.041684055682977
1784027966796462848,0.6559536457061768,10.556013107299805,-0.49061867594718933,-1.4190523624420166,0.13879117369651794,-0.189125657081604,-0.9720948934555054,0.18562592566013336,0.358742356300354,0.5421937704086304,0.510702214174899,0.10891064777166139,-0.045727689204280435,-0.8516047267124336,0.19027165102758062,0.141816887862669,-2.0747589295213698
1784027966806383616,0.6658744812011719,9.857048988342285,-0.5611897706985474,-1.2406333684921265,0.13695374131202698,-0.2840915024280548,-0.9489656090736389,0.21590575575828552,0.07107880711555481,0.4112001061439514,0.4987473241683178,0.13256302444136384,-0.08913050144055658,-0.8519002301393523,0.2880587502872562,0.14332935771600458,-2.103106606230855
1784027966816303616,0.6757946014404297,8.511550903320312,-0.6346032619476318,-0.9974367022514343,0.13498130440711975,-0.3676268756389618,-0.9201252460479736,0.28970128297805786,-0.2067902386188507,0.3134663701057434,0.48718087381577835,0.15303802616844187,-0.12851741755339546,-0.8501278165363697,0.37645589495066506,0.14565987673972122,-2.1286236979277118
1784027966826223616,0.6857144832611084,6.681986331939697,-0.5671328902244568,-0.9759290218353271,0.1333564966917038,-0.433974951505661,-0.8910004496574402,0.30106121301651,-0.394119530916214,0.3585144877433777,0.47659777872943465,0.16914797354984304,-0.16089980168261275,-0.8475580908701543,0.4489001943198587,0.14856769417768706,-2.151065901079056
1784027966836144640,0.6956355571746826,5.070095062255859,-0.4427432119846344,-1.1803830862045288,0.1338762789964676,-0.48315244913101196,-0.8652403354644775,0.2306409478187561,-0.570527970790863,0.42819809913635254,0.46658915360462505,0.1815474287202833,-0.18552723161063178,-0.8455263238851674,0.5042517303686574,0.1535099510698073,-2.1727121532558518
1784027966846064640,0.7055554389953613,3.5872864723205566,-0.3434629738330841,-1.3630698919296265,0.13697296380996704,-0.5175668597221375,-0.8446081876754761,0.18732208013534546,-0.63897305727005,0.3939245939254761,0.4568773416579443,0.19091838486997473,-0.2030913273916611,-0.8447290597913909,0.5440048574376493,0.16077367433112033,-2.194931582955073
1784027966855985664,0.7154765129089355,2.586637496948242,-0.356383740901947,-1.3619590997695923,0.14143657684326172,-0.5405291318893433,-0.8293514847755432,0.19427204132080078,-0.5894604921340942,0.4488126039505005,0.4478422477696679,0.1976618803253328,-0.21506748691857613,-0.8450521229808475,0.5710659357911352,0.16891372691875545,-2.216634247406504
1784027966865905664,0.7253966331481934,2.2912144660949707,-0.4586406350135803,-1.3235623836517334,0.14544416964054108,-0.557839572429657,-0.817105233669281,0.23462173342704773,-0.593130886554718,0.300381600856781,0.43802510196955435,0.20223206339471067,-0.22483232857142793,-0.846573423422806,0.5917804499264876,0.17615436896069162,-2.240461634537858
1784027966875826688,0.7353174686431885,0.5923925638198853,-0.3332500457763672,-1.7445549964904785,0.15057861804962158,-0.5670957565307617,-0.8097706437110901,0.2947033643722534,-0.5963716506958008,-0.1937083601951599,0.42867301439044325,0.20498100694166635,-0.2304288861057792,-0.8491906512996406,0.6029755093265916,0.18385228536818085,-2.263947143499507
1784027966885746688,0.7452375888824463,2.932189702987671,-1.230248212814331,-1.059212565422058,0.15128393471240997,-0.5776772499084473,-0.8021235466003418,0.33895042538642883,-0.6703848838806152,-0.3564152717590332,0.41881208442483586,0.20576298473972582,-0.23790719766554555,-0.8518557244823054,0.615880252490131,0.18641451894253913,-2.2871526202647554
1784027966895666688,0.755157470703125,3.0759754180908203,-0.41827985644340515,-1.6553093194961548,0.15365295112133026,-0.600677490234375,-0.7845873832702637,0.20010679960250854,-0.5371551513671875,0.012217998504638672,0.40762319615713094,0.2105715967142911,-0.25172588864420214,-0.8521367234133856,0.6443482310510886,0.19339160526804855,-2.313963841232603
1784027966905587712,0.7650785446166992,3.0959792137145996,-0.8704816699028015,-1.5110573768615723,0.15881207585334778,-0.6205013990402222,-0.7679561972618103,0.049561962485313416,0.10821807384490967,0.2929043769836426,0.3956394899762782,0.2154728128622069,-0.26380552433777527,-0.8529053666122818,0.6693819181021472,0.20392379537790048,-2.344068273551823
1784027966915507712,0.774998664855957,4.461824417114258,-0.8144276142120361,-0.9715516567230225,0.15988513827323914,-0.6468223929405212,-0.7456926703453064,0.2571070194244385,0.031755924224853516,0.0722765326499939,0.3842489767373994,0.22036915143363323,-0.280341063790099,-0.8515862207052151,0.7034104817433675,0.21121366048144272,-2.3716216356683923
1784027966925428736,0.7849195003509521,5.1840901374816895,-0.7558130621910095,-1.0370136499404907,0.16086947917938232,-0.6802874207496643,-0.7150734663009644,0.17802825570106506,0.1508074402809143,0.10673606395721436,0.37248401239258405,0.22726950265819829,-0.3013500070894164,-0.8478163511799998,0.7481547335376055,0.22128508606492342,-2.400845482764929
1784027966935348736,0.79483962059021,5.782917499542236,-0.9482492804527283,-1.1781928539276123,0.16278602182865143,-0.7161043882369995,-0.6787453889846802,0.22036220133304596,0.271356463432312,0.07010281085968018,0.35933094493810996,0.23500221041040587,-0.32465559845842473,-0.8427657435073794,0.7982050271312513,0.23538772765913396,-2.435179725465757
1784027966945269504,0.8047604560852051,6.4759063720703125,-0.9875487685203552,-1.3661575317382812,0.16562682390213013,-0.7538878917694092,-0.6357836127281189,0.2520214915275574,0.24493098258972168,0.18181931972503662,0.3441762986148975,0.243300959220563,-0.35058928441647363,-0.8363219575187509,0.8539597557225348,0.2548439983010172,-2.4772166822929234
1784027966955189760,0.8146805763244629,6.990889072418213,-0.8833399415016174,-1.7767575979232788,0.17208103835582733,-0.7920069098472595,-0.585758626461029,0.17336270213127136,0.343657910823822,0.15765804052352905,0.3266701567625141,0.2530451692274017,-0.3782708256802524,-0.8283513461408288,0.9140892729835098,0.2857357099371313,-2.5315655605939242
1784027966965109504,0.8246004581451416,7.612981796264648,-0.9149377942085266,-2.0470130443573,0.18279863893985748,-0.8287228941917419,-0.5289642214775085,0.1327989399433136,0.4933651089668274,0.22032469511032104,0.3067319761732019,0.26414436153780685,-0.4071187001253612,-0.8187781864074694,0.9768218283960305,0.33273037054892074,-2.602688883754797
1784027966975030784,0.8345215320587158,8.163583755493164,-1.0837336778640747,-2.076967716217041,0.19540852308273315,-0.8636351823806763,-0.46470388770103455,0.17847755551338196,0.47639769315719604,0.24624380469322205,0.2847152860491855,0.27554353992750186,-0.4378627797562673,-0.8070248538478008,1.0424367686270621,0.39805391438485965,-2.6938593662936183
1784027966984950784,0.8444416522979736,8.337051391601562,-1.1712429523468018,-2.0252697467803955,0.20856215059757233,-0.8947962522506714,-0.3947674632072449,0.1991831511259079,0.35100364685058594,0.29161810874938965,0.2616141488111536,0.28642293713252154,-0.4696575056310357,-0.7930584322480175,1.1079746993152135,0.48604333927745347,-2.808673608809
1784027966994871552,0.8543624877929688,8.058365821838379,-1.2807832956314087,-2.092271327972412,0.22288472950458527,-0.9197896718978882,-0.3229697644710541,0.14965862035751343,0.07947289943695068,0.4600699543952942,0.23803194062762273,0.2965131605744905,-0.5005947124310421,-0.777705429514309,1.1675441237069255,0.604057637097791,-2.9535096900384072
1784027967004791808,0.8642826080322266,7.2226176261901855,-1.2187633514404297,-2.1032652854919434,0.23883980512619019,-0.9368758797645569,-0.2553804814815521,0.033834755420684814,-0.20544284582138062,0.35474568605422974,0.21447234713390495,0.3051616984662348,-0.5283806426062775,-0.7626872542024306,1.213585839061607,0.751942444769839,-3.12824342288359
1784027967014712576,0.8742034435272217,6.237916469573975,-1.0003529787063599,-2.0674350261688232,0.2559559643268585,-0.9467395544052124,-0.19537286460399628,-0.09720355272293091,-0.38666486740112305,0.5230553150177002,0.19244619726882578,0.31274564454572923,-0.5518185658971473,-0.7487661796361679,1.2429548047117664,0.9188332564429188,2.963751961308722
1784027967024632576,0.8841235637664795,5.3661956787109375,-0.8232799172401428,-2.088320255279541,0.2741265296936035,-0.9509501457214355,-0.14334669709205627,-0.2117639183998108,-0.4377368688583374,0.4524744749069214,0.17231517687275957,0.31982718231515156,-0.5709966913426121,-0.7361934085678546,1.2562930541967283,1.0889799877234823,2.7727627381066102
1784027967034552576,0.8940434455871582,4.535937786102295,-0.6047509908676147,-2.1427011489868164,0.2929610013961792,-0.9510090351104736,-0.09877172857522964,-0.2593000829219818,-0.18789184093475342,0.31935280561447144,0.1539376977405256,0.326551690954347,-0.58649648680867,-0.7250442324887652,1.2564834006356123,1.2456149405860084,2.5983180595938085
1784027967044473600,0.9039645195007324,4.601138114929199,-0.5601664781570435,-2.2972824573516846,0.31345197558403015,-0.9478602409362793,-0.057523827999830246,-0.32671186327934265,0.0935664176940918,0.24574095010757446,0.1357831298844615,0.3334432332942473,-0.6000447450667652,-0.7143703015334172,1.2464530597578094,1.3892986747456941,2.438062089511499
1784027967054393856,0.9138846397399902,4.417862415313721,-0.4244697093963623,-2.446708917617798,0.3355575501918793,-0.9418707489967346,-0.016745204105973244,-0.35640108585357666,0.09413832426071167,0.2321535348892212,0.11764210928644392,0.3410667318343231,-0.6126180556752406,-0.7032302734134516,1.2281556414574188,1.5209350565011128,2.291516670906204
1784027967064314624,0.9238054752349854,4.167199611663818,-0.4843546152114868,-2.557326316833496,0.35885682702064514,-0.9331449866294861,0.021493740379810333,-0.3014075458049774,0.25797420740127563,0.1400967836380005,0.09961788615549733,0.34890686875475624,-0.6237073572385816,-0.6923361021340726,1.2030639924056337,1.6306198897817368,2.167906326546961
1784027967074234624,0.9337255954742432,3.785032272338867,-0.5719836354255676,-2.728093147277832,0.3833470642566681,-0.9218959808349609,0.05614873394370079,-0.28361567854881287,0.2703457474708557,0.2562596797943115,0.08137432472014491,0.3565306810288956,-0.6332142143719947,-0.6821318010987487,1.1729460116235444,1.7162318953000053,2.0681175120832442
1784027967084155904,0.9436466693878174,2.9978103637695312,-0.6817383766174316,-2.811689853668213,0.4089716672897339,-0.9085755348205566,0.08504554629325867,-0.345662921667099,0.13109445571899414,0.22249531745910645,0.06338796768471518,0.3639434882834156,-0.6403654505910179,-0.6733938092676776,1.139861226563765,1.775824043111646,1.9947277742080127
1784027967094075648,0.9535665512084961,1.9015969038009644,-0.7726259231567383,-2.8530831336975098,0.43492522835731506,-0.8944948315620422,0.10353462398052216,-0.3602485954761505,-0.00954282283782959,0.3433496057987213,0.04670967753587354,0.3706280187342733,-0.6437407748794048,-0.6678705569918503,1.107300031341249,1.8044981646777234,1.9532102923286725
1784027967103995904,0.9634866714477539,1.227210521697998,-0.7396101355552673,-2.954558849334717,0.46138566732406616,-0.8798590898513794,0.11389098316431046,-0.45755574107170105,-0.1490715742111206,0.35206663608551025,0.031172796056472885,0.37715429423911234,-0.6439721497078258,-0.6648930069286514,1.0755655619200015,1.8128038593731448,1.9335930664869052
1784027967113916672,0.973407506942749,0.71476811170578,-0.6772152185440063,-2.9807751178741455,0.48788347840309143,-0.8647924065589905,0.11875900626182556,-0.5507192611694336,-0.20484864711761475,0.32257091999053955,0.016773024072140204,0.3838396147831599,-0.6419086013495778,-0.6635805230185506,1.044736771353243,1.8095694411070709,1.9275142169995
1784027967123836672,0.9833276271820068,0.8273313641548157,-0.5784226059913635,-2.956421136856079,0.5138627886772156,-0.8491430282592773,0.12206996232271194,-0.5697252750396729,-0.10347837209701538,0.24000585079193115,0.002979035262737102,0.390672450330066,-0.6390696497607673,-0.6625376455520942,1.014360672410173,1.8040268759359634,1.9249440458085247
1784027967133757696,0.993248462677002,1.4539731740951538,-0.5339334607124329,-2.8738043308258057,0.5387850999832153,-0.8325197100639343,0.12892401218414307,-0.5139133334159851,-0.03297394514083862,0.03930412232875824,-0.011094867417433894,0.3975381339362394,-0.6375150506292337,-0.6598596922899592,0.9836405023255295,1.8056665953072302,1.9149206780646586
1784027967143677696,1.0031685829162598,1.9550427198410034,-0.5887516736984253,-2.731170654296875,0.5623923540115356,-0.8149141073226929,0.14010615646839142,-0.4243614077568054,0.022723615169525146,-0.14260853826999664,-0.025402364159415883,0.40445110185410493,-0.6375518666442943,-0.6552110951673522,0.9525809436190376,1.8149515575997668,1.8970693296102301
1784027967153598720,1.013089656829834,2.413424015045166,-0.7811663150787354,-2.5981335639953613,0.5845614671707153,-0.7966654300689697,0.15366239845752716,-0.35096466541290283,0.17309975624084473,-0.19647860527038574,-0.04104945296210794,0.40977148179003137,-0.6394673835966922,-0.6492177951411067,0.9217579957944504,1.8278487514457784,1.8710982585622358
1784027967163518720,1.0230095386505127,2.7468111515045166,-1.0401254892349243,-2.534339666366577,0.606070876121521,-0.7773510813713074,0.16853348910808563,-0.3371499180793762,0.20334595441818237,-0.24659740924835205,-0.05789914760900318,0.4139576184574356,-0.6425774929360845,-0.6421689634566146,0.8904438867938052,1.8420196043007662,1.8402880221724214
1784027967173438720,1.0329296588897705,3.0019707679748535,-1.2339526414871216,-2.394981861114502,0.6267809867858887,-0.757268488407135,0.1835484653711319,-0.31786680221557617,0.11838299036026001,-0.1955876350402832,-0.07567584448259233,0.4168532757831664,-0.646535057071209,-0.6344280599995235,0.8591206002988445,1.8556742573123313,1.806521592811905
1784027967183359744,1.0428504943847656,3.1874938011169434,-1.3792121410369873,-2.2556536197662354,0.6464331150054932,-0.7367666363716125,0.1982399821281433,-0.33747315406799316,-0.03868502378463745,-0.15540862083435059,-0.09354705334194062,0.41892259170858676,-0.6508639281854229,-0.6262019979480992,0.8282757739152133,1.8683587409583078,1.7721855571407166
1784027967193279744,1.0527706146240234,3.3227298259735107,-1.3562967777252197,-2.017488956451416,0.6645231246948242,-0.7162788510322571,0.21296444535255432,-0.33487218618392944,-0.1222069263458252,-0.13070425391197205,-0.11133938891310435,0.41992185648850294,-0.6558565811010052,-0.617350309511102,0.7984550252234739,1.8809319934498372,1.736223332695437
1784027967203200512,1.0626914501190186,3.3586487770080566,-1.2728033065795898,-1.9537293910980225,0.6812461018562317,-0.6958000659942627,0.22752223908901215,-0.3266012668609619,-0.07484513521194458,-0.07116541266441345,-0.1286381311672737,0.42034396536655144,-0.6611142667707812,-0.6080224211289799,0.7695332387771572,1.8931283287580525,1.7003087529195295
1784027967213120768,1.0726115703582764,3.3997280597686768,-1.2616338729858398,-1.8399678468704224,0.6970377564430237,-0.6749274730682373,0.2420971542596817,-0.32658493518829346,0.00589066743850708,-0.044129639863967896,-0.1454962046050702,0.4205461084693043,-0.6664754681049845,-0.5981489565102449,0.7408664252821232,1.9050842020068381,1.6648282066006683
1784027967223041792,1.0825326442718506,3.3034911155700684,-1.2590216398239136,-1.7154983282089233,0.7117020487785339,-0.6543152332305908,0.2556394338607788,-0.2797868251800537,0.034625351428985596,-0.019021421670913696,-0.16180571751818623,0.4201771172781947,-0.6717670061758881,-0.5882168780785074,0.7132767936250008,1.9156386232046003,1.6304647788488653
1784027967232961536,1.0924525260925293,2.942065477371216,-1.2941666841506958,-1.7433891296386719,0.7259401082992554,-0.6339483857154846,0.26668426394462585,-0.27139604091644287,-0.006035745143890381,-0.03946566581726074,-0.17755600663203164,0.41958662802795044,-0.6762316103125441,-0.5789056690921955,0.6866479729134791,1.9228556624641566,1.5997247669918773
1784027967242882816,1.1023736000061035,2.4095370769500732,-1.3332797288894653,-1.7107696533203125,0.7401750683784485,-0.6141555905342102,0.2737767696380615,-0.29617488384246826,-0.0674545168876648,-0.08020377159118652,-0.19248483397125896,0.41920640796684333,-0.6790834754423558,-0.5710176989684059,0.6613155753842819,1.9250716344352128,1.575345909773843
1784027967252802560,1.1122934818267822,1.8287913799285889,-1.3740205764770508,-1.6561020612716675,0.7538415193557739,-0.5960200428962708,0.27655524015426636,-0.273601770401001,-0.11745035648345947,-0.11185184121131897,-0.20608879396144633,0.4189731741596762,-0.6802492921935697,-0.5650218407861315,0.6385354129273968,1.9224126390599592,1.5578146487845204
1784027967262722816,1.12221360206604,1.3338639736175537,-1.42318856716156,-1.659703254699707,0.7672726511955261,-0.5792701244354248,0.27520689368247986,-0.24557465314865112,-0.1682426929473877,-0.11209046840667725,-0.21871461088528737,0.4189268920062195,-0.6797821023581326,-0.5608569244453718,0.6178330135313161,1.915184639297453,1.546405895842361
1784027967272643328,1.132134199142456,0.935735285282135,-1.3609740734100342,-1.6440041065216064,0.7804455161094666,-0.5634558796882629,0.2709653675556183,-0.20290035009384155,-0.19382256269454956,-0.06799304485321045,-0.2303941704279055,0.4193516748959638,-0.6779578542591564,-0.5580643618043194,0.5985629860608449,1.9049684479532423,1.540026113681341
1784027967282563328,1.1420543193817139,0.6779104471206665,-1.1541364192962646,-1.6893497705459595,0.7928080558776855,-0.5484931468963623,0.26572680473327637,-0.16014820337295532,-0.2165367603302002,0.009679079055786133,-0.2407475128043993,0.4205278351840892,-0.6752923369110946,-0.5560371316685117,0.5805610732637121,1.8942004611432008,1.5373535981418
1784027967292484608,1.151975393295288,0.4874514639377594,-0.8905289173126221,-1.5973650217056274,0.8042923808097839,-0.5338897109031677,0.2609133720397949,-0.14927822351455688,-0.31402599811553955,0.027309924364089966,-0.24986926550105276,0.4225691195990039,-0.6722291510817786,-0.5541739409422245,0.5631940804262243,1.8844864982501872,1.5369029944667305
1784027967302404352,1.1618952751159668,0.3069072663784027,-0.7081851959228516,-1.3141860961914062,0.8138709664344788,-0.5212600827217102,0.25671350955963135,-0.01284569501876831,-0.4096633195877075,0.019760459661483765,-0.25726985126122814,0.4247432588592218,-0.6692906052841178,-0.552680215025479,0.5483268320074627,1.876341780902601,1.5376574277589274
1784027967312325376,1.171816349029541,0.22578391432762146,-0.5651994943618774,-1.1284877061843872,0.8216516971588135,-0.510806143283844,0.2529146373271942,0.12024295330047607,-0.4460268020629883,-0.06547567248344421,-0.2632345819131226,0.4266607908552636,-0.666646753913762,-0.5515889111052331,0.5361222613183678,1.869405042853814,1.5388953570747907
1784027967322245376,1.1817362308502197,-0.019042083993554115,-0.595717191696167,-0.9585287570953369,0.8283364176750183,-0.5020200610160828,0.24866628646850586,0.15905994176864624,-0.471612811088562,-0.13694140315055847,-0.26827230180312706,0.4283147330939294,-0.6639876733297653,-0.5510870549588925,0.525932919660611,1.8624362549306566,1.5410770728931338
1784027967332165376,1.1916563510894775,-0.39124807715415955,-0.6592838168144226,-0.7784534096717834,0.8341622352600098,-0.4953157305717468,0.24256113171577454,0.18111193180084229,-0.501998782157898,-0.18325015902519226,-0.27227607640354784,0.4297444126333028,-0.6607573699857131,-0.5518924352228285,0.5181982546024527,1.8537768822361764,1.546080289836518
1784027967342086656,1.2015774250030518,-0.7920995950698853,-0.5831887722015381,-0.5911253094673157,0.8389087319374084,-0.4911908507347107,0.23444417119026184,0.13904249668121338,-0.4923754632472992,-0.16765639185905457,-0.27488597333111686,0.431008056073615,-0.6568516869152027,-0.5542704721757383,0.5134563682627495,1.8433072456914565,1.5546856887962035
1784027967352006400,1.2114973068237305,-1.2395330667495728,-0.4951965808868408,-0.4660920202732086,0.8425865173339844,-0.4891759157180786,0.22528886795043945,0.018558621406555176,-0.5461940169334412,-0.12177321314811707,-0.27584118284376224,0.43261974860929503,-0.6522917942881675,-0.5579133411761361,0.5111446368553936,1.832062442839275,1.5671896153468963
1784027967361927424,1.2214183807373047,-1.5112513303756714,-0.5807111859321594,-0.2734368145465851,0.8454914689064026,-0.4892515540122986,0.21395601332187653,-0.06028944253921509,-0.6497254371643066,-0.07302582263946533,-0.275582372733055,0.4341527804974909,-0.6469075412399479,-0.5630953624467623,0.5112313908002808,1.8186483939803684,1.58355840064058
1784027967371847424,1.2313382625579834,-1.6882649660110474,-0.42310014367103577,0.02231869101524353,0.8470258116722107,-0.49168187379837036,0.2019800841808319,-0.08104997873306274,-0.7144948244094849,-0.09632828831672668,-0.2739733765019517,0.43531436383712774,-0.6414759933817414,-0.5691646908360369,0.5140201756063886,1.8048827893043466,1.6016864711522933
1784027967381768448,1.2412593364715576,-1.8634111881256104,-0.4508521556854248,0.2412654161453247,0.8471968770027161,-0.49625223875045776,0.18971356749534607,-0.10427695512771606,-0.6787660717964172,-0.10653793811798096,-0.27112120699606984,0.4360658987308805,-0.6361629637009035,-0.5758789173149302,0.5192766281774253,1.7910929677702174,1.6210144767424086
1784027967391688448,1.2511792182922363,-1.8386887311935425,-0.4488292932510376,0.39428722858428955,0.8462862372398376,-0.5026277899742126,0.17653542757034302,0.007763385772705078,-0.6225857734680176,-0.08389939367771149,-0.2675347931714077,0.4360955555703976,-0.6309424513095606,-0.5832301165644436,0.5266357768160442,1.7764474024171086,1.641037073166408
1784027967401608448,1.2610993385314941,-1.4582746028900146,-0.40084308385849,0.5868774056434631,0.8444975018501282,-0.5096127986907959,0.1646772176027298,0.035919249057769775,-0.5479432940483093,-0.11830581724643707,-0.2638003363700936,0.43551616308903385,-0.6266293017858936,-0.5899751553119064,0.5347347307199588,1.7633798473305764,1.6586471943008834
1784027967411529472,1.2710204124450684,-1.1023898124694824,-0.3624538481235504,0.849332332611084,0.8413381576538086,-0.5178323984146118,0.1549193412065506,0.11296188831329346,-0.49274200201034546,-0.11861871182918549,-0.2600422167184652,0.43376822689573896,-0.6239429444393956,-0.5957503644366073,0.5443151914920656,1.7528910610544228,1.6716669219146054
1784027967421449472,1.280940294265747,-0.830740213394165,-0.325870543718338,1.027758240699768,0.8368077278137207,-0.5273727774620056,0.1470736861228943,0.18205207586288452,-0.4355940818786621,-0.09029580652713776,-0.2561288054636192,0.43099791042036534,-0.622717951613977,-0.6007171699519781,0.5555053984321806,1.744775107480043,1.6807599331669425
1784027967431370496,1.2908613681793213,-0.8314855098724365,-0.30400460958480835,1.166507363319397,0.8313639163970947,-0.537809431552887,0.13998205959796906,0.1695210337638855,-0.5013750791549683,-0.06431378424167633,-0.2520984205242455,0.42753744766862,-0.6222561872668722,-0.6053555325854562,0.5678366023543565,1.7376080648835923,1.6878838722914888
1784027967441290496,1.30078125,-1.2074335813522339,-0.28161194920539856,1.2363786697387695,0.8251409530639648,-0.5492827296257019,0.13202591240406036,0.14226621389389038,-0.6176331043243408,-0.03305734694004059,-0.24717483996727943,0.42409360508450034,-0.6214157773891973,-0.6106485245916808,0.5815056286758803,1.7294555535349825,1.6973779856439002
1784027967451210496,1.3107013702392578,-1.8184224367141724,-0.2700958251953125,1.2645336389541626,0.8183234333992004,-0.561775803565979,0.12146837264299393,0.12256395816802979,-0.7270119786262512,-0.015267260372638702,-0.240977668210531,0.42100471616912694,-0.6192650608309014,-0.6174103319618005,0.5965307963153132,1.7181560023986064,1.7125524574140496
1784027967461131264,1.320622205734253,-2.6529455184936523,-0.24816203117370605,1.2767647504806519,0.8112167119979858,-0.5749406218528748,0.10663425177335739,0.1490800380706787,-0.7945356965065002,0.034631624817848206,-0.23311985947084968,0.4187431997967937,-0.6147936715484871,-0.6263689746241102,0.6125316103530584,1.7014967415883064,1.7370075327456695
1784027967471051520,1.3305423259735107,-3.3152599334716797,-0.31626391410827637,1.3047502040863037,0.8038366436958313,-0.5884477496147156,0.08704118430614471,0.18340712785720825,-0.7867201566696167,0.040919072926044464,-0.22353988490495222,0.4172907491502644,-0.6077738241641472,-0.6375809227205724,0.6291376533508003,1.6786582546527564,1.7716176999699464
1784027967480972544,1.340463399887085,-3.424304723739624,-0.3288140594959259,1.3933045864105225,0.7958269715309143,-0.602092444896698,0.06437385082244873,0.27450066804885864,-0.7306254506111145,0.06045829504728317,-0.2130245584633317,0.4157498423833758,-0.5994489071680871,-0.649948861461778,0.6461192024718901,1.651509847686476,1.8117956049574773
1784027967490892288,1.3503832817077637,-3.3126399517059326,-0.30996841192245483,1.6097071170806885,0.7866004705429077,-0.6160702109336853,0.04143664240837097,0.35078954696655273,-0.6569399833679199,0.12750864028930664,-0.2020019647800228,0.4135568773645691,-0.5913451023907033,-0.6621758016698369,0.6637439392362499,1.62342581157811,1.8525527288051298
1784027967500813568,1.360304355621338,-3.133303642272949,-0.24523282051086426,1.789351224899292,0.7757812738418579,-0.6307060718536377,0.01932692341506481,0.37361758947372437,-0.6019599437713623,0.19533371925354004,-0.19035512171331853,0.4106546399388519,-0.5839745101338525,-0.6738705940273293,0.6824627367366507,1.5957040267965894,1.8926527258659258
1784027967510733312,1.3702242374420166,-3.0462379455566406,-0.14121083915233612,1.9450827836990356,0.7634099125862122,-0.6459119915962219,-0.001675120904110372,0.4189172387123108,-0.6268540620803833,0.2522854804992676,-0.1780693754579173,0.40718299791762386,-0.5773772127043693,-0.6849297336034874,0.7022173129571568,1.568602068821642,1.9320887846180115
1784027967520654336,1.3801453113555908,-3.141343593597412,-0.22309079766273499,2.0987775325775146,0.7496144771575928,-0.6614740490913391,-0.02302594482898712,0.45773714780807495,-0.6532994508743286,0.3102268576622009,-0.16505734688090473,0.40318760246909796,-0.5708999783178458,-0.6958944195695554,0.7227825667146088,1.5400889341117936,1.97312425567864
1784027967530574336,1.3900651931762695,-3.5256800651550293,-0.13675270974636078,2.0491950511932373,0.734632134437561,-0.6768679618835449,-0.046534214168787,0.516893744468689,-0.7126889228820801,0.3563792109489441,-0.15123123133405175,0.3987500486581436,-0.5636765844093872,-0.7073869009286426,0.7434993565301977,1.5075372843391885,2.018708705952335
1784027967540494336,1.3999853134155273,-4.03594446182251,-0.1943371742963791,2.122737407684326,0.7175997495651245,-0.6925450563430786,-0.07370300590991974,0.5006163120269775,-0.7250117063522339,0.38931578397750854,-0.1354699705026334,0.3938726453818379,-0.5549890411041924,-0.7200690860727447,0.765011191558973,1.4684475230543528,2.073048351141407
1784027967550415616,1.4099063873291016,-4.533575057983398,-0.10944659262895584,2.0506691932678223,0.697735607624054,-0.7086257338523865,-0.10495023429393768,0.567645251750946,-0.711372435092926,0.3546450734138489,-0.11762424273834073,0.38800939390760214,-0.5449528364082274,-0.7339207078419148,0.7875485819325191,1.4215000674651932,2.136804658696708
1784027967560335360,1.4198262691497803,-4.520876407623291,-0.3158032298088074,2.229867696762085,0.6813240647315979,-0.7187857031822205,-0.13836419582366943,0.5942344069480896,-0.6147714257240295,0.33529412746429443,-0.10098473128637891,0.38371482224866926,-0.5325230877734025,-0.7476524721919695,0.8020541689697523,1.3704397220892,2.205879813838179
1784027967570256384,1.4297473430633545,-4.5876641273498535,-0.4190581142902374,2.2005107402801514,0.6637963056564331,-0.727511465549469,-0.17349815368652344,0.7446204423904419,-0.5154541730880737,0.35204124450683594,-0.084666494745628,0.37814593178030165,-0.5198620761594609,-0.7613019602821106,0.814687827977778,1.3151430207739214,2.2768242694360525
1784027967580176384,1.4396672248840332,-4.6910247802734375,-0.4037521481513977,2.0776455402374268,0.6471636295318604,-0.7329285144805908,-0.20974960923194885,0.7480847239494324,-0.3825652003288269,0.37774890661239624,-0.068762114066171,0.37276666705105393,-0.5061325968922461,-0.7746912395611767,0.822616754056389,1.2573732398928958,2.3502963749002257
1784027967590097408,1.4495882987976074,-4.687312126159668,-0.6997793316841125,2.226874589920044,0.6298436522483826,-0.7362686991691589,-0.24739737808704376,0.8129969239234924,-0.39401084184646606,0.36801815032958984,-0.053050239486247534,0.3665501645171517,-0.4918762911653562,-0.7879622066537277,0.8275396482415222,1.1965193789281419,2.4255187975764434
1784027967600017664,1.4595084190368652,-4.726836204528809,-0.6300460696220398,2.1888463497161865,0.611429750919342,-0.737758457660675,-0.2861228883266449,0.7572684288024902,-0.4648478031158447,0.5190634727478027,-0.03731870238422022,0.35941266946215333,-0.4772432122104375,-0.8010423931805136,0.8297438252761882,1.1331100295611607,2.502153190599039
1784027967609937408,1.469428300857544,-4.819090366363525,-0.6406875252723694,2.197019100189209,0.5933430194854736,-0.7365265488624573,-0.324765682220459,0.5697581768035889,-0.5318297743797302,0.6183600425720215,-0.021539402204021632,0.3524170617687556,-0.4619733536666108,-0.813583968522598,0.8279207228362836,1.0699907486317697,2.579211003650905
1784027967619858432,1.4793493747711182,-4.8213114738464355,-0.4637526869773865,2.222055673599243,0.5749587416648865,-0.7331209778785706,-0.36325743794441223,0.5469894409179688,-0.5619534254074097,0.7200995683670044,-0.005314727702616935,0.34533788140990057,-0.44622083119429634,-0.8255909195398934,0.8228996839986459,1.0073239084224197,2.6567553278640004
1784027967629778432,1.4892692565917969,-4.653623580932617,-0.382587194442749,2.244534730911255,0.556929349899292,-0.7279931306838989,-0.3998197019100189,0.5052502155303955,-0.5710486173629761,0.725610077381134,0.011102846988205115,0.3385952149737705,-0.43063143673198767,-0.8365325239836452,0.8153901679663547,0.9481575535133946,2.7319691119515035
1784027967639699456,1.499190330505371,-4.828136920928955,-0.48946890234947205,2.2134509086608887,0.5389122366905212,-0.7206369638442993,-0.43618354201316833,0.5599494576454163,-0.5344899892807007,0.6053882241249084,0.027483719324250293,0.3316019847337848,-0.41466656098747784,-0.846957204548642,0.8047206213354263,0.8903633749565344,2.805808209639187
1784027967649619456,1.5091102123260498,-4.662769317626953,-0.5270856022834778,2.17104434967041,0.5208716988563538,-0.7108575105667114,-0.4726250469684601,0.5671409964561462,-0.4331701993942261,0.5147697925567627,0.043566374323953105,0.3241463261409144,-0.3982670495126253,-0.8569799307899238,0.790716645321629,0.8339225138889232,2.877605678535986
1784027967659539456,1.5190303325653076,-4.158425807952881,-0.6992003321647644,2.14491605758667,0.5026525259017944,-0.7006046175956726,-0.5064520239830017,0.5168634653091431,-0.3620632290840149,0.5201390981674194,0.058715591406966604,0.3162277804781733,-0.3831109410986289,-0.8658974832470808,0.7762444600066947,0.7816329737389768,2.9432270318108875
1784027967669460480,1.5289514064788818,-3.8695240020751953,-0.8039074540138245,2.14853835105896,0.4837621748447418,-0.6905319094657898,-0.5377171635627747,0.4692559838294983,-0.28618311882019043,0.42974603176116943,0.07281204923904651,0.3075981326158748,-0.36949263764999757,-0.8738174031041895,0.7622241654132391,0.732626763547797,3.0028074526545114
1784027967679380480,1.5388712882995605,-3.399764060974121,-0.8950456380844116,2.343341827392578,0.463623046875,-0.6813125014305115,-0.5664511919021606,0.3663482666015625,-0.2531052231788635,0.41191017627716064,0.08657045268935895,0.2983306026946052,-0.3574538550715427,-0.8807560148466268,0.7495541877303656,0.6859018557039289,3.05845790678629
1784027967689301504,1.5487923622131348,-3.2056784629821777,-0.9955116510391235,2.4627749919891357,0.44189006090164185,-0.6736267805099487,-0.592418909072876,0.24164265394210815,-0.25361931324005127,0.448681116104126,0.10031927647918454,0.28847867464048027,-0.34723277588681434,-0.8866484663489306,0.7391050648866195,0.640877151205542,3.1112220055451223
1784027967699221248,1.5587122440338135,-3.614682197570801,-1.104773759841919,2.506211757659912,0.4188668131828308,-0.6641588807106018,-0.6192282438278198,0.1287406086921692,-0.2401074767112732,0.4728811979293823,0.11429319355371548,0.27775348341129336,-0.33650986423604085,-0.8924971614255583,0.726368125034449,0.5947339230613886,-3.1187451303698444
1784027967709142528,1.5686333179473877,-4.4432196617126465,-1.1621538400650024,2.386061906814575,0.3955325782299042,-0.6490481495857239,-0.6498388051986694,0.005468398332595825,-0.3081204295158386,0.5089849233627319,0.1288033786061316,0.26621483281198,-0.3228161547847119,-0.8990712145737516,0.7063325830989424,0.5467647219020176,-3.0629969534378474
1784027967719062272,1.5785531997680664,-5.474285125732422,-1.3525837659835815,2.3648223876953125,0.3720625936985016,-0.6253523826599121,-0.6859328150749207,-0.08710470795631409,-0.3158097267150879,0.48735493421554565,0.14382307602309574,0.2534652838205933,-0.3046127600928915,-0.9067973227870946,0.6755830276670375,0.49700378051783184,-3.0047913292726545
1784027967728983296,1.5884742736816406,-6.269794940948486,-1.4509382247924805,2.3641488552093506,0.34762734174728394,-0.5927553176879883,-0.7264959812164307,-0.14303749799728394,-0.21475505828857422,0.40641236305236816,0.1597817612181424,0.23914570776435587,-0.2820662084610904,-0.9152692538942806,0.6344756594321681,0.4462990650849215,-2.944667755852368
1784027967738903552,1.5983943939208984,-6.468478679656982,-1.5424132347106934,2.185696840286255,0.3233073055744171,-0.5530907511711121,-0.7678301334381104,-0.2787669003009796,-0.03454047441482544,0.41149163246154785,0.1756123852807874,0.22385799300238568,-0.25685120181441956,-0.923620858092431,0.5860695067811261,0.3985339803421153,-2.8875214841400165
1784027967748823296,1.6083142757415771,-6.114090442657471,-1.6771358251571655,1.9923505783081055,0.2995949387550354,-0.5104145407676697,-0.806052029132843,-0.3649635910987854,0.17984813451766968,0.339041531085968,0.1900481979539168,0.20816112902701367,-0.23160942380001467,-0.9310788257735542,0.5356668028444548,0.3558584593745623,-2.837513170174337
1784027967758744576,1.6182353496551514,-4.960373401641846,-1.7173863649368286,1.9594179391860962,0.27588462829589844,-0.4707656800746918,-0.8380139470100403,-0.38789939880371094,0.3397689759731293,0.21864444017410278,0.20294979815668512,0.19261197990002815,-0.20950812133181002,-0.9369196353765528,0.49015842991023006,0.3180371924632491,-2.7951338364518623
1784027967768664320,1.62815523147583,-3.096348762512207,-1.769852638244629,2.012845754623413,0.25207966566085815,-0.44212019443511963,-0.8608052134513855,-0.48070210218429565,0.47245466709136963,0.1716572642326355,0.2142239447859862,0.17830436407594513,-0.19443496356375709,-0.9404843038921408,0.4579610634159684,0.2848766821641905,-2.760497516223108
1784027967778585344,1.6380763053894043,-1.1346834897994995,-1.7665295600891113,2.079343795776367,0.2276785671710968,-0.4293175935745239,-0.8739844560623169,-0.5952932834625244,0.6438866853713989,0.0965796709060669,0.22399074955236448,0.1657274542127668,-0.18852631886317575,-0.9417114146914444,0.4437370733655511,0.2548423545569027,-2.732346036754501
1784027967788505600,1.647996425628662,0.31781288981437683,-1.6979539394378662,1.8325939178466797,0.20379599928855896,-0.4306752383708954,-0.8791962265968323,-0.7356411218643188,0.8264424800872803,0.017547667026519775,0.23193684556895944,0.1552240339563507,-0.1905449631497472,-0.9411712555190157,0.44524081497886603,0.22777546046728303,-2.7101275006658403
1784027967798426368,1.6579172611236572,1.3087117671966553,-1.5802541971206665,1.500106692314148,0.18191330134868622,-0.44182339310646057,-0.8784643411636353,-0.8550395369529724,0.9514516592025757,-0.0003960728645324707,0.23756261017877614,0.1468654073731699,-0.19798578220605986,-0.939572318187985,0.4576301806074714,0.2041948773772554,-2.6940033241402426
1784027967808346624,1.667837381362915,1.5685120820999146,-1.4638888835906982,1.2535293102264404,0.16205796599388123,-0.45744648575782776,-0.8743454217910767,-0.8985234498977661,0.9564546346664429,0.09103548526763916,0.2414377854557491,0.13998059810792865,-0.20792480040787079,-0.9374862501194662,0.4751215013962877,0.18326799756152062,-2.681965087167511
1784027967818266368,1.6777572631835938,1.2964667081832886,-1.302675724029541,0.9835209250450134,0.1442767083644867,-0.47215536236763,-0.869628369808197,-0.9970599412918091,0.9232509732246399,0.1782832145690918,0.24421291464238168,0.13386531619317696,-0.21740718978516013,-0.935507439098284,0.4917342492709752,0.16440864038730565,-2.672237275574898
1784027967828187392,1.687678337097168,0.7493087649345398,-1.0369280576705933,0.519685685634613,0.12981590628623962,-0.4824658930301666,-0.8662415742874146,-1.1173495054244995,0.890058696269989,0.3052980303764343,0.24597402219817374,0.1285687303537476,-0.22438647074441684,-0.9341399881181451,0.5034677487178714,0.14875408097371667,-2.664973469978949
1784027967838107392,1.6975982189178467,0.12463746219873428,-0.825448751449585,0.08332119137048721,0.11916077882051468,-0.48740872740745544,-0.8650048971176147,-1.1869250535964966,0.8413363695144653,0.33438050746917725,0.24605817936911248,0.1239683967769563,-0.22831863116244797,-0.9337868177119714,0.5091196441286884,0.1368957242108187,-2.661967530966934
1784027967848028416,1.707519292831421,-0.370196670293808,-0.6386407613754272,-0.35833871364593506,0.11138126254081726,-0.4867495000362396,-0.8664116263389587,-1.1233594417572021,0.933801531791687,0.25825732946395874,0.24495572183426542,0.11964812336983527,-0.22908188331745327,-0.9344530100219517,0.5083648144591237,0.1278534325982022,-2.662111994184943
1784027967857948416,1.7174394130706787,0.4368290305137634,-0.618473470211029,-0.476177453994751,0.09630375355482101,-0.4892999231815338,-0.8667820692062378,-1.0155084133148193,1.128963589668274,0.08951461315155029,0.24369866463487544,0.11210428830823381,-0.2324684829852247,-0.9348807154172787,0.5112868505222321,0.11065111088397402,-2.6605424638628365
1784027967867868416,1.7273592948913574,1.3872984647750854,-0.9628552198410034,-0.5326883792877197,0.08839399367570877,-0.497606098651886,-0.8628873825073242,-0.8243406414985657,1.0258654356002808,-0.2089967131614685,0.24071291726090957,0.10864552434617113,-0.23822773339203354,-0.9346127185335259,0.5208367382228695,0.10208368537005476,-2.664666292128034
1784027967877789440,1.7372803688049316,1.8853455781936646,-1.017208218574524,-0.5356431603431702,0.07926874607801437,-0.5109596252441406,-0.8559420108795166,-0.689315140247345,0.9515571594238281,-0.1849973201751709,0.23596012875268926,0.10485266018983952,-0.24705244366748202,-0.9339667636817641,0.5363007903914376,0.09234654334158965,-2.6720540321260757
1784027967887709440,1.7472002506256104,1.9085988998413086,-0.9022167325019836,-0.4816195070743561,0.07253507524728775,-0.5269899368286133,-0.8467704653739929,-0.687326967716217,0.6946993470191956,-0.011292219161987305,0.23194841782374587,0.10281438679300271,-0.2569901975584687,-0.9325154656197491,0.5550548731969628,0.08545223923598627,-2.6783760103364944
1784027967897630464,1.7571213245391846,2.209843635559082,-0.4484899640083313,-0.27318376302719116,0.06798923015594482,-0.5441827774047852,-0.8362072706222534,-0.8232382535934448,0.5712366104125977,-0.009877324104309082,0.22838465854438258,0.10214050326911069,-0.2673269332877311,-0.9305611483746022,0.5754147083799827,0.08112821040369883,-2.6842721773131495
1784027967907550208,1.7670412063598633,1.1391258239746094,-0.47020843625068665,-0.6830139756202698,0.06542715430259705,-0.5583717823028564,-0.8270067572593689,-0.8160070180892944,0.33103108406066895,0.08585691452026367,0.22495121699700543,0.10201564984875094,-0.27584309939480584,-0.9289243098373354,0.5924218591948681,0.07894876250513883,-2.6905197678592487
1784027967917471488,1.7769622802734375,-0.025712303817272186,-0.22695210576057434,-0.7359877228736877,0.06527384370565414,-0.5621947646141052,-0.8244248628616333,-0.8516050577163696,0.17985528707504272,0.3708573579788208,0.22086268146400467,0.10130370108402229,-0.27843334966023453,-0.929210454894023,0.5970372952489738,0.07901018533235753,-2.6992000822121134
1784027967927391488,1.7868824005126953,-0.9857250452041626,-0.15726999938488007,-0.871175229549408,0.06783103942871094,-0.5573514103889465,-0.8275012373924255,-0.7843990325927734,0.16797763109207153,0.27018922567367554,0.21727942828008234,0.10081725351095537,-0.27583555705241836,-0.9308814488739735,0.5911923946828344,0.08178806120220165,-2.7078970090936507
1784027967937311488,1.796802282333374,-0.9288367629051208,-0.22462187707424164,-1.042120099067688,0.07094399631023407,-0.5480960011482239,-0.8334013223648071,-0.5240232348442078,0.2893374562263489,0.15485823154449463,0.21286746893270841,0.0997581499672315,-0.27082771844977016,-0.9334817199267732,0.5800861292054681,0.08492112216733459,-2.718547483922792
1784027967947232512,1.8067233562469482,-0.5810120701789856,-0.15737752616405487,-0.8329511284828186,0.07393033057451248,-0.5412805676460266,-0.8375856280326843,-0.12898403406143188,0.1522424817085266,-0.11177045106887817,0.20906876304604902,0.09921911326128262,-0.26713806921866984,-0.9354587878864031,0.571959293987926,0.0880378390901191,-2.727734836852525
1784027967957152256,1.816643238067627,0.11557099223136902,-0.3366868197917938,-0.6861909627914429,0.07530859857797623,-0.5381757020950317,-0.8394614458084106,0.11216089129447937,0.22770512104034424,-0.23777854442596436,0.20521638546189797,0.09839426927529785,-0.2656837170964036,-0.93681219063212,0.5682711501651807,0.08947109964451369,-2.7364339471728987
1784027967967073536,1.8265643119812012,0.5617406964302063,-0.16696877777576447,-0.50835120677948,0.07632634788751602,-0.540124773979187,-0.8381166458129883,0.4852581322193146,0.09714686870574951,-0.2897214889526367,0.20204005821061993,0.0982829756326014,-0.2669871257187909,-0.9371436644993464,0.5705853737445178,0.09081836573998853,-2.7435632618140464
1784027967976993280,1.8364841938018799,0.6667402982711792,-0.5512371063232422,-0.3125540018081665,0.07420835644006729,-0.5447742342948914,-0.8352928161621094,0.8554333448410034,-0.03350329399108887,-0.21574777364730835,0.19915728385022383,0.09700333903653684,-0.27008134008243084,-0.9370073802993661,0.5761199000192736,0.08860849340851769,-2.74900410821478
1784027967986914304,1.846405267715454,0.5910760760307312,-0.49551987648010254,-0.6705963611602783,0.07080042362213135,-0.5491981506347656,-0.8326876163482666,0.9817050695419312,-0.10078048706054688,-0.1087186336517334,0.19571240129026185,0.09484845875731503,-0.2732397390109614,-0.9370380867536443,0.581404399608934,0.08482237825583601,-2.755177879511973
1784027967996834560,1.856325387954712,0.9306831359863281,-0.5184835195541382,-0.7527013421058655,0.07068386673927307,-0.5556637644767761,-0.8283969759941101,0.9763590097427368,-0.14724761247634888,-0.06119042634963989,0.19137797081033514,0.09437646995417781,-0.2772987299781121,-0.9367886160175566,0.5891610885675239,0.0851199075163079,-2.764395675508051
1784027968006754304,1.8662452697753906,0.7342113852500916,-0.33112454414367676,-0.22361381351947784,0.06864868849515915,-0.5623779892921448,-0.8240256905555725,0.8538213968276978,-0.2635650038719177,-0.06812518835067749,0.18815819630965436,0.09324979625636191,-0.28158769027819447,-0.9362741701918357,0.5972588534688288,0.08311698276804266,-2.770546066435708
1784027968016675584,1.8761663436889648,0.3215106427669525,-0.22432859241962433,-0.06363719701766968,0.06588151305913925,-0.5659742951393127,-0.8217863440513611,0.31317734718322754,-0.21892255544662476,0.08838790655136108,0.18686313124006385,0.09189912216400549,-0.28400948574983736,-0.9359355974741591,0.6016145602283275,0.07999757983198112,-2.7722962183849855
1784027968026595328,1.8860862255096436,0.7186245918273926,-0.20159250497817993,0.07044360786676407,0.06391861289739609,-0.570018470287323,-0.8191418647766113,-0.05276443809270859,-0.1338847279548645,0.19138002395629883,0.18691341926473987,0.09142881822127155,-0.2864783629492512,-0.9352188601443626,0.6065283495070025,0.07787338889303695,-2.7714485673693185
1784027968036516352,1.8960072994232178,1.0065206289291382,-0.2351938784122467,0.038776759058237076,0.06052274629473686,-0.577800452709198,-0.8139309883117676,-0.10384245216846466,-0.014362633228302002,-0.05833768844604492,0.18676372935170568,0.09064932686609888,-0.2912339507807462,-0.9338548355491971,0.6160312085391303,0.07422197987082414,-2.7704392547616656
1784027968046436608,1.9059274196624756,0.01985764503479004,-0.27754250168800354,-0.03646320104598999,0.05769000202417374,-0.581852912902832,-0.8112453818321228,-0.06583818793296814,-0.20083141326904297,0.1621212363243103,0.18641526294075056,0.0896084367244715,-0.29384968725404237,-0.9332053034573454,0.6210051461935521,0.07099337871726404,-2.770055965781452
1784027968056357376,1.9158482551574707,-0.8373460173606873,0.21369141340255737,-0.27910831570625305,0.057619307190179825,-0.5782444477081299,-0.8138264417648315,-0.04637356847524643,-0.2952296733856201,0.21179091930389404,0.18546713642970647,0.08879938346636766,-0.2918928965887807,-0.934085232488169,0.6165752436146285,0.07068254053201277,-2.7720981070117543
1784027968066277376,1.9257683753967285,-1.4514085054397583,-0.0250913854688406,-0.0801003947854042,0.05947199463844299,-0.5690123438835144,-0.8201756477355957,0.039801690727472305,-0.2986329197883606,0.2261357307434082,0.18532764913208596,0.0885124658156365,-0.28649211730103746,-0.9358106508685752,0.6053043323803498,0.07238460772754648,-2.773183433868076
1784027968076197376,1.9356882572174072,-1.7078030109405518,0.3906341791152954,-0.3722006678581238,0.061771031469106674,-0.555657148361206,-0.8291136622428894,0.286678671836853,-0.20439839363098145,0.059277236461639404,0.18534303350578804,0.08798813267827127,-0.2787494630606966,-0.9381922710426528,0.5891531705236345,0.07436510035167225,-2.774080899870298
1784027968086118400,1.9456093311309814,-2.3151543140411377,0.2242211252450943,-0.06921245902776718,0.06405044347047806,-0.5386186242103577,-0.8401116132736206,0.42682480812072754,-0.25747817754745483,0.0068291425704956055,0.18542470431401006,0.08703341989163238,-0.26901556235984564,-0.9411023080128916,0.5687967316824502,0.07609319044103942,-2.774771310896869
1784027968096038400,1.9555292129516602,-2.582132577896118,0.09609431028366089,-0.07304847985506058,0.06536966562271118,-0.5182223916053772,-0.8527440428733826,0.4549550414085388,-0.2943691611289978,0.005988061428070068,0.186421329383357,0.08545885918807372,-0.25753595887606634,-0.9442558572405562,0.544771152878796,0.07650838397994975,-2.7731331732835747
1784027968105959424,1.9654502868652344,-2.4571685791015625,0.13016214966773987,-0.07580793648958206,0.0653444305062294,-0.49643558263778687,-0.865610659122467,0.5164426565170288,-0.031518518924713135,-0.02243560552597046,0.18777118982314936,0.08314862288915643,-0.24552186264712267,-0.947389689109843,0.5194878210219303,0.07534649628638426,-2.7702991164473545
1784027968115879424,1.9753704071044922,-1.622514009475708,0.23213353753089905,0.04965677112340927,0.06647638231515884,-0.47887861728668213,-0.8753606081008911,0.39430853724479675,0.17290937900543213,-0.1622675657272339,0.1883388018936258,0.081762302636392,-0.23586994967084418,-0.9498467082841792,0.49937689421025094,0.07579622517257631,-2.76944129247608
1784027968125800448,1.9852912425994873,-0.9315670132637024,0.015277760103344917,-0.03147469833493233,0.06668363511562347,-0.46774911880493164,-0.8813421726226807,0.37008392810821533,0.29285287857055664,-0.25360655784606934,0.1893139716420007,0.08078416367402141,-0.22978863747545913,-0.9512262481224815,0.4867424001244091,0.07551757174890676,-2.7674434877116476
1784027968135720448,1.9952113628387451,-0.4983636736869812,0.15905117988586426,-0.060294896364212036,0.0667751282453537,-0.46157732605934143,-0.8845831751823425,0.3106967806816101,0.2917012572288513,-0.1757194995880127,0.1893353932911522,0.0801067056516586,-0.22647586073668263,-0.9520733472963303,0.4797724533514812,0.07534477418376996,-2.767419241694823
1784027968145640448,2.005131244659424,-0.4534892141819,0.00842594075948,-0.1911763846874237,0.06791934370994568,-0.4580230414867401,-0.8863418102264404,0.18008174002170563,0.129974365234375,-0.0986434817314148,0.1892785758186589,0.0802560181118558,-0.22447284212893195,-0.9525462804733215,0.47576995991135973,0.07647937533602411,-2.767839641101999
1784027968155561472,2.015052318572998,-0.5177730917930603,0.19745099544525146,-0.076175756752491,0.06803135573863983,-0.4535326361656189,-0.8886393308639526,0.10517116636037827,-0.056141436100006104,-0.08508503437042236,0.18895479780895902,0.07971112066911606,-0.22209561917431161,-0.953213416555187,0.470725103205991,0.07640772405003764,-2.768539485245927
1784027968165481216,2.0249722003936768,-0.6314765214920044,0.0925372764468193,-0.08425219357013702,0.06970234960317612,-0.4484270513057709,-0.8910975456237793,0.11672955006361008,-0.17236152291297913,-0.1590733528137207,0.18948052476266244,0.08008420248304789,-0.2191751700720257,-0.9537536693361197,0.4650047407111971,0.07806184050995864,-2.767856099877724
1784027968175402496,2.034893274307251,-1.0863988399505615,-0.14994992315769196,-0.17344465851783752,0.06875761598348618,-0.4402778446674347,-0.8952249884605408,0.18690340220928192,-0.1652061641216278,-0.16553550958633423,0.18938802937212323,0.07863803976283665,-0.21495012106720265,-0.9548532401396254,0.45590810286734434,0.07665434981719739,-2.767780957887721
1784027968185322496,2.044813394546509,-1.1531589031219482,0.0623805969953537,-0.042157869786024094,0.06809411197900772,-0.4301528036594391,-0.9001842737197876,0.19356361031532288,-0.11019140481948853,-0.05608397722244263,0.18951479519119432,0.07716453549219639,-0.20965086830691287,-0.9561257128061682,0.44466204515861346,0.07550084356239106,-2.7673188507114066
1784027968195242496,2.0547332763671875,-1.1480695009231567,0.08338521420955658,-0.047093503177165985,0.06814219057559967,-0.4196981191635132,-0.9051022529602051,0.17908070981502533,-0.061350464820861816,-0.03242826461791992,0.1900126667934628,0.07610158526669226,-0.20410148156304897,-0.9573120141727679,0.4331127166449733,0.07514496784306147,-2.766254419628045
1784027968205163520,2.0646543502807617,-1.1860718727111816,0.15032711625099182,-0.05134044960141182,0.06796594709157944,-0.40898340940475464,-0.9100072383880615,0.19125036895275116,-0.02235203981399536,0.014667272567749023,0.190287993609761,0.0748544429096347,-0.19847715842224375,-0.9585375372656455,0.4213397709661431,0.07454884693645578,-2.7655990841796094
1784027968215083264,2.0745742321014404,-0.9120631217956543,0.12218176573514938,0.24319425225257874,0.06768704950809479,-0.39940258860588074,-0.9142735004425049,0.22151276469230652,-0.06960681080818176,0.04148602485656738,0.19144338857130203,0.07386786222149062,-0.19340836379225124,-0.9594196550991646,0.4108651208513806,0.07389888771937173,-2.763089780836846
1784027968225004544,2.0844953060150146,-0.8220418095588684,0.052467625588178635,0.07767871767282486,0.06756939738988876,-0.39166465401649475,-0.9176236391067505,0.25248369574546814,-0.13073524832725525,-0.02625453472137451,0.19302319311447536,0.07324970476104509,-0.18926873683388123,-0.9599759358127272,0.40244008657208413,0.07350253873401194,-2.759742131221506
1784027968234924288,2.0944151878356934,-0.9132481813430786,0.21400485932826996,0.3087034225463867,0.06682410091161728,-0.38378003239631653,-0.9210034608840942,0.15058311820030212,-0.15407699346542358,0.011381328105926514,0.19420355013348353,0.072214276802046,-0.18515765823263344,-0.960617854239722,0.3938863362158634,0.07242883124405503,-2.7570970672876474
1784027968244845312,2.1043362617492676,-1.0349699258804321,0.0969083234667778,0.1582280844449997,0.06701061129570007,-0.3755430281162262,-0.9243792295455933,0.19547107815742493,-0.2912965714931488,-0.05373966693878174,0.19599330288563432,0.07171664118111122,-0.180740407923114,-0.9611328013814123,0.3849826232367141,0.07236596630162108,-2.753380963273179
1784027968254765568,2.1142563819885254,-1.1865861415863037,0.14183905720710754,0.39441078901290894,0.06617439538240433,-0.3651747703552246,-0.9285840392112732,0.16788017749786377,-0.2590470314025879,0.018748223781585693,0.19771635325036854,0.07044153200838196,-0.17534528843969124,-0.9618732859765056,0.37382054552227856,0.07114349181794487,-2.749593307463032
1784027968264685312,2.124176263809204,-1.2619327306747437,0.0672474056482315,0.32078346610069275,0.06482436507940292,-0.35423970222473145,-0.9329051375389099,0.22817489504814148,-0.25002357363700867,-0.1867542266845703,0.20009822717759077,0.06895135718873947,-0.16968539940233598,-0.9625035907524737,0.3621009225425195,0.06937503931964624,-2.7443493780676267
1784027968274607104,2.1340980529785156,-1.270203948020935,0.13362643122673035,0.35774868726730347,0.0622570775449276,-0.34304168820381165,-0.9372547268867493,0.1518847793340683,-0.18262359499931335,-0.13133347034454346,0.20251063845286724,0.06681163344518345,-0.16403910559515728,-0.9631287289086167,0.35015316623719567,0.06632749043278996,-2.7388406366198543
1784027968284527104,2.1440179347991943,-1.141416311264038,-0.0028633875772356987,0.3227281868457794,0.059590164572000504,-0.3323511779308319,-0.9412713050842285,0.1974899172782898,-0.08335927128791809,-0.14213323593139648,0.20474975920862945,0.06463584404046285,-0.15870268069235205,-0.9636977561706458,0.33879537177530966,0.0632237934415289,-2.7337105396568484
1784027968294448128,2.1539390087127686,-1.0394384860992432,-0.22363944351673126,0.3664972484111786,0.056080494076013565,-0.3223479092121124,-0.9449586272239685,0.21848616003990173,-0.05814525485038757,-0.1205626130104065,0.20671684436633758,0.06206274661920367,-0.15384701909156873,-0.9642341070083116,0.3282087556115585,0.05927750832910174,-2.7290358501772913
1784027968304368128,2.1638588905334473,-0.65507972240448,-0.23397961258888245,0.27575334906578064,0.05242814123630524,-0.3143526613712311,-0.9478574395179749,0.22798262536525726,0.001623779535293579,-0.15970176458358765,0.20843873721644535,0.05960201739516479,-0.15006293950033914,-0.9646149994658343,0.3197746717690732,0.05525595951128945,-2.724879896515443
1784027968314289152,2.1737799644470215,-0.6868269443511963,-0.26009511947631836,0.21819229423999786,0.04852483049035072,-0.308280348777771,-0.9500571489334106,0.14263728260993958,-0.024071335792541504,-0.21563804149627686,0.20961965740728922,0.057149423436395355,-0.14732743833933268,-0.9649291270177506,0.3133848174498653,0.05103135397720181,-2.7218273539307183
1784027968324209152,2.1837000846862793,-0.745821475982666,-0.3320935368537903,0.16561263799667358,0.04554213210940361,-0.30170488357543945,-0.9523130059242249,0.1348014771938324,-0.08791303634643555,-0.19046348333358765,0.2105361109472858,0.05505379593603778,-0.14426564534963565,-0.9653139067340092,0.30648036953559804,0.04778624541095558,-2.7194977471296675
1784027968334129152,2.193619966506958,-0.9120680093765259,-0.3517764210700989,0.1668800264596939,0.041648875921964645,-0.29391759634017944,-0.9549229145050049,0.19997404515743256,-0.16911032795906067,-0.16794079542160034,0.2113141671810011,0.05234695550934367,-0.14070652883737045,-0.9658197118233327,0.298322887336214,0.043587284897366636,-2.7173471975469257
1784027968344050176,2.2035410404205322,-0.9443783760070801,-0.2990557849407196,0.20570193231105804,0.037526197731494904,-0.2854701578617096,-0.9576526284217834,0.1228131651878357,-0.1436527669429779,-0.13977473974227905,0.21212668996537232,0.04945678084965212,-0.13684920075921,-0.9663481254719958,0.2894969492965378,0.039165567484279226,-2.7151296082596676
1784027968353970176,2.213460922241211,-0.9717476963996887,-0.3058079779148102,0.19833271205425262,0.03390568867325783,-0.27643200755119324,-0.9604352116584778,0.07594233751296997,-0.10406115651130676,-0.14544552564620972,0.2130897699607582,0.046768564296078084,-0.13264654708271587,-0.9668559809040395,0.2800794671216634,0.0352877670209388,-2.7127142877695927
1784027968363891200,2.223381996154785,-0.9056064486503601,-0.2849723696708679,0.22051380574703217,0.030602332204580307,-0.2673977315425873,-0.9631001949310303,0.0970984697341919,-0.13233676552772522,-0.09874367713928223,0.21412219047479825,0.044245293541941524,-0.1284222222918249,-0.9673167450547334,0.2706914066239012,0.03176412957850825,-2.7102302583883082
1784027968373810944,2.233301877975464,-0.9306020736694336,-0.27957388758659363,0.21004517376422882,0.027251718565821648,-0.25861117243766785,-0.9655970335006714,0.1673130989074707,-0.11934903264045715,-0.07406055927276611,0.21518602708496043,0.04172864224460167,-0.12433908216377593,-0.9677260085616248,0.2615841846815394,0.02821517239360381,-2.7076991249797278
1784027968383731968,2.243222951889038,-0.7465128898620605,-0.1824292242527008,0.22925882041454315,0.024411452934145927,-0.2507970333099365,-0.9677318334579468,0.20091509819030762,-0.08887887001037598,-0.06783640384674072,0.2163211682316202,0.03958038180496809,-0.12069576250325384,-0.9680243969627271,0.25350351620692363,0.025220083254722157,-2.705097810668451
1784027968393652224,2.253143072128296,-0.6488950252532959,-0.3102055788040161,0.2451895773410797,0.021272500976920128,-0.24434183537960052,-0.9694557785987854,0.21471993625164032,-0.04121112823486328,-0.09197604656219482,0.21743087977800749,0.0374336601487893,-0.11777444918912476,-0.9682209240972671,0.24684090082131327,0.021939204136783068,-2.7025090137710124
1784027968403571968,2.2630629539489746,-0.5283107161521912,-0.35090821981430054,0.30317968130111694,0.017469221726059914,-0.23920032382011414,-0.9708130955696106,0.29564112424850464,-0.035290032625198364,-0.1163603663444519,0.21861297711317187,0.035116382201137795,-0.11558675992694306,-0.9683052231915186,0.24154217926860833,0.017992481149404292,-2.699684457259916
1784027968413493248,2.272984027862549,-0.3519474267959595,-0.5045968294143677,0.29660752415657043,0.012375958263874054,-0.23488619923591614,-0.9719440937042236,0.28932082653045654,-0.05693814158439636,-0.14855456352233887,0.21992858155647346,0.03227364611285577,-0.1139577535533689,-0.968299210435298,0.2371014910041263,0.012732511379564477,-2.6964298226145287
1784027968423412992,2.2829039096832275,-0.3577062785625458,-0.5548891425132751,0.23351961374282837,0.007016020826995373,-0.2315002679824829,-0.9728095531463623,0.21635739505290985,-0.05452573299407959,-0.1819298267364502,0.22086605773407553,0.029361288203018882,-0.11284123447072869,-0.9683093223065248,0.2336195560126509,0.007211996810150469,-2.693923137713725
1784027968433334016,2.2928249835968018,-0.31757164001464844,-0.5933231115341187,0.3116847276687622,0.0007266995962709188,-0.228239968419075,-0.9736046195030212,0.17711448669433594,-0.04670815169811249,-0.17820507287979126,0.22203609470023614,0.02603415889876868,-0.11189237829147752,-0.9682470094772017,0.2302695502493068,0.0007464009811123474,-2.6908385818364917
1784027968443254016,2.3027448654174805,-0.443312406539917,-0.5870981812477112,0.2668173313140869,-0.005457164719700813,-0.22454482316970825,-0.9744485020637512,0.18699097633361816,-0.08343857526779175,-0.17386692762374878,0.22319168386529198,0.022706553454904747,-0.1107256665240494,-0.9681991447585114,0.22647590187345326,-0.005600201259958062,-2.687826561836766
1784027968453175040,2.3126659393310547,-0.4135015308856964,-0.6379355788230896,0.25606080889701843,-0.01178127434104681,-0.22019559144973755,-0.9753845930099487,0.15246731042861938,-0.10197848081588745,-0.18910515308380127,0.22417789634386515,0.019214586096328503,-0.1092634556418223,-0.9682131244030221,0.222014981998593,-0.012078006542553414,-2.6851896041971677
1784027968463095296,2.3225860595703125,-0.4426770508289337,-0.6136487126350403,0.25796040892601013,-0.018598884344100952,-0.2158697247505188,-0.9762450456619263,0.13238367438316345,-0.1472894549369812,-0.20037543773651123,0.22507830135110374,0.015473614875536954,-0.10787981316053406,-0.9682264104060553,0.2175824619142546,-0.019049147297834197,-2.6826963775524275
1784027968473015040,2.332505941390991,-0.6143398880958557,-0.6379021406173706,0.20826369524002075,-0.025302357971668243,-0.21081645786762238,-0.9771981239318848,0.14889855682849884,-0.17875567078590393,-0.20219939947128296,0.22586326424359013,0.011691131843557818,-0.10613315520897487,-0.9682896276086911,0.212410117008697,-0.02588697729615423,-2.680507943764683
1784027968482936064,2.3424270153045654,-0.7178013920783997,-0.5990569591522217,0.21894118189811707,-0.03197411820292473,-0.2042355239391327,-0.9783994555473328,0.15882042050361633,-0.1577182114124298,-0.14603596925735474,0.22657869592948104,0.007738902563666655,-0.10363579906143693,-0.9684326251942402,0.20568270148343937,-0.03266839660060557,-2.67856022244912
1784027968492856064,2.352346897125244,-0.8050643801689148,-0.6761714220046997,0.2610580027103424,-0.03873453289270401,-0.19670911133289337,-0.9796964526176453,0.2052079290151596,-0.20261339843273163,-0.13587361574172974,0.22740505459484314,0.0036446959382564876,-0.10069004036475651,-0.9685737851270678,0.19800031616874442,-0.03951669876894608,-2.6764537704732025
1784027968502777088,2.3622679710388184,-0.9145401120185852,-0.6783095598220825,0.23290503025054932,-0.04574307054281235,-0.18834783136844635,-0.9810365438461304,0.22379788756370544,-0.16564081609249115,-0.12995588779449463,0.22831126735743185,-0.000661107263837734,-0.09737196375479834,-0.968706473370964,0.18947959219135205,-0.04659353909705178,-2.6742390298440024
1784027968512697344,2.372188091278076,-0.913587749004364,-0.7599927186965942,0.24105723202228546,-0.05333787947893143,-0.1793297678232193,-0.9823420643806458,0.17585068941116333,-0.1416235864162445,-0.12062424421310425,0.22907221156544008,-0.005346032991541016,-0.0938104266709605,-0.9688636781114303,0.18030513970266704,-0.05424338217990696,-2.6723471798716454
1784027968522617088,2.382107973098755,-0.7838779091835022,-0.699713945388794,0.25744765996932983,-0.06076964735984802,-0.1708335131406784,-0.9834241271018982,0.16263732314109802,-0.1337929517030716,-0.1577349305152893,0.22991019014955047,-0.009884949369330145,-0.09049992914063026,-0.9689445046136754,0.17167555961706948,-0.06171546313674405,-2.670339263715527
1784027968532538112,2.392029047012329,-0.7354208827018738,-0.7410294413566589,0.24190813302993774,-0.06809811294078827,-0.16344815492630005,-0.984198808670044,0.14108091592788696,-0.09654633700847626,-0.19074314832687378,0.23087263746354691,-0.014235271905699435,-0.08773790192292895,-0.9689154770567634,0.16418480445615505,-0.06908131639050154,-2.6680715756358144
1784027968542458112,2.401948928833008,-0.6186138987541199,-0.7556814551353455,0.23203712701797485,-0.07593125104904175,-0.15666130185127258,-0.9847292304039001,0.16733139753341675,-0.09100408852100372,-0.17039155960083008,0.23159163454982098,-0.01878688619948225,-0.08533716404060289,-0.9688807338083903,0.15730929617304976,-0.07695647942073926,-2.6662687921390167
1784027968552379136,2.411870002746582,-0.6712754964828491,-0.7195742726325989,0.3109425902366638,-0.08339104056358337,-0.1503528207540512,-0.9851090908050537,0.19664177298545837,-0.1486889123916626,-0.175642192363739,0.23260187651552547,-0.023077631630603168,-0.08314364511742703,-0.9687368161945326,0.15092513919363368,-0.08445023913350407,-2.663908960111141
1784027968562299136,2.4217898845672607,-0.6821057200431824,-0.8755975961685181,0.2228933423757553,-0.09169712662696838,-0.14341707527637482,-0.9854050874710083,0.16030064225196838,-0.15939359366893768,-0.1331862211227417,0.2333873520389547,-0.027877599897542037,-0.08074836086825767,-0.9686242390010688,0.14391333254962183,-0.09278805372891022,-2.6620187177582904
1784027968572220160,2.431710958480835,-0.616603672504425,-0.7377231121063232,0.22828809916973114,-0.10009591281414032,-0.13677038252353668,-0.9855327010154724,0.15908639132976532,-0.17585168778896332,-0.1561909317970276,0.234117129724552,-0.032696870468601466,-0.07851479520847039,-0.9684810063263004,0.13720041828145066,-0.10121820343077946,-2.660259849752303
1784027968582140160,2.4416310787200928,-0.574674665927887,-0.7517337799072266,0.26215535402297974,-0.1076805591583252,-0.13067738711833954,-0.98555988073349,0.1263725757598877,-0.13340646028518677,-0.17874670028686523,0.23490352354180136,-0.03705264608110502,-0.0764666602284811,-0.9682976775473575,0.13105219262165077,-0.10882659362303948,-2.6584513438304542
1784027968592060160,2.4515509605407715,-0.5621162056922913,-0.7284031510353088,0.21504457294940948,-0.11520275473594666,-0.1250387281179428,-0.9854408502578735,0.14321789145469666,-0.1387399584054947,-0.15457379817962646,0.2356393989184191,-0.04133206138898031,-0.07464075842795388,-0.9680880196677512,0.12536686120849147,-0.11637654602660091,-2.6567520947512957
1784027968601981184,2.4614720344543457,-0.4140949845314026,-0.7871232032775879,0.19700580835342407,-0.12312851846218109,-0.12007728219032288,-0.9850993752479553,0.13611376285552979,-0.14193138480186462,-0.0961841344833374,0.23626097243436414,-0.045740862360464464,-0.07319888577072961,-0.967848365974458,0.1203677280054412,-0.12434609240906015,-2.6552363125734098
1784027968611900928,2.4713919162750244,-0.3960888385772705,-0.8033769726753235,0.15004602074623108,-0.13115881383419037,-0.11614803969860077,-0.9845339059829712,0.11892126500606537,-0.12861819565296173,-0.05613076686859131,0.23682590704237638,-0.050086168962488756,-0.07228018736394909,-0.9675641974259771,0.11641078295110187,-0.13243938193397994,-2.6537727608342054
1784027968621822208,2.4813129901885986,-0.26861855387687683,-0.7673195004463196,0.15780378878116608,-0.13908101618289948,-0.1127503290772438,-0.9838413596153259,0.14350606501102448,-0.09718009829521179,-0.0038905739784240723,0.23719341772607772,-0.054333353769225365,-0.07160448562180807,-0.9672952370269818,0.11299059741114384,-0.14043472802492266,-2.6527008139299415
1784027968631741952,2.4912328720092773,-0.2494741678237915,-0.6935939192771912,0.14793837070465088,-0.14626796543598175,-0.10988063365221024,-0.9831235408782959,0.12095364928245544,-0.09435825049877167,0.045242130756378174,0.23761635086741623,-0.05815701049274013,-0.07110543571637921,-0.967005853810026,0.11010295391781479,-0.14769543067374974,-2.651538889996836
1784027968641662976,2.5011539459228516,-0.3553389310836792,-0.5939627885818481,0.11858081072568893,-0.15265940129756927,-0.10686784237623215,-0.9824838042259216,0.12171457707881927,-0.10092634707689285,0.12162870168685913,0.23789576485844538,-0.06162137606436628,-0.07043377964129338,-0.966771708313872,0.10707231297872433,-0.1541484292780066,-2.6507586619709134
1784027968651583232,2.5110740661621094,-0.4987136721611023,-0.49290305376052856,0.11296846717596054,-0.1579548716545105,-0.10257702320814133,-0.9821039438247681,0.1544301062822342,-0.14646166563034058,0.23506420850753784,0.2380822571917939,-0.06470991232109999,-0.06899740777233425,-0.9666275006633038,0.10275776346931421,-0.15946751383469,-2.650384455676085
1784027968661502976,2.520993947982788,-0.632877767086029,-0.3448205292224884,0.007366706617176533,-0.16201137006282806,-0.09716638177633286,-0.9819933772087097,0.19384120404720306,-0.15756383538246155,0.3231951594352722,0.23806003080071594,-0.06734102917905384,-0.0668467843321713,-0.9666044625283664,0.09731993465762884,-0.16350923544063292,-2.6506542992232225
1784027968671424256,2.5309150218963623,-0.8036993145942688,-0.10086486488580704,0.16264790296554565,-0.16446368396282196,-0.08996108919382095,-0.982272207736969,0.18359820544719696,-0.14233872294425964,0.391848623752594,0.23811659627224116,-0.06939494650411002,-0.06362575214222237,-0.9666625671083239,0.09008287540954185,-0.16589312325041597,-2.651057907082117
1784027968681344000,2.540834903717041,-0.9432892203330994,0.20333871245384216,0.18391281366348267,-0.16403868794441223,-0.08121753484010696,-0.9831047654151917,0.08217529952526093,-0.13847850263118744,0.4335290193557739,0.23860549802678135,-0.07019632413326816,-0.05933029219844056,-0.9667573560288867,0.08130709020413536,-0.16533463098615778,-2.650903809706634
1784027968691265024,2.5507559776306152,-0.927765429019928,0.4825461208820343,0.11397367715835571,-0.16084186732769012,-0.07169472426176071,-0.9843727946281433,0.0020283907651901245,-0.07308066636323929,0.4698006510734558,0.23909036256336974,-0.06973841577324612,-0.05431543118103207,-0.9669654203896197,0.07175628383988031,-0.16196402810952681,-2.650973009978612
1784027968701185024,2.560675859451294,-0.7591930627822876,0.6530495285987854,0.17116352915763855,-0.15527579188346863,-0.0632375106215477,-0.9858450293540955,-0.03558114171028137,-0.007746368646621704,0.46362823247909546,0.23965763071297264,-0.06799537307052932,-0.04953896734397852,-0.967205597603176,0.06327973666136029,-0.15622186561041276,-2.650855056366912
1784027968711106048,2.570596933364868,-0.42597702145576477,0.6446773409843445,0.08875653147697449,-0.14876997470855713,-0.05718329921364784,-0.9872170686721802,0.04371322691440582,0.10227302461862564,0.5122110247612,0.24017389171022213,-0.06551419608928871,-0.0458186623512016,-0.9674321753797358,0.05721450768075871,-0.1495708698537904,-2.6506255737240654
1784027968721026304,2.580517053604126,0.07755536586046219,0.8609744906425476,0.027800774201750755,-0.1413455307483673,-0.05549149215221405,-0.988403856754303,0.1286197006702423,0.13692764937877655,0.508698046207428,0.24061049897550546,-0.06206908052187268,-0.04410797870465038,-0.9676303456230608,0.055520011234443514,-0.1420408088166713,-2.6502086606265034
1784027968730946048,2.5904369354248047,0.3304150402545929,0.8508704900741577,0.12691910564899445,-0.13305985927581787,-0.05757419019937515,-0.9894343018531799,0.16734637320041656,0.19887058436870575,0.5367823839187622,0.24118575628794478,-0.057746593321239374,-0.04413805527005705,-0.9677533654341968,0.05760604673806015,-0.13367872720104546,-2.6492422634043766
1784027968740867072,2.600358009338379,0.5757752656936646,1.0461184978485107,0.21476587653160095,-0.12389334291219711,-0.061785776168107986,-0.9903700947761536,0.2221904695034027,0.266390860080719,0.6292861104011536,0.242318727667061,-0.05271443220171142,-0.045123524494117745,-0.9677121181440276,0.061825153349213194,-0.12445150503395803,-2.6470221431889573
1784027968750787072,2.6102778911590576,0.7864241600036621,1.3546921014785767,0.39610743522644043,-0.1123470664024353,-0.06864102929830551,-0.9912953972816467,0.1307796835899353,0.09860929101705551,0.7120595574378967,0.24425943253836918,-0.04616363709174448,-0.04712987733793369,-0.9674631459892591,0.06869504721587652,-0.11285206215376999,-2.643098956867877
1784027968760708096,2.620198965072632,0.5188414454460144,1.524876594543457,0.3369527757167816,-0.09777840971946716,-0.07578578591346741,-0.9923184514045715,0.09228524565696716,-0.12265477329492569,0.775323212146759,0.24649886296153742,-0.03808939593990074,-0.04888736707058038,-0.9671595666492512,0.07585851781679152,-0.09821825743803324,-2.638750870499838
1784027968770628096,2.6301190853118896,0.20088635385036469,1.6670345067977905,0.2903122901916504,-0.08206561207771301,-0.07906612753868103,-0.993485689163208,0.10910418629646301,-0.20752444863319397,0.7068188190460205,0.2485030191196662,-0.02995006997552175,-0.048581439491853985,-0.9669484001683526,0.07914873706000561,-0.08241660756636907,-2.635220915742357
1784027968780548096,2.6400389671325684,-0.08486630767583847,1.665975570678711,0.1641106754541397,-0.06593544781208038,-0.07968515157699585,-0.9946370124816895,0.10344155132770538,-0.20296865701675415,0.565483570098877,0.2500379563092949,-0.021971615822665158,-0.046890722140583554,-0.9668503736945697,0.07976972026008483,-0.06619411815260705,-2.6328174237960407
1784027968790469120,2.6499600410461426,-0.3698703348636627,1.8516958951950073,0.07331739366054535,-0.04852813854813576,-0.0774533674120903,-0.9958142638206482,0.06519073247909546,-0.1203310638666153,0.4853772521018982,0.2508890611793687,-0.013774486039502525,-0.043625043237770895,-0.9669342823539309,0.07753101457550265,-0.048693597082378075,-2.631963317031294
1784027968800389120,2.6598799228668213,-0.44981589913368225,1.7043886184692383,0.047213152050971985,-0.030842864885926247,-0.07331743836402893,-0.9968315958976746,0.1027422845363617,-0.05667218565940857,0.42612242698669434,0.251595976545446,-0.005698577033825403,-0.03939185011564364,-0.9670136497373688,0.07338328045015435,-0.030931030194193125,-2.631387064852193
1784027968810310144,2.6698009967803955,-0.27321743965148926,1.6317039728164673,0.014883978292346,-0.014424540102481842,-0.06964197009801865,-0.9974677562713623,0.16106149554252625,0.041550539433956146,0.3354346752166748,0.2520345879452486,0.0018036508390246574,-0.03553685092313732,-0.9670638385037429,0.0696983889098967,-0.014460151366620278,-2.6311941801259504
1784027968820229888,2.679720878601074,0.10235685110092163,1.6455003023147583,0.04015131667256355,0.0017943987622857094,-0.06869680434465408,-0.9976359605789185,0.11948245763778687,0.162584125995636,0.28468430042266846,0.2524765825004163,0.009551040968368762,-0.03302714610362244,-0.9669920133728962,0.06875094935307405,0.0017986488395729276,-2.630867986455078
1784027968830151168,2.6896419525146484,0.4606742262840271,1.6468935012817383,0.03215011581778526,0.018146274611353874,-0.07161850482225418,-0.9972670078277588,0.04171395301818848,0.21640916168689728,0.25289756059646606,0.25284356504975336,0.017850445490694426,-0.032370558759584576,-0.9668007714631512,0.07167986905154398,0.018193995550665545,-2.630651214253613
1784027968840071168,2.6995620727539062,0.7666857242584229,1.5894960165023804,-0.06772874295711517,0.03407943248748779,-0.07772060483694077,-0.996392548084259,0.05658828839659691,0.20119473338127136,0.24318820238113403,0.2529771854337295,0.026347856270119173,-0.03330944470522048,-0.9665396075893058,0.07779906685822058,0.03418949154969346,-2.63093849987577
1784027968849991168,2.709481954574585,1.077185869216919,1.6266926527023315,-0.09032566100358963,0.05013083294034004,-0.0868440642952919,-0.994959831237793,0.06220437213778496,0.1307435929775238,0.23574352264404297,0.25270942047681744,0.03528125074429779,-0.03571179049296463,-0.9662390692093935,0.0869535968339209,0.050342212024980085,-2.63216469220818
1784027968859912192,2.719403028488159,1.283374547958374,1.6242536306381226,-0.21179109811782837,0.06621056795120239,-0.09846604615449905,-0.9929353594779968,0.08848303556442261,0.09845077991485596,0.19906634092330933,0.2521411792835261,0.044546214740752835,-0.03934415545623513,-0.96586356204068,0.0986258546800289,0.06658308147300808,-2.6341724166909204
1784027968869831936,2.729322910308838,1.381172776222229,1.582015872001648,-0.15470677614212036,0.08249126374721527,-0.11149878799915314,-0.9903349280357361,0.12838520109653473,0.11316199600696564,0.21813338994979858,0.2511874746116193,0.05408505511583747,-0.043673301451346715,-0.9654389478726455,0.11173111643435465,0.08310448589206723,-2.637170393507002
1784027968879753216,2.739243984222412,1.3631013631820679,1.5612503290176392,-0.15887612104415894,0.09801461547613144,-0.12489768862724304,-0.9873164296150208,0.22859975695610046,0.04027244448661804,0.23049575090408325,0.25045214087056145,0.0633266565507886,-0.048285883558943934,-0.9648482046481064,0.12522471258481369,0.09894955441877124,-2.639858236733408
1784027968889672960,2.749163866043091,1.1987965106964111,1.462931752204895,-0.2592051327228546,0.11336114257574081,-0.1373327523469925,-0.9840167760848999,0.2237207591533661,-0.09165589511394501,0.2424243688583374,0.24933355277402058,0.07235516112073324,-0.05250099801741264,-0.9642827180627915,0.1377681434791646,0.1146968312257296,-2.6434603283320857
1784027968899593984,2.759084939956665,0.9229562282562256,1.2607269287109375,-0.08323956280946732,0.12669901549816132,-0.14756657183170319,-0.9809033870697021,0.23270650207996368,-0.12051509320735931,0.18448615074157715,0.24846242580374747,0.08014758448840935,-0.055898736065450885,-0.9637002108222499,0.14810745680248177,0.12845442566037799,-2.646483217714982
1784027968909514240,2.769005060195923,0.6349241733551025,1.112918496131897,-0.12272971123456955,0.13856124877929688,-0.15493766963481903,-0.9781590104103088,0.22229383885860443,-0.11254888772964478,0.03650867938995361,0.2479327217276373,0.0868817190522224,-0.05806934705439598,-0.9631245273943226,0.15556435813534247,0.14071888560567683,-2.648668257494322
1784027968919433984,2.7789249420166016,0.34410083293914795,1.0544835329055786,-0.09724006056785583,0.14909742772579193,-0.1596597582101822,-0.9758477210998535,0.12694932520389557,-0.1250997632741928,-0.12896490097045898,0.24762914084351317,0.09264781566389377,-0.05909768470428403,-0.9626025338228885,0.16034598212628476,0.15161508525787193,-2.650217198931925
1784027968929355264,2.788846015930176,0.07511064410209656,1.049373745918274,-0.11888384073972702,0.15978290140628815,-0.16120357811450958,-0.9739008545875549,-0.02703145146369934,-0.08716374635696411,-0.20403188467025757,0.24721960308353294,0.09807794762618742,-0.05856877585803064,-0.9622020345256939,0.1619100548905147,0.16261612596972327,-2.651832353250971
1784027968939275008,2.7987658977508545,-0.14353899657726288,0.8638662695884705,-0.11308207362890244,0.1693498194217682,-0.16098104417324066,-0.9723197817802429,-0.08904281258583069,-0.07130350172519684,-0.3244636654853821,0.24710904764899946,0.10275404902588217,-0.057286272245418705,-0.9618196699633487,0.16168457413895423,0.17244109809781707,-2.6526395524501045
1784027968949196032,2.8086869716644287,-0.17000043392181396,0.5676262974739075,-0.21663004159927368,0.17646518349647522,-0.15895050764083862,-0.971388041973114,-0.07490268349647522,0.023467719554901123,-0.3533799648284912,0.24659545497605123,0.10596830628627846,-0.05546784855139879,-0.9617093628181145,0.15962755122264916,0.1797031946530418,-2.653992780632808
1784027968959116288,2.8186070919036865,-0.027891036123037338,0.387037992477417,-0.2030242532491684,0.1816539168357849,-0.15762493014335632,-0.9706473350524902,-0.06020919978618622,0.10362407565116882,-0.44156885147094727,0.24568023330089564,0.10830509054905205,-0.05428020726097437,-0.9617510090900531,0.15828505031227083,0.18500709193877307,-2.6561022555217204
1784027968969036032,2.8285269737243652,0.3713298738002777,0.2562243342399597,-0.2279791384935379,0.18503928184509277,-0.1587909311056137,-0.9698174595832825,-0.09542441368103027,0.1945422738790512,-0.42515629529953003,0.24470415642692997,0.11007346222771107,-0.05454449411245085,-0.9617841202501001,0.15946591841790514,0.1885320843965396,-2.658418956218058
1784027968978957056,2.8384480476379395,0.5925422310829163,0.10377928614616394,-0.004707766231149435,0.1866791993379593,-0.1634543091058731,-0.9687278270721436,-0.1763489991426468,0.2601034641265869,-0.48052144050598145,0.2440195475602117,0.11144796745641825,-0.05670489668213163,-0.961674826097786,0.16419104421846148,0.19037190591826872,-2.660304472827486
1784027968988877056,2.848367929458618,0.6885095238685608,-0.004681946709752083,-0.17132070660591125,0.187242791056633,-0.16947121918201447,-0.9675844311714172,-0.238115593791008,0.20902200043201447,-0.43437784910202026,0.2432593890542826,0.11245898287151616,-0.059672101376649106,-0.9615700907158177,0.17029310620055263,0.19115296417059752,-2.6623920881732084
1784027968998798080,2.8582890033721924,0.6480708718299866,-0.24221104383468628,-0.18806500732898712,0.18672290444374084,-0.1754973828792572,-0.9666101932525635,-0.18553271889686584,0.0937255322933197,-0.4368627071380615,0.24189471260920842,0.11289275488246439,-0.06285013981964827,-0.9616610673255629,0.176410972691936,0.19082251660475086,-2.6656668733882
1784027969008718080,2.868208885192871,0.5191413760185242,-0.3151978850364685,-0.22887022793293,0.1842087060213089,-0.1807813048362732,-0.9661186337471008,-0.0210006982088089,0.011637628078460693,-0.4205237627029419,0.2406234792354384,0.1122423519642281,-0.06589630578123035,-0.9618521707391858,0.181780782246268,0.18840738176504415,-2.6685436156204063
1784027969018639104,2.8781299591064453,0.3592394292354584,-0.3492392301559448,-0.15599265694618225,0.18142415583133698,-0.18454235792160034,-0.9659344553947449,0.004855126142501831,-0.009137436747550964,-0.36898064613342285,0.2392765339494322,0.11125098053520985,-0.06823477208642043,-0.9621403586958306,0.18560619855000313,0.18565940900380698,-2.6714271660715085
1784027969028559104,2.888050079345703,0.21639813482761383,-0.3891996741294861,-0.057763293385505676,0.1780110001564026,-0.1869390308856964,-0.9661086201667786,0.031125962734222412,-0.04647466540336609,-0.30964821577072144,0.2382963524403147,0.10979545591875245,-0.06993312887210185,-0.962428810478928,0.1880453179841983,0.18221198018763057,-2.6733875310057322
1784027969038479104,2.897969961166382,0.04132658615708351,-0.34635210037231445,-0.265230268239975,0.17496776580810547,-0.1877925544977188,-0.9664989709854126,-0.021601691842079163,-0.09945414960384369,-0.3186115026473999,0.237300620712445,0.10832352456841592,-0.07082751312683062,-0.9627760896900627,0.18891422834254495,0.17909290596628247,-2.6752874895099703
1784027969048400128,2.907891035079956,-0.12914635241031647,-0.3812967538833618,-0.14760324358940125,0.17178837954998016,-0.1870691031217575,-0.9672093391418457,0.046229198575019836,-0.1863439828157425,-0.2660365104675293,0.23619949245802335,0.10657612764937666,-0.07097082634113624,-0.9632312895979168,0.18817771996083327,0.17577931269552974,-2.677281377612107
1784027969058320128,2.9178109169006348,-0.3761597275733948,-0.44343215227127075,-0.13990463316440582,0.167975515127182,-0.18473583459854126,-0.9683268666267395,0.2040795385837555,-0.27356189489364624,-0.2668415904045105,0.23546287128987453,0.10434074879120377,-0.07035326022721546,-0.9637015544094945,0.18580306627676638,0.17176060828619863,-2.678361166987973
1784027969068241152,2.927731990814209,-0.5419180989265442,-0.48744913935661316,-0.1288173645734787,0.16452425718307495,-0.17998109757900238,-0.9698137044906616,0.24882107973098755,-0.23731625080108643,-0.20294630527496338,0.2346160530514391,0.1019772211252246,-0.06851134552553717,-0.964293690011074,0.18096724010875628,0.16804532511322579,-2.679542922407495
1784027969078160896,2.9376518726348877,-0.3894924521446228,-0.5681321024894714,-0.04421120136976242,0.1601913869380951,-0.17584235966205597,-0.9712971448898315,0.44318687915802,-0.21902456879615784,-0.2543039917945862,0.23438438998701422,0.09930357465035618,-0.06700908534178371,-0.9647344070684439,0.1767613919060509,0.16345380443900812,-2.6794394746124173
1784027969088082176,2.947572946548462,-0.3233448565006256,-0.5927261710166931,0.0823451429605484,0.15482351183891296,-0.1724083423614502,-0.9727821350097656,0.47046640515327454,-0.2056128978729248,-0.24546432495117188,0.2343084129823143,0.09622082361881514,-0.06595828479069175,-0.9651376539418731,0.1732741059333642,0.15783162704516285,-2.6790006364964283
1784027969098002176,2.9574930667877197,-0.17860683798789978,-0.8090628385543823,0.2147483229637146,0.14792007207870483,-0.17061638832092285,-0.9741712808609009,0.5517259240150452,-0.17174504697322845,-0.24737101793289185,0.23502739263593855,0.09264145868577713,-0.06581728507816945,-0.9653226430870275,0.17145519976858414,0.15069087448000495,-2.6769197883815337
1784027969107922176,2.9674129486083984,0.05189880356192589,-0.9342764019966125,0.1358063668012619,0.1393909454345703,-0.17008168995380402,-0.9755216240882874,0.5311412811279297,-0.08658640086650848,-0.18756431341171265,0.23545550678377208,0.0884010070039502,-0.06651664188396827,-0.9655680033001623,0.17091256634897048,0.141927915805103,-2.675403595783923
1784027969117843200,2.9773340225219727,-0.016587581485509872,-0.8433957695960999,0.1904550939798355,0.13076072931289673,-0.1710931360721588,-0.9765391945838928,0.43421119451522827,-0.1676519811153412,-0.19716686010360718,0.23598838289139012,0.08431494029914749,-0.06798086453632204,-0.9657014308660569,0.1719390511995634,0.13311040365425839,-2.673735713202909
1784027969127762944,2.9872539043426514,-0.21095067262649536,-0.8704313635826111,0.21884626150131226,0.12240713834762573,-0.17021538317203522,-0.9777746200561523,0.24256783723831177,-0.2071649730205536,-0.13524717092514038,0.2366991448894335,0.08014887380533302,-0.06847513206018163,-0.9658472969098112,0.1710482368484077,0.12454159388946459,-2.671619244427772
1784027969137684224,2.9971749782562256,-0.6053675413131714,-0.9153671860694885,0.252008318901062,0.1133740097284317,-0.16681210696697235,-0.9794488549232483,0.1572558730840683,-0.26081544160842896,-0.1771673560142517,0.23775899104233383,0.0753657633426263,-0.06779068263115656,-0.9660201899056242,0.1675955894701788,0.11524000035502699,-2.66863153540741
1784027969147603968,3.0070948600769043,-0.8683509826660156,-0.9383127093315125,0.2690509259700775,0.10414499789476395,-0.1596401184797287,-0.9816663861274719,0.14690786600112915,-0.2530795931816101,-0.11833971738815308,0.2390579953179346,0.07003993927284129,-0.06527804887645926,-0.9662735002633951,0.1603260792856944,0.10569465979162913,-2.665027536101151
1784027969157524992,3.0170159339904785,-1.0096166133880615,-0.9293257594108582,0.22875741124153137,0.0947832390666008,-0.15073944628238678,-0.9840191602706909,0.1542859673500061,-0.18965362012386322,-0.17751038074493408,0.24021201736668465,0.06442806559999463,-0.06196314057146636,-0.9665960020138946,0.15131621615882318,0.0960263047077667,-2.661719343435619
1784027969167445248,3.0269360542297363,-0.9169888496398926,-0.8180245757102966,0.34202778339385986,0.08566313236951828,-0.14155234396457672,-0.9862173795700073,0.16513031721115112,-0.12272986769676208,-0.1777535080909729,0.24157320899333234,0.05891426459378338,-0.058484266438525466,-0.9668252366687565,0.14202937487950867,0.08664283076028857,-2.6580615695136354
1784027969177364992,3.036855936050415,-0.8747131824493408,-0.8214511871337891,0.3347685933113098,0.07727087289094925,-0.13310788571834564,-0.9880847930908203,0.16395531594753265,-0.09820009768009186,-0.1982707977294922,0.2432147022233165,0.05386427548476322,-0.05528343459826758,-0.9668965426897324,0.13350411950941324,0.07804384086468222,-2.6539544945671283
1784027969187286016,3.0467770099639893,-0.9061760306358337,-0.751369297504425,0.310880571603775,0.068853959441185,-0.12465129792690277,-0.9898086786270142,0.20845927298069,-0.11347736418247223,-0.14971768856048584,0.24473762452723374,0.04879150125786234,-0.052106225707234485,-0.9669580382380725,0.12497638218514003,0.06945101971179585,-2.650150520587367
1784027969197206016,3.056696891784668,-0.9827852249145508,-0.7230061888694763,0.26472991704940796,0.06147930398583412,-0.11569385975599289,-0.9913804531097412,0.19236591458320618,-0.1576825976371765,-0.145307719707489,0.24612845516016793,0.04415365981702814,-0.048582112137809656,-0.9670114043367534,0.11595351924283452,0.06193452221976027,-2.646722984723668
1784027969207127040,3.066617965698242,-1.0817312002182007,-0.6930456161499023,0.30518466234207153,0.05427062138915062,-0.10572312772274017,-0.992913544178009,0.19775879383087158,-0.16666151583194733,-0.16364163160324097,0.24756152028853234,0.0394673150810731,-0.04455957569085266,-0.9670418689240172,0.10592107628414656,0.05460361778009567,-2.6432547940503826
1784027969217047296,3.0765380859375,-0.9935473203659058,-0.793565034866333,0.276229590177536,0.04693607613444328,-0.09547404199838638,-0.9943247437477112,0.2527922987937927,-0.1615297496318817,-0.19128310680389404,0.2490367427384361,0.03468093444361095,-0.0404333653530596,-0.9670278969200109,0.0956196822549941,0.04716895584649953,-2.6397475184304398
1784027969226967040,3.0864579677581787,-0.7662712931632996,-0.9376375079154968,0.23370157182216644,0.03800439462065697,-0.08690943568944931,-0.9954910278320312,0.27838659286499023,-0.08737644553184509,-0.24974817037582397,0.25020143574821646,0.029314194016163277,-0.037351797842294004,-0.967028830439753,0.08701921930384879,0.03815800040929451,-2.63689392151859
1784027969236888064,3.096379041671753,-0.5358893275260925,-0.9223272800445557,0.24779535830020905,0.028703108429908752,-0.08052659779787064,-0.9963390827178955,0.18539296090602875,-0.009469740092754364,-0.239485502243042,0.25129755735922205,0.0240395077990548,-0.03539142840244611,-0.966963809966213,0.08061388458695622,0.028800608688241598,-2.634237065703901
1784027969246808064,3.1062989234924316,-0.46083933115005493,-0.9562175869941711,0.265829473733902,0.01943015679717064,-0.07576504349708557,-0.9969363808631897,0.09736061096191406,-0.0035348832607269287,-0.2025265097618103,0.25239156997683804,0.018983171039046384,-0.034226510485872975,-0.9668332729654916,0.07583771708562292,0.0194873998632791,-2.6316297742472967
1784027969256729088,3.116219997406006,-0.4275255799293518,-0.9999871850013733,0.29140180349349976,0.009368228726089,-0.07142947614192963,-0.9974016547203064,0.13681097328662872,-0.024929776787757874,-0.1627393364906311,0.2536275179995758,0.013603720217603263,-0.03337828686267255,-0.9666301657123507,0.0714903542782748,0.009392357635468807,-2.628730396960318
1784027969266649088,3.1261398792266846,-0.5669588446617126,-0.9563630223274231,0.2319619357585907,-0.0005215355777181685,-0.06681063026189804,-0.9977655410766602,0.12980926036834717,-0.03548429161310196,-0.13040828704833984,0.25471147173142883,0.008265935254650284,-0.0323868119502882,-0.9664393068336065,0.0668604366871762,-0.0005227035113444225,-2.626182073413285
1784027969276569088,3.1360599994659424,-0.7115525007247925,-0.925835907459259,0.30681365728378296,-0.010012202896177769,-0.060444872826337814,-0.9981213212013245,0.1527581810951233,-0.08082099258899689,-0.09486573934555054,0.2559112745610968,0.00290001994970944,-0.03051112968937682,-0.9662142785473964,0.06048174129558175,-0.010030711491852473,-2.623459835182152
1784027969286489088,3.145979881286621,-0.8163191080093384,-0.8523151278495789,0.2397049367427826,-0.018804488703608513,-0.052884574979543686,-0.9984235763549805,0.16617387533187866,-0.10133600234985352,-0.10608386993408203,0.25710162358864563,-0.0022857935901457824,-0.027982016123629185,-0.9659764467363501,0.05290925667623557,-0.018831953456658976,-2.6208408609883675
1784027969296409088,3.155900001525879,-0.8534814715385437,-0.830871045589447,0.28503042459487915,-0.02718488685786724,-0.04442162811756134,-0.9986429214477539,0.1796812266111374,-0.09794287383556366,-0.1319723129272461,0.25817943153932554,-0.0073974886075713715,-0.024976234958963783,-0.9657457424875213,0.04443624872202242,-0.02721510742091225,-2.618531877223391
1784027969306329856,3.165820837020874,-0.8068183660507202,-0.8800644278526306,0.264717161655426,-0.03568008542060852,-0.03610377386212349,-0.9987108707427979,0.20822647213935852,-0.08013767749071121,-0.16818970441818237,0.25939730254747745,-0.012548913425075884,-0.022069841426352592,-0.9654370091253155,0.03611162285671019,-0.0357109522067135,-2.6159784359868916
1784027969316250112,3.175740957260132,-0.786932647228241,-0.7858908772468567,0.22577744722366333,-0.04395271837711334,-0.028096530586481094,-0.9986384510993958,0.18425728380680084,-0.0768686830997467,-0.17270249128341675,0.2604345569280502,-0.017563541476654173,-0.019295064552809757,-0.9651389381949242,0.028100227895488942,-0.04398425818716715,-2.613846351688249
1784027969326171136,3.185662031173706,-0.8608654737472534,-0.7815531492233276,0.2423904985189438,-0.05162792652845383,-0.019851630553603172,-0.9984690546989441,0.17992383241653442,-0.10200505703687668,-0.20227551460266113,0.261447919152092,-0.022327860754432483,-0.01633814690492947,-0.96482102940182,0.019852934074137955,-0.051661080531256474,-2.6118283357825915
1784027969336091136,3.1955819129943848,-0.7687833905220032,-0.8547102212905884,0.1906457543373108,-0.059722840785980225,-0.01163337379693985,-0.998147189617157,0.15142816305160522,-0.09772636741399765,-0.21057778596878052,0.2623113922968964,-0.02730094135179806,-0.01345566802153284,-0.9645032141350993,0.011633636653394647,-0.05976245084639135,-2.610159620039229
1784027969346012160,3.205502986907959,-0.6078104972839355,-0.9282723665237427,0.11846955865621567,-0.06852687150239944,-0.004753495566546917,-0.997637927532196,0.11337246000766754,-0.06278190016746521,-0.25855714082717896,0.26288033333454786,-0.0324508880692962,-0.011312243430455818,-0.9642161764869308,0.004753513572315406,-0.06858139772317193,-2.6090948031984498
1784027969355931904,3.2154228687286377,-0.4687178432941437,-0.9583743214607239,0.09247084707021713,-0.07777534425258636,0.0007029190892353654,-0.9969706535339355,0.09497199952602386,-0.014283239841461182,-0.24634599685668945,0.2632135407380594,-0.03763537524215368,-0.009911985731960084,-0.9639522385977308,-0.0007029191363269967,-0.07785399021269625,-2.60850286636116
1784027969365852160,3.2253429889678955,-0.3691614270210266,-1.0340830087661743,0.07164040207862854,-0.087466761469841,0.004830531310290098,-0.9961557388305664,0.123874232172966,-0.011529138311743736,-0.2239828109741211,0.2634807677216003,-0.042863219972022804,-0.00921310031361201,-0.9636678338075084,-0.004830550152917818,-0.08757969877173272,-2.6080210988507053
1784027969375772928,3.2352638244628906,-0.1528368890285492,-1.0576585531234741,0.04850415512919426,-0.09769398719072342,0.0074806809425354,-0.9951884150505066,0.14127308130264282,0.0097159743309021,-0.1835988163948059,0.2636706439687966,-0.048159559992719314,-0.009298575202273774,-0.9633649898049547,-0.007480750555492715,-0.0978528090691079,-2.6076491401497655
1784027969385693184,3.2451839447021484,-0.07424940913915634,-1.0257525444030762,0.0662943422794342,-0.10795722901821136,0.008549816906452179,-0.9941187500953674,0.12803781032562256,-0.0030413977801799774,-0.1544712781906128,0.2638291457544277,-0.05326825930458141,-0.01015406448223604,-0.9630439902553771,-0.008549921311545744,-0.10817200959564448,-2.607269806374723
1784027969395614208,3.2551050186157227,0.0039017146918922663,-1.0820168256759644,0.042217034846544266,-0.11850368231534958,0.008768990635871887,-0.9929149150848389,0.18370449542999268,-0.04188055917620659,-0.13242077827453613,0.26403367693836227,-0.05840484185569441,-0.01146425068437225,-0.9626752172262976,-0.008769102642579948,-0.11878740086957759,-2.6067377964391336
1784027969405533952,3.2650249004364014,0.0022154010366648436,-1.0471999645233154,0.053283534944057465,-0.1289437711238861,0.008751247078180313,-0.9916132688522339,0.1686013787984848,-0.07250246405601501,-0.10762983560562134,0.26419418591665833,-0.06346299024319671,-0.012876460529147073,-0.9622931227061645,-0.008751358967534286,-0.12930876354324816,-2.606270199375701
1784027969415454976,3.2749459743499756,-0.11440122872591019,-1.0096982717514038,0.02348635531961918,-0.1390461027622223,0.00945341307669878,-0.9902408123016357,0.1420063078403473,-0.111000657081604,-0.06069302558898926,0.26428019167207006,-0.06845834166590184,-0.013894685301015904,-0.96191291992871,-0.009453553504788124,-0.13950437346166833,-2.6059960436638905
1784027969425374976,3.2848658561706543,-0.21441037952899933,-0.9509897828102112,0.006416823714971542,-0.1485278308391571,0.010980817489326,-0.9888472557067871,0.1723468005657196,-0.14432737231254578,-0.01692056655883789,0.26422095305438537,-0.07326897759276249,-0.014423114178472318,-0.96156698587967,-0.01098103800935507,-0.14908848719192874,-2.6060864472226477
1784027969435295232,3.294785976409912,-0.24144959449768066,-0.9192788004875183,-0.09478149563074112,-0.15770606696605682,0.013208957388997078,-0.9873977303504944,0.15729407966136932,-0.11632785201072693,0.043931543827056885,0.2638830934382024,-0.07803458568735896,-0.014550900171914192,-0.961282728925295,-0.01320934182062723,-0.15838115648844758,-2.606817001039757
1784027969445216256,3.3047070503234863,-0.33842965960502625,-0.8435227870941162,-0.17253994941711426,-0.16631686687469482,0.01577281579375267,-0.9859461784362793,0.13730992376804352,-0.10935497283935547,0.10328632593154907,0.26307719159323284,-0.082580763330249,-0.014398429223772297,-0.9611261678439411,-0.015773470458797966,-0.1671143074264889,-2.608566500088755
1784027969455136000,3.314626932144165,-0.41014593839645386,-0.8024451732635498,-0.17652177810668945,-0.1742306500673294,0.01932467892765999,-0.9845152497291565,0.1546383649110794,-0.09499301016330719,0.1812620759010315,0.26204473167424763,-0.08692593988566445,-0.013647922681189126,-0.9610359926085621,-0.019325882324440737,-0.175157457531705,-2.6108939490160354
1784027969465057024,3.3245480060577393,-0.46342727541923523,-0.6559068560600281,-0.2459445297718048,-0.1813203990459442,0.023071911185979843,-0.9831534028053284,0.1468660533428192,-0.08181824535131454,0.20728975534439087,0.260793697451654,-0.09090063574655194,-0.012663973543994563,-0.961022026449026,-0.023073958161539395,-0.1823780293864107,-2.61372384159214
1784027969474977024,3.334467887878418,-0.568562924861908,-0.5130281448364258,-0.21297241747379303,-0.1869857907295227,0.02771124243736267,-0.9819716811180115,0.1314743161201477,-0.06547675281763077,0.2661208510398865,0.2594006906224747,-0.09429942402709769,-0.01103507002793579,-0.9610917044579748,-0.027714790775281592,-0.18816605154196378,-2.6169668898672804
1784027969484897024,3.344388008117676,-0.5228726863861084,-0.4375874698162079,-0.20577682554721832,-0.1917003095149994,0.032740458846092224,-0.9809072613716125,0.1452220380306244,-0.028864730149507523,0.28182584047317505,0.258141180609991,-0.0972812556692494,-0.009095388335384804,-0.9611538889645028,-0.032746312751660206,-0.19299906007665343,-2.6199978430422415
1784027969494818048,3.354308843612671,-0.35868093371391296,-0.2979617118835449,-0.1757763773202896,-0.19528250396251678,0.03655911609530449,-0.9800654053688049,0.10556082427501678,0.00962924212217331,0.25690561532974243,0.25696939581213096,-0.09954704850690443,-0.007595314292504717,-0.961248909761472,-0.0365672635179956,-0.19667869951314496,-2.622760017643621
1784027969504738048,3.3642289638519287,-0.17309856414794922,-0.18645650148391724,-0.10136207193136215,-0.19771574437618256,0.0389552041888237,-0.979485034942627,0.08113861083984375,0.1022801399230957,0.32294517755508423,0.2561777826447728,-0.10105932911403641,-0.00666960384103255,-0.9613092539924742,-0.03896506511764143,-0.19918033078209374,-2.6246146238699266
1784027969514659072,3.374150037765503,0.06952180713415146,-0.05800265818834305,-0.11596737802028656,-0.19893909990787506,0.039251916110515594,-0.9792254567146301,0.05463673174381256,0.1551755666732788,0.3862689137458801,0.25571840457325723,-0.10170156341115279,-0.006637446561471215,-0.9613640735048393,-0.03926200406645139,-0.20043181958621523,-2.6255899426531237
1784027969524579072,3.3840699195861816,0.25376033782958984,0.1915895938873291,-0.10811664909124374,-0.19852587580680847,0.03731922805309296,-0.9793848991394043,0.02845141291618347,0.12071605026721954,0.4251093864440918,0.2552668196451608,-0.10125068151679614,-0.007473878978761696,-0.961525432639487,-0.037327897481816294,-0.19999483466612777,-2.6263478062522787
1784027969534500096,3.393990993499756,0.33293187618255615,0.5567375421524048,-0.10694313049316406,-0.19484610855579376,0.03425190970301628,-0.9802355766296387,0.03177542984485626,0.06808878481388092,0.44372129440307617,0.25489963195176035,-0.09905002152365033,-0.00844405021804471,-0.9618440313476277,-0.03425861034717332,-0.19621718889021178,-2.6268520938583313
1784027969544420096,3.4039108753204346,0.5357382297515869,0.7159687280654907,-0.07965584844350815,-0.18854902684688568,0.029919808730483055,-0.9816079139709473,0.07400129735469818,0.022036368027329445,0.44466638565063477,0.2547204313467441,-0.09540339989483845,-0.009707777447901519,-0.9622481323294381,-0.029924274719305404,-0.18977045513060672,-2.6268840740023287
1784027969554340096,3.4138309955596924,0.7111913561820984,0.7656422853469849,-0.0652608871459961,-0.18118171393871307,0.02364976704120636,-0.9831652045249939,0.14005929231643677,0.03790418058633804,0.43282651901245117,0.25471036797749985,-0.09098554944012933,-0.011790387155953397,-0.9626553367690704,-0.023651972473400396,-0.18223946563560264,-2.626426032216211
1784027969564260864,3.4237518310546875,0.9368926882743835,0.7987166047096252,-0.03580952435731888,-0.17340177297592163,0.015639230608940125,-0.9847269654273987,0.14018338918685913,0.07348735630512238,0.4476328492164612,0.254879376821859,-0.08614525641841903,-0.014679956927045242,-0.9630160518044845,-0.01563986781481173,-0.1743042539078693,-2.6254884730400425
1784027969574181120,3.4336719512939453,1.2758313417434692,0.7965319752693176,0.010910175740718842,-0.16553406417369843,0.004710561595857143,-0.9861928224563599,0.07515625655651093,0.06453382223844528,0.43707478046417236,0.2553639515291205,-0.08088671682415335,-0.018998105684393557,-0.9632681838389996,-0.004710579171815436,-0.16630138444302398,-2.6237038617431585
1784027969584102144,3.4435930252075195,1.41170072555542,0.8380538821220398,-0.03132143244147301,-0.15742526948451996,-0.008688223548233509,-0.9874926805496216,0.01881442964076996,0.007330188527703285,0.4731189012527466,0.25596979536309494,-0.07519354684303368,-0.02448649743483621,-0.963444794649626,0.00868833269864577,-0.1580888849660543,-2.621539020482934
1784027969594022144,3.4535129070281982,1.298669457435608,1.0188337564468384,-0.04416642338037491,-0.14827339351177216,-0.02222326584160328,-0.9886966943740845,-0.008754804730415344,-0.02994653210043907,0.579501748085022,0.2563654444409909,-0.06898320608046675,-0.02988272227541304,-0.9636519299409044,0.0222250950673436,-0.14885917622130695,-2.619909565721246
1784027969603942144,3.463433027267456,0.9359309673309326,1.1319416761398315,-0.1001463383436203,-0.13739293813705444,-0.03346051275730133,-0.9899513125419617,0.027880609035491943,-0.04936419427394867,0.6260139346122742,0.2565739907257461,-0.062238192852766036,-0.03392282913373115,-0.9639218860566519,0.033466758758340855,-0.1379066294868037,-2.618990456812051
1784027969613862912,3.473353862762451,0.5177976489067078,1.3036484718322754,-0.10374569892883301,-0.12510313093662262,-0.0409185066819191,-0.991299569606781,0.06890502572059631,-0.1057947427034378,0.6748323440551758,0.25648116217244626,-0.05531144126785774,-0.03592837717078119,-0.964296172413685,0.040929934784903886,-0.1255374676340668,-2.6191018588339885
1784027969623783168,3.483273983001709,0.12918253242969513,1.4383926391601562,-0.16126598417758942,-0.1099705696105957,-0.04499737545847893,-0.9929157495498657,0.1024632453918457,-0.16908343136310577,0.6652942895889282,0.2561632375435754,-0.04745453317326269,-0.03591916281968492,-0.9647996061092186,0.045012573267026464,-0.11030562089733688,-2.6200641023390654
1784027969633703936,3.493194818496704,-0.056590788066387177,1.4383634328842163,-0.22379274666309357,-0.09533534944057465,-0.04552086815237999,-0.9944038391113281,0.10241543501615524,-0.1357688009738922,0.6120491623878479,0.25545782551871343,-0.040315515588035214,-0.03424518597234782,-0.9653721163040435,0.04553660310068734,-0.09557974040605814,-2.6220311722354244
1784027969643624192,3.503114938735962,0.011829013004899025,1.4241820573806763,-0.25383317470550537,-0.0809813141822815,-0.04547036439180374,-0.9956778883934021,0.11589343100786209,-0.00276266410946846,0.5342521667480469,0.2545189230727858,-0.033397581065234355,-0.03233656283156635,-0.9659498743468519,0.04548604821190495,-0.08115421041339752,-2.624475574854187
1784027969653545216,3.513036012649536,0.23367299139499664,1.4601470232009888,-0.22772836685180664,-0.06649898737668991,-0.04684790223836899,-0.9966861009597778,0.09604000300168991,0.09730871766805649,0.48635590076446533,0.25359316225286893,-0.026237428699477067,-0.03112158515622697,-0.9664541186824569,0.04686505661380742,-0.06662134945448789,-2.6268096560999323
1784027969663464960,3.522955894470215,0.3635313808917999,1.4988957643508911,-0.20567739009857178,-0.05166495218873024,-0.050049908459186554,-0.9974095225334167,0.08444082736968994,0.07371629774570465,0.40373581647872925,0.25279988464683356,-0.018673986733870666,-0.03076565028393065,-0.9668489336840266,0.050070828329503436,-0.05175288509493308,-2.6288114896080654
1784027969673385216,3.5328760147094727,0.40646499395370483,1.5623600482940674,-0.24169011414051056,-0.036378275603055954,-0.053954098373651505,-0.9978805184364319,0.08886851370334625,0.018721558153629303,0.40359652042388916,0.25200331310802243,-0.010805291881455022,-0.03070788961897414,-0.9671787566799012,0.053980309780421766,-0.03643940633907826,-2.63083307970323
1784027969683305984,3.5427968502044678,0.39614471793174744,1.6096035242080688,-0.25522854924201965,-0.0205425713211298,-0.05805344879627228,-0.9981021285057068,0.08189816027879715,0.003686383366584778,0.3798617720603943,0.25102018035403545,-0.0026536063530516476,-0.030690534982436537,-0.9674915258219184,0.05808610574796819,-0.0205787270625327,-2.6332804089800805
1784027969693225984,3.5527169704437256,0.34898704290390015,1.6493421792984009,-0.2633584141731262,-0.004109811037778854,-0.06185454875230789,-0.9980767369270325,0.07756561785936356,0.030528254806995392,0.35964900255203247,0.2500460698430906,0.005750164523754688,-0.030472599326336326,-0.9677371915854394,0.061894057956703386,-0.0041177075712491695,-2.6357609469908514
1784027969703147264,3.5626380443573,0.2905767560005188,1.6249332427978516,-0.2572951912879944,0.012334883213043213,-0.06506331264972687,-0.9978048801422119,0.06710237264633179,-0.010193035006523132,0.3579275608062744,0.24902206321229534,0.014086218903480342,-0.029985480595307867,-0.9679309820749287,0.06510930232293038,0.01236138912645801,-2.6383719681366666
1784027969713067008,3.5725579261779785,0.21905164420604706,1.5285543203353882,-0.2593277394771576,0.028214246034622192,-0.06754957139492035,-0.9973168969154358,0.10224840044975281,-0.02145494520664215,0.3020349144935608,0.24796758266856023,0.022061409755175072,-0.02923766257567561,-0.9680757187791198,0.06760104791474657,0.02828260675034809,-2.641041857940602
1784027969722988032,3.5824790000915527,0.19705206155776978,1.4244753122329712,-0.30689018964767456,0.04306037351489067,-0.06950653344392776,-0.9966517090797424,0.12931816279888153,0.022539980709552765,0.25487619638442993,0.2467952241182652,0.02947188151259473,-0.02838220256577404,-0.9682035228697158,0.0695626244339922,0.043178184405552385,-2.6439248752357565
1784027969732908032,3.5923988819122314,0.27444273233413696,1.3905549049377441,-0.3232997953891754,0.057172976434230804,-0.0716991052031517,-0.9957863688468933,0.1345689594745636,0.0552348718047142,0.1922280192375183,0.24546626973847502,0.03655768335329797,-0.027755218850704033,-0.9683178942597204,0.07176068035738542,0.05735193880363773,-2.6471163106386686
1784027969742828032,3.6023190021514893,0.39925870299339294,1.3386844396591187,-0.259599894285202,0.07094946503639221,-0.07481701672077179,-0.9946700930595398,0.11258324980735779,0.10060437023639679,0.1305343508720398,0.24410641631698413,0.04360063779432009,-0.027639452681427402,-0.9683734363678526,0.07488698994075367,0.07120903882336119,-2.6503928979619404
1784027969752749056,3.6122398376464844,0.5077848434448242,1.200466275215149,-0.15741552412509918,0.0836448073387146,-0.07930777966976166,-0.9933347105979919,0.1343727707862854,0.12387870252132416,0.07704442739486694,0.24319256291578545,0.05030608485006318,-0.02831869854047446,-0.9682586007822211,0.07939115178940905,0.08400788063717814,-2.652781649342122
1784027969762669056,3.622159957885742,0.4247852861881256,1.1356918811798096,-0.13047339022159576,0.09525183588266373,-0.08389662951231003,-0.9919115304946899,0.06975670903921127,0.07385634630918503,0.02560293674468994,0.24254660072234333,0.05650736632098128,-0.02917468180146731,-0.9680532412883927,0.08399536260142533,0.09573501160361311,-2.65462465859229
1784027969772590080,3.6320810317993164,0.2402857542037964,1.14203679561615,-0.05299483612179756,0.10649838298559189,-0.08707775920629501,-0.990492582321167,-0.005393646657466888,-0.03717456012964249,0.010893583297729492,0.24217659750695777,0.06237406967544575,-0.02937998347686555,-0.9677793203538456,0.08718818305753802,0.107109137102997,-2.6558613205808452
1784027969782510080,3.642000913619995,0.06986954808235168,1.0529048442840576,-0.05737946555018425,0.11751101911067963,-0.08842577040195465,-0.9891269207000732,-0.06911014020442963,-0.08653150498867035,-0.08548855781555176,0.24204430601896315,0.0679142756449765,-0.028708819077003376,-0.9674595640991747,0.08854141321856952,0.11824852664531448,-2.656530729580318
1784027969792430080,3.651921033859253,0.1746530830860138,0.9216033220291138,-0.12223216146230698,0.12716232240200043,-0.08923973888158798,-0.987859308719635,-0.06312118470668793,-0.011803962290287018,-0.17702716588974,0.24171385924543662,0.07272332109734701,-0.027958256437164524,-0.9672146212213579,0.08935861139327851,0.12802112241853553,-2.6575416337963427
1784027969802351104,3.661841869354248,0.47224241495132446,0.7234814167022705,-0.11260669678449631,0.13565003871917725,-0.09250295907258987,-0.9864290356636047,-0.06426942348480225,0.10683096200227737,-0.26415079832077026,0.24106473392871552,0.07726111562439546,-0.02856913454165905,-0.9670068501160497,0.09263539025335094,0.1366591216278229,-2.6593168964024514
1784027969812271104,3.671761989593506,0.7628843784332275,0.4907524287700653,-0.06837252527475357,0.1413259357213974,-0.09845283627510071,-0.9850553274154663,-0.0843038409948349,0.2383148968219757,-0.3282991647720337,0.24066279509136643,0.0807640195334659,-0.03081403536675015,-0.9667518035512042,0.0986125856013173,0.14249765290907265,-2.6606755025264412
1784027969822191872,3.681682825088501,1.1766791343688965,0.47411754727363586,-0.217219278216362,0.14648881554603577,-0.10728767514228821,-0.9833770394325256,-0.13351882994174957,0.4041626751422882,-0.38069766759872437,0.23942612826603665,0.08434462566811185,-0.03460445740208799,-0.9666249001463513,0.1074945732409271,0.14787761779946187,-2.6639506426475377
1784027969832112128,3.691602945327759,1.7538378238677979,0.3674585819244385,-0.13758262991905212,0.15074422955513,-0.12147054821252823,-0.9810816049575806,-0.1279323399066925,0.39824971556663513,-0.41644036769866943,0.23805319601155783,0.08812923050106217,-0.041139333738834744,-0.9663702595511934,0.12177126645583455,0.15245874878803717,-2.6678474531999803
1784027969842033152,3.701524019241333,1.8283212184906006,0.15369011461734772,-0.10166856646537781,0.1533319354057312,-0.13903944194316864,-0.978344202041626,-0.0812036395072937,0.22258131206035614,-0.377765417098999,0.23679386146510353,0.09150983517949796,-0.04953640599355011,-0.9659714253203001,0.1394913667892748,0.15546133084118488,-2.671684719463709
1784027969851953152,3.7114439010620117,1.5720258951187134,-0.06601165235042572,-0.24021326005458832,0.15364693105220795,-0.15550895035266876,-0.9758122563362122,-0.07755136489868164,0.015967339277267456,-0.30118048191070557,0.23514795261521482,0.09360567898425576,-0.05772211567154035,-0.965718121232473,0.15614265414478826,0.15617321291990913,-2.676140017203073
1784027969861873152,3.7213640213012695,1.2017838954925537,-0.03971400484442711,-0.07544029504060745,0.1539040058851242,-0.16869057714939117,-0.9735795259475708,-0.0833168625831604,-0.15365135669708252,-0.3030470609664917,0.23361237461027962,0.09526067442411706,-0.06430905467647755,-0.9655127586450375,0.16950104977942446,0.1567831937547588,-2.680150354634445
1784027969871793920,3.7312848567962646,0.6002148985862732,-0.04441589117050171,-0.20364879071712494,0.15385888516902924,-0.17720963060855865,-0.9720721244812012,-0.10623620450496674,-0.31084275245666504,-0.32431459426879883,0.23266303223027682,0.09622268196047067,-0.06859401791899818,-0.9653517687341667,0.178150485367594,0.1569770581838602,-2.6826346188895838
1784027969881714176,3.7412049770355225,-0.1480441391468048,-0.09425615519285202,-0.19007599353790283,0.15374106168746948,-0.17897015810012817,-0.9717681407928467,-0.051705554127693176,-0.3764039874076843,-0.29933470487594604,0.23141519492265822,0.09629154873657719,-0.06959779333363877,-0.9655729869311612,0.1799396045598878,0.15690706801735999,-2.685318036399203
1784027969891634944,3.7511258125305176,-0.45372337102890015,-0.11156947165727615,-0.14657378196716309,0.1530565470457077,-0.1756739318370819,-0.9724774360656738,0.03339061141014099,-0.3504491150379181,-0.27839231491088867,0.23079043505673058,0.09550532193952796,-0.06811764645609306,-0.9659060937571488,0.1765903018549043,0.15610769165350372,-2.6863613473709225
1784027969901554944,3.7610459327697754,-0.6608400344848633,-0.030690873041749,-0.2765845060348511,0.15301214158535004,-0.1698046624660492,-0.9735264182090759,0.11290277540683746,-0.3565167784690857,-0.2876887917518616,0.23002455995525425,0.09471577372455478,-0.06531247816679812,-0.9663601085653943,0.17063144241968387,0.15589769493654793,-2.6875858615015398
1784027969911474944,3.770965814590454,-0.859746515750885,-0.11142250895500183,-0.07429572939872742,0.15237151086330414,-0.16223745048046112,-0.9749163389205933,0.19365201890468597,-0.3115326762199402,-0.29089170694351196,0.2295561957523888,0.0934521244132501,-0.06171318462902281,-0.9668308930173571,0.16295772787493767,0.15503762581728198,-2.688048071331059
1784027969921395968,3.7808868885040283,-0.6453314423561096,-0.23196783661842346,-0.06940244138240814,0.15115715563297272,-0.1547500491142273,-0.9763216376304626,0.3480494022369385,-0.2497909665107727,-0.32398658990859985,0.2294975689077529,0.09194616474866919,-0.05818148037963087,-0.9672081838289946,0.155374451137897,0.1536035529143107,-2.6876332047937974
1784027969931316224,3.790807008743286,-0.456988662481308,-0.40959182381629944,-0.07106558233499527,0.148407444357872,-0.1494418978691101,-0.9775696396827698,0.4904933273792267,-0.1570919156074524,-0.3519439101219177,0.22926984639053602,0.08993831292080572,-0.05591324938649485,-0.9675847615158795,0.15000381286421535,0.15066224114343846,-2.687615786344567
1784027969941236992,3.8007278442382812,-0.29644691944122314,-0.5816653370857239,0.002656839555129409,0.14433573186397552,-0.1457602083683014,-0.9787344932556152,0.49770835041999817,-0.08888944983482361,-0.30245447158813477,0.22917861341504447,0.08748455609993315,-0.05458220937127899,-0.9679072643750343,0.1462813482801927,0.14641645868325665,-2.6873484852392355
1784027969951156992,3.810647964477539,-0.07389620691537857,-0.6578376293182373,0.0931805744767189,0.13936741650104523,-0.14464052021503448,-0.9796202778816223,0.44756191968917847,-0.08378355205059052,-0.3059021830558777,0.2292397662802182,0.08490615591190777,-0.05459685729216536,-0.968121561336279,0.14514966664974482,0.14131845068814955,-2.686872139121566
1784027969961078272,3.8205690383911133,-0.006210374645888805,-0.7579924464225769,0.10818669199943542,0.13283079862594604,-0.14458724856376648,-0.9805358052253723,0.32978516817092896,-0.06987501680850983,-0.2693268060684204,0.22949685021724808,0.08169606486691629,-0.055297736413048595,-0.9682970268390814,0.14509582317397138,0.13464789554036707,-2.6859596585177963
1784027969970998016,3.830488920211792,0.07159334421157837,-0.8340513110160828,0.15868781507015228,0.12506161630153656,-0.1451626420021057,-0.9814720749855042,0.23654116690158844,-0.03927034139633179,-0.23457711935043335,0.22991154553161383,0.07796692593877655,-0.056436952217394816,-0.9684403563384258,0.14567734876710692,0.12673950781535973,-2.6846751759739496
1784027969980918272,3.84040904045105,-0.07802331447601318,-0.8809658288955688,0.15313832461833954,0.11675067991018295,-0.14547988772392273,-0.982448399066925,0.10360148549079895,-0.07545210421085358,-0.21690762042999268,0.23039381906919223,0.07394885120634959,-0.0575096725860736,-0.9685777416287573,0.14599800970093982,0.11828173092065372,-2.683195919532581
1784027969990839040,3.850329875946045,-0.3299180567264557,-0.8998947143554688,0.19917522370815277,0.10793208330869675,-0.14376384019851685,-0.9837086200714111,0.07676029950380325,-0.14767903089523315,-0.17586779594421387,0.23107446479684943,0.06945494447934537,-0.05763425330050838,-0.9687408842131691,0.14426372611351682,0.10928243576105515,-2.6811864011525772
1784027970000759040,3.8602499961853027,-0.5061610341072083,-0.8733837604522705,0.16507503390312195,0.09935926645994186,-0.13981227576732635,-0.9851803183555603,0.12752366065979004,-0.16379185020923615,-0.1643100380897522,0.23180329512454229,0.06482170252657625,-0.05663909448288974,-0.968946480224519,0.1402718209788372,0.10051401239152988,-2.679021819333966
1784027970010680064,3.870170831680298,-0.6120588183403015,-0.8059276342391968,0.21487875282764435,0.09098099172115326,-0.13450272381305695,-0.9867276549339294,0.17360639572143555,-0.14284101128578186,-0.15350055694580078,0.2326744836336578,0.060133252490766224,-0.05495600330419523,-0.9691369140751912,0.13491161518333603,0.09194478836746128,-2.676559391419426
