time,seconds_elapsed,rotationRateX,rotationRateY,rotationRateZ,gravityX,gravityY,gravityZ,accelerationX,accelerationY,accelerationZ,quaternionW,quaternionX,quaternionY,quaternionZ,pitch,roll,yaw
1784201629856367104,0.17977094650268555,-1.6248314380645752,-0.3211171627044678,-0.5363026857376099,-0.18062666058540344,0.9402105212211609,-0.2887527346611023,-0.09490126371383667,-0.46348023414611816,0.17621919512748718,0.5574605371108178,-0.48764906647617695,0.3432521307528004,-0.5775933260478477,-1.223247819606479,-0.5589882284629528,-2.003536378598523
1784201629866287104,0.18969082832336426,-1.82467782497406,-0.21708634495735168,-0.5198391675949097,-0.1879918873310089,0.94405198097229,-0.27097055315971375,-0.16929268836975098,-0.2358609437942505,0.15038034319877625,0.5515722601388201,-0.49482721577108246,0.3459201572743306,-0.5755461691589069,-1.234708097544077,-0.6065341453906454,-2.050527487038986
1784201629876206080,0.19960999488830566,-1.455651879310608,-0.11908388137817383,-0.44894665479660034,-0.19530341029167175,0.9472506046295166,-0.25411173701286316,-0.14135123789310455,0.0328366756439209,0.028113842010498047,0.545660702210252,-0.5015130766126494,0.3484663086187207,-0.5738555704619734,-1.2445456077727228,-0.6552822203823211,-2.099462280237033
1784201629886126080,0.20952987670898438,-0.8515385389328003,0.028089312836527824,-0.41879940032958984,-0.20335295796394348,0.9488286375999451,-0.24160288274288177,-0.1321573406457901,0.20321005582809448,-0.03732779622077942,0.5404485687859873,-0.5069116907749538,0.34962708472924614,-0.5733383911320367,-1.2495057522047237,-0.6996455521649508,-2.1443410802450407
1784201629896046080,0.2194499969482422,-0.27801215648651123,0.017091181129217148,-0.4663284420967102,-0.21384739875793457,0.9484269618988037,-0.2339990884065628,-0.12067103385925293,0.1773512363433838,-0.06994068622589111,0.5357255510999012,-0.5112986897737425,0.34867477997475593,-0.5744542125437636,-1.2482360710374523,-0.7404316032077036,-2.1856211205481877
1784201629905965056,0.2293689250946045,0.18067926168441772,0.09597431868314743,-0.2838900685310364,-0.22550101578235626,0.9464157819747925,-0.23118484020233154,0.028632134199142456,0.14031511545181274,-0.05745039880275726,0.5320253620515074,-0.5145901151733044,0.34583897110081013,-0.5766640380400249,-1.241950700440689,-0.7729530100476677,-2.2178569524791842
1784201629915885056,0.2392888069152832,0.6745790243148804,0.12310021370649338,-0.21900266408920288,-0.23559843003749847,0.9435657858848572,-0.23275935649871826,0.0018490403890609741,0.005103588104248047,-0.020734891295433044,0.5297758977402819,-0.5162295245057037,0.342238805071717,-0.5794110352096757,-1.2332370315543941,-0.7914598424623681,-2.2360242846669327
1784201629925805056,0.24920892715454102,1.1456400156021118,0.1536298394203186,-0.31425216794013977,-0.24456366896629333,0.9395818710327148,-0.23953025043010712,0.00696900486946106,-0.06564986705780029,-0.04007181525230408,0.5290736642770899,-0.5160661031871983,0.3375065174331038,-0.5829633860153439,-1.2214067565868623,-0.7957953792850507,-2.239910331468542
1784201629935724032,0.2591278553009033,2.0424392223358154,0.1480979323387146,-0.3302212953567505,-0.2521287500858307,0.933941125869751,-0.25334739685058594,0.026741206645965576,0.06476175785064697,-0.013833969831466675,0.530491421666927,-0.5135002048122995,0.33112510440378384,-0.5875818469231667,-1.2052849632160774,-0.7829872391492962,-2.2262907768291242
1784201629945644032,0.26904797554016113,2.7763493061065674,0.1664707064628601,-0.2777165174484253,-0.258916974067688,0.9258134961128235,-0.2753749489784241,0.0920926034450531,0.1910688281059265,-0.12063640356063843,0.5343252022753742,-0.5083524644960142,0.32232017064442464,-0.5934509893901628,-1.1831822193083412,-0.754604527110169,-2.1959827969592487
1784201629955563008,0.27896690368652344,2.9869191646575928,0.15638983249664307,-0.0396064855158329,-0.263912558555603,0.9160367846488953,-0.3020380139350891,0.16602736711502075,0.222833514213562,-0.006830424070358276,0.5398996105518338,-0.501376567816906,0.31241404167463616,-0.5996061860373959,-1.1580852952302998,-0.7181344291456139,-2.156777020081563
1784201629965483264,0.28888702392578125,2.714524507522583,0.07562149316072464,-0.04145951196551323,-0.26382774114608765,0.9071843028068542,-0.3277370035648346,0.22729822993278503,-0.15440726280212402,0.2243892252445221,0.5466184503672947,-0.49354094954749356,0.3042183943209693,-0.6042158344046962,-1.1365427021272931,-0.6777812849578757,-2.113582748432626
1784201629975403008,0.29880690574645996,2.0641117095947266,0.03263753652572632,0.05335567891597748,-0.26264098286628723,0.8998451828956604,-0.3482789695262909,0.224951833486557,-0.36413973569869995,0.3769349753856659,0.5524038828898548,-0.4870045593105352,0.2978037571748434,-0.6074449192859814,-1.1194144581387144,-0.6461269426959293,-2.0791636730950778
1784201629985321984,0.30872583389282227,1.564781665802002,0.033519044518470764,0.34349384903907776,-0.26014381647109985,0.8945176601409912,-0.3635430335998535,0.23400548100471497,-0.40326088666915894,0.4008660316467285,0.5572999573900139,-0.48183866512441126,0.29335982249251524,-0.6092523191490543,-1.1073510076729247,-0.6211054305813003,-2.0515108352826634
1784201629995242240,0.3186459541320801,1.3004077672958374,0.13639295101165771,0.5072094798088074,-0.25546908378601074,0.8909552693367004,-0.3754119277000427,0.19003945589065552,-0.4759162664413452,0.3259582221508026,0.5618090141609874,-0.47722285988716473,0.29077891492118263,-0.6099807347105616,-1.0994445689202361,-0.5975207625918115,-2.0259937389666405
1784201630005160960,0.3285648822784424,1.3317309617996216,0.22369369864463806,0.5384674668312073,-0.24970388412475586,0.8877580165863037,-0.3866957724094391,0.12650443613529205,-0.4407517910003662,0.2759627103805542,0.5661768709135891,-0.47241000992393295,0.2889306062624774,-0.6105665901491245,-1.0924514143645045,-0.5733727544321393,-2.0008815019122674
1784201630015081216,0.3384850025177002,1.603955864906311,0.27910688519477844,0.5917626619338989,-0.2434438019990921,0.8838180899620056,-0.3995004892349243,0.10281883180141449,-0.2521805167198181,0.18323767185211182,0.5708677184735962,-0.4668771572245597,0.2868370223616303,-0.6114411380506737,-1.0839616219454125,-0.5472810942797433,-1.9742503788484858
1784201630025000960,0.3484048843383789,2.3187129497528076,0.3923071026802063,0.6553926467895508,-0.23634684085845947,0.8777627348899841,-0.41674068570137024,0.11267435550689697,-0.11030668020248413,0.18242675065994263,0.5767327235478584,-0.4595840010180525,0.2835704462393381,-0.6129843054054805,-1.0711722587527865,-0.5159009177053335,-1.9423326376860013
1784201630034919936,0.3583238124847412,3.1128244400024414,0.4856160283088684,0.6736401319503784,-0.22837957739830017,0.8681054711341858,-0.4407218098640442,0.11288580298423767,-0.06817871332168579,0.1836722493171692,0.5842673559412995,-0.44963680625800323,0.2783268612548073,-0.6156237231943196,-1.051372758668491,-0.4780969595719663,-1.903956552553209
1784201630044840192,0.368243932723999,3.753459930419922,0.5349286198616028,0.665870726108551,-0.2199181616306305,0.8543739318847656,-0.47083041071891785,0.0697564035654068,0.019023895263671875,0.26230376958847046,0.5932047797415665,-0.4371763946387001,0.27103799933063916,-0.6192926266539284,-1.0243448584764512,-0.4369712229592914,-1.8621933218162405
1784201630054758912,0.37816286087036133,3.8537096977233887,0.5706809759140015,0.6489620804786682,-0.21134047210216522,0.837764322757721,-0.5034740567207336,0.013983294367790222,0.10115474462509155,0.12644469738006592,0.6026070017243627,-0.4234113102394394,0.26265152125611274,-0.6233793816521017,-0.9931758680585611,-0.3974276593431062,-1.8220582092706394
1784201630064679168,0.38808298110961914,3.6721017360687256,0.5487614274024963,0.6879988312721252,-0.20257262885570526,0.8201338052749634,-0.5351120233535767,-0.013293474912643433,-0.015858352184295654,-0.04780423641204834,0.6117170506953673,-0.4095726332617368,0.2543506267255699,-0.6271828439633065,-0.9616448698285561,-0.36188911426261916,-1.7860552441588395
1784201630074598912,0.39800286293029785,3.059274911880493,0.49187174439430237,0.7696369886398315,-0.19350524246692657,0.8036883473396301,-0.5627083778381348,-0.043189093470573425,-0.2584918141365051,-0.014424800872802734,0.6200431050825218,-0.39689417510161706,0.2472262567033745,-0.6300005767730198,-0.9334679288116303,-0.33121406279701976,-1.7547602885373952
1784201630084517888,0.40792179107666016,2.5472724437713623,0.5088545083999634,0.8016640543937683,-0.18418776988983154,0.7897347211837769,-0.5851444602012634,-0.12007252871990204,-0.3808906078338623,0.05532878637313843,0.6273020720967745,-0.3859309985494428,0.24183677426787506,-0.6317154953416068,-0.9103764127026478,-0.3049544293430107,-1.7279582849550883
1784201630094438144,0.41784191131591797,2.312150001525879,0.6390058994293213,0.6580235362052917,-0.17488650977611542,0.7771384716033936,-0.604541540145874,-0.2422124743461609,-0.40935593843460083,0.1181982159614563,0.6334732736710157,-0.3758332955401609,0.23765217215981035,-0.6332316964249444,-0.8901060184267766,-0.28160036823804463,-1.7054185725524982
1784201630104357120,0.4277608394622803,2.4718637466430664,0.8265441656112671,0.4768630862236023,-0.16627950966358185,0.7639579772949219,-0.6234735250473022,-0.34044960141181946,-0.22629934549331665,0.17753547430038452,0.6386428509241625,-0.36561638325794976,0.23364050178454784,-0.6355092495651162,-0.86942491194787,-0.26063219105932695,-1.687438549783855
1784201630114277120,0.4376809597015381,3.0768179893493652,1.0162150859832764,0.4142974615097046,-0.1572265923023224,0.7475218176841736,-0.6453611254692078,-0.2889251112937927,0.030798494815826416,0.14829081296920776,0.643835094980942,-0.35355666162643,0.22872939351573138,-0.6388715895454946,-0.8443233031122301,-0.23897044226587505,-1.670804447206767
1784201630124197120,0.4476008415222168,3.6699061393737793,1.0825989246368408,0.2417970597743988,-0.1483098864555359,0.7260682582855225,-0.6714380979537964,-0.1483362466096878,0.15250229835510254,0.05145823955535889,0.6494216511781157,-0.33919760414471584,0.22186920155193482,-0.643405501363219,-0.8125866871609592,-0.21739327070607364,-1.6553201275467593
1784201630134116096,0.4575200080871582,4.147171497344971,1.1727937459945679,0.11324547976255417,-0.1398121863603592,0.6998526453971863,-0.700470507144928,-0.060108482837677,0.07611781358718872,0.0321965217590332,0.6551575288021846,-0.322987405267773,0.21317573406536383,-0.6488481496075772,-0.775191146604753,-0.19700854999954526,-1.64176511920143
1784201630144036096,0.4674398899078369,4.010507583618164,1.1972507238388062,0.09398572891950607,-0.13129767775535583,0.6711335778236389,-0.7296167612075806,-0.08870354294776917,-0.16239029169082642,0.0025659799575805664,0.6605619856243158,-0.3060037840956293,0.20384625924182348,-0.6545733702079728,-0.7357368618189294,-0.17804867373645136,-1.630466222711529
1784201630153955072,0.4773588180541992,3.4137096405029297,1.3170735836029053,0.15444429218769073,-0.12181753665208817,0.6437782049179077,-0.7554536461830139,-0.13939771056175232,-0.49141913652420044,0.09630447626113892,0.6652296788867302,-0.2897385460544423,0.19576708137136806,-0.659694206011083,-0.699425499228224,-0.1598746404542641,-1.62085528984653
1784201630163875072,0.48727893829345703,3.4287261962890625,1.1352355480194092,0.24093885719776154,-0.11167380213737488,0.618925929069519,-0.7774699926376343,-0.12579870223999023,-0.5823201537132263,0.17506831884384155,0.6691445456113603,-0.2747216302337561,0.1891904260663348,-0.6640636298476784,-0.6673744970519115,-0.1426616616685817,-1.6127017579369427
1784201630173795072,0.49719882011413574,2.8473668098449707,1.3859686851501465,0.38075321912765503,-0.10060511529445648,0.5939250588417053,-0.7982052564620972,0.0008431673049926758,-0.6863628029823303,-0.04511749744415283,0.6733838857640858,-0.2597596049556557,0.18281775332089656,-0.6675752646005776,-0.6359288937340823,-0.1253780346161927,-1.6034471362566458
1784201630183714048,0.5071179866790771,2.5528857707977295,1.4035781621932983,-0.10450698435306549,-0.08892690390348434,0.573059618473053,-0.8146746158599854,-0.09115733206272125,-0.2079167366027832,0.20659661293029785,0.6757682922863651,-0.24629989236622893,0.17888280422613545,-0.6713229834890895,-0.6102344257576883,-0.10872588173112058,-1.5984703779227951
1784201630193634048,0.5170378684997559,2.9157211780548096,1.6990305185317993,-0.10722421109676361,-0.0775141566991806,0.550093948841095,-0.8314975500106812,-0.3811497986316681,-0.04818660020828247,-0.13844263553619385,0.6772248167451397,-0.23202041117119945,0.17440682111250133,-0.6761030394290641,-0.582476704379196,-0.09295369927641581,-1.5970207546166513
1784201630203553024,0.5269567966461182,2.759643316268921,1.723464846611023,-0.3995937407016754,-0.06491784006357193,0.5258116126060486,-0.8481201529502869,-0.3015677332878113,0.03255319595336914,-0.11568593978881836,0.6781030868417961,-0.2168615651946475,0.1700323272825069,-0.6813487994910924,-0.5536690251511781,-0.0763942530098154,-1.5972868754445668
1784201630213473024,0.536876916885376,2.5917065143585205,1.5950467586517334,-0.6403211355209351,-0.05445979908108711,0.5027337670326233,-0.8627241253852844,-0.12490727007389069,-0.05244690179824829,-0.06787890195846558,0.6774832930498317,-0.20294140747384068,0.1656886581958556,-0.6872978755567763,-0.5267583271042637,-0.06304174818127102,-1.6021826406913475
1784201630223393024,0.5467967987060547,2.2892003059387207,1.5514764785766602,-0.7340404987335205,-0.044929806143045425,0.48081475496292114,-0.875670313835144,0.05840332433581352,-0.18615227937698364,-0.13238632678985596,0.6762170783464009,-0.18994903894580123,0.1615060717324784,-0.6932283923825923,-0.5015836919412152,-0.05126408904009325,-1.6087749363832866
1784201630233312256,0.5567159652709961,1.8440786600112915,1.4895843267440796,-0.8236127495765686,-0.03613829240202904,0.4620821177959442,-0.8861005306243896,0.01749204471707344,-0.2124483287334442,-0.09653496742248535,0.674147847342841,-0.17855444029727613,0.15832891076227437,-0.6989814461449044,-0.48034157641458336,-0.040760924258480054,-1.6169468763111747
1784201630243232000,0.5666358470916748,1.4348669052124023,1.555601716041565,-0.9328668713569641,-0.0276013296097517,0.4468821585178375,-0.8941669464111328,-0.008378906175494194,-0.2893199324607849,-0.09171867370605469,0.6713541029973153,-0.16865577564250916,0.15643451927805457,-0.7045333650158536,-0.4632770988823296,-0.030858407625259317,-1.6262959252402325
1784201630253151232,0.5765550136566162,1.2402251958847046,1.5835169553756714,-0.971653401851654,-0.018506133928894997,0.43422192335128784,-0.9006158113479614,-0.016009246930480003,-0.33133190870285034,-0.045474886894226074,0.6678846827535398,-0.159501647323681,0.15572836350888655,-0.7100970883056982,-0.44917434716179877,-0.020545419418221734,-1.6367376617265341
1784201630263070976,0.5864748954772949,1.1104117631912231,1.7514541149139404,-1.1077297925949097,-0.008314217440783978,0.4229334890842438,-0.9061225652694702,0.03474245220422745,-0.25371354818344116,0.06824725866317749,0.6638753475652458,-0.15042381757484835,0.15592109384769876,-0.715772813121238,-0.4366801552251991,-0.009175341504989687,-1.648029484327957
1784201630272991232,0.5963950157165527,1.398585557937622,1.9322912693023682,-1.116737723350525,0.0032282311003655195,0.4114777147769928,-0.9114141464233398,0.013159703463315964,-0.08136904239654541,0.21303462982177734,0.6593285740992889,-0.14071719439545755,0.156497952888618,-0.7217984770034932,-0.42407478903542445,0.0035419876262598035,-1.6604345878211775
1784201630282910208,0.606313943862915,2.0719046592712402,2.160780668258667,-0.9794219136238098,0.01694541797041893,0.3955482840538025,-0.9182888269424438,0.09003396332263947,0.01064068078994751,0.16807520389556885,0.6550895762909922,-0.12864752519089895,0.1559018774902834,-0.728012339576175,-0.40666474705905475,0.01845116090995139,-1.672342418301273
1784201630292829952,0.6162338256835938,2.6729867458343506,2.2768208980560303,-0.9508398175239563,0.03321147337555885,0.3732641041278839,-0.9271304607391357,0.16123127937316895,-0.03989008069038391,0.11405062675476074,0.651338560442156,-0.11350101202997381,0.15346754818770958,-0.7343863562567065,-0.3825249524657158,0.0358064814701747,-1.6835811218443242
1784201630302749184,0.6261529922485352,2.6067183017730713,2.129456043243408,-0.9970729351043701,0.049773383885622025,0.34848618507385254,-0.9359914660453796,0.2541206479072571,-0.21579575538635254,0.22636622190475464,0.6475181354649039,-0.09751143611038628,0.14998598756785658,-0.7407536737538605,-0.3559555656668132,0.05312713912740992,-1.6953550550437668
1784201630312668928,0.6360728740692139,2.5756654739379883,2.124232530593872,-0.8627918362617493,0.06609271466732025,0.3243812918663025,-0.9436146020889282,0.38230204582214355,-0.439936101436615,0.20632517337799072,0.6437099488201076,-0.0820436074536815,0.14649757755488457,-0.7466223411821444,-0.33035758833141604,0.06992786110836596,-1.7069055304958445
1784201630322589184,0.6459929943084717,2.6650471687316895,2.103616952896118,-0.8043028712272644,0.08314269781112671,0.29978978633880615,-0.9503753781318665,0.3699365258216858,-0.6759341955184937,0.06472474336624146,0.6401569370927568,-0.06634397462100912,0.14286629893885316,-0.7519221203030676,-0.3044722828375776,0.08726189659477708,-1.717629465853825
1784201630332508160,0.655911922454834,2.950930595397949,2.1527938842773438,-0.7239481210708618,0.10080907493829727,0.2736620604991913,-0.9565284252166748,0.3350735008716583,-0.5569872856140137,0.026108503341674805,0.6365853394920353,-0.05003683759899888,0.13867987631182827,-0.7569830544441791,-0.2771983923089792,0.1050029541445122,-1.7284984558503518
1784201630342427904,0.6658318042755127,3.682368278503418,2.1874167919158936,-0.6274511218070984,0.11959975957870483,0.2418040633201599,-0.9629260897636414,0.36262375116348267,-0.4224376082420349,-0.012522459030151367,0.6333184177680388,-0.0315984220555944,0.13243293223004776,-0.7618208266678537,-0.2442246511944425,0.1235716578609902,-1.7393085044037595
1784201630352348160,0.6757519245147705,4.762180805206299,2.207972526550293,-0.6878092885017395,0.1392412781715393,0.20179937779903412,-0.9694786667823792,0.3401898741722107,-0.3124561309814453,0.08485037088394165,0.6298603693735053,-0.010323653475749381,0.12310195163731968,-0.7668215263633661,-0.2031947438448373,0.14264938160963148,-1.7517275822240885
1784201630362267136,0.6856708526611328,6.306178092956543,2.214218854904175,-0.6449698805809021,0.15967418253421783,0.14845097064971924,-0.9759438633918762,0.38707873225212097,-0.29693424701690674,0.0946115255355835,0.6259696310563196,0.01536388533888025,0.10859101325570962,-0.7720971590227884,-0.1490017064522091,0.16217315555400313,-1.7669514775772994
1784201630372187136,0.6955909729003906,8.043490409851074,2.303060293197632,-0.7228354215621948,0.18134041130542755,0.07953593134880066,-0.9801988005638123,0.31550103425979614,-0.007194012403488159,0.18138593435287476,0.6211322631870323,0.04624035527016912,0.08810463703336364,-0.7773636695020408,-0.07962003138912459,0.1829353477827523,-1.7859948203680278
1784201630382106112,0.7055099010467529,10.057317733764648,2.1483240127563477,-0.7635981440544128,0.20294742286205292,-0.008322189562022686,-0.9791542887687683,0.3009130358695984,0.40277713537216187,0.1636635661125183,0.6146675099211079,0.08278839834604956,0.059740661890406915,-0.7821514276359863,0.008322285419629864,0.20437422127963764,-1.8103178157507482
1784201630392026112,0.7154300212860107,11.13733959197998,1.992925763130188,-1.064534068107605,0.22386226058006287,-0.11034566909074783,-0.9683540463447571,0.27490177750587463,0.5690401196479797,0.3492134213447571,0.6052349167901555,0.12332689440586067,0.02476816308784348,-0.7860457085673108,0.11057083589454604,0.22718703047071526,-1.8418948802449453
1784201630401946112,0.7253499031066895,11.196849822998047,1.8628721237182617,-1.2875367403030396,0.2444985955953598,-0.21507304906845093,-0.945496678352356,0.2893911600112915,0.4047092795372009,0.5811015367507935,0.592563572478686,0.16459226364226157,-0.012690016853729827,-0.7884267107669718,0.21676663584053946,0.25304946267891054,-1.8802533631396503
1784201630411865088,0.7352688312530518,10.54191780090332,1.5263437032699585,-1.736048698425293,0.26493722200393677,-0.31239667534828186,-0.912259042263031,0.35780447721481323,0.11004987359046936,0.6410645842552185,0.5768505477564297,0.20362546374343546,-0.04906259790233311,-0.7895397358818051,0.31771491937679436,0.28264372440654684,-1.925210980397247
1784201630421785088,0.7451889514923096,8.730335235595703,1.1197253465652466,-2.0033645629882812,0.28373074531555176,-0.3939697742462158,-0.8742337822914124,0.47399020195007324,-0.08114314079284668,0.6283078789710999,0.5592161529716193,0.23717125354451318,-0.08144269849627606,-0.7901861863692613,0.40494671198606585,0.31382295494973894,-1.9747749061648996
1784201630431704064,0.7551078796386719,6.834308624267578,0.9845840334892273,-2.139472723007202,0.3021242916584015,-0.4539502263069153,-0.83824223279953,0.5105435252189636,-0.3928362727165222,0.6347967982292175,0.5418726893611477,0.263799883100616,-0.10624735350254368,-0.7908824264687799,0.4711937069325015,0.34593266059023925,-2.0240454513397292
1784201630441624064,0.7650279998779297,5.352095127105713,1.0178085565567017,-2.1746373176574707,0.32141920924186707,-0.49739938974380493,-0.8057813048362732,0.37984421849250793,-0.6972569823265076,0.4542340636253357,0.5255226152607537,0.28566446719924404,-0.1245196905189038,-0.7916543613087572,0.5205984415754872,0.3795502986302456,-2.071754906332141
1784201630451544064,0.7749478816986084,4.808072090148926,0.7817317843437195,-2.1078619956970215,0.34037917852401733,-0.529792070388794,-0.776828408241272,0.24861007928848267,-0.5002524852752686,0.456149697303772,0.510184190000751,0.3039444185042983,-0.1385769880398585,-0.7925441718323165,0.5583553503852416,0.4129686360178382,-2.117634355385619
1784201630461463040,0.7848668098449707,5.393716812133789,0.9178425073623657,-1.8944473266601562,0.35818955302238464,-0.5617461800575256,-0.7457489967346191,0.31775954365730286,-0.18080753087997437,0.28436899185180664,0.4949119615779979,0.3218406853599938,-0.15344080863057302,-0.7924245928889735,0.5964949284060326,0.44777066509229135,-2.1648069675866437
1784201630471383040,0.7947869300842285,6.1279449462890625,0.8602505922317505,-1.9448531866073608,0.37628933787345886,-0.5968046188354492,-0.7086822986602783,0.28997039794921875,0.11178874969482422,0.20289921760559082,0.4785184071700548,0.34128687182235573,-0.17082779594722924,-0.7907978368370708,0.6395128176349968,0.4881159134854615,-2.217797840042064
1784201630481302016,0.8047058582305908,7.271664619445801,0.773632824420929,-2.206089973449707,0.39582955837249756,-0.6346414685249329,-0.6637387275695801,0.26576098799705505,0.29241734743118286,0.22277498245239258,0.45929310804779083,0.36267351584886426,-0.191307506301078,-0.7879842060594167,0.6875445116347223,0.5377413369940198,-2.282778997937951
1784201630491222016,0.8146259784698486,7.821572303771973,0.5964250564575195,-2.4341771602630615,0.41606423258781433,-0.6739910244941711,-0.6104316115379333,0.21027857065200806,0.27356988191604614,0.16786569356918335,0.4364921930713531,0.38523538840156396,-0.2153552661154153,-0.7840219657990578,0.7395980060135403,0.5982632730439548,-2.363545218562304
1784201630501142016,0.8245458602905273,7.603242874145508,0.5144674181938171,-2.723482370376587,0.4379160404205322,-0.7078226804733276,-0.5542712211608887,0.2622334361076355,0.30778300762176514,0.27843815088272095,0.4116990256233953,0.4071174229875788,-0.238997478890494,-0.7795123262126737,0.7864110738527266,0.6686599766685634,-2.4559802505593353
1784201630511061248,0.8344650268554688,6.998300552368164,0.5409019589424133,-3.084756374359131,0.46247389912605286,-0.7330943942070007,-0.498688668012619,0.26076212525367737,0.177201509475708,0.22839447855949402,0.3856547434133194,0.4277977307773771,-0.2600860860711011,-0.774993331617152,0.8228606225496443,0.7477379116419224,-2.5571821114969415
1784201630520980992,0.8443849086761475,6.308764934539795,0.4799519181251526,-3.051971197128296,0.48854154348373413,-0.7495794892311096,-0.44660693407058716,0.29084688425064087,-0.14254087209701538,0.09527331590652466,0.35981294631766036,0.44668862776646395,-0.27778732096873204,-0.770608936806894,0.8474265514637641,0.8302108596272517,-2.660360822381855
1784201630530899968,0.8543038368225098,6.184454917907715,0.26726096868515015,-2.986196756362915,0.5139290690422058,-0.7603119015693665,-0.3972441852092743,0.38551557064056396,-0.30533140897750854,-0.029010117053985596,0.334616908504489,0.46380471165073495,-0.29370580734217777,-0.7659332517704514,0.8637931306830172,0.9127649641270321,-2.7629025920511188
1784201630540820224,0.8642239570617676,6.997230052947998,-0.07045624405145645,-3.111708164215088,0.5381999611854553,-0.7683836817741394,-0.34630510210990906,0.3000262975692749,-0.14758610725402832,-0.21347883343696594,0.3075063033268258,0.4795837818360558,-0.3112022665611931,-0.7606525794797098,0.8763117751613568,0.9990390398361801,-2.8738446246219342
1784201630550738944,0.8741428852081299,8.036445617675781,-0.28041985630989075,-3.3282134532928467,0.5633794069290161,-0.7740696668624878,-0.2888246774673462,0.1902521252632141,0.22905629873275757,-0.3877194821834564,0.2766218900184907,0.49555210705726077,-0.33168625244412164,-0.7535865065098555,0.8852443201040834,1.097068445547447,-3.0018532622772893
1784201630560657920,0.8840618133544922,9.089929580688477,-0.6279190182685852,-3.4492313861846924,0.5893895626068115,-0.7760536670684814,-0.22441188991069794,0.2501184940338135,0.36078572273254395,-0.39358431100845337,0.2413767164036307,0.5112563561708938,-0.35554323956226574,-0.7442736412429154,0.8883841277254109,1.206991419804697,3.1348587360720535
1784201630570577920,0.8939816951751709,9.31391716003418,-0.885266125202179,-3.6442155838012695,0.6163065433502197,-0.7716163992881775,-0.15739937126636505,0.29391080141067505,0.29592353105545044,-0.33793145418167114,0.2026296362862538,0.5255341612147303,-0.38093852587875804,-0.7332400732909107,0.8813783710635172,1.3207499095063946,2.978566871732262
1784201630580497152,0.9039008617401123,8.508015632629395,-0.9454644322395325,-3.8209898471832275,0.6445564031600952,-0.7587417364120483,-0.09411873668432236,0.32048577070236206,0.2453596591949463,-0.12601985037326813,0.16321202254841694,0.5381683762564673,-0.4041230374739499,-0.7214023639350091,0.8613792673089832,1.4258001226906658,2.8303404371668592
1784201630590416896,0.913820743560791,6.9481401443481445,-1.0599308013916016,-3.8406176567077637,0.6736156344413757,-0.7378501892089844,-0.042649418115615845,0.302473783493042,0.10972219705581665,0.23056137561798096,0.1260558246332288,0.548516253483706,-0.42166955129780914,-0.7109392337725127,0.829879721495123,1.5075665516939052,2.708369197113208
1784201630600337152,0.9237408638000488,5.41695499420166,-1.0247055292129517,-3.6287903785705566,0.7012370824813843,-0.71291184425354,-0.004824216943234205,0.3130451440811157,-0.08623671531677246,0.4691491723060608,0.09336516374343155,0.5565892825906056,-0.43335466086843355,-0.7026343637576126,0.7936418453923493,1.563916854758134,2.6170531493868014
1784201630610255872,0.9336597919464111,4.025418758392334,-0.9095268249511719,-3.525766611099243,0.7271966934204102,-0.6860969662666321,0.021351438015699387,0.24466603994369507,-0.28840553760528564,0.5375322103500366,0.06525592161814654,0.5632667795141622,-0.439779779162895,-0.6964667378884816,0.7561104594596535,1.6001491912931365,2.55197094233533
1784201630620175872,0.9435796737670898,3.361823558807373,-0.9278889894485474,-3.3470993041992188,0.7513962984085083,-0.6586817502975464,0.03926985710859299,0.2325972318649292,-0.3198033571243286,0.5112520456314087,0.04068397181037465,0.5690258695417488,-0.4425432046861764,-0.6918886698194576,0.7190653692551847,1.6230113334525733,2.5049080425071315
1784201630630095104,0.9534988403320312,3.365938425064087,-0.8162583112716675,-3.2846763134002686,0.7739842534065247,-0.630852997303009,0.05452531948685646,0.28238171339035034,-0.32648342847824097,0.3096257448196411,0.017319237372703692,0.5742267246346402,-0.44443934149786435,-0.6873408531515215,0.6826520476200876,1.6411277122462808,2.4637002546646034
1784201630640014848,0.96341872215271,3.4148433208465576,-0.7187442183494568,-3.2475218772888184,0.7953951954841614,-0.6020631790161133,0.06975829601287842,0.26338160037994385,-0.27162450551986694,0.20702087879180908,-0.005722418383337305,0.579412184852844,-0.4462742091426226,-0.6819736126698305,0.6460825999759716,1.6582751895635426,2.424132035737854
1784201630649935104,0.9733388423919678,3.4368386268615723,-0.6188951134681702,-3.241640567779541,0.8157333731651306,-0.5721756219863892,0.08481628447771072,0.26834243535995483,-0.3101942539215088,0.1452861875295639,-0.02865080665325397,0.584493399292062,-0.4480799147071225,-0.6758482517250014,0.6091562024198748,1.6743995499444877,2.3857546653264268
1784201630659853824,0.9832577705383301,3.4173903465270996,-0.5882691144943237,-3.1661417484283447,0.8349090218544006,-0.5413539409637451,0.09931261837482452,0.2773805260658264,-0.3665745258331299,0.08788229525089264,-0.051262645353996494,0.5894380935261323,-0.4496877188491056,-0.669115761558449,0.5720466203446873,1.689190260736902,2.3491123081450542
1784201630669774080,0.9931778907775879,3.231231927871704,-0.5756723880767822,-3.1432764530181885,0.8527783751487732,-0.5100302696228027,0.11241976171731949,0.3198748230934143,-0.41036456823349,0.04207538813352585,-0.07334328470186202,0.5940189086217824,-0.4509450263793699,-0.6621260372838524,0.5352200053998771,1.7018681796434674,2.314811274186659
1784201630679693056,1.0030968189239502,3.0621204376220703,-0.5658683776855469,-3.109225034713745,0.869655430316925,-0.47808629274368286,0.1230158880352974,0.32909029722213745,-0.41646021604537964,0.0654759407043457,-0.09478384245560782,0.598220703422004,-0.45126481444526656,-0.6553686421933697,0.49847458486024177,1.7113176371433727,2.284161425329787
1784201630689612800,1.013016700744629,3.0770983695983887,-0.551886796951294,-3.0563137531280518,0.8853682279586792,-0.44566580653190613,0.13230788707733154,0.34241509437561035,-0.46874767541885376,0.09176744520664215,-0.11587628073558762,0.6020891238824868,-0.4512678004442678,-0.6483971451746697,0.46191787971384707,1.7191368472803876,2.2550633600878434
1784201630699533056,1.0229368209838867,3.0350120067596436,-0.4191758930683136,-2.896371603012085,0.8995487689971924,-0.4133472144603729,0.14126655459403992,0.29295623302459717,-0.45284849405288696,0.1385338455438614,-0.1363517136080661,0.6057475600345504,-0.45133487318969356,-0.6409173085943273,0.42612696532066496,1.7265656795098612,2.2268019226533706
1784201630709452032,1.032855749130249,3.120404005050659,-0.3005496561527252,-2.6759226322174072,0.9118255972862244,-0.3820076584815979,0.15048053860664368,0.28330379724502563,-0.4010581374168396,0.1544053554534912,-0.15592315636948487,0.6091065957204622,-0.45191749325002806,-0.632809436914581,0.39196774484001445,1.734354233605759,2.198727110303358
1784201630719372032,1.0427758693695068,3.162949562072754,-0.19728776812553406,-2.5054800510406494,0.9223464727401733,-0.35167890787124634,0.15999670326709747,0.27157747745513916,-0.41681477427482605,0.16184163093566895,-0.1747924612478609,0.6120541449970512,-0.4531976087309625,-0.6240586791665269,0.3593639676126848,1.7425541871481405,2.170208221581051
1784201630729291008,1.0526947975158691,3.1990692615509033,-0.08513007313013077,-2.2695579528808594,0.9312604665756226,-0.32242387533187866,0.16969555616378784,0.2779983878135681,-0.42347148060798645,0.18176016211509705,-0.19289848746211896,0.6146132798830751,-0.455080532549152,-0.6147701221520733,0.3282890091145421,1.7510400786652796,2.1415122855031536
1784201630739210752,1.0626146793365479,3.0245778560638428,-0.0410575345158577,-2.022911787033081,0.9385855793952942,-0.29498711228370667,0.17899562418460846,0.3284125328063965,-0.43462711572647095,0.17834994196891785,-0.20981375739956104,0.6166898907902836,-0.45737445587770004,-0.6053761239843068,0.2994420224200471,1.7592413622273115,2.1136245381535597
1784201630749131008,1.0725347995758057,2.990668296813965,-0.09705448895692825,-1.7458338737487793,0.944648027420044,-0.2696094214916229,0.18695098161697388,0.348183274269104,-0.4158611297607422,0.2073209136724472,-0.2255951489820695,0.6180644945307079,-0.45986059999419054,-0.596348248921869,0.2729874127815506,1.7661770816005904,2.0869586948293053
1784201630759049984,1.082453727722168,2.9476287364959717,-0.09389963746070862,-1.482196569442749,0.9495975375175476,-0.2462187558412552,0.1940116435289383,0.31630194187164307,-0.4157532751560211,0.17100903391838074,-0.24061222028559096,0.6186191853472067,-0.4629428978764269,-0.5874519625131843,0.24877696053424664,1.7723320265493585,2.0601436665200525
1784201630768969984,1.0923738479614258,2.731233835220337,-0.17352761328220367,-1.2674744129180908,0.9537143707275391,-0.22478045523166656,0.19975677132606506,0.2453213334083557,-0.40684187412261963,0.2030753195285797,-0.2546154632517673,0.618575062473828,-0.4660936368315394,-0.5790446051042548,0.22671772419586564,1.7772629904087374,2.034542992210977
1784201630778888960,1.102292776107788,2.577153205871582,-0.21394866704940796,-1.1054542064666748,0.9573407173156738,-0.20485933125019073,0.2037935107946396,0.16974985599517822,-0.39590972661972046,0.1866636574268341,-0.2677570942045269,0.6180528351637684,-0.4689429084186573,-0.5713226293806553,0.20631998552941933,1.7805401011461597,2.010674044999838
1784201630788808960,1.112212896347046,2.5738840103149414,-0.0941024124622345,-0.8912016153335571,0.9602448344230652,-0.1864732950925827,0.20774361491203308,0.08528727293014526,-0.3497052788734436,0.19238755106925964,-0.2800136690328903,0.617279128942368,-0.4720574999152049,-0.563667006678846,0.1875712408161383,1.7838571457519128,1.987342981341523
1784201630798728960,1.1221327781677246,2.551326274871826,0.0395180806517601,-0.7566651105880737,0.9623274207115173,-0.16962097585201263,0.21249617636203766,0.007200777530670166,-0.27671384811401367,0.16772234439849854,-0.29142209417395165,0.6163190478785658,-0.47581395408820143,-0.5557203010471723,0.17044505567670767,1.7881237231180993,1.9637264438223365
1784201630808647936,1.132051706314087,2.515157461166382,0.21782442927360535,-0.6712825298309326,0.9636299014091492,-0.15406358242034912,0.21836154162883759,-0.05689162015914917,-0.21970047056674957,0.19490742683410645,-0.301835181376244,0.6154367719035617,-0.4800191152291201,-0.5474620764060568,0.1546796518708451,1.7936361176011975,1.9404231673245196
1784201630818567936,1.1419718265533447,2.4451894760131836,0.38620737195014954,-0.5590662360191345,0.9641333818435669,-0.14000816643238068,0.2254878133535385,-0.09218502044677734,-0.24382665753364563,0.23145189881324768,-0.3111605204983605,0.6146141198174371,-0.484761171858088,-0.5389205062189506,0.14046966942115466,1.8005430036856513,1.9174130742744275
1784201630828486912,1.151890754699707,2.175501585006714,0.5516815185546875,-0.4529222249984741,0.9638621807098389,-0.12783323228359222,0.2337268590927124,-0.10972100496292114,-0.3181048631668091,0.2761150598526001,-0.3189986163409192,0.6140126455167362,-0.4897467746596665,-0.530449228810737,0.1281839755363634,1.8086942924595704,1.8958886606032188
1784201630838406912,1.1618108749389648,1.737565517425537,0.6413701176643372,-0.38077035546302795,0.9629680514335632,-0.11765579134225845,0.2425895631313324,-0.14120596647262573,-0.37779709696769714,0.2769416570663452,-0.324971892405128,0.6139352547321745,-0.4943463226846859,-0.522588285339276,0.11792894545454327,1.8175799152573802,1.8777210048371114
1784201630848325888,1.1717298030853271,1.35135018825531,0.7066500186920166,-0.26218563318252563,0.961599588394165,-0.10976626724004745,0.2515513300895691,-0.15845298767089844,-0.38185665011405945,0.25851958990097046,-0.3289969782931564,0.6143644886396372,-0.49832914218712365,-0.5157378397755353,0.1099878959264757,1.826659437113376,1.863563045209981
1784201630858245888,1.1816496849060059,0.9854996204376221,0.7951880693435669,-0.21566134691238403,0.959804356098175,-0.10386233031749725,0.2607460916042328,-0.138530433177948,-0.36104246973991394,0.1786459982395172,-0.3313623200724751,0.6152502947589322,-0.5018367439342232,-0.5097313697252165,0.10404997767197474,1.8360601969196118,1.8527395490208105
1784201630868165888,1.1915698051452637,0.5306612849235535,0.7136631011962891,-0.15102988481521606,0.9577843546867371,-0.09981411695480347,0.2696045935153961,-0.11314922571182251,-0.31905490159988403,0.10760799050331116,-0.33212370355276594,0.6166575616250991,-0.5045153598787748,-0.504867981910389,0.09998060325711892,1.8451841206050998,1.8459274363002833
1784201630878084864,1.201488733291626,0.28320443630218506,0.6474317312240601,-0.08195740729570389,0.9558934569358826,-0.09746576845645905,0.27707019448280334,-0.061881184577941895,-0.26586124300956726,0.031035244464874268,-0.3318128712905749,0.618192099219873,-0.5063335110865005,-0.5013631812871291,0.09762074625054405,1.8529196938925119,1.8424559916656122
1784201630888005120,1.2114088535308838,0.2362486571073532,0.6312767267227173,-0.005459166131913662,0.9539672136306763,-0.09633229672908783,0.2840188145637512,-0.05357658863067627,-0.22213387489318848,-0.026572585105895996,-0.3309384583947256,0.6196280707393573,-0.5080063638823467,-0.49846797966664885,0.09648191287304218,1.8601636415782041,1.8400954742289548
1784201630897924864,1.2213287353515625,0.2804023325443268,0.6100109815597534,0.023096611723303795,0.9520384073257446,-0.09577392786741257,0.2906027138233185,-0.07885432243347168,-0.17685484886169434,-0.03465190529823303,-0.3299959981289764,0.6208086389242288,-0.5098019195044435,-0.49578340467165233,0.09592095422560899,1.867055919018623,1.8375703675200785
1784201630907844096,1.231247901916504,0.3653848469257355,0.6800356507301331,0.007863596081733704,0.950009286403656,-0.09512212127447128,0.2973792850971222,-0.13810425996780396,-0.13748283684253693,-0.03286811709403992,-0.3291524810874882,0.6219113249482711,-0.5117772417880382,-0.49291898221426994,0.09526615790184793,1.8741619309200106,1.8345099372691032
1784201630917763840,1.2411677837371826,0.6078357696533203,0.793014645576477,0.08777916431427002,0.9476256966590881,-0.09416787326335907,0.30518513917922974,-0.1826416254043579,-0.13169273734092712,-0.03383806347846985,-0.3285368125922801,0.6228858621446098,-0.5143984585379731,-0.48935774668628296,0.09430760157211242,1.8823599269837585,1.8297336171186636
1784201630927682816,1.251086711883545,0.8313820362091064,0.8554173111915588,0.2071540355682373,0.9448220729827881,-0.09352704882621765,0.3139493763446808,-0.15955889225006104,-0.16391921043395996,-0.01408359408378601,-0.32814007361928615,0.6233794609038107,-0.5180470462054578,-0.48512834802340415,0.09366394226519097,1.89160230424537,1.8224380420222634
1784201630937603072,1.2610068321228027,0.997766375541687,0.8457764983177185,0.25398337841033936,0.9418138861656189,-0.09293925762176514,0.3230307996273041,-0.1087450385093689,-0.17491352558135986,-0.003847479820251465,-0.32812152833149777,0.6233488818385113,-0.5224476743571653,-0.4804381900883915,0.09307357431511844,1.9012107166631484,1.8129636880035083
1784201630947522048,1.270925760269165,1.0638295412063599,0.8742882609367371,0.2966373860836029,0.9386696219444275,-0.0923047810792923,0.3322339951992035,-0.06743842363357544,-0.1215471476316452,-0.02893492579460144,-0.32832587124055135,0.6229972763074297,-0.5272488884893111,-0.4754841951823072,0.0924363603159128,1.910978048382077,1.8022585368685575
1784201630957442048,1.2808458805084229,0.9807916283607483,0.8853446841239929,0.24105587601661682,0.9353634715080261,-0.09159828722476959,0.34162119030952454,-0.05967682600021362,-0.059753626585006714,-0.07071661949157715,-0.328405331994465,0.6227059663868874,-0.5320224398716982,-0.4704671944029063,0.091726864790528,1.9209726128544515,1.7917143082389777
1784201630967362048,1.2907657623291016,1.003369688987732,0.8174622654914856,0.2612764537334442,0.9321163296699524,-0.09062809497117996,0.3506363034248352,-0.08754223585128784,-0.03753047436475754,-0.12471470236778259,-0.3285089573106462,0.6224578635252263,-0.5365299308210149,-0.4655789319729266,0.09075261927244378,1.9305943523067992,1.7816516473994255
1784201630977280768,1.3006846904754639,1.1247395277023315,0.7257741689682007,0.3524220883846283,0.9290639758110046,-0.08991498500108719,0.35882556438446045,-0.10029798746109009,-0.02420547604560852,-0.19186386466026306,-0.32892468861414365,0.6216670134232978,-0.5412419969587722,-0.4608643161802975,0.09003658694834187,1.9393695411172338,1.7706600135038615
1784201630987201024,1.3106048107147217,1.3165230751037598,0.6591916680335999,0.3779303729534149,0.9262022972106934,-0.08902380615472794,0.36636587977409363,-0.13405758142471313,-0.005229726433753967,-0.2059808075428009,-0.3299218607793083,0.6202483082497213,-0.546328638327295,-0.45603572914179186,0.08914181635088979,1.9474667538287738,1.7579794724181417
1784201630997120000,1.320523738861084,1.4487204551696777,0.6345169544219971,0.38564369082450867,0.9234467148780823,-0.08759699761867523,0.3735947608947754,-0.1622161865234375,0.047588445246219635,-0.174925297498703,-0.33148152688460747,0.6183815251256841,-0.5517260808010861,-0.4509131606405593,0.08770941148276247,1.9552323329579844,1.7437556955956386
1784201631007040000,1.3304438591003418,1.5488907098770142,0.6486316919326782,0.3453599214553833,0.9207102060317993,-0.0854458436369896,0.3807774782180786,-0.16550707817077637,0.0694240927696228,-0.1284582018852234,-0.3334547859070375,0.6163072060759179,-0.5572738698238687,-0.44544257608484944,0.0855501577300727,1.9629453677389301,1.7285314108674543
1784201631016960000,1.3403637409210205,1.5398560762405396,0.7353498935699463,0.2920117974281311,0.9177728891372681,-0.08250408619642258,0.38844048976898193,-0.16479742527008057,0.025726132094860077,-0.07821404933929443,-0.3355275884015801,0.614365913753515,-0.5628274722264562,-0.43954634196847736,0.08259797399585264,1.9711774104483413,1.7130519191525482
1784201631026878720,1.3502826690673828,1.4700506925582886,0.8113903403282166,0.27124127745628357,0.9145029187202454,-0.07925008982419968,0.3967413902282715,-0.16988933086395264,-0.03139139711856842,-0.023496180772781372,-0.3372969111218424,0.6127399353394751,-0.5682609176714388,-0.4334282454692105,0.07933328138935403,1.9801246269698498,1.6981604495290694
1784201631036798976,1.3602027893066406,1.3835774660110474,0.8640497326850891,0.24917788803577423,0.9109134674072266,-0.07603137195110321,0.4055315852165222,-0.15723609924316406,-0.06671460717916489,0.022797822952270508,-0.3386287321839217,0.6114119032400491,-0.5735340212492065,-0.42727600118837356,0.07610481553608044,1.9896449059522283,1.6841448742727776
1784201631046717952,1.370121717453003,1.2907838821411133,0.8652217984199524,0.23073230683803558,0.9071885943412781,-0.07282586395740509,0.4143727421760559,-0.14481395483016968,-0.04353766143321991,0.04043057560920715,-0.33966528543385077,0.6102953098137353,-0.5785550995201938,-0.421237429953566,0.07289039261513708,1.9992624294691292,1.6710324993713506
1784201631056637952,1.3800418376922607,1.1846815347671509,0.9052541851997375,0.20292121171951294,0.9033222794532776,-0.06972096115350723,0.4232586920261383,-0.1369495987892151,0.024188727140426636,0.07297241687774658,-0.34036691393554785,0.6094067727061976,-0.583311862929831,-0.41535651480962144,0.06977756941082881,2.0089752946554844,1.6589198047215905
1784201631066557952,1.3899617195129395,1.0499680042266846,0.9445597529411316,0.10746312886476517,0.899234414100647,-0.06645911186933517,0.43238914012908936,-0.14398550987243652,0.07987158000469208,0.06738194823265076,-0.3406827251715436,0.6089567102405621,-0.5876787333867584,-0.4095615052148551,0.066508130552543,2.018999911872539,1.6481822705710811
1784201631076476928,1.3998808860778809,0.9181159138679504,0.9375189542770386,0.052645813673734665,0.8950541019439697,-0.06290602684020996,0.44149860739707947,-0.18138527870178223,0.06563735753297806,0.017500996589660645,-0.3407062409175147,0.6089839233832101,-0.5915132121651866,-0.40394302506484725,0.06294758828575006,2.0290411969955544,1.6390471429363327
1784201631086396928,1.4098007678985596,0.7652712464332581,0.899074375629425,0.050476402044296265,0.8909178376197815,-0.059705816209316254,0.4502229392528534,-0.21448040008544922,0.009473878890275955,-0.031201303005218506,-0.3403949068452441,0.6092475961365531,-0.5949191821821885,-0.39877296731081796,0.05974134780185116,2.0387126167826253,1.63134629643985
1784201631096315904,1.4197196960449219,0.7165144681930542,0.9022534489631653,0.03790368512272835,0.8868092894554138,-0.056830428540706635,0.4586281478404999,-0.23684585094451904,-0.0060205236077308655,-0.04519110918045044,-0.3398355597009511,0.6096489423528837,-0.5980319714805803,-0.3939515205262992,0.05686106528238727,2.048082698592837,1.6246486061243115
1784201631106235904,1.4296398162841797,0.9238224029541016,0.9016188383102417,0.07583296298980713,0.8825995922088623,-0.05369076877832413,0.4670500159263611,-0.2195134162902832,0.05141722783446312,-0.04839444160461426,-0.33942782183100184,0.6098923686681869,-0.6012955219178885,-0.3889265981907499,0.053716596432545914,2.057510940563035,1.617345446200957
1784201631116155904,1.4395596981048584,1.3243484497070312,0.9000717401504517,0.12116128951311111,0.8783140778541565,-0.049328576773405075,0.47553279995918274,-0.15024083852767944,0.10505368560552597,-0.031837642192840576,-0.3399152396428699,0.6094362094432835,-0.6052717571645454,-0.38300307495756286,0.04934860521097068,2.0670248108064517,1.6070560977659405
1784201631126075136,1.4494788646697998,1.7216569185256958,0.9712351560592651,0.1344616562128067,0.8737644553184509,-0.043247830122709274,0.4844227731227875,-0.09486418962478638,0.12357009202241898,0.024183213710784912,-0.34141409752858765,0.6082397270414313,-0.610127710130371,-0.3757992435097354,0.04326132181204865,2.0770181713377607,1.5931804102580078
1784201631135994880,1.4593987464904785,2.1220362186431885,1.0454617738723755,0.15014877915382385,0.8687707185745239,-0.03515094518661499,0.4939657747745514,-0.0647849440574646,0.08097308874130249,0.11879676580429077,-0.3438417197593043,0.6064253640920692,-0.6158174807972673,-0.3671376990535267,0.03515818839818718,2.087792538092913,1.5758831162776716
1784201631145913856,1.4693176746368408,2.433837413787842,1.0790958404541016,0.1850191354751587,0.8633800745010376,-0.025268271565437317,0.5039212107658386,-0.04816389083862305,-0.04595974087715149,0.18507426977157593,-0.3470992756670266,0.6039203475877011,-0.6222867593696518,-0.35715760872367447,0.02527096109438657,2.0991151516315454,1.555353470722703
1784201631155833856,1.4792377948760986,2.4948043823242188,1.1022777557373047,0.18247340619564056,0.8577914834022522,-0.01435872819274664,0.5137971639633179,-0.08235514163970947,-0.1796567589044571,0.24348121881484985,-0.35077252044531687,0.6009537036469798,-0.6290891948852234,-0.34649682629394163,0.01435922181167512,2.110463071106317,1.5331943993792505
1784201631165753856,1.4891576766967773,2.2700138092041016,1.1525475978851318,0.21360176801681519,0.851948082447052,-0.0036713597364723682,0.5236135125160217,-0.161335289478302,-0.2692168056964874,0.31067609786987305,-0.35401625457536134,0.5980783947611005,-0.6356956667443724,-0.33595502418194007,0.0036713679230691043,2.1218872963009257,1.5118889580469081
1784201631175673088,1.4990768432617188,1.9391953945159912,1.1589220762252808,0.32750874757766724,0.8457532525062561,0.005073061212897301,0.5335500836372375,-0.20068800449371338,-0.34021711349487305,0.3581583499908447,-0.3560598464651997,0.595439612017182,-0.6420488342831716,-0.32626117370543384,-0.005073082929665317,2.133596928947261,1.4927053484603892
1784201631185592832,1.5089967250823975,1.4611412286758423,1.149436116218567,0.4532245993614197,0.8395291566848755,0.010920071043074131,0.5432050824165344,-0.1910305619239807,-0.43950891494750977,0.3719714283943176,-0.356718335078614,0.593043645294061,-0.6479982830749346,-0.31804020390443194,-0.010920288443103254,2.145084629843335,1.476351039165997
1784201631195512064,1.5189158916473389,0.9906556606292725,1.1623724699020386,0.6441677212715149,0.8332479596138,0.012926631607115269,0.5527483224868774,-0.16740024089813232,-0.5118890404701233,0.3986523747444153,-0.35564056553170875,0.5909548670144082,-0.6535644668883793,-0.3116818882079797,-0.012926992035683078,2.156510360697694,1.46332711909519
1784201631205432064,1.5288357734680176,0.8792782425880432,1.2285528182983398,0.8511409163475037,0.8266516327857971,0.011722652241587639,0.5625920295715332,-0.14928334951400757,-0.5560036301612854,0.4585872292518616,-0.35320680271324334,0.5887370194455728,-0.6593062453757935,-0.3065109659038426,-0.011722920866999168,2.168360768817769,1.4516267988025018
1784201631215352064,1.5387558937072754,0.8407987952232361,1.3185181617736816,0.9732207655906677,0.819413959980011,0.009019270539283752,0.5731307864189148,-0.1537189483642578,-0.6257795095443726,0.4573866128921509,-0.3500591331943258,0.5861239805461493,-0.6656005300177456,-0.30148476192480256,-0.009019392776544639,2.181146233267863,1.4392809459157954
1784201631225271040,1.5486748218536377,0.6038605570793152,1.331489086151123,1.1024599075317383,0.8116831183433533,0.004672792740166187,0.5840792059898376,-0.18817853927612305,-0.6050298810005188,0.4083980917930603,-0.34606901654288197,0.5834526299852969,-0.6720287459916928,-0.2969790841320951,-0.004672809731865045,2.194549439940071,1.4275322875085883
1784201631235190784,1.5585947036743164,0.5231485366821289,1.2973628044128418,1.2550667524337769,0.8037937879562378,-0.0017829540884122252,0.5949051976203918,-0.12889766693115234,-0.5309624075889587,0.2991224527359009,-0.34132984068231614,0.5805225618403935,-0.6785618178302295,-0.29332795528850275,0.0017829549756858737,2.2079452469061907,1.4162773906782393
1784201631245110016,1.5685138702392578,0.6349728107452393,1.2718605995178223,1.3556336164474487,0.795903205871582,-0.008985145948827267,0.60535728931427,-0.04372119903564453,-0.43599164485931396,0.12032020092010498,-0.33657830018148926,0.5769787403276244,-0.6854007415838934,-0.28989040247459874,0.008985267251441009,2.2210416489221005,1.4038976982588196
1784201631255030016,1.5784337520599365,0.6173617243766785,1.2773350477218628,1.3739594221115112,0.7877897620201111,-0.015996282920241356,0.6157364845275879,0.050879061222076416,-0.3377177119255066,-0.0025773048400878906,-0.3319365403092115,0.5730701849662209,-0.692429639650146,-0.2862689074926121,0.01599696608187522,2.234216640077328,1.3905170881547724
1784201631264950016,1.5883538722991943,0.07677756994962692,1.3009551763534546,1.3958982229232788,0.7792853713035583,-0.02473563142120838,0.6261810660362244,0.10544979572296143,-0.40305978059768677,0.019387900829315186,-0.32637688304737056,0.5694612166398973,-0.6991455175732268,-0.2835272311407945,0.024738154834373895,2.2476874641566678,1.3789101394736432
1784201631274868992,1.5982728004455566,-1.3473073244094849,1.2148759365081787,1.3022284507751465,0.7708172798156738,-0.03900834918022156,0.6358612179756165,0.13936960697174072,-0.7234275341033936,0.15423911809921265,-0.31830156905710866,0.5674430000459286,-0.7042293972879508,-0.28417185279146223,0.039018250337154815,2.2605476845683636,1.3748878278284864
1784201631284788736,1.6081926822662354,-3.5117101669311523,1.1401383876800537,1.097241759300232,0.7624498009681702,-0.0638246238231659,0.6438916921615601,0.19603091478347778,-0.8981962203979492,0.35493332147598267,-0.3054489178156165,0.5685764281357695,-0.7061633673570664,-0.2911272037379905,0.0638680358084197,2.272090862724087,1.3854292033308828
1784201631294707968,1.6181118488311768,-5.657093048095703,1.0494028329849243,0.8113101720809937,0.7544065117835999,-0.10108361393213272,0.648577868938446,0.19308817386627197,-0.8024808764457703,0.439389169216156,-0.2868631447822992,0.5736279815510202,-0.7037328125869822,-0.3056480115484972,0.10125655625631184,2.280905968807183,1.4142995394971105
1784201631304627968,1.6280317306518555,-7.276895523071289,1.0990177392959595,0.6137702465057373,0.7461689710617065,-0.1487041413784027,0.6489369869232178,0.19992178678512573,-0.6681140661239624,0.332264244556427,-0.2630635674870527,0.5816424729952707,-0.6972521314391084,-0.32608149173006934,0.14925771594534593,2.2866119759947523,1.4585903249500505
1784201631314547968,1.6379518508911133,-8.712587356567383,0.9219232797622681,0.5067490339279175,0.7381911277770996,-0.20516610145568848,0.6426355838775635,0.21848911046981812,-0.5324742794036865,0.26097458600997925,-0.2348363570088204,0.5912022911489868,-0.6868752803937289,-0.35147405853696817,0.20663341486860473,2.287102969722716,1.5157054396969687
1784201631324466944,1.6478707790374756,-9.680375099182129,0.747761070728302,0.3852343261241913,0.731002926826477,-0.2680199444293976,0.6275347471237183,0.2014310359954834,-0.52061527967453,0.26501286029815674,-0.203148408443896,0.6010617707079434,-0.6726753352961476,-0.3807404457298813,0.2713371766632519,2.2801797985914174,1.5837475985323026
1784201631334386944,1.6577908992767334,-11.059272766113281,0.4618853032588959,0.11158613115549088,0.7250664830207825,-0.3353271484375,0.6015264987945557,0.16482603549957275,-0.546356201171875,0.18494194746017456,-0.168337132891936,0.6105658642421742,-0.6541961343577465,-0.41339969171954166,0.3419524603991891,2.263336554617277,1.6636798546305955
1784201631344305920,1.6677098274230957,-12.145197868347168,0.26606786251068115,0.07760313153266907,0.7183106541633606,-0.41179051995277405,0.5607656836509705,0.11198097467422485,-0.3724043667316437,0.30698633193969727,-0.12736586278602474,0.6181333480372111,-0.6311053780547926,-0.4509933872468235,0.4244180466803273,2.2336408476080822,1.7595278215414503
1784201631354225920,1.6776297092437744,-12.093425750732422,0.3466610014438629,0.21420398354530334,0.7143785953521729,-0.4807184040546417,0.5085007548332214,0.20865601301193237,-0.2783757746219635,0.48544150590896606,-0.08720314621489378,0.6240040062767936,-0.6040441772603554,-0.4880012608540999,0.5014738186962323,2.1894035576078266,1.8659273831129106
1784201631364145920,1.6875498294830322,-12.735363006591797,0.4596072733402252,0.23793621361255646,0.7105512619018555,-0.5422457456588745,0.4484272003173828,0.36812329292297363,-0.17001938819885254,0.8420239686965942,-0.0464269518712439,0.6282264659629333,-0.5740601895009884,-0.523097594635107,0.5731075981841681,2.133768429344213,1.9829769658626786
1784201631374064896,1.6974687576293945,-13.101840019226074,0.47124844789505005,-0.0722377598285675,0.707667350769043,-0.596855103969574,0.378115177154541,0.4419451355934143,-0.016914427280426025,0.8927131295204163,-0.004030143628351543,0.6306556699069551,-0.5397508839598886,-0.5576076035080131,0.6395757866792968,2.0615153133575075,2.1177699484246726
1784201631383985152,1.7073888778686523,-13.067547798156738,0.14823471009731293,-0.2589794099330902,0.7075491547584534,-0.6397584676742554,0.30013880133628845,0.40847867727279663,-0.15356123447418213,0.49173128604888916,0.03725893005621176,0.6309192332444145,-0.5020062938212925,-0.5903747748065762,0.6941839504535654,1.971984907474391,2.2675221044785543
1784201631393903872,1.7173078060150146,-13.3530855178833,-0.1991090625524521,-0.01852533407509327,0.7083346247673035,-0.6727763414382935,0.2136206328868866,0.48005032539367676,-0.16377145051956177,0.33813712000846863,0.07815829949171624,0.6272791888286008,-0.4618778354010972,-0.6221582235214272,0.7379550026907425,1.8637034169747242,2.4316948855871674
1784201631403823872,1.7272276878356934,-12.85755729675293,-0.551582396030426,0.2408851981163025,0.7080913782119751,-0.695656418800354,0.12111283093690872,0.4201890826225281,-0.10767292976379395,0.255367249250412,0.11847655382697339,0.619259388042889,-0.4208018822857296,-0.6522321141401809,0.7693332807457302,1.7401982967563119,2.6060004411929927
1784201631413743872,1.7371478080749512,-10.892096519470215,-0.5386608839035034,0.371977299451828,0.7062216401100159,-0.7072063684463501,0.033317893743515015,0.26289451122283936,-0.19075804948806763,0.1365734338760376,0.15491745143673336,0.6084715665140374,-0.38265036329309776,-0.6777474448474341,0.7855389717196842,1.617939046230901,2.7715786473556836
1784201631423662848,1.7470667362213135,-8.786578178405762,-0.6193722486495972,0.5728000998497009,0.7027992606163025,-0.710246205329895,-0.0402960479259491,0.23686754703521729,-0.25772565603256226,0.021893974393606186,0.18483475808287475,0.597154509120795,-0.35108185442406176,-0.6971257269014858,0.7898478929949382,1.513522539071689,2.9099751193567673
1784201631433583104,1.7569868564605713,-6.938583850860596,-0.7239270806312561,0.5325291752815247,0.6983062028884888,-0.7088267803192139,-0.09966470301151276,0.28899848461151123,-0.18527722358703613,-0.03629112243652344,0.20867957777100238,0.5863501064254335,-0.32613065151547416,-0.7115371894995542,0.7878335482196851,1.4290302492711706,3.0201017241071217
1784201631443501824,1.7669057846069336,-5.808934688568115,-0.8752334713935852,0.5581905841827393,0.6934581995010376,-0.7047318816184998,-0.14989565312862396,0.2760852575302124,-0.29716020822525024,0.049462318420410156,0.22773277334306388,0.5757320744844325,-0.3059162509057798,-0.7232465894947703,0.7820451811487231,1.3579148164243011,3.1093974701259435
1784201631453421824,1.7768256664276123,-4.90165901184082,-0.9840720295906067,0.6000180840492249,0.6876642107963562,-0.6997154951095581,-0.1936909705400467,0.2782018780708313,-0.4145575761795044,0.1491963267326355,0.24360373237113,0.5651474427434536,-0.28941817609580867,-0.7331457879700775,0.7749991755162859,1.2962443019432464,-3.099495529963525
1784201631463341824,1.7867457866668701,-3.790454864501953,-1.0324928760528564,0.5535855889320374,0.6814423203468323,-0.6945691108703613,-0.23067301511764526,0.20912158489227295,-0.3529466986656189,0.29942911863327026,0.2562333211024694,0.5551404342867373,-0.2765548651934816,-0.7414047226324256,0.7678208063406446,1.244396710418943,-3.0400993608517664
1784201631473260800,1.7966647148132324,-3.0695972442626953,-1.1893130540847778,0.6914954781532288,0.674349308013916,-0.6903903484344482,-0.2619428336620331,0.1372961401939392,-0.4011165499687195,0.3414716422557831,0.26643749187076576,0.545646633856188,-0.26701749059700025,-0.7483196843616136,0.7620284628863672,1.2002968436210368,-2.9926307061126254
1784201631483181056,1.8065848350524902,-2.4780972003936768,-1.0921618938446045,0.8202308416366577,0.6660159826278687,-0.6879355907440186,-0.2883871793746948,0.1098628044128418,-0.49123305082321167,0.4776419699192047,0.2751276684664975,0.5366697614847816,-0.26036891428674874,-0.7539882477072912,0.7586407881031736,1.1621663073302808,-2.9539024750479514
1784201631493100032,1.8165037631988525,-2.0974886417388916,-1.0243842601776123,1.0202399492263794,0.6565173864364624,-0.68723464012146,-0.31095585227012634,0.1044079065322876,-0.49455857276916504,0.567578136920929,0.2833600924982165,0.528350265615379,-0.25567180489676633,-0.758409560807713,0.7576754156164182,1.1284545524026544,-2.9200298952285557
1784201631503020032,1.8264238834381104,-1.6284500360488892,-1.000618815422058,1.2428137063980103,0.6454570293426514,-0.6887128949165344,-0.33024176955223083,0.14412420988082886,-0.4058610200881958,0.6063801050186157,0.2912706091365971,0.520421902233061,-0.25306158125447625,-0.7617625565200676,0.7597123025489309,1.0978799893361448,-2.8901913221388393
1784201631512940032,1.836343765258789,-1.3756704330444336,-1.1174060106277466,1.3438470363616943,0.6330421566963196,-0.691982090473175,-0.3470136225223541,0.23220747709274292,-0.31991976499557495,0.5451489686965942,0.29863440218027976,0.5126556033016728,-0.25234386090351524,-0.7644111137222286,0.7642310719276767,1.0693605367670245,-2.8640093726033466
1784201631522858752,1.8462626934051514,-1.9141786098480225,-1.2152791023254395,1.409907341003418,0.6193553805351257,-0.6951117515563965,-0.364991158246994,0.33309823274612427,-0.3773369789123535,0.5144357085227966,0.30644534030635673,0.5041641221624505,-0.25164053575673406,-0.767194132480941,0.768575372167391,1.038275590080999,-2.8357341657379287
1784201631532779008,1.8561828136444092,-3.154111623764038,-1.4050958156585693,1.5061571598052979,0.6044092774391174,-0.6944791674613953,-0.390369176864624,0.33925527334213257,-0.49932265281677246,0.715778112411499,0.31657656197850076,0.4934374935263947,-0.24765874191418036,-0.7713390228357578,0.7676958168931626,0.99733068309953,-2.795661128113901
1784201631542697984,1.8661017417907715,-4.2127509117126465,-1.3676468133926392,1.605157732963562,0.5879244804382324,-0.6887946128845215,-0.424154132604599,0.3822597861289978,-0.6245750784873962,0.8506983518600464,0.3299051494618586,0.4801931634135783,-0.23945243000198338,-0.776684977486197,0.7598250232331719,0.9458234272488188,-2.741313153905795
1784201631552618496,1.8760223388671875,-5.065577030181885,-1.1802653074264526,1.491418480873108,0.5717137455940247,-0.6774153113365173,-0.4628734290599823,0.40802252292633057,-0.5883011817932129,0.9277782440185547,0.345347309463842,0.46570026462973513,-0.22734675969549023,-0.7824141256615587,0.7442431964652344,0.8902143065731085,-2.678419575118614
1784201631562538496,1.8859422206878662,-5.840925216674805,-1.2754038572311401,1.4090029001235962,0.5561782717704773,-0.6591284871101379,-0.5061773061752319,0.4801376461982727,-0.31340569257736206,0.9938024282455444,0.3620371543627927,0.4496656410830297,-0.21145246924786462,-0.7886810776293512,0.7196592565941013,0.8324295563086561,-2.6104805294815536
1784201631572457472,1.8958613872528076,-6.083531379699707,-1.320483922958374,1.3219801187515259,0.5404660105705261,-0.6352312564849854,-0.551704466342926,0.5467990040779114,-0.06284302473068237,0.8903121948242188,0.3792495180994403,0.43215741493564824,-0.1933591156299609,-0.7949981822066851,0.6883079354737293,0.775108533451786,-2.5419121658414157
1784201631582377472,1.9057812690734863,-5.989678859710693,-1.5439367294311523,1.2195518016815186,0.5246443748474121,-0.6074708700180054,-0.5964288711547852,0.4777054786682129,0.15196549892425537,0.8298120498657227,0.3956083811524017,0.4137960143201969,-0.17480965780384408,-0.8010670308680775,0.6528727432991772,0.7214534926271771,-2.478206312240184
1784201631592296704,1.9157004356384277,-5.805294036865234,-1.647547960281372,1.3293113708496094,0.5071653723716736,-0.5779151320457458,-0.639372706413269,0.3887696862220764,0.27196115255355835,0.765196681022644,0.4112005276609547,0.3944908699703051,-0.15713238911188604,-0.8065981895552541,0.6161716625879975,0.6705951771113617,-2.4195524368953474
1784201631602216448,1.9256203174591064,-5.529278755187988,-1.5051929950714111,1.2684067487716675,0.48929521441459656,-0.5474399924278259,-0.678895890712738,0.22188639640808105,0.2772983908653259,0.7144336700439453,0.4261867764597805,0.3753406152181347,-0.14025505433585145,-0.8110565256740376,0.57930201851513,0.624498402291532,-2.365785218576655
1784201631612136704,1.9355404376983643,-5.337133884429932,-1.4545598030090332,1.1841493844985962,0.4727221727371216,-0.5159204602241516,-0.714394748210907,0.14768493175506592,0.2051599621772766,0.5926907062530518,0.43994681467647767,0.3570225603888726,-0.12384468077728021,-0.8146436419788535,0.5420817834302883,0.584563217110693,-2.3180907036663014
1784201631622055424,1.9454593658447266,-5.1967997550964355,-1.379929542541504,1.3091446161270142,0.45626145601272583,-0.48354437947273254,-0.7470008730888367,0.25667494535446167,0.18419745564460754,0.538123369216919,0.45329082862168996,0.33892499993352226,-0.10783969906891908,-0.8173297387043227,0.5046994379546368,0.5483163494378237,-2.273637070080089
1784201631631975424,1.9553792476654053,-4.991727828979492,-1.5662513971328735,1.4093436002731323,0.438824862241745,-0.45123469829559326,-0.7770585417747498,0.3710048496723175,0.14602839946746826,0.44415754079818726,0.4664667937098948,0.32071591546913064,-0.09280097217803589,-0.8191081026280477,0.46814842679212937,0.5140785191454965,-2.231427341599999
1784201631641894656,1.9652984142303467,-5.062049865722656,-1.6117016077041626,1.155097484588623,0.42073601484298706,-0.41760802268981934,-0.8053476214408875,0.32650214433670044,0.11266112327575684,0.37852877378463745,0.478792750822836,0.30200039237711057,-0.07824295635377798,-0.8206286244908476,0.4308111981560108,0.48142847800197996,-2.192591522522063
1784201631651814400,1.9752182960510254,-4.889753341674805,-1.4513566493988037,1.1147946119308472,0.40401163697242737,-0.3813292384147644,-0.8314821720123291,0.13144981861114502,0.2173582911491394,0.3305666446685791,0.4900806084966028,0.28334953847171623,-0.06302333214713711,-0.8219259111537159,0.3912337671178004,0.45229869570314024,-2.1573845503233713
1784201631661734656,1.9851384162902832,-3.755312919616699,-1.4401849508285522,1.2857613563537598,0.3875495195388794,-0.3497932255268097,-0.8529068827629089,0.0712975263595581,0.3988349735736847,0.09869539737701416,0.5005294830741707,0.2664483543120503,-0.05051580296316288,-0.8221458312662382,0.35735037900814676,0.4264958934999646,-2.126025209332294
1784201631671653632,1.9950573444366455,-2.57747483253479,-1.4303284883499146,1.2802133560180664,0.37097692489624023,-0.32787051796913147,-0.8688365817070007,0.0006051063537597656,0.5043841600418091,-0.09051400423049927,0.5095189292710349,0.2524574495630512,-0.04297602606920565,-0.8214673839381363,0.33404859676494775,0.4035475752239159,-2.100180718026377
1784201631681573376,2.004977226257324,-1.6900321245193481,-1.3428822755813599,1.267528772354126,0.3549397587776184,-0.3142276406288147,-0.8804991841316223,-0.07085162401199341,0.4667087197303772,-0.12098091840744019,0.5170275486107619,0.24122854092324947,-0.039486835861469685,-0.8203243870619987,0.319642965927855,0.3831862222559432,-2.0793445777680275
1784201631691492608,2.0148963928222656,-0.9088164567947388,-1.2609813213348389,1.3890880346298218,0.33928295969963074,-0.3074674904346466,-0.8890167474746704,-0.06605911254882812,0.2995634377002716,-0.15431815385818481,0.5236539788218141,0.23228103178626167,-0.03920636330495686,-0.8187153576712184,0.3125304361595173,0.364577920686443,-2.0615951752492347
1784201631701412352,2.0248162746429443,-0.21908144652843475,-1.2340853214263916,1.5085114240646362,0.3239016830921173,-0.30741241574287415,-0.8947543501853943,-0.03975251317024231,0.15496185421943665,-0.1663113236427307,0.529923309885122,0.22554278142587597,-0.041872323372883095,-0.8164303324965974,0.31247258191637356,0.3473256118735274,-2.0453988135292684
1784201631711332608,2.034736394882202,0.053145673125982285,-1.3493760824203491,1.526294469833374,0.3077603876590729,-0.31196412444114685,-0.8988670110702515,-0.06619852781295776,0.10575687885284424,-0.07664257287979126,0.5358441771816563,0.21993431664702007,-0.046854945513103693,-0.8138208852951696,0.3172596151385861,0.3298766023189296,-2.0302780945978975
1784201631721251584,2.0446553230285645,-0.32058185338974,-1.423496127128601,1.4323935508728027,0.2906753718852997,-0.31551656126976013,-0.9033034443855286,-0.1627303957939148,0.04299458861351013,0.07925254106521606,0.5415770681328869,0.21369489179427337,-0.05179541240160887,-0.8113852767309978,0.3210009878626647,0.3113271774123951,-2.0152744922167494
1784201631731171584,2.0545754432678223,-1.1177196502685547,-1.3970664739608765,1.2809555530548096,0.2737829089164734,-0.31321191787719727,-0.9093630909919739,-0.2475225329399109,-0.036763668060302734,0.10563689470291138,0.5473823082627536,0.2058456077538972,-0.05427749043177236,-0.8093540976803111,0.3185732364660807,0.29243911830356445,-1.9995893013732187
1784201631741090560,2.0644943714141846,-2.056523323059082,-1.392265796661377,1.160190224647522,0.2574547827243805,-0.3019445538520813,-0.9179033637046814,-0.270775705575943,0.0608862042427063,0.0638231635093689,0.5534456608837266,0.1955777264777996,-0.05289313114530861,-0.8078673824620994,0.3067317609363661,0.27345501948404327,-1.9828516531562466
1784201631751010304,2.0744142532348633,-2.548208475112915,-1.4705395698547363,1.0979266166687012,0.2410813421010971,-0.28351885080337524,-0.928168535232544,-0.2489701509475708,0.24795061349868774,-0.061318159103393555,0.5598304966863676,0.1831734487127654,-0.048612972061943184,-0.80664364200047,0.28746155308418236,0.25412334771201217,-1.9651578501607103
1784201631760930560,2.084334373474121,-2.605288028717041,-1.5509123802185059,0.9052133560180664,0.22435759007930756,-0.2619011700153351,-0.9386540651321411,-0.22772978246212006,0.3517449200153351,-0.1584528684616089,0.5657876929706719,0.16968141759725341,-0.043372646953660506,-0.8057364497016526,0.2649915993602914,0.23461864522271134,-1.9486022352531327
1784201631770849536,2.0942533016204834,-2.38590931892395,-1.5589931011199951,0.8057904243469238,0.20776142179965973,-0.240398570895195,-0.9481791853904724,-0.24023212492465973,0.3363000452518463,-0.1942310929298401,0.5708998796651842,0.15630454405335403,-0.038461794422920914,-0.8050856509595089,0.24277643999194642,0.21570715918106637,-1.9343702026465872
1784201631780769536,2.104173421859741,-1.9629096984863281,-1.6155461072921753,0.799432098865509,0.19091205298900604,-0.2214326560497284,-0.9563055038452148,-0.24039630591869354,0.2410401999950409,-0.22725772857666016,0.5754566201852085,0.14363185238027537,-0.03488769414778296,-0.8043646459573885,0.22328335228792717,0.19704458841544595,-1.9217566541961173
1784201631790688512,2.1140923500061035,-1.4891480207443237,-1.73666512966156,0.7741614580154419,0.17331083118915558,-0.2065136581659317,-0.9629722237586975,-0.2635055184364319,0.1703655868768692,-0.195978581905365,0.5794893343593888,0.13190956037850968,-0.03337307981486974,-0.803541141753596,0.208010454952896,0.17806862840202492,-1.9106430176666025
1784201631800608512,2.1240122318267822,-1.007477045059204,-1.8404700756072998,0.6831731796264648,0.15452006459236145,-0.19587379693984985,-0.9683785438537598,-0.30951884388923645,0.19039590656757355,-0.09743261337280273,0.5829536781116718,0.12102408467457301,-0.03411597456358738,-0.80271679584947,0.19714843385819295,0.15823183978528,-1.901050888961981
1784201631810528512,2.13393235206604,-0.3585010766983032,-1.6096136569976807,0.5276413559913635,0.13689391314983368,-0.19006052613258362,-0.9721816182136536,-0.4095074534416199,0.22639168798923492,-0.022157371044158936,0.5854108186116739,0.11209305049159544,-0.03666538658239546,-0.8021128089848787,0.19122379115110735,0.13989131585346262,-1.894088994440241
1784201631820447488,2.1438512802124023,0.40364235639572144,-1.539754867553711,0.4759983718395233,0.1206463947892189,-0.1910668909549713,-0.9741344451904297,-0.4783276617527008,0.3755151331424713,0.019926071166992188,0.5871108816069668,0.10580482833948227,-0.04169079005658419,-0.801478672364949,0.19224894621173558,0.12322236953118802,-1.8890304065606132
1784201631830367488,2.15377140045166,0.8615636825561523,-1.3568367958068848,0.16257019340991974,0.10587511211633682,-0.1978198140859604,-0.9745038747787476,-0.5349065065383911,0.5868579149246216,0.04667794704437256,0.5877695451507802,0.1018433908537513,-0.048744126781022176,-0.8011110784553729,0.19913327388796567,0.10822067003234452,-1.8864487983276668
1784201631840286464,2.1636903285980225,0.7964776158332825,-1.1159727573394775,-0.04985526204109192,0.09404966235160828,-0.20629622042179108,-0.97395920753479,-0.6100409030914307,0.6764347553253174,0.15935349464416504,0.5872105371223794,0.0995492197438341,-0.05577051530056863,-0.8013509770152066,0.20778823322211887,0.09626579609076212,-1.8868656655709635
1784201631850206464,2.173610210418701,0.3915501534938812,-0.9324570298194885,-0.016030151396989822,0.08397358655929565,-0.2120124101638794,-0.9736524820327759,-0.5220991969108582,0.5814887285232544,0.3853346109390259,0.5864990697997071,0.09711593217307021,-0.06117392986354146,-0.8017762212293016,0.21363372627647034,0.0860330565959285,-1.8877123877283317
1784201631860126464,2.183530330657959,0.11823020130395889,-0.7705594301223755,-0.06441845744848251,0.07571426779031754,-0.21468961238861084,-0.9737431406974792,-0.45849624276161194,0.37763822078704834,0.41231125593185425,0.5859535266363974,0.09450892212322239,-0.0647802928109119,-0.8022033577727218,0.2163740176074664,0.0775997542262123,-1.8883085701438074
1784201631870045440,2.1934492588043213,-0.16092567145824432,-0.6856530904769897,-0.076431505382061,0.06930521875619888,-0.21426936984062195,-0.9743127822875977,-0.5124967694282532,0.31599974632263184,0.40866953134536743,0.5854635293209831,0.09171841690646636,-0.06656825532904723,-0.8027384161908991,0.21594376352301514,0.07101280518239314,-1.8890084288342122
1784201631879965440,2.203369379043579,0.014157462865114212,-0.603811502456665,0.007044474594295025,0.06281265616416931,-0.21319302916526794,-0.9749888777732849,-0.5548933148384094,0.40234097838401794,0.3106212019920349,0.5851986953823969,0.0887132818243227,-0.06808462435411572,-0.8031419868084223,0.21484197047622214,0.0643350640073194,-1.8891571944127383
1784201631889884416,2.2132883071899414,0.7571203112602234,-0.5047417283058167,-0.11488658934831619,0.057307932525873184,-0.21657070517539978,-0.9745834469795227,-0.6057088375091553,0.5693386793136597,0.16031348705291748,0.5846640137529395,0.08744252781420303,-0.0711482317645736,-0.8034051563263537,0.21830043863109644,0.05873485519420134,-1.8898372756113346
1784201631899804672,2.223208427429199,1.7122299671173096,-0.4010946452617645,-0.032531797885894775,0.052783239632844925,-0.22823622822761536,-0.9721739292144775,-0.6296722888946533,0.6996870040893555,-0.05719923973083496,0.5836592191159496,0.08904766065553782,-0.07735339078257338,-0.8033859443023242,0.2302657116230045,0.05424077186016398,-1.8912865959428453
1784201631909724416,2.233128309249878,1.9136584997177124,-0.40685001015663147,-0.2473030835390091,0.04870415851473808,-0.24641083180904388,-0.9679409265518188,-0.5898113250732422,0.7100186347961426,-0.15374791622161865,0.5822164511880792,0.0927769293085867,-0.08615095544486084,-0.8031154251603762,0.24897514162359363,0.05027488488575446,-1.8933375719948329
1784201631919643392,2.2430472373962402,2.055041790008545,-0.26346513628959656,-0.36126214265823364,0.045638568699359894,-0.264453649520874,-0.9633179306983948,-0.7064661979675293,0.678607702255249,0.017730772495269775,0.5798168225179258,0.09677559551133148,-0.0947392722452851,-0.8034123509664193,0.2676373483654312,0.047341038342708544,-1.8976931341934484
1784201631929563648,2.252967357635498,2.119795322418213,-0.37132588028907776,-0.4029342234134674,0.04237256944179535,-0.2843903601169586,-0.9577717185020447,-0.6580036878585815,0.4907197058200836,-0.04924732446670532,0.5773728506924682,0.10125969432506367,-0.1042142441447071,-0.8034466335653249,0.2883704752167547,0.04421195270730638,-1.9017857052363685
1784201631939482368,2.2628862857818604,2.272688865661621,-0.371191143989563,-0.4952513873577118,0.039223503321409225,-0.30368372797966003,-0.9519652128219604,-0.8373802304267883,0.49600550532341003,0.06809985637664795,0.573945103443328,0.1054512745449271,-0.11356687181425326,-0.8040955686865237,0.30855660130019735,0.04117937521072339,-1.9081721747902642
1784201631949402624,2.272806406021118,2.9389798641204834,-0.4281337261199951,-0.38370320200920105,0.036042921245098114,-0.3285478949546814,-0.9437993168830872,-0.7503221035003662,0.4769091308116913,-0.33473455905914307,0.5708808124044827,0.1113956352029136,-0.12526509903528296,-0.8037379669791548,0.3347657084636214,0.03817062790060077,-1.912855779867899
1784201631959322368,2.282726287841797,2.298234462738037,-0.8192272186279297,-0.8890752792358398,0.03203202784061432,-0.3523629903793335,-0.9353150725364685,-0.7370338439941406,0.432883620262146,-0.256106436252594,0.566445024515076,0.11644389405857113,-0.13705213758997517,-0.8042372302962625,0.36009483977233553,0.034233932164197525,-1.9205778402540514
1784201631969241344,2.292645215988159,2.154494047164917,-0.4689957797527313,-0.8613518476486206,0.028212687000632286,-0.37224081158638,-0.927707314491272,-0.7082206010818481,0.282793790102005,0.012836098670959473,0.5612251353740042,0.12016195238125323,-0.14733450313228452,-0.8055309385689933,0.3814221746552071,0.030401825099531796,-1.9304273443998141
1784201631979161600,2.302565336227417,3.1990697383880615,-0.7080179452896118,-0.8458898067474365,0.025536805391311646,-0.3958890736103058,-0.9179431796073914,-0.580498993396759,0.2994077801704407,-0.10187792778015137,0.5560467975404372,0.12550834145648337,-0.15898447098086513,-0.8060915130546411,0.4070358402443305,0.02781241945865923,-1.9396296368318862
1784201631989080320,2.3124842643737793,1.633021354675293,-0.7223344445228577,-0.799628496170044,0.022043082863092422,-0.4184127449989319,-0.9079894423484802,-0.704889178276062,0.5670486688613892,-0.2863311767578125,0.5501856739382439,0.12997663538253904,-0.1706204687428651,-0.8070256539279487,0.43169704390573593,0.02427203751719124,-1.9501770300906789
1784201631999000576,2.322404384613037,1.1444274187088013,-0.8746883273124695,-1.0881925821304321,0.01836121827363968,-0.4285382032394409,-0.9033370614051819,-0.4690295457839966,0.3754070997238159,0.06936794519424438,0.5455323401106511,0.13062895971211733,-0.1768262935682452,-0.8087415749263608,0.4428742609664726,0.020323188668251762,-1.9592944484780532
1784201632008920320,2.332324266433716,0.7235249280929565,-1.0409849882125854,-1.1900829076766968,0.014463639818131924,-0.43751296401023865,-0.8990957736968994,-0.3795911967754364,-0.08052292466163635,-0.4468057155609131,0.5395479247614441,0.13048084020244874,-0.1828301622476794,-0.8114406239983817,0.45283102397599767,0.016085485704467887,-1.9717051951506557
1784201632018839552,2.3422434329986572,-0.30808401107788086,-1.1838022470474243,-0.745179295539856,0.008394847624003887,-0.4376181960105896,-0.8991217017173767,-0.32208502292633057,0.1873893141746521,-0.05359131097793579,0.5346779647468523,0.12680799704647838,-0.18536149433428314,-0.8146657357097986,0.45294804627652313,0.009336448508980336,-1.9821393378692371
1784201632028759552,2.352163314819336,-0.6219199299812317,-0.6421067714691162,-0.7145665884017944,0.00217883731238544,-0.4332452118396759,-0.9012734293937683,-0.2530943751335144,0.07182556390762329,0.10128569602966309,0.5313065283703728,0.12200627209609079,-0.18568184480350516,-0.8175267814836721,0.44809036821687853,0.0024175048945103586,-1.9895407361422182
1784201632038678528,2.3620822429656982,-0.39640262722969055,-0.3660472333431244,-0.6376497149467468,0.00012145312939537689,-0.4275909662246704,-0.903972327709198,0.008820181712508202,-0.02359616756439209,0.0899006724357605,0.5285205290851095,0.1187465988347035,-0.18415507531138475,-0.8201537168909953,0.4418261536584677,0.00013435492288601996,-1.9967427043691446
1784201632048598528,2.372002363204956,-0.41419878602027893,0.48084113001823425,-0.317907452583313,0.002830610843375325,-0.4242071211338043,-0.9055607318878174,0.3423537015914917,0.1770605444908142,-0.14670056104660034,0.5264545906733069,0.11841788500316108,-0.1821999606171996,-0.8219646142202581,0.43808614111310334,0.0031257999078082247,-2.002976460434481
1784201632058518528,2.3819222450256348,-0.7217228412628174,0.17098313570022583,-0.4390525221824646,0.004523415118455887,-0.419883131980896,-0.9075669050216675,0.5778435468673706,0.1858590841293335,-0.04543602466583252,0.5260743709534947,0.11774773736971503,-0.1798666564429419,-0.8228178982024389,0.43331655835441646,0.004984070878068613,-2.0049760168473156
1784201632068437504,2.391841411590576,-1.4328694343566895,-0.16465625166893005,-0.5869437456130981,0.00816300231963396,-0.4106060564517975,-0.9117763042449951,0.7763218879699707,0.11968198418617249,0.10563921928405762,0.5240442614655647,0.11607706709512568,-0.17503702394594634,-0.8253882642957471,0.4231186305091772,0.008952616787795015,-2.0121328722789813
1784201632078357504,2.401761293411255,-1.4229787588119507,0.162714421749115,-0.2843889892101288,0.007303922437131405,-0.3963625133037567,-0.9180650115013123,1.1901295185089111,0.2650148868560791,0.18309497833251953,0.5233460583937655,0.11129990536438973,-0.16905565330712394,-0.8277326979766549,0.40755144831904844,0.007955610901723642,-2.015624183331705
1784201632088276480,2.411680221557617,-0.8685111403465271,-1.049207329750061,-0.8044689297676086,0.0036312665324658155,-0.3861125111579895,-0.9224445819854736,0.9938205480575562,0.241260826587677,0.018315553665161133,0.5214655928310977,0.10630172959914914,-0.1657638800806329,-0.8302385440052168,0.39641355873994055,0.003936548423698302,-2.0207450626447696
1784201632098196480,2.421600341796875,-0.3672541379928589,-0.48002707958221436,0.144785538315773,-0.0025297736283391714,-0.3784753978252411,-0.9256078600883484,0.6567808985710144,0.34722545742988586,0.12259888648986816,0.5206512447759881,0.10124059206599084,-0.16415358330232163,-0.8317007929444641,0.38814862535705263,-0.002733087410645351,-2.022407954338495
1784201632108116480,2.4315202236175537,0.7836747169494629,-0.49320894479751587,-0.10127823799848557,-0.009194310754537582,-0.3804350197315216,-0.924761950969696,0.3643426299095154,0.5223875045776367,-0.11030274629592896,0.5196139581352173,0.0987284767908783,-0.1669482398279413,-0.8320950856576511,0.3902666288572889,-0.009942026485073287,-2.023199049390387
1784201632118035456,2.441439390182495,1.411981225013733,-0.21468086540699005,-0.30956992506980896,-0.013699193485081196,-0.3906137943267822,-0.9204527139663696,0.2835661470890045,0.09119057655334473,-0.22305619716644287,0.5183050392885534,0.09948935190700837,-0.17284532538850034,-0.8316167010202304,0.40129825242845424,-0.014882004661882052,-2.0238862207116375
1784201632127955456,2.451359272003174,1.5799483060836792,-0.07281652837991714,-0.744155764579773,-0.01189262792468071,-0.40327003598213196,-0.9150037169456482,0.3276122510433197,0.11133888363838196,-0.05731683969497681,0.5153929506886311,0.10336814117223299,-0.17836242888941906,-0.8317884384207664,0.41508753655363256,-0.01299662221324174,-2.029413136865128
1784201632137874688,2.4612784385681152,1.1079366207122803,-0.22993050515651703,-0.7545016407966614,-0.011775881983339787,-0.4148721396923065,-0.9098035097122192,0.4140128195285797,-0.1580953598022461,0.06480234861373901,0.5117014526460687,0.10602514164099017,-0.18400246522050018,-0.8325043125056171,0.42780226297788465,-0.012942601711459481,-2.036532595921262
1784201632147794432,2.471198320388794,0.5995420217514038,0.11925182491540909,0.0421823225915432,-0.010512154549360275,-0.42215219140052795,-0.9064640402793884,0.13625983893871307,-0.44001516699790955,0.18928569555282593,0.5093803903947831,0.10820042255925771,-0.1872449167096606,-0.8329247666593641,0.435818136890545,-0.01159635979117845,-2.04127798676125
1784201632157713408,2.4811172485351562,-0.007841645739972591,-0.23005716502666473,-0.23577259480953217,-0.011442960239946842,-0.42457157373428345,-0.9053220748901367,0.34541207551956177,-0.5161022543907166,0.12532329559326172,0.5092127392009185,0.10846924482242618,-0.1886090805758764,-0.8326845677692001,0.4384886514623576,-0.012638984097676987,-2.041065815333568
1784201632167633408,2.491037368774414,0.09166962653398514,0.20267976820468903,-0.2898147404193878,-0.010457523167133331,-0.42454302310943604,-0.9053474068641663,0.3178916275501251,-0.27006757259368896,0.14326244592666626,0.507993514124589,0.10861503949116388,-0.1884915866139884,-0.8334365303343951,0.4384571019766312,-0.011550327187502627,-2.0442438051889553
1784201632177553408,2.5009572505950928,-0.3346167206764221,-0.24762828648090363,0.11378839612007141,-0.01100922841578722,-0.42297130823135376,-0.906076192855835,0.45021820068359375,-0.07193222641944885,0.11181044578552246,0.5078087866705394,0.10787051864099108,-0.1879517475409733,-0.8337675200065352,0.43672190423848434,-0.01214984633242957,-2.0447971422239437
1784201632187472640,2.510876417160034,-0.34884849190711975,0.15084514021873474,-0.04679295793175697,-0.01095945667475462,-0.4205065071582794,-0.9072233438491821,0.2490881085395813,-0.19083687663078308,0.04383528232574463,0.5078240103131124,0.10717255732668417,-0.1868217898053255,-0.8341021655622133,0.4340035202027313,-0.01207963173588404,-2.04515986498612
1784201632197392384,2.520796298980713,-0.6402531862258911,0.15021049976348877,0.06366963684558868,-0.011400609277188778,-0.41537436842918396,-0.9095790982246399,0.36859360337257385,-0.19265785813331604,0.1292598843574524,0.5087187742836713,0.10567649920599353,-0.18450723752173795,-0.834262980689676,0.4283543005517984,-0.01253328256891174,-2.043703790916287
1784201632207312640,2.5307164192199707,-0.8230836391448975,-0.21798460185527802,-0.05099179595708847,-0.011200346052646637,-0.4087105691432953,-0.9125953316688538,0.26689186692237854,-0.11112585663795471,0.09399181604385376,0.5087458990832446,0.1038253491492855,-0.18144596530907472,-0.8351497840561061,0.4210407821311828,-0.012272453241329815,-2.0447043109549012
1784201632217231616,2.540635347366333,-1.140511393547058,0.0848277360200882,0.021004365757107735,-0.012895690277218819,-0.3987770676612854,-0.9169571995735168,0.37558186054229736,-0.09679785370826721,0.08948838710784912,0.5094879652486101,0.10036284844701239,-0.17733777459823916,-0.8360027463821047,0.4101828971339814,-0.014062640630742944,-2.044013439040578
1784201632227151360,2.5505552291870117,-1.0413243770599365,-0.09324426203966141,-0.1832217276096344,-0.012177873402833939,-0.3888249397277832,-0.9212311506271362,0.22073499858379364,-0.0716853141784668,0.04040229320526123,0.5097029652353245,0.09784900006461503,-0.17265570535355648,-0.8371489565130789,0.3993558261016148,-0.01321835887904811,-2.045106150501722
1784201632237070592,2.560474395751953,-1.0275481939315796,0.0037342109717428684,0.1495780646800995,-0.012924299575388432,-0.3788510859012604,-0.9253674149513245,0.30935680866241455,0.10741248726844788,-0.029573380947113037,0.5102800023091829,0.09478146403676822,-0.16832341805421794,-0.8380322578098126,0.38855451856052337,-0.013965760404725141,-2.044965142148831
1784201632246990336,2.570394277572632,-0.5131036043167114,0.0386873260140419,-0.19892768561840057,-0.012927244417369366,-0.3719436824321747,-0.9281652569770813,0.23953551054000854,0.18754124641418457,-0.13534176349639893,0.5104934345549209,0.09285109727380728,-0.16521511921670384,-0.8387365746067825,0.3811020484979841,-0.013926839638446804,-2.0454013696057696
1784201632256909568,2.5803134441375732,-0.48262348771095276,-0.29758763313293457,-0.04276978597044945,-0.012943361885845661,-0.3669540584087372,-0.9301490187644958,0.2650643289089203,0.16350862383842468,-0.14011770486831665,0.510404914445227,0.09140782767022208,-0.16300337803945955,-0.8393815498321493,0.37573254031363595,-0.013914466147449065,-2.0462792212270853
1784201632266829568,2.590233325958252,-0.12148724496364594,0.10561803728342056,-0.217275470495224,-0.013967539183795452,-0.3638347089290619,-0.931358814239502,0.2541561424732208,0.2141002118587494,-0.13904523849487305,0.5101513786289064,0.09002962849831886,-0.16191130281118912,-0.8398957771181341,0.3723814733835414,-0.014995823552240044,-2.0470842072752182
1784201632276749312,2.6001532077789307,-0.038828857243061066,-0.08040003478527069,0.04602672532200813,-0.013551861047744751,-0.3629838228225708,-0.931696891784668,0.06285301595926285,0.1072465181350708,-0.13481616973876953,0.5099621671890803,0.0899328176211638,-0.16144238473419814,-0.8401113162382791,0.37146812819398345,-0.014544328509993244,-2.047732992063054
1784201632286668544,2.610072374343872,-0.1726733297109604,-0.1981266587972641,-0.08148243278265,-0.014395146630704403,-0.36197566986083984,-0.9320763945579529,0.260610967874527,0.08158016204833984,-0.08106142282485962,0.5095958144145911,0.08921123477020086,-0.1612549474802011,-0.840446535320516,0.37038641207322076,-0.015442942177138257,-2.0485640708200763
1784201632296588544,2.619992256164551,-0.38663411140441895,0.08541956543922424,-0.02457573637366295,-0.014796496368944645,-0.35939207673072815,-0.9330693483352661,0.28426671028137207,-0.04879578948020935,-0.05531871318817139,0.5093741274463557,0.08826533732418691,-0.16023283123585827,-0.8408760726709092,0.36761635146813654,-0.01585654575008372,-2.04934783040555
1784201632306507520,2.629911422729492,-0.33996397256851196,-0.1999809890985489,0.02095436491072178,-0.015143134631216526,-0.35576319694519043,-0.9344534277915955,0.16574738919734955,-0.13073277473449707,-0.09923797845840454,0.5095373798662068,0.08712352118262133,-0.15869079062313238,-0.841188710727244,0.36373055083352446,-0.01620392008190454,-2.0493614168883902
1784201632316427520,2.639831304550171,-0.3574284613132477,-0.22866323590278625,-0.024242674931883812,-0.016238104552030563,-0.3529502749443054,-0.9355011582374573,0.24968230724334717,-0.15322953462600708,-0.18142694234848022,0.5092992328038805,0.08581271012266098,-0.15775169132833752,-0.8416441249253245,0.36072243217592986,-0.017355909549599435,-2.050070248589401
1784201632326347520,2.6497514247894287,-0.5308665633201599,-0.32062917947769165,0.20096233487129211,-0.018904780969023705,-0.34853869676589966,-0.9371037483215332,0.24610814452171326,-0.10171765089035034,-0.1624751091003418,0.5098778375329079,0.08352606923170496,-0.1564337874328402,-0.8417698989513978,0.35601157821743895,-0.020170890569128654,-2.048732454622424
1784201632336266496,2.659670352935791,-0.18314161896705627,-0.3614799380302429,0.1165127158164978,-0.022182274609804153,-0.3453733026981354,-0.9382032155990601,0.18317776918411255,-0.06586632132530212,-0.21191275119781494,0.5105301932203661,0.08133958367187162,-0.15582770752615435,-0.84170104538198,0.3526365494478677,-0.023638953891302866,-2.0469435594955896
1784201632346186496,2.6695902347564697,-0.11383259296417236,-0.16927702724933624,0.19104847311973572,-0.02549847587943077,-0.34364616870880127,-0.9387529492378235,0.18158061802387238,0.0073424577713012695,-0.2049543261528015,0.5110325789064382,0.07951292502757369,-0.1558884627405746,-0.8415593491220181,0.35079678513792134,-0.027155394893255073,-2.045320712975708
1784201632356105472,2.679509401321411,0.106155164539814,-0.14735175669193268,0.12770837545394897,-0.02755039930343628,-0.3435141146183014,-0.9387433528900146,0.12775486707687378,0.03163972496986389,-0.12062859535217285,0.5117669050695081,0.0787243068377194,-0.15630361074963267,-0.8411101718923227,0.35065615057053007,-0.029339749317478597,-2.0431871226054654
1784201632366025472,2.68942928314209,0.130147323012352,-0.20215487480163574,0.14829714596271515,-0.0297141894698143,-0.344835489988327,-0.9381927251815796,0.2432151734828949,-0.011930257081985474,-0.10471498966217041,0.5120778831998498,0.07821729800311347,-0.15743474522806764,-0.8407571941908982,0.35206351542217335,-0.031661150595937396,-2.0418403650913564
1784201632375945472,2.6993494033813477,-0.049344148486852646,-0.2275899350643158,0.320027619600296,-0.03248618170619011,-0.3450005054473877,-0.9380401372909546,0.2817690372467041,-0.0874488353729248,-0.07207643985748291,0.5129043147684411,0.07722084881610189,-0.15816722944992026,-0.8402078617298705,0.3522393310144061,-0.03461813706194449,-2.039296481776666
1784201632385864448,2.70926833152771,0.20503553748130798,-0.08615652471780777,0.01039033755660057,-0.03491336479783058,-0.3459399342536926,-0.9376068711280823,0.21461613476276398,-0.08444947004318237,-0.09352105855941772,0.5134503081101418,0.07654009530577915,-0.15917971547731202,-0.8397453797938477,0.35324038621986964,-0.03721948212069205,-2.037377663532172
1784201632395784448,2.7191882133483887,0.12231509387493134,-0.3804701864719391,0.2967347502708435,-0.03794445842504501,-0.34760573506355286,-0.9368727207183838,0.2270924150943756,-0.0016984641551971436,-0.1340653896331787,0.5137901483140895,0.07576589081845991,-0.16069590148094798,-0.8393188678013217,0.3550163980298201,-0.0404790652846804,-2.0357171863937453
1784201632405703424,2.72910737991333,0.3875821828842163,-0.37199103832244873,0.08795370161533356,-0.0421423576772213,-0.34957200288772583,-0.9359612464904785,0.3033270537853241,0.04052048921585083,-0.11892461776733398,0.5143760719018973,0.07462296062550934,-0.16263699234281026,-0.8386882199580795,0.3571142328806105,-0.044995361362470544,-2.0331726521327838
1784201632415623424,2.739027261734009,0.4320298135280609,-0.36004674434661865,0.16228200495243073,-0.04537859559059143,-0.3537678122520447,-0.9342318177223206,0.09765522181987762,0.06263011693954468,-0.20547765493392944,0.5142109315225449,0.07438176101794812,-0.16538268940508274,-0.8382739046579022,0.3615963630268683,-0.0485350162166898,-2.0322669203475185
1784201632425543424,2.7489473819732666,0.4857289791107178,-0.38719049096107483,0.14496666193008423,-0.04973893612623215,-0.3577558398246765,-0.9324895739555359,0.25236040353775024,0.033415019512176514,-0.09958440065383911,0.5143703397531854,0.07366396908847689,-0.16831171450529267,-0.8376562593644293,0.3658635715416278,-0.053289439581434485,-2.0303461322410525
1784201632435462400,2.758866310119629,0.30940720438957214,-0.41912925243377686,0.1274143010377884,-0.053320445120334625,-0.36130598187446594,-0.9309215545654297,0.16683056950569153,-0.08731767535209656,-0.06575202941894531,0.5145539454876831,0.07316620443460854,-0.17083892110462645,-0.8370752402375563,0.369668108129405,-0.05721454384877926,-2.028569384722362
1784201632445382656,2.7687864303588867,0.3403052091598511,-0.27356070280075073,0.1887241154909134,-0.05729479715228081,-0.36428678035736084,-0.929522693157196,0.1515483260154724,-0.02295076847076416,-0.019436657428741455,0.5148273086206383,0.07235899093341779,-0.17321325089664588,-0.8364891791720002,0.3728668546325553,-0.0615610591875424,-2.026554961288676
1784201632455301632,2.778705358505249,0.11128028482198715,-0.4476776421070099,0.22962228953838348,-0.0614745058119297,-0.3660942316055298,-0.9285450577735901,0.2393462061882019,-0.09964975714683533,-0.004804551601409912,0.5154156116426377,0.07119781167054483,-0.17509527121036966,-0.8358344432226367,0.3748084077821641,-0.06610872098426596,-2.0239104398470356
1784201632465221376,2.7886252403259277,-0.03746558353304863,-0.43542370200157166,0.2895307242870331,-0.0667055994272232,-0.36588484048843384,-0.9282664656639099,0.209222674369812,-0.12528032064437866,0.018583238124847412,0.516137206034222,0.06903985004780921,-0.17635267518632045,-0.835305675793768,0.37458340411410856,-0.07173708526208732,-2.021033921992057
1784201632475141632,2.7985453605651855,-0.191471129655838,-0.43194615840911865,0.3405020236968994,-0.07188387960195541,-0.3644571304321289,-0.9284415245056152,0.15986603498458862,-0.1022176742553711,-0.010324954986572266,0.517053699904564,0.06660088274937426,-0.1770411110398753,-0.8347910663808863,0.3730497824827835,-0.07727008603062072,-2.017906324497909
1784201632485060352,2.808464288711548,-0.2142549455165863,-0.3734555244445801,0.2266916036605835,-0.07630978524684906,-0.3625484108924866,-0.9288355112075806,0.20396482944488525,-0.07005348801612854,-0.04856616258621216,0.5179589666334172,0.06434779721289718,-0.177317775366737,-0.8343477660247622,0.37100089945322307,-0.08197229979995278,-2.0150618732502905
1784201632494980608,2.8183844089508057,-0.14580771327018738,-0.43034037947654724,0.2773025929927826,-0.08114118129014969,-0.36079588532447815,-0.9291084408760071,0.1810862421989441,0.004716783761978149,-0.07636946439743042,0.5187318202000997,0.06193984274462029,-0.17778990248266602,-0.8339493197996491,0.369121101422017,-0.08711129044640073,-2.0124155720659025
1784201632504899584,2.828303337097168,-0.10408821702003479,-0.4060274660587311,0.23511746525764465,-0.0860339030623436,-0.3588760495185852,-0.9294117093086243,0.1912432610988617,0.017857372760772705,-0.08578604459762573,0.5195296824748457,0.05946566889241062,-0.17820767031695803,-0.8335435084959226,0.3670634529988465,-0.09230507914910406,-2.0097264513083584
1784201632514819328,2.8382232189178467,-0.21761664748191833,-0.38675522804260254,0.24610114097595215,-0.09058228135108948,-0.3573334515094757,-0.9295739531517029,0.17978517711162567,-0.0907408595085144,-0.10672670602798462,0.520190313310459,0.057219896659727806,-0.17871463497206508,-0.833180166446644,0.3654112798604029,-0.09713825803905073,-2.007377699350026
1784201632524739584,2.8481433391571045,-0.18121296167373657,-0.30847880244255066,0.308896541595459,-0.09492310881614685,-0.35535749793052673,-0.929898202419281,0.18476685881614685,-0.06624284386634827,-0.0915403962135315,0.52103358529596,0.05498007016076947,-0.17896394271224053,-0.8327503333699007,0.36329649417933324,-0.10172667132746789,-2.0047191825746946
1784201632534658560,2.858062267303467,-0.38711151480674744,-0.25600945949554443,0.37168189883232117,-0.09904508292675018,-0.3523745834827423,-0.9306031465530396,0.17709380388259888,-0.11172148585319519,-0.08589160442352295,0.5222899662944415,0.05263582342036261,-0.17868377778688685,-0.8321747672022907,0.3601072297643144,-0.1060319010640417,-2.001311737463013
1784201632544578560,2.8679823875427246,-0.4978601932525635,-0.24673566222190857,0.3251728117465973,-0.1024511307477951,-0.3481026291847229,-0.9318413734436035,0.2243383228778839,-0.0922507643699646,-0.06597661972045898,0.523654785206729,0.05025161827764533,-0.17763472650125212,-0.8316888385295155,0.3555463958599606,-0.10950500475711211,-1.9980576858912373
1784201632554496256,2.8779001235961914,-0.6963701248168945,-0.34532058238983154,0.5358400344848633,-0.10705933719873428,-0.3421873152256012,-0.933512806892395,0.2960699796676636,-0.1250215470790863,-0.08627784252166748,0.5252086380475505,0.04692536056152332,-0.17618629266911126,-0.8312113672329451,0.3492437489359305,-0.11418551789057292,-1.9943937084410042
1784201632564416512,2.887820243835449,-0.5523339509963989,-0.3087121844291687,0.3919917345046997,-0.11234398931264877,-0.33579200506210327,-0.9352126121520996,0.29622766375541687,-0.11092430353164673,-0.11906290054321289,0.5270798809684042,0.04324240847105281,-0.17471062511069135,-0.8305379045042014,0.3424459255006526,-0.11955381600040488,-1.9899149984515285
1784201632574336256,2.897740125656128,-0.576011061668396,-0.4033510684967041,0.4791836142539978,-0.11670758575201035,-0.3303016424179077,-0.9366323351860046,0.18436506390571594,-0.1194663941860199,-0.15942168235778809,0.5284942820712089,0.04011473852551624,-0.1734203857212754,-0.8300662426855108,0.33662312895037005,-0.12396448537786733,-1.986580540541682
1784201632584255488,2.9076592922210693,-0.6905992031097412,-0.6035192608833313,0.5323082208633423,-0.12296352535486221,-0.32345500588417053,-0.9382200241088867,0.3569112718105316,-0.04081806540489197,-0.08512592315673828,0.5303443939796433,0.03588912675122492,-0.17205219084546444,-0.8293640797737523,0.3293785081252473,-0.13031767334537073,-1.9820459377034292
1784201632594175232,2.917579174041748,-0.7285577654838562,-0.365723192691803,0.2074611634016037,-0.12847942113876343,-0.3164671063423157,-0.9398625493049622,0.20730634033679962,-0.1505434215068817,-0.14422863721847534,0.5317989234830464,0.031856216274499735,-0.17045205095611274,-0.8289278065144718,0.32200283724123346,-0.13585814736006996,-1.978670812081872
1784201632604094208,2.9274981021881104,-0.7509390115737915,-0.7042658925056458,0.3509678244590759,-0.13440068066120148,-0.3087969124317169,-0.9415842890739441,0.23695501685142517,-0.0876111388206482,-0.11577349901199341,0.5324902710565667,0.02730387199322951,-0.1687079373426218,-0.8290031110796179,0.313927855489771,-0.14178115309684922,-1.9771935812378982
1784201632614014464,2.937418222427368,-0.7550525665283203,-0.6693156361579895,0.302886039018631,-0.14154046773910522,-0.3014681041240692,-0.9429121017456055,0.23518367111682892,-0.0158383846282959,-0.15965741872787476,0.5333441257168466,0.022373509604909237,-0.16746152700233752,-0.8288547212197599,0.30623202929755916,-0.1489974486274092,-1.975013531292731
1784201632623934208,2.947338104248047,-0.8639504909515381,-0.6592830419540405,0.5167459845542908,-0.14908428490161896,-0.2928410768508911,-0.9444670081138611,0.13890670239925385,0.0449773371219635,-0.10982370376586914,0.5347229783465559,0.0170134968353175,-0.16576194866396352,-0.8284351651462657,0.2971968211241421,-0.15655839976758967,-1.9717524816138519
1784201632633853440,2.9572572708129883,-0.7629192471504211,-0.6619963049888611,0.32147878408432007,-0.15592816472053528,-0.2849435806274414,-0.9457767009735107,0.16607525944709778,0.007477760314941406,-0.16101956367492676,0.5359346778474425,0.01212638654937414,-0.16420901216072073,-0.8280473346049264,0.28894755903094366,-0.16339796077963092,-1.968921539262928
1784201632643773440,2.967177152633667,-0.7975073456764221,-0.7223548889160156,0.3534509539604187,-0.1637551188468933,-0.2768593728542328,-0.9468543529510498,0.243756964802742,0.002628415822982788,-0.1345512866973877,0.5369064583067323,0.0067290127119392475,-0.1628727933293875,-0.8277431147881441,0.28052417030216403,-0.1712524692088252,-1.9665199066469616
1784201632653692416,2.9770963191986084,-0.7101399302482605,-0.7697147130966187,0.3132931590080261,-0.17180323600769043,-0.26931920647621155,-0.9476026892662048,0.23248745501041412,0.015580803155899048,-0.15971237421035767,0.5376809699149726,0.0013587998559661592,-0.16185430273263884,-0.8274664157911567,0.27268604272828006,-0.17935478555396267,-1.9644636303100353
1784201632663612416,2.987016201019287,-0.5220618844032288,-0.7358022332191467,0.26505717635154724,-0.17981334030628204,-0.2631708085536957,-0.9478440284729004,0.09918589890003204,0.03232058882713318,-0.1574416160583496,0.5382469753459433,-0.0036376257884549704,-0.16144583042214644,-0.827171262428938,0.2663074152231397,-0.18747984558673106,-1.9626624592435453
1784201632673532160,2.996936082839966,-0.5513433814048767,-0.6719401478767395,0.3237047791481018,-0.1869077831506729,-0.2576700747013092,-0.947982907295227,0.0698881596326828,0.06566876173019409,-0.14303570985794067,0.5389528828202598,-0.00803633543723161,-0.16107127050242237,-0.8267535148388478,0.26061006607106,-0.19466683324059278,-1.9605963415772953
1784201632683451392,3.0068552494049072,-0.35280996561050415,-0.6486151218414307,0.08760213106870651,-0.19360867142677307,-0.2528603971004486,-0.9479331970214844,0.14993801712989807,0.08603605628013611,-0.12450027465820312,0.5392648534510015,-0.012149085910184165,-0.16089068832250555,-0.8265349063944626,0.2556355850410746,-0.20147197738415545,-1.9594353471953794
1784201632693371392,3.016775131225586,-0.4577566087245941,-0.6539478302001953,0.14382518827915192,-0.20005494356155396,-0.24865172803401947,-0.9477079510688782,0.14144593477249146,0.02775023877620697,-0.13081377744674683,0.53926173841409,-0.01604492306062628,-0.16089931640735558,-0.8264688814634196,0.25128801757191793,-0.20803923981728692,-1.9589760172187396
1784201632703290368,3.0266942977905273,-0.44128742814064026,-0.5766055583953857,0.11171476542949677,-0.20625141263008118,-0.24401716887950897,-0.9475842714309692,0.17951801419258118,0.019865557551383972,-0.07280147075653076,0.5392775965484621,-0.01995165292928313,-0.16065424877095677,-0.8264210977752413,0.24650608909406954,-0.21431745330914156,-1.9586167170692923
1784201632713210368,3.036614179611206,-0.3736644387245178,-0.6567176580429077,0.08047454804182053,-0.2123047113418579,-0.23990356922149658,-0.9472977519035339,0.1757751852273941,0.021840214729309082,-0.07243186235427856,0.5390900624856766,-0.023689773062691374,-0.16059243236948864,-0.8264567882711323,0.242266518285528,-0.22047301813291098,-1.9586793688876238
1784201632723130368,3.046534299850464,-0.41109901666641235,-0.5965271592140198,0.07570316642522812,-0.2182881087064743,-0.23623065650463104,-0.9468607902526855,0.233226478099823,-0.02713605761528015,-0.07152605056762695,0.5389015833549817,-0.027273960561353137,-0.1607038499015471,-0.8264475657673803,0.238484869189363,-0.22658001777466588,-1.9586730359103335
1784201632733049344,3.056453227996826,-0.4799177646636963,-0.621762216091156,0.0857882872223854,-0.2241380214691162,-0.23191305994987488,-0.9465613961219788,0.2133805751800537,-0.06747964024543762,-0.05197376012802124,0.5385959647002809,-0.031006069194060615,-0.16049276651837419,-0.8265561014438789,0.23404390518144197,-0.232509356525044,-1.9591181379608233
1784201632742969344,3.066373109817505,-0.4618392288684845,-0.536957323551178,0.12604805827140808,-0.22979216277599335,-0.2272239625453949,-0.9463428854942322,0.15882353484630585,-0.1224922239780426,-0.05867725610733032,0.5385765313645975,-0.03470424425029618,-0.1600755465939929,-0.8265027156211465,0.22922613083456808,-0.2382108750456388,-1.958996876297619
1784201632752888320,3.0762922763824463,-0.5283114314079285,-0.5207074880599976,-0.04602543264627457,-0.23485010862350464,-0.22257597744464874,-0.9462057948112488,0.15352076292037964,-0.11792390048503876,-0.04329615831375122,0.538267036113189,-0.038195631779370055,-0.15949358657440127,-0.8266629387052392,0.22445593208918818,-0.2432856533884482,-1.9596980509541928
1784201632762808320,3.086212158203125,-0.5620319843292236,-0.5190421342849731,0.01046773511916399,-0.23973672091960907,-0.21733415126800537,-0.9461988210678101,0.21355262398719788,-0.07262861728668213,-0.01974356174468994,0.5376010918566221,-0.04184861429203085,-0.15858527311118853,-0.8270940709581085,0.219082511625583,-0.24814623693126514,-1.9614287477481358
1784201632772728320,3.096132278442383,-0.8133803606033325,-0.4377451241016388,0.0736650750041008,-0.2443951815366745,-0.21094933152198792,-0.9464520215988159,0.166346475481987,-0.14171180129051208,-0.006550908088684082,0.5372859193212516,-0.04565559245609378,-0.1571291500381159,-0.8273752548356791,0.2125460398419281,-0.25270236435115523,-1.9626059574570693
1784201632782647296,3.106051206588745,-0.8250832557678223,-0.4197714328765869,0.18549035489559174,-0.24876369535923004,-0.20308412611484528,-0.9470340609550476,0.11775173246860504,-0.18497739732265472,0.07160681486129761,0.5372175292047456,-0.04970399638355605,-0.15495965363048989,-0.8275955567624247,0.20450666018463443,-0.2568735553765027,-1.9635627836043659
1784201632792567296,3.115971088409424,-1.0440049171447754,-0.35861408710479736,0.11652433127164841,-0.25286373496055603,-0.19367864727973938,-0.9479179978370667,0.17658504843711853,-0.19844171404838562,0.10967642068862915,0.5373810796966575,-0.054021944922787134,-0.15206129376151858,-0.8277562950984299,0.19491041203836845,-0.2606867028404966,-1.9643345161581345
1784201632802486528,3.1258902549743652,-1.0570355653762817,-0.20961478352546692,0.20072892308235168,-0.2555462121963501,-0.18384680151939392,-0.9491556882858276,0.10729184746742249,-0.14884057641029358,0.17806804180145264,0.5374166164672816,-0.05788008406655088,-0.14856668219260555,-0.8281070881435417,0.18489854348145926,-0.2629989665907185,-1.9657673804678268
1784201632812406272,3.135810136795044,-1.1538758277893066,-0.1360878348350525,0.2630005478858948,-0.25769922137260437,-0.1729857474565506,-0.9506140351295471,0.18898889422416687,-0.1194336861371994,0.22338014841079712,0.5378877025198086,-0.061719166052398966,-0.14451202790281512,-0.828241459207879,0.17386031314178063,-0.2647248188436968,-1.9664337052139873
1784201632822326528,3.1457302570343018,-1.3324967622756958,-0.12612825632095337,0.3154778480529785,-0.25901421904563904,-0.16044571995735168,-0.9524540901184082,0.19547662138938904,-0.11421246826648712,0.2603154182434082,0.5386336731980862,-0.06562157602445116,-0.1395233408868077,-0.8283119714292468,0.16114221274843965,-0.26552289485442276,-1.9668843492595631
1784201632832245248,3.155649185180664,-1.3216971158981323,0.04089402034878731,0.26789408922195435,-0.259909451007843,-0.14664925634860992,-0.9544323086738586,0.2288578450679779,-0.05501088500022888,0.3023632764816284,0.5394543115119035,-0.06968363030239334,-0.13389560027651795,-0.8283749523063395,0.14718004633631768,-0.26587142726824525,-1.967411255705455
1784201632842165504,3.165569305419922,-0.8243038654327393,0.10547145456075668,0.0646677240729332,-0.2592100203037262,-0.13631920516490936,-0.9561523199081421,0.1463407576084137,0.06358057260513306,0.2474578619003296,0.5397824909015297,-0.07219249050697871,-0.12927525416967864,-0.8286802348840012,0.13674498308425898,-0.2647340102236588,-1.9686736971907228
1784201632852084480,3.175488233566284,-0.46172645688056946,0.1900063157081604,0.051900528371334076,-0.25771209597587585,-0.12991522252559662,-0.9574479460716248,0.13985323905944824,0.2159595489501953,0.26997846364974976,0.539855567698322,-0.07331685461272619,-0.12609789959144818,-0.8290235030738101,0.13028347514756114,-0.26293401912825043,-1.9699123715773355
1784201632862004224,3.185408115386963,0.04803173989057541,0.47722598910331726,0.027971960604190826,-0.2544892430305481,-0.12816645205020905,-0.9585450291633606,0.0746949315071106,0.23392511904239655,0.2942383885383606,0.540166403425601,-0.07238997077002965,-0.12444748052326422,-0.8291518276260819,0.12851996163493007,-0.2595085202176138,-1.9699857631979378
1784201632871923456,3.1953272819519043,0.34806880354881287,0.6104761362075806,-0.17839612066745758,-0.24890154600143433,-0.13015860319137573,-0.959743082523346,0.032242000102996826,0.21592827141284943,0.32671695947647095,0.5402734407317761,-0.06946240730532696,-0.12370707554559891,-0.829443249140894,0.13052894863632372,-0.2537514853806373,-1.9702452104944645
1784201632881843456,3.205247163772583,0.1935970038175583,0.731586754322052,-0.1300918161869049,-0.24208879470825195,-0.13356447219848633,-0.9610169529914856,0.06571245193481445,0.07678651809692383,0.3372986912727356,0.5400773481200037,-0.06567388980082337,-0.12320094999591133,-0.8299547665196064,0.13396481298898505,-0.2467745467908502,-1.9711762296353477
1784201632891763456,3.215167284011841,-0.14323748648166656,0.8422626256942749,-0.05319196730852127,-0.2343483418226242,-0.13405841588974,-0.9628651142120361,0.1308632344007492,-0.07314068078994751,0.43335461616516113,0.5401510815714553,-0.06225894515072534,-0.12120756460556939,-0.8304633733265959,0.13446323735906518,-0.23874454746350907,-1.9720981634882337
1784201632901682432,3.225086212158203,-0.3750925660133362,0.8463371992111206,0.008588842116296291,-0.2259179651737213,-0.13148103654384613,-0.9652324914932251,0.09527222812175751,-0.14854824542999268,0.4290692210197449,0.5405643954988123,-0.059353204370452425,-0.11773249661300252,-0.8309069224469015,0.13186283697316054,-0.2299166928355889,-1.9727911084002312
1784201632911602176,3.235006093978882,-0.6119823455810547,0.9240772724151611,0.039331842213869095,-0.21751189231872559,-0.12649580836296082,-0.9678261280059814,0.15449309349060059,-0.09191849827766418,0.43573689460754395,0.5409879591958314,-0.05712353215119632,-0.11324241128721645,-0.8314115522322157,0.12683561146543437,-0.2210695628350388,-1.9737821291344462
1784201632921521408,3.2449252605438232,-0.7008990049362183,0.9720631837844849,0.0628213882446289,-0.20790399610996246,-0.12031227350234985,-0.9707218408584595,0.13840021193027496,-0.07933373004198074,0.405490517616272,0.5414724976339046,-0.05471264203369182,-0.10791480707308697,-0.8319667157883931,0.12060443470842072,-0.21098712635513484,-1.9748840413359794
1784201632931441408,3.254845142364502,-0.9090697765350342,1.047021746635437,0.13972468674182892,-0.1977492719888687,-0.11230072379112244,-0.9737986326217651,0.1521254926919937,-0.06114592403173447,0.41541850566864014,0.542228723905051,-0.052545138798655786,-0.10168428919323073,-0.8323984651055526,0.11253812100830837,-0.20034571609306243,-1.9755446742574354
1784201632941361408,3.2647652626037598,-1.0771987438201904,0.8842875957489014,0.17709392309188843,-0.18655656278133392,-0.10221950709819794,-0.9771119952201843,0.21011613309383392,-0.00266941636800766,0.4123231768608093,0.5430153822235578,-0.05051438675417883,-0.09429902081684553,-0.8328807676185811,0.10239835819397186,-0.1886560023236902,-1.9763752826947338
1784201632951280384,3.274684190750122,-1.0463322401046753,0.8659999370574951,0.0875784307718277,-0.1778877228498459,-0.09159218519926071,-0.9797789454460144,0.18014603853225708,0.03983437269926071,0.3782165050506592,0.5437435154188711,-0.04970983759574882,-0.08740392895541818,-0.8332061666474342,0.09172073046388382,-0.1796026354628648,-1.9769379504408764
1784201632961200384,3.28460431098938,-0.8482202887535095,0.9162057638168335,0.08473227918148041,-0.16837315261363983,-0.08199821412563324,-0.9823068380355835,0.09233863651752472,0.10296379774808884,0.35349220037460327,0.544081854780672,-0.048310531642133094,-0.08070105227377054,-0.833743682005617,0.08209038542322085,-0.16975621521463075,-1.9782352358956692
1784201632971119360,3.294523239135742,-0.6576458215713501,0.9843083620071411,0.030686886981129646,-0.15916645526885986,-0.0749519094824791,-0.9844024777412415,0.15710651874542236,0.1444709599018097,0.26078492403030396,0.5446451393763805,-0.04632290658106514,-0.0751860783968797,-0.8340041395720037,0.07502226475614995,-0.16030107651711614,-1.9785332843185912
1784201632981039360,3.304443120956421,-0.3837607502937317,0.8658069968223572,0.06307758390903473,-0.14958685636520386,-0.06941397488117218,-0.9863089919090271,0.08850593864917755,0.18217642605304718,0.2538719177246094,0.5449549587190976,-0.0437916603047734,-0.07019816316742004,-0.8343732282242841,0.06946983526153583,-0.15051622074464713,-1.9792064239940776
1784201632990959360,3.3143632411956787,-0.23814363777637482,0.9664227962493896,0.06340408325195312,-0.14071668684482574,-0.06667961925268173,-0.9878019094467163,0.13137832283973694,0.09757866710424423,0.14212936162948608,0.5455630003789914,-0.04076830896778222,-0.0666106728352566,-0.8344232035398516,0.06672913074353065,-0.14150229698537237,-1.9787493465539572
1784201633000878336,3.324282169342041,-0.000723215751349926,0.9218783974647522,-0.10624387115240097,-0.13106021285057068,-0.06533306837081909,-0.9892193078994751,0.07922610640525818,0.1538950800895691,0.1478344202041626,0.5456265592335441,-0.03708108384820721,-0.0633667583360671,-0.8348061525899086,0.06537963863113774,-0.1317213900659961,-1.9794799189693282
1784201633010798336,3.334202289581299,0.0640118345618248,0.8218737840652466,0.004226983524858952,-0.12248580902814865,-0.06582146137952805,-0.9902852177619934,0.13945358991622925,0.10142021626234055,0.08586627244949341,0.5457593785760959,-0.033340793029494845,-0.06120289903135434,-0.8350385558961163,0.06586908096922252,-0.12306238704276602,-1.979766142852038
1784201633020717312,3.344121217727661,0.10661336034536362,0.8639593720436096,-0.10145164281129837,-0.11368425190448761,-0.06691150367259979,-0.9912611842155457,0.1136995181441307,0.10846118628978729,0.07297199964523315,0.5457732125133983,-0.0293504486987751,-0.05922801680273727,-0.835321565083178,0.06696153169131931,-0.11418758721478463,-1.9802840317091595
1784201633030637312,3.35404109954834,-0.051596783101558685,0.8247616291046143,-0.011919362470507622,-0.10521883517503738,-0.06723444163799286,-0.9921736121177673,0.08602327853441238,0.03718987852334976,0.043366849422454834,0.5457534184210717,-0.02571474229431568,-0.05702572198714791,-0.8356076218993349,0.06728519738121858,-0.10565391833859854,-1.9809004706838762
1784201633040557312,3.3639612197875977,-0.17054899036884308,0.7735838890075684,-0.06437830626964569,-0.0967986136674881,-0.06609674543142319,-0.9931068420410156,0.1372344195842743,-0.013432055711746216,0.0348549485206604,0.5458402859321211,-0.022491978698702786,-0.054228016651169546,-0.8358299862391849,0.06614497054426269,-0.0971635648429754,-1.981340236282806
1784201633050476288,3.37388014793396,-0.4211229085922241,0.6040654182434082,0.032768744975328445,-0.08997704833745956,-0.06327951699495316,-0.9939315319061279,0.10860802978277206,-0.11353933066129684,-0.04046177864074707,0.5458248857906389,-0.02040645610190824,-0.051164686992179416,-0.8360866278534895,0.06332182603144036,-0.09028032822524495,-1.9820029887499728
1784201633060396544,3.3838002681732178,-0.6160396933555603,0.48074349761009216,0.21640045940876007,-0.08475366979837418,-0.05817701667547226,-0.9947021007537842,0.17252221703529358,-0.14507006108760834,-0.10655522346496582,0.5465459353963394,-0.019574153938349655,-0.04760049123989749,-0.8358460358082171,0.05820988266257363,-0.08499977661667885,-1.980915692265227
1784201633070315264,3.39371919631958,-0.6098798513412476,0.3653889298439026,0.17138318717479706,-0.08066801726818085,-0.05174677446484566,-0.9953968524932861,0.11435943096876144,-0.07265812903642654,-0.1779581904411316,0.5473032360359611,-0.019585902803045396,-0.04379445476996573,-0.8355581814074312,0.051769895838830786,-0.0808643376469878,-1.9797123394694127
1784201633080235520,3.403639316558838,-0.6683581471443176,0.23624935746192932,0.07187201082706451,-0.07727688550949097,-0.045401688665151596,-0.9959753751754761,0.10066860914230347,0.0003729984164237976,-0.23154842853546143,0.5479715719264205,-0.019875010003873667,-0.040215552712359506,-0.8352933694835124,0.04541730045041546,-0.07743401619434832,-1.9786380132486017
1784201633090155264,3.4135591983795166,-0.5479326844215393,0.18283887207508087,-0.08479243516921997,-0.07564704120159149,-0.03927928954362869,-0.996360719203949,0.06818549335002899,0.1377900242805481,-0.23798376321792603,0.5479422831350264,-0.020875413731030128,-0.03720030465882737,-0.8354277375519302,0.03928939643540229,-0.07577796568138248,-1.9791043961781751
1784201633100074240,3.423478126525879,-0.4597031772136688,0.19110581278800964,-0.0589338093996048,-0.07349203526973724,-0.03407728299498558,-0.996713399887085,0.00929831713438034,0.18671095371246338,-0.30724161863327026,0.5474562595420976,-0.021421519666863065,-0.03441516775933075,-0.8358519805578256,0.03408388109101288,-0.073601179429834,-1.9806184090442545
1784201633109994496,3.4333982467651367,-0.7286390066146851,0.08186162263154984,0.2410997748374939,-0.07195691764354706,-0.028668712824583054,-0.9969956278800964,-0.09112901240587234,0.06051380932331085,-0.3343183994293213,0.5478231193200616,-0.022247777909815046,-0.031736669356122134,-0.8356958752658566,0.028672641731898915,-0.07204882209930219,-1.980054322494185
1784201633119913216,3.443317174911499,-1.0551955699920654,0.05149617791175842,0.15618330240249634,-0.07107364386320114,-0.019366733729839325,-0.9972830414772034,-0.02815426141023636,-0.041195400059223175,-0.28572171926498413,0.5487298442650256,-0.024399480190589955,-0.02762506474287885,-0.8351868006252403,0.019367943801329515,-0.071146982999983,-1.9783221987118333
1784201633129833472,3.453237295150757,-1.207571268081665,-0.00709922332316637,-0.07808007299900055,-0.070174440741539,-0.008301027119159698,-0.9975001811981201,0.028487429022789,-0.1630246639251709,-0.3401920795440674,0.5486119332609741,-0.027066192822609178,-0.022744743227142962,-0.8353292835248144,0.008301122723100851,-0.0702345890086019,-1.9790736982128225
1784201633139753216,3.4631571769714355,-1.3010692596435547,-0.3729361891746521,0.09495032578706741,-0.07159467786550522,0.004638507030904293,-0.997422993183136,0.12889143824577332,-0.14167769253253937,-0.28823673725128174,0.5485517858029678,-0.031215603785412178,-0.0177221497920208,-0.8353456985433477,-0.004638523841054483,-0.0716567515470874,-1.9796502597748635
1784201633149672192,3.473076105117798,-1.2700748443603516,-0.0695539265871048,0.043588604778051376,-0.07264788448810577,0.017437711358070374,-0.9972051978111267,-0.052306339144706726,-0.09125973284244537,-0.2995629906654358,0.5487545457708354,-0.03516950266856647,-0.012669105461084785,-0.8351472660782876,-0.017438595190855638,-0.0727230181250793,-1.9795611162006095
1784201633159592448,3.4829962253570557,-0.8932459950447083,-0.08431236445903778,0.08291283994913101,-0.07331585139036179,0.028197014704346657,-0.9969100952148438,-0.11178851872682571,0.1015332043170929,-0.28479766845703125,0.5488357624235247,-0.03840667273765525,-0.008359761536059768,-0.8350056499614801,-0.02820075257697757,-0.07341093221044773,-1.979671037688552
1784201633169511424,3.492915153503418,-0.7137068510055542,-0.2773505449295044,0.16973242163658142,-0.0749746710062027,0.03639857470989227,-0.9965209364891052,0.0584188848733902,0.19321568310260773,-0.2893829941749573,0.5492620086944251,-0.041355372843222604,-0.005410497463488185,-0.8346087403826067,-0.036406615311660506,-0.07509494738308721,-1.9788537123062147
1784201633179431424,3.502835273742676,-0.3815058469772339,-0.16928356885910034,0.2494432032108307,-0.07670830935239792,0.04183884337544441,-0.9961753487586975,0.09495782852172852,0.08335950970649719,-0.2913459539413452,0.5499851343581732,-0.04357717223995361,-0.003653800027331272,-0.8340288539443133,-0.0418510605908642,-0.07685116232759219,-1.977247722345301
