time,seconds_elapsed,rotationRateX,rotationRateY,rotationRateZ,gravityX,gravityY,gravityZ,accelerationX,accelerationY,accelerationZ,quaternionW,quaternionX,quaternionY,quaternionZ,pitch,roll,yaw
1784804388226197760,0.3719348907470703,-0.40166738629341125,0.1331564337015152,-0.03189883008599281,0.047586120665073395,0.7209378480911255,-0.6913641095161438,0.011038120836019516,-0.1942349672317505,0.0761144757270813,0.6348101669030667,-0.25186586384307225,0.3014656509496082,-0.6653557438274172,-0.8051546542533169,0.06872093758040258,-1.5885019540491825
1784804388236117760,0.3818550109863281,-0.4142155349254608,0.09683381021022797,0.08938997983932495,0.04823487251996994,0.7239581346511841,-0.6881555318832397,-0.01732056960463524,-0.09979736804962158,-0.003357529640197754,0.6341377792040589,-0.2529524551181951,0.30321163238044463,-0.6647910000134811,-0.8095229183085223,0.06997852748606434,-1.5879953200165913
1784804388246036736,0.39177393913269043,-0.23169870674610138,0.06623701751232147,0.12237269431352615,0.04917125776410103,0.7262969017028809,-0.6856201887130737,-0.07106763124465942,0.03935861587524414,-0.06241142749786377,0.6338869919792383,-0.25375623255687957,0.3046271058974161,-0.6640764198518989,-0.8129192529569887,0.07159534450970126,-1.5864788542224781
1784804388255955712,0.40169286727905273,0.17456232011318207,0.03825663402676582,0.12763060629367828,0.05000380426645279,0.7265496850013733,-0.6852920651435852,-0.13537675142288208,0.1438269019126892,-0.09748387336730957,0.634104237842481,-0.25367616800854426,0.3049629210664208,-0.6637453531275225,-0.8132871031955283,0.0728380632662171,-1.5850869952181053
1784804388265875712,0.41161298751831055,0.6578530669212341,-0.04080915451049805,0.15983781218528748,0.05024009197950363,0.7237973213195801,-0.6881812810897827,-0.16385704278945923,0.22777128219604492,-0.11293566226959229,0.6349647450303352,-0.25247630847944935,0.30358703113260455,-0.6640108810095432,-0.8092897764146144,0.07287487436598063,-1.5842884767769028
1784804388275794688,0.42153191566467285,1.1072496175765991,-0.012561196461319923,0.2431761473417282,0.05008571967482567,0.7178464531898499,-0.694397509098053,-0.16382473707199097,0.27481406927108765,-0.11659187078475952,0.6365604603058672,-0.2500325633211386,0.30047456882721574,-0.6648228876978222,-0.8007040483156639,0.07200361651133494,-1.5837405138364173
1784804388285714688,0.43145179748535156,1.2165513038635254,0.10887442529201508,0.254526287317276,0.04923441633582115,0.7102106809616089,-0.7022653818130493,-0.22954751551151276,0.31900984048843384,-0.08408099412918091,0.6382727259224918,-0.24703035719329183,0.2963837121033212,-0.6661385006946501,-0.7897974332186893,0.06999346541311703,-1.584332461185171
1784804388295633920,0.44137096405029297,1.1039000749588013,0.21788494288921356,0.28218796849250793,0.04707447066903114,0.7036089301109314,-0.7090263962745667,-0.24965015053749084,0.24829530715942383,-0.01665109395980835,0.639339484456049,-0.24482693902796332,0.2924834701452812,-0.6676511874971502,-0.7804636100776793,0.06629581609944434,-1.586835405593945
1784804388305552640,0.4512898921966553,0.8904463648796082,0.24914032220840454,0.32317933440208435,0.04720040410757065,0.6976388692855835,-0.7148930430412292,-0.16255685687065125,0.12427574396133423,0.0032842159271240234,0.6405293376326651,-0.24216961686677646,0.28966766494381124,-0.6687066573612768,-0.7720966020797373,0.06592874107031893,-1.5870290767297814
1784804388315472896,0.4612100124359131,0.6768975853919983,0.29794201254844666,0.21629762649536133,0.04845456779003143,0.6929871439933777,-0.719319760799408,-0.10736876726150513,0.07564383745193481,-0.010614871978759766,0.6414810903194829,-0.2396879844340167,0.287905846370268,-0.6694489594455064,-0.765624210038895,0.06726004156057182,-1.586365968083798
1784804388325391872,0.4711289405822754,0.6351075172424316,0.36502596735954285,0.04618421941995621,0.049607377499341965,0.6890333890914917,-0.7230297923088074,-0.17045697569847107,0.1035844087600708,-0.05442076921463013,0.6418198293844641,-0.23735697093282251,0.2866125983480221,-0.6705088967071682,-0.7601544880295308,0.06850306451615397,-1.587135596041343
1784804388335311616,0.4810488224029541,0.6758936047554016,0.44685712456703186,-0.1414405256509781,0.05053511634469032,0.684955358505249,-0.7268304228782654,-0.2073039412498474,0.18360543251037598,-0.08884340524673462,0.641545901683541,-0.2348008414122478,0.2854003491324368,-0.6721861190014635,-0.7545424017400436,0.06941635780743095,-1.5899184227887322
1784804388345230848,0.4909679889678955,0.8078764081001282,0.4567089378833771,-0.3870875835418701,0.050703294575214386,0.6802183985710144,-0.7312537431716919,-0.1867659091949463,0.21217656135559082,-0.10387498140335083,0.6406333329554901,-0.23194823414816745,0.28385407041397415,-0.6746968011148957,-0.748060553081058,0.06922668422732474,-1.5953981009456437
1784804388355149824,0.5008869171142578,1.0159457921981812,0.4480140805244446,-0.5061798691749573,0.04985634610056877,0.6741313934326172,-0.7369268536567688,-0.15859049558639526,0.1945209503173828,-0.11890804767608643,0.6393169185277022,-0.22866767762007864,0.28150960958977805,-0.6780393456426467,-0.7397880972911799,0.06755146496084054,-1.603366596295098
1784804388365069568,0.5108067989349365,1.1980886459350586,0.46012958884239197,-0.4207368493080139,0.04909079894423485,0.6664668917655945,-0.7439166903495789,-0.11288780719041824,0.20944863557815552,-0.12435418367385864,0.6381714291665888,-0.22469857227856463,0.27848198227275656,-0.6816858862096017,-0.7294596621846962,0.06589410926944106,-1.6115437202136815
1784804388374988800,0.5207259654998779,1.3627939224243164,0.44454288482666016,-0.25269755721092224,0.04946485161781311,0.6573538780212402,-0.7519568204879761,-0.1092945784330368,0.2312416434288025,-0.13727957010269165,0.6376809166737474,-0.21992231080652672,0.27505591400064766,-0.6850850251524989,-0.7173019925003875,0.0656868649281924,-1.61780869643203
1784804388384908800,0.5306458473205566,1.304639220237732,0.4171499013900757,-0.1389893740415573,0.05074228346347809,0.6472069621086121,-0.7606236934661865,-0.11203683912754059,0.18740302324295044,-0.14143013954162598,0.637860884068106,-0.21464755201732844,0.2713200928665362,-0.6880736915320507,-0.7039148565333753,0.06661271426580537,-1.6220285150591245
1784804388394827776,0.540565013885498,0.9873334169387817,0.3185575604438782,-0.17960447072982788,0.0526081882417202,0.6393982172012329,-0.7670738101005554,-0.176372230052948,0.07350760698318481,-0.024109601974487305,0.6378140737060829,-0.21023092198403573,0.2688234536549696,-0.6904564095607839,-0.6937153546555946,0.0684757276570804,-1.625258821989226
1784804388404746752,0.5504839420318604,0.9122725129127502,0.4400613605976105,-0.004582587629556656,0.0524948425590992,0.6312820911407471,-0.7737746238708496,-0.12360081076622009,-0.15020304918289185,0.025147974491119385,0.6379292445047737,-0.20653489568217298,0.2654355364462066,-0.692772374941144,-0.6832052618240877,0.06773875006411381,-1.629085100394509
1784804388414666752,0.5604038238525391,1.211788535118103,0.3596646189689636,0.3512621223926544,0.05653955414891243,0.6238361597061157,-0.7795073390007019,-0.02171899378299713,0.1640055775642395,0.02293086051940918,0.6389754034435765,-0.20195732213012096,0.2635518265947643,-0.6938760955362777,-0.6736414968793849,0.07240562181655823,-1.6277669435796334
1784804388424585728,0.5703229904174805,1.629936695098877,0.24824273586273193,0.4904319941997528,0.06075471267104149,0.6125428676605225,-0.7880990505218506,-0.0632113665342331,-0.004983663558959961,-0.18541169166564941,0.6414063961739426,-0.1961194021608259,0.25978388183556106,-0.6947282412705923,-0.6592736464127852,0.07693802960288146,-1.6242356042548831
1784804388434505728,0.5802428722381592,1.9368665218353271,0.16660182178020477,0.5251842737197876,0.06496010720729828,0.5983937978744507,-0.7985643744468689,0.03879965841770172,0.2960764169692993,-0.1212964653968811,0.629402936042008,-0.18378732645280266,0.25872772551073003,-0.7093195065455794,-0.6414948804680748,0.08116739648792787,-1.6630686049432037
1784804388444424704,0.5901618003845215,2.0100834369659424,0.1870516985654831,0.3792204260826111,0.06841737031936646,0.5821636319160461,-0.8101879954338074,0.0012542307376861572,0.18251532316207886,-0.08823418617248535,0.62844499312341,-0.1751148309136565,0.2534576686040535,-0.7142485606863366,-0.6213872173280244,0.08424641305522101,-1.6713657865675913
1784804388454343680,0.6000809669494629,1.663572907447815,0.375654399394989,0.10989844799041748,0.07161752879619598,0.5672440528869629,-0.8204298615455627,-0.07346387207508087,0.10261678695678711,-0.027012765407562256,0.6301224559330385,-0.16816345080161485,0.24800426920955224,-0.7163524172579232,-0.6031555537027503,0.08707197308754,-1.6716038149604167
1784804388464263680,0.6100008487701416,1.1483622789382935,0.4900536835193634,-0.3675384223461151,0.0743628516793251,0.5559131503105164,-0.8279074430465698,-0.1376563012599945,0.08031731843948364,-0.026630520820617676,0.6303196184760993,-0.16245465867842937,0.24424322407228527,-0.7187843678848682,-0.5894610898831034,0.08957986326920722,-1.6745443960124393
1784804388474182912,0.619920015335083,0.6825052499771118,0.5415551662445068,-1.263278603553772,0.07358615100383759,0.5493016839027405,-0.8323777914047241,-0.1905752718448639,0.011046826839447021,-0.001942276954650879,0.6269858556668896,-0.15891038385120396,0.2419888593575227,-0.723241078047431,-0.5815283369409985,0.0881755193952507,-1.6867302706354514
1784804388484101888,0.6298389434814453,0.6313475370407104,0.5993750691413879,-1.949650526046753,0.06858595460653305,0.5454143285751343,-0.8353556990623474,-0.34524303674697876,-0.4305614233016968,0.09998887777328491,0.6208639810756558,-0.15724092375976062,0.23999466743836118,-0.7295242512854215,-0.5768833427204634,0.08192014648094367,-1.7070626061002327
1784804388494021632,0.639758825302124,0.6173995137214661,0.7112946510314941,-1.024100422859192,0.06554259359836578,0.5414202809333801,-0.8381934762001038,-0.1540435552597046,0.021751105785369873,0.09971380233764648,0.6154896220448804,-0.15507767166430095,0.23844116708659124,-0.7350301752938136,-0.5721255140041565,0.0780362732231478,-1.7244017944245067
1784804388503940864,0.6496779918670654,1.2320760488510132,0.2896089255809784,-0.3891168534755707,0.06558224558830261,0.5344356298446655,-0.8426610231399536,0.3854981064796448,0.04881638288497925,0.1385442018508911,0.6130997624886056,-0.15153482033215201,0.2360226555373527,-0.7385385841425525,-0.5638398428487739,0.07767098504024733,-1.7333697589308232
1784804388513860608,0.6595978736877441,1.6082344055175781,0.03687605261802673,-0.3005763590335846,0.0645286962389946,0.5225111246109009,-0.8501871228218079,0.3301398754119873,-0.13153517246246338,0.09489232301712036,0.6126374770028441,-0.14715494026463707,0.23076362507255213,-0.7414640387511774,-0.5497934414483366,0.07575416037829807,-1.739126559271616
1784804388523779584,0.6695168018341064,1.7878915071487427,0.007360236719250679,-0.568668782711029,0.062012530863285065,0.5085017681121826,-0.8588249683380127,0.031661178916692734,-0.1630428433418274,0.26045161485671997,0.6119765858800572,-0.14256166494652417,0.22419561564990853,-0.7449141575046648,-0.5334439227630905,0.07208114992422526,-1.746414535962316
1784804388533699840,0.6794369220733643,2.108412981033325,0.007267558481544256,-1.1010066270828247,0.0575011745095253,0.49246448278427124,-0.8684309720993042,-0.1081908792257309,-0.19813770055770874,0.4250410795211792,0.6097477643562338,-0.13763213749187764,0.2164298998803779,-0.749948823736155,-0.5149191381561652,0.06611621007940273,-1.758879709900683
1784804388543618560,0.6893558502197266,2.606156587600708,-0.1630927324295044,-1.6629613637924194,0.04931919649243355,0.4730116128921509,-0.8796747326850891,-0.03703588247299194,-0.11755812168121338,0.5944421887397766,0.605601765163503,-0.13253403585233214,0.20639127945976543,-0.7570230907459832,-0.4927058476400467,0.05600662981101222,-1.778050872066368
1784804388553537792,0.699275016784668,3.5528790950775146,-0.029415316879749298,-1.8742246627807617,0.03832419589161873,0.4473522901535034,-0.8935363292694092,0.06889931857585907,0.08740723133087158,0.7360503673553467,0.6003119780500524,-0.12632643580608607,0.1930633823479196,-0.7657634222512353,-0.46380268898216725,0.04286420021126176,-1.801727191565156
1784804388563457792,0.7091948986053467,4.576145172119141,0.09172868728637695,-2.046945095062256,0.026433028280735016,0.41267338395118713,-0.9104954600334167,0.041026078164577484,0.23281916975975037,0.8228184580802917,0.5947820813253257,-0.11774459848370672,0.17575118659745248,-0.7755527100243652,-0.42538705485400957,0.029023325204862182,-1.8268476432280842
1784804388573376768,0.719113826751709,5.211422443389893,-0.26902225613594055,-2.743589162826538,0.015032515861093998,0.3690059185028076,-0.9293054342269897,0.056210778653621674,0.1976902186870575,0.971465528011322,0.5879660559908253,-0.1063265581691743,0.1550546162740911,-0.786732822513073,-0.3779392375082487,0.016174665571719943,-1.854891051896381
1784804388583295744,0.7290329933166504,5.413727760314941,-0.26327353715896606,-2.784426689147949,0.0025644132401794195,0.3197110891342163,-0.947511613368988,0.3473653793334961,-0.04653298854827881,1.0464191436767578,0.5798083280001048,-0.09413217672778146,0.13184585872502838,-0.7984848844913522,-0.32542455882756405,0.0027064650212228415,-1.8850440279746319
1784804388593215744,0.7389528751373291,5.3057379722595215,-0.12487921118736267,-2.786830186843872,-0.007668921258300543,0.2691424489021301,-0.9630698561668396,0.5130247473716736,-0.2547839283943176,1.1626243591308594,0.5714131913483322,-0.08150412121427314,0.10872974457741266,-0.8093341795604513,-0.27250252245717305,-0.007962827866375727,-1.9131629999070008
1784804388603134720,0.7488718032836914,5.130973815917969,0.15599052608013153,-3.120006561279297,-0.014675953425467014,0.21871031820774078,-0.9756794571876526,0.46691593527793884,-0.2863525152206421,1.2000598907470703,0.5618429964351007,-0.0682869473737389,0.08658615924056287,-0.8198609815910588,-0.2204925893484546,-0.015040642969933562,-1.941686483387552
1784804388613054720,0.7587919235229492,5.150972843170166,0.36713331937789917,-3.316070079803467,-0.018241971731185913,0.1684746891260147,-0.9855371713638306,0.4496231973171234,-0.08757258951663971,1.1247583627700806,0.5500552409109313,-0.054305499715844335,0.06543950619058574,-0.8307874832683031,-0.16928203967754266,-0.018507561090334395,-1.9735094942544837
1784804388622973696,0.7687108516693115,4.575824737548828,-0.4729059636592865,-3.647333860397339,-0.02359386347234249,0.11934579908847809,-0.9925723671913147,0.5393561720848083,0.09745107591152191,0.7563663125038147,0.5370608092050547,-0.04212965812631674,0.044033018658890276,-0.8413393681149034,-0.11963094762414928,-0.023765945002673233,-2.0067463150744858
1784804388632892928,0.7786300182342529,5.932036399841309,0.5727746486663818,-4.613507270812988,-0.028014173731207848,0.06884157657623291,-0.9972342252731323,0.6012563705444336,-0.10549318790435791,-0.8146249055862427,0.5207637300760458,-0.029912977763212396,0.022093335434124325,-0.8528904890922987,-0.06889607061777908,-0.028084483418427276,-2.0462252808905195
1784804388642812672,0.7885499000549316,6.877785682678223,-0.8323903679847717,-3.4434974193573,-0.02950851060450077,0.0011894996277987957,-0.9995638132095337,0.6946238875389099,-0.3407585918903351,0.7997804880142212,0.5031507743757393,-0.013050840670099673,-0.006911214855978844,-0.86407250841553,-0.001189499945727354,-0.02951281647938425,-2.0870017139891885
1784804388652731648,0.798468828201294,6.062222480773926,-0.9662275314331055,-2.2282581329345703,-0.03829290345311165,-0.0628490000963211,-0.997288167476654,1.5366754531860352,-0.5338459610939026,1.1611523628234863,0.49201677592232745,-0.0011939495668178053,-0.0368035156065342,-0.869806701319825,0.06289045186207387,-0.03837817846956684,-2.110808681945422
1784804388662651904,0.8083889484405518,5.989127159118652,-0.7618248462677002,-2.9972755908966064,-0.04417329654097557,-0.12347907572984695,-0.991363525390625,0.7910910248756409,-0.6491497159004211,0.9433746337890625,0.4804935944351284,0.010394839434873335,-0.06488593710181079,-0.8745328309224187,0.12379502728735088,-0.04452866881420454,-2.134023211816741
1784804388672570624,0.8183078765869141,5.4740424156188965,-0.443814218044281,-2.6966896057128906,-0.04564214125275612,-0.18085125088691711,-0.9824508428573608,0.3561127185821533,-0.4874989688396454,0.6495651006698608,0.4672174160028445,0.022381295724229686,-0.09095969152145104,-0.879166315051167,0.1818519105857106,-0.04642405141481921,-2.1604068726883177
1784804388682489600,0.8282268047332764,5.407310485839844,-0.36587947607040405,-2.539105176925659,-0.04410378634929657,-0.23426474630832672,-0.9711719155311584,0.45914286375045776,-0.327029824256897,0.612453043460846,0.4550946872687948,0.0343447084381868,-0.11504122357702282,-0.882312215890568,0.23646219579797717,-0.04538177588921212,-2.183789483293243
1784804388692409856,0.8381469249725342,5.75376033782959,-0.21575285494327545,-2.7443947792053223,-0.03995046764612198,-0.28850817680358887,-0.9566435813903809,0.4640379846096039,-0.26108285784721375,0.6675658822059631,0.4421750016742897,0.047134015510424294,-0.13948684932400554,-0.8847615432954126,0.2926683842731341,-0.04173682515519832,-2.2085171435131876
1784804388702328576,0.8480658531188965,6.571063041687012,-0.01163460686802864,-2.714585542678833,-0.03220224380493164,-0.3470709025859833,-0.937285840511322,0.48016977310180664,-0.11513307690620422,0.8874201774597168,0.42831244718828543,0.062004298187304525,-0.16586902038463736,-0.8861102396079592,0.3544460473553624,-0.034343399950321804,-2.2349426193000723
1784804388712248832,0.8579859733581543,7.766439914703369,0.13949140906333923,-2.498314619064331,-0.021652627736330032,-0.41332563757896423,-0.910325825214386,0.4905094504356384,0.020716995000839233,0.994310200214386,0.4142521213036558,0.07959604578518062,-0.1962181596114069,-0.8851881263185291,0.42610324741767897,-0.023781097192780803,-2.2610342176995255
1784804388722167808,0.8679049015045166,8.829998016357422,0.3882650136947632,-2.334291696548462,-0.008411126211285591,-0.48729026317596436,-0.8731995820999146,0.45344895124435425,0.19415366649627686,0.8341065645217896,0.4001802706525815,0.10014540625841593,-0.23102190360572522,-0.881167175689896,0.5089839788763297,-0.009632238198194058,-2.28649101570594
1784804388732086784,0.8778238296508789,9.388213157653809,0.4548290967941284,-2.4269981384277344,0.008032884448766708,-0.5646162629127502,-0.825314462184906,0.3382501006126404,0.21358782052993774,0.672879159450531,0.38527368672146356,0.12302214732829303,-0.26871605130730325,-0.874197600378298,0.5999682236675372,0.009732812258904832,-2.3143885081297
1784804388742006784,0.8877439498901367,9.08498477935791,0.5040472745895386,-2.370990514755249,0.02625874988734722,-0.6376107931137085,-0.769910991191864,0.37738198041915894,-0.013985216617584229,0.6466352343559265,0.3693316959615418,0.14588793532962338,-0.30620454980831907,-0.8651875189855834,0.69139283989692,0.03409300133720278,-2.346947700917777
1784804388751925760,0.897662878036499,8.037918090820312,0.5086939930915833,-2.384021520614624,0.046036675572395325,-0.700046956539154,-0.7126113772392273,0.33656221628189087,-0.29365116357803345,0.525920033454895,0.3535122118549942,0.16748973396505573,-0.34006104079663707,-0.855181177650446,0.775463221317516,0.06451313056842636,-2.383978243628082
1784804388761845760,0.9075829982757568,7.152133941650391,0.5348606109619141,-2.6477882862091064,0.06762021780014038,-0.7500446438789368,-0.6579214334487915,0.07912357151508331,-0.20279043912887573,0.408791184425354,0.33704057541911614,0.18697393733620024,-0.36889028137588087,-0.8457922176450051,0.848129608943941,0.10241894034175215,-2.4294530379250454
1784804388771764736,0.9175019264221191,6.6585164070129395,0.6146159172058105,-3.030646562576294,0.09298525005578995,-0.7910012006759644,-0.6047073006629944,-0.27079588174819946,0.16574180126190186,0.3173080086708069,0.3195952985498225,0.2060245429050874,-0.39395462234520867,-0.8367870447293453,0.912443712450609,0.15257397659783112,-2.4869117674299406
1784804388781683712,0.9274208545684814,6.758347988128662,0.3908286392688751,-3.526059150695801,0.12247565388679504,-0.8255229592323303,-0.5509187579154968,-0.37058359384536743,0.4726787805557251,0.2800294756889343,0.3002588810494659,0.22519540386957146,-0.4169264389060132,-0.827830814251063,0.9711281780444531,0.21875416521445037,-2.5614656126046857
1784804388791603712,0.9373409748077393,7.176769256591797,0.0692758783698082,-3.646216630935669,0.15374444425106049,-0.8567999005317688,-0.4921957552433014,-0.2998168170452118,0.5114477872848511,0.2100149393081665,0.27790875956583916,0.2438357915472896,-0.44096058206249944,-0.8178414942837432,1.029031388095274,0.3027613486390283,-2.6585061439871294
1784804388801522688,0.9472599029541016,6.429722785949707,0.6311482787132263,-4.128660678863525,0.18781328201293945,-0.8827225565910339,-0.43072861433029175,-0.35269975662231445,0.5106064677238464,0.44949692487716675,0.25408684574049983,0.2626645698658015,-0.4643737953091798,-0.8067243951134081,1.0816250248238994,0.4111811941852201,-2.7805118526601884
1784804388811442944,0.9571800231933594,5.945271968841553,0.5054716467857361,-4.098276615142822,0.22640210390090942,-0.8990522027015686,-0.3747631013393402,-0.2940137982368469,0.2109265923500061,0.5769420266151428,0.2305883379119669,0.281947855142687,-0.4828290186224171,-0.7963734698290434,1.1176000076697652,0.5434438419128926,-2.922871256916635
1784804388821361664,0.9670989513397217,4.57028341293335,0.36332967877388,-4.034006118774414,0.2641068994998932,-0.90770024061203,-0.3260793685913086,-0.050041377544403076,-0.3456566333770752,0.2805013954639435,0.20815750108011208,0.29926866324522144,-0.4973917726828262,-0.7872166859293469,1.1377705674478438,0.680776631394054,-3.0699842608413195
1784804388831280640,0.977017879486084,2.622631311416626,0.6678570508956909,-4.197453498840332,0.3033391535282135,-0.9066168665885925,-0.29331058263778687,-0.2770177721977234,-0.3664085865020752,0.36487433314323425,0.18788940077628924,0.315099682205647,-0.5040405788784105,-0.7818905139562868,1.1351959539109115,0.8022047177550622,3.0850916458605386
1784804388841200896,0.9869379997253418,1.9451621770858765,0.8994860053062439,-4.106103420257568,0.34298670291900635,-0.899161159992218,-0.27178898453712463,-0.6732021570205688,-0.23792380094528198,0.09701484441757202,0.17018796358084334,0.33042649739243135,-0.5048998322393686,-0.7790574403839735,1.117848907802871,0.9006954188140409,2.9844350227633893
1784804388851119872,0.9968569278717041,2.2900850772857666,0.7791812419891357,-4.122583389282227,0.38194581866264343,-0.8898348212242126,-0.24962271749973297,-0.8125336170196533,-0.16555458307266235,-0.2718616724014282,0.15281369834049172,0.34585834898073636,-0.5055399513651747,-0.7755381419969917,1.0969830205236422,0.9919258278550226,2.8920936641408614
1784804388861039616,1.0067768096923828,3.013005256652832,0.4058721363544464,-4.152625560760498,0.4197581112384796,-0.8796519637107849,-0.22364133596420288,-0.5849956274032593,-0.1375293731689453,-0.5465765595436096,0.13368427837999106,0.3604775770511276,-0.508168520122537,-0.7706809525152889,1.0751299570673,1.081265049548915,2.7978021698232154
1784804388870958848,1.0166959762573242,3.7172482013702393,-0.04722144082188606,-3.973630905151367,0.4553503096103668,-0.8690451383590698,-0.19343329966068268,-0.406644344329834,-0.3771553039550781,-0.745943546295166,0.11237323669000727,0.37342864305592094,-0.5136481273032224,-0.7642569974910245,1.053268947461257,1.169094178979773,2.699062767759079
1784804388880877824,1.0266149044036865,4.097919464111328,-0.39907747507095337,-3.775322198867798,0.4879518747329712,-0.8578888177871704,-0.16102677583694458,-0.27998989820480347,-0.6696532368659973,-0.8949424624443054,0.08997822766875409,0.38445907270011964,-0.5212272343359063,-0.7565826040623258,1.031146778392701,1.2520438496006279,2.600575825780192
1784804388890797824,1.0365350246429443,4.582281112670898,-0.6721890568733215,-3.174694538116455,0.5170051455497742,-0.8465288281440735,-0.1268642395734787,-0.31651997566223145,-0.7325421571731567,-0.8370334506034851,0.06709344239711457,0.39340869589190863,-0.5308460013474804,-0.7476165876341468,1.0094305505294408,1.3301678395334706,2.502889856254082
1784804388900716800,1.0464539527893066,5.024121284484863,-0.8720697164535522,-2.885004997253418,0.5412888526916504,-0.83589768409729,-0.09100176393985748,-0.20394760370254517,-0.6148010492324829,-0.7610185146331787,0.04440437107620915,0.3997973880599956,-0.5428270137915293,-0.7372442500869258,0.9897662373594959,1.4042334283375033,2.405382261214309
1784804388910636544,1.0563738346099854,5.22714900970459,-1.1859707832336426,-2.7853026390075684,0.5636531710624695,-0.8242247700691223,-0.054302483797073364,-0.15673178434371948,-0.5692841410636902,-0.6509739756584167,0.02121776792605418,0.40458483131001954,-0.5560214678766523,-0.7257417712008886,0.968831828679358,1.4747524916959613,2.308301990149704
1784804388920555776,1.0662930011749268,5.079527854919434,-1.048866629600525,-2.790703773498535,0.5859834551811218,-0.8101080656051636,-0.01866416446864605,-0.3456880450248718,-0.5857964754104614,-0.5677921772003174,-0.0023666255721355948,0.40865504281621223,-0.5689191274267404,-0.7136711488735387,0.9443364191715726,1.5389560816383134,2.2161803729644998
1784804388930474752,1.076211929321289,4.958754062652588,-0.9957275986671448,-2.4605443477630615,0.6069779396057129,-0.7945639491081238,0.01568474993109703,-0.2625718116760254,-0.7900612950325012,-0.5022417306900024,-0.024869240276341905,0.4122572787356954,-0.5812798906094548,-0.7010985845354912,0.9182891131874372,1.596631301538357,2.1316997249114595
1784804388940394752,1.0861318111419678,4.2484846115112305,-1.2635725736618042,-1.9988256692886353,0.6244896054267883,-0.7797347903251648,0.04501780495047569,-0.00363999605178833,-0.8345687985420227,-0.2721754312515259,-0.045075269978601895,0.4141030159405501,-0.5924758184225913,-0.6895356399941608,0.8942420973891312,1.6427592060289333,2.05938091388497
1784804388950313728,1.0960509777069092,3.4194223880767822,-1.0985891819000244,-1.7257232666015625,0.6397917866706848,-0.7656389474868774,0.06681132316589355,0.02517104148864746,-0.7905440330505371,-0.019692175090312958,-0.06312377656731023,0.4145217577252897,-0.6013130408685197,-0.6801542943820497,0.8720340064524627,1.6748458627956762,2.0020203095350393
1784804388960232704,1.1059699058532715,2.361016035079956,-1.039145827293396,-1.923996090888977,0.6539979577064514,-0.752096951007843,0.0814654752612114,-0.11644613742828369,-0.7648554444313049,0.10235714167356491,-0.07841128138340554,0.41507426988533636,-0.6069976007391635,-0.6731410095907387,0.8512380856925523,1.6947233213411739,1.9612014010745527
1784804388970152960,1.1158900260925293,1.1862837076187134,-0.6417953968048096,-1.643000841140747,0.6683114767074585,-0.7385426163673401,0.08896254003047943,-0.27025550603866577,-0.9727305173873901,0.14373397827148438,-0.09085792368603655,0.4169415590133138,-0.6088029276885739,-0.6687775945466722,0.8309061791137128,1.703133705828467,1.938258453358984
1784804388980071680,1.1258089542388916,-0.1641930490732193,-0.6721301078796387,-1.4050931930541992,0.6797760128974915,-0.7281114459037781,0.08808131515979767,0.015551745891571045,-1.0598828792572021,0.19423675537109375,-0.09865368444120072,0.4191831134875915,-0.606898819247176,-0.6680020697836212,0.8155626943055535,1.6996524247188949,1.93456045135114
1784804388989991680,1.1357288360595703,-1.4364614486694336,-0.815719723701477,-1.2856515645980835,0.6901691555976868,-0.7194501757621765,0.07783488184213638,0.05331546068191528,-1.0127123594284058,0.0558779314160347,-0.10378254484523193,0.42126236880502665,-0.601211658565151,-0.6710528119918995,0.8030103765479223,1.6830983577562457,1.9475844627275227
1784804388999910912,1.1456480026245117,-2.9008593559265137,-0.8211754560470581,-0.8640642762184143,0.6984381675720215,-0.7134376168251038,0.05649077147245407,0.027315795421600342,-0.7824731469154358,0.11877168715000153,-0.10535403680231771,0.42275944280329214,-0.5912020288600598,-0.678715925499097,0.7943919096348728,1.6515022073197847,1.9799384145909067
1784804389009830912,1.1555681228637695,-3.9566545486450195,-0.8330987095832825,-0.7587642073631287,0.7041266560554504,-0.7095866203308105,0.026315905153751373,0.02702873945236206,-0.7453389167785645,0.24464964866638184,-0.1031235738894325,0.4238819874499296,-0.5774790154071189,-0.6900779576605054,0.7889113751996183,1.6081527643816989,2.0291389192459985
1784804389019749888,1.1654870510101318,-5.028048992156982,-0.6487179398536682,-0.7897394299507141,0.7096116542816162,-0.7045288681983948,-0.009493107907474041,-0.1669633984565735,-0.7699278593063354,0.38350123167037964,-0.09823867235678774,0.4260478591648189,-0.5601220113043077,-0.7036302765871693,0.7817590449729054,1.557419232020828,2.091772865178541
1784804389029668864,1.1754059791564941,-6.480013847351074,-0.244974747300148,-0.856233537197113,0.7148030996322632,-0.6973046064376831,-0.05312804877758026,-0.12093114852905273,-0.6796789765357971,0.46722108125686646,-0.0901579030036477,0.42901564895815475,-0.537941956968515,-0.720024607165497,0.7716301147313585,1.4966073080424596,2.1712330328757448
1784804389039588864,1.185326099395752,-7.449934482574463,0.0688958466053009,-0.9006084203720093,0.7209343314170837,-0.6854636073112488,-0.10194797813892365,-0.03688281774520874,-0.5124276280403137,0.47049349546432495,-0.07857451872821815,0.4340184457184327,-0.5105428470846114,-0.7381057185728349,0.7552402402756817,1.4303168620652988,2.265930546465602
1784804389049507840,1.1952450275421143,-8.145895004272461,-0.23610293865203857,-0.8881043791770935,0.7265061140060425,-0.6695199608802795,-0.15469932556152344,0.10581499338150024,-0.36273711919784546,0.22771264612674713,-0.06512380162121305,0.43854883214375195,-0.4799221418028645,-0.7570393259628534,0.7335623031138769,1.3609937961340202,2.3669766319971464
1784804389059428096,1.205165147781372,-9.4080810546875,0.04425761103630066,-1.2347651720046997,0.7328749895095825,-0.6461788415908813,-0.21294833719730377,0.2436264157295227,-0.14611846208572388,0.25639012455940247,-0.05016388902608224,0.44283579267940404,-0.44432228313960415,-0.7771471187842445,0.702566896147175,1.2880171623059664,2.4756560279927378
1784804389069346816,1.2150840759277344,-9.685127258300781,-0.3157612681388855,-1.4245460033416748,0.7411435842514038,-0.6128349304199219,-0.2741163671016693,0.23879116773605347,-0.0387611985206604,0.2606733739376068,-0.03452824907513224,0.44724065334723295,-0.4036305381621274,-0.7974121541236782,0.6596431705609125,1.21654310413844,2.587024524181168
1784804389079265792,1.2250030040740967,-9.377517700195312,-0.4287669062614441,-1.2298846244812012,0.7475805878639221,-0.5746408700942993,-0.33303332328796387,0.5073632597923279,-0.20483911037445068,-0.08647656440734863,-0.01943609797794847,0.4493410069386722,-0.3627340597303394,-0.816173358438284,0.6121652758208391,1.1517063340115479,2.6892427750765235
1784804389089186048,1.2349231243133545,-8.951797485351562,-0.4371744990348816,-1.0448307991027832,0.7520403861999512,-0.5334025025367737,-0.3871912658214569,0.5269970893859863,-0.14582723379135132,-0.0928959846496582,-0.004193201789990682,0.4498821443080515,-0.322506461371995,-0.832813384467849,0.5626180154593645,1.09533597893725,2.7826171437636784
1784804389099104768,1.2448420524597168,-7.340555667877197,-0.6422023177146912,-0.6264044046401978,0.7541449069976807,-0.49389246106147766,-0.43282315135002136,0.3611201047897339,-0.09131264686584473,-0.3679734468460083,0.009904638756789319,0.4488792539174643,-0.28652371639791024,-0.8463531395502609,0.516560646047151,1.0497697779249067,2.861394272209653
1784804389109023744,1.254760980606079,-5.451448917388916,-1.0724375247955322,-0.8679143786430359,0.7535644769668579,-0.4602159857749939,-0.4694057106971741,0.3445494771003723,-0.051258593797683716,-0.6145480871200562,0.019806440194490803,0.44566259635312067,-0.25822856569562036,-0.8569191791142189,0.47823847953681853,1.0136986018797536,2.9187352953612034
1784804389118944000,1.264681100845337,-4.194450855255127,-1.2526012659072876,-0.6920589208602905,0.7515013217926025,-0.4310753047466278,-0.49941956996917725,0.29955458641052246,0.08953782916069031,-0.6430364847183228,0.02551001008874832,0.4411090579638901,-0.23603604835688513,-0.8654819965670854,0.44568414249275,0.9842519046202646,2.958733964311082
1784804389128862976,1.2746000289916992,-3.163848400115967,-1.643929362297058,-0.476951539516449,0.7463687658309937,-0.40875914692878723,-0.525213897228241,0.45245325565338135,-0.13758179545402527,-0.5990536212921143,0.029590566700703657,0.43502444491530107,-0.21942373554444203,-0.8727722555578489,0.42109400958279547,0.9575966540554955,2.9884068570012876
1784804389138782976,1.284520149230957,-2.9964046478271484,-1.9967906475067139,-0.5874988436698914,0.7386133074760437,-0.3889016807079315,-0.5506414175033569,0.5457189679145813,-0.480101615190506,-0.5023828744888306,0.03174649750007787,0.42710672730340554,-0.2055703009437968,-0.8799505331660987,0.39943912080958843,0.9301769481243721,3.011263199977873
1784804389148701952,1.2944390773773193,-4.007166862487793,-1.9644290208816528,-0.4287143349647522,0.7291164398193359,-0.36609601974487305,-0.5782412886619568,0.6499881744384766,-0.765709400177002,-0.2130795121192932,0.034920893631227655,0.4181716823537972,-0.18976776146956573,-0.8876380323752184,0.3748103185642394,0.900294551454832,3.037472604667115
1784804389158621696,1.304358959197998,-5.220954895019531,-1.7443532943725586,-0.42398136854171753,0.7192712426185608,-0.33616000413894653,-0.6079846024513245,0.6176123023033142,-0.870398223400116,0.13329899311065674,0.041016878352445794,0.4092403061163077,-0.16890842565277303,-0.8957175474860785,0.3428366387399572,0.8690496462599661,3.072766975316942
1784804389168540928,1.3142781257629395,-6.030655384063721,-1.7507669925689697,-0.5756132006645203,0.7096121907234192,-0.29853394627571106,-0.6382225155830383,0.5225045084953308,-0.7354168891906738,0.13594895601272583,0.048889574182559306,0.40036707432251795,-0.14350939140187796,-0.9037262140489853,0.30315618611507267,0.8383149229442389,3.1137733506855283
1784804389178459904,1.3241970539093018,-6.770268440246582,-1.7405868768692017,-0.5528016090393066,0.698894202709198,-0.25392860174179077,-0.6686307787895203,0.514484703540802,-0.37929588556289673,0.21388834714889526,0.05821882722339225,0.3906564833167679,-0.1143333683431356,-0.9115513748127834,0.25673983741276546,0.8075246146000241,-3.124213404533859
1784804389188379648,1.3341169357299805,-6.345162868499756,-1.7617777585983276,-0.6096077561378479,0.6872138977050781,-0.20693793892860413,-0.6963574886322021,0.4773979187011719,-0.07376274466514587,0.16226935386657715,0.06783306583964828,0.38035550749304586,-0.08456316416877518,-0.9184647538330575,0.2084441020956452,0.7787895507881166,-3.079943583086349
1784804389198298880,1.3440361022949219,-5.322657585144043,-2.011507749557495,-0.612882137298584,0.6731773018836975,-0.16476786136627197,-0.7208911180496216,0.48696368932724,0.06261028349399567,-0.06255614757537842,0.0759977116341543,0.3689154277461454,-0.05878654598547586,-0.9244836711296708,0.16552265019796197,0.7511852162601297,-3.042943894022637
1784804389208217856,1.3539550304412842,-4.422903537750244,-2.2783148288726807,-0.7372874021530151,0.6560894250869751,-0.12863926589488983,-0.743638813495636,0.5658038854598999,0.07184606790542603,-0.09515208005905151,0.08187189616407572,0.35602062554914604,-0.03781413748409259,-0.9301164312077229,0.12899672530342915,0.7229321303433054,-3.0148274825571284
1784804389218137856,1.363875150680542,-3.2807810306549072,-2.472440242767334,-0.7043872475624084,0.6384891271591187,-0.0959245041012764,-0.7636295557022095,0.6106411218643188,-0.0911024734377861,-0.06734883785247803,0.08504209038294049,0.3431939712643493,-0.02007751684087743,-0.9351912352193162,0.09607222185542784,0.6963830441837795,-2.9951161169912814
1784804389228056832,1.3737940788269043,-2.6278228759765625,-2.61989164352417,-0.8079432249069214,0.619300127029419,-0.0693458616733551,-0.7820860147476196,0.618523359298706,-0.27231365442276,-0.10455644130706787,0.08628676812892047,0.33002048902371267,-0.006592059109933688,-0.9399987924740884,0.06940155760085663,0.6697557804874696,-2.98267579539021
1784804389237976832,1.383713960647583,-2.1227879524230957,-2.7261409759521484,-0.8046550154685974,0.5984867811203003,-0.04597814753651619,-0.7998122572898865,0.5688105821609497,-0.23756065964698792,0.0557173490524292,0.08635730037482886,0.31634297853601867,0.004582910398290757,-0.9446950081722477,0.045994361071665886,0.6424020467873496,-2.974579378204497
1784804389247896064,1.3936331272125244,-1.6458295583724976,-2.6987321376800537,-0.599058985710144,0.5768023729324341,-0.026944594457745552,-0.8164392709732056,0.5102490186691284,-0.3071160614490509,0.028551697731018066,0.08613517848632435,0.3026618399427394,0.01327306576985788,-0.9491051027704214,0.02694785571744558,0.6150652702879115,-2.9691396964149765
1784804389257814784,1.4035520553588867,-1.4018398523330688,-2.7605416774749756,-0.4988248348236084,0.5545266270637512,-0.011917395517230034,-0.8320806622505188,0.4513479471206665,-0.4254452884197235,0.0650518536567688,0.08599533188284947,0.2890787547601404,0.01982811025765226,-0.953228796346311,0.011917677673668517,0.587841349587819,-2.965257567874383
1784804389267734784,1.4134719371795654,-1.671961784362793,-2.659275770187378,-0.3081461489200592,0.5316091775894165,0.002681181998923421,-0.8469855189323425,0.4885629415512085,-0.5165056586265564,0.14892643690109253,0.08529494852490256,0.27538042185977585,0.025939557157643366,-0.9571925130849558,-0.0026811852058756503,0.5605015778977472,-2.9630714105221214
1784804389277654016,1.4233911037445068,-2.181049108505249,-2.481912851333618,-0.12338989228010178,0.509709358215332,0.01963520050048828,-0.860122561454773,0.45398998260498047,-0.6470613479614258,0.25132739543914795,0.08722471997797382,0.26225948635712665,0.03403957438963228,-0.9604441745061406,-0.01963646324748196,0.534961210123453,-2.9550739188625554
1784804389287573760,1.4333109855651855,-3.0403430461883545,-2.3214592933654785,0.1471937894821167,0.4890986680984497,0.04164060205221176,-0.8712338805198669,0.4618901014328003,-0.7130731344223022,0.3382902145385742,0.09107107965745403,0.24967381843593256,0.045233070946728196,-0.9629760828288068,-0.04165264565035777,0.5115429557545015,-2.942114896276098
1784804389297492992,1.443230152130127,-3.629333257675171,-2.165499687194824,0.43798595666885376,0.4697939455509186,0.06914705783128738,-0.8800638318061829,0.5031369924545288,-0.7006930708885193,0.42094212770462036,0.0971900914411698,0.2374787458248194,0.05976570365776969,-0.9646688348824061,-0.06920228260538137,0.49033463419837087,-2.9234499829167166
1784804389307411968,1.4531490802764893,-3.994234800338745,-2.0807840824127197,0.58299320936203,0.45169147849082947,0.09986136853694916,-0.8865678310394287,0.44935527443885803,-0.7053148746490479,0.4628922939300537,0.10479714589105478,0.22563140218915023,0.07620074384907173,-0.96555762791338,-0.10002808872584078,0.47120541575402575,-2.9013365988170627
1784804389317331712,1.463068962097168,-3.992666482925415,-1.9764238595962524,0.7703287601470947,0.43469005823135376,0.1319359391927719,-0.890863299369812,0.36215439438819885,-0.6182488203048706,0.5015963912010193,0.11329442832807599,0.21410165794695732,0.09342813311690863,-0.9657101412074961,-0.13232174131146426,0.45395514544475735,-2.8774228994639115
1784804389327250944,1.4729881286621094,-3.866565704345703,-1.9058847427368164,0.925870418548584,0.4188830852508545,0.1621517390012741,-0.8934448957443237,0.299882173538208,-0.5314297080039978,0.43897712230682373,0.12249866580313634,0.203050780524883,0.10976307889359539,-0.9652546545314658,-0.1628708687998494,0.43841069238207825,-2.852764372945956
1784804389337170944,1.482908010482788,-3.772933006286621,-1.891940951347351,1.0691004991531372,0.40430042147636414,0.19162769615650177,-0.8943265676498413,0.26316478848457336,-0.3720933794975281,0.3864072561264038,0.13218835144196658,0.19241515572984777,0.12575022813741313,-0.9642041450454648,-0.19282031142678033,0.42457604542834876,-2.827416940825529
1784804389347089664,1.4928269386291504,-3.216496467590332,-1.8127080202102661,1.2969969511032104,0.39048805832862854,0.2168106585741043,-0.8947135210037231,0.31405600905418396,-0.3903641104698181,0.38304054737091064,0.14245250766502177,0.182134621890381,0.13953577928617217,-0.9628416697081147,-0.2185462255385728,0.41151972760411204,-2.8020355907695
1784804389357009920,1.5027470588684082,-2.8819937705993652,-1.7272168397903442,1.346582293510437,0.378144234418869,0.23749783635139465,-0.8947634696960449,0.2599172592163086,-0.30306488275527954,0.3844180703163147,0.15289530515923122,0.17267563015023987,0.1510012660111974,-0.9612516389215374,-0.23978917882619122,0.3998523655980066,-2.777304530190796
1784804389366928896,1.5126659870147705,-2.5808188915252686,-1.5495308637619019,1.3451995849609375,0.36750292778015137,0.25470495223999023,-0.8944646120071411,0.25908398628234863,-0.19188451766967773,0.3811742067337036,0.16304249139819232,0.16421161517952773,0.160630721271078,-0.9595048026053064,-0.2575425834344414,0.3898363016530987,-2.7538438222914015
1784804389376847872,1.522585153579712,-2.523951530456543,-1.4034684896469116,1.262532353401184,0.35907384753227234,0.2688605785369873,-0.893744945526123,0.30082300305366516,-0.0914771556854248,0.35408735275268555,0.17295936594807026,0.15701143434927312,0.16874522423606578,-0.9575790539033768,-0.2722098658830061,0.38202548840502615,-2.7312506163476677
1784804389386767872,1.5325050354003906,-2.630685806274414,-1.32444429397583,1.0896855592727661,0.3522963225841522,0.2821493148803711,-0.8923447132110596,0.2705827057361603,0.06427094340324402,0.42534947395324707,0.18232294531295032,0.1506954411890971,0.17640447847938762,-0.9554740504457584,-0.2860337277449369,0.3760142897686792,-2.709707900591089
1784804389396686848,1.542423963546753,-2.6036384105682373,-1.2128431797027588,0.9559062123298645,0.34545841813087463,0.29854026436805725,-0.8896809220314026,0.20173701643943787,0.11894020438194275,0.4205189347267151,0.19062881372558121,0.14413250453933815,0.18543287588911786,-0.953153208303438,-0.3031628027812524,0.37037507591692403,-2.6895890906254563
1784804389406606848,1.5523440837860107,-2.4062936305999756,-1.0742846727371216,0.8942174315452576,0.33880236744880676,0.3164651393890381,-0.8860377073287964,0.10329052805900574,0.1379111111164093,0.3886317014694214,0.1979586343476994,0.13756486942155086,0.19508218030448582,-0.9507004486706531,-0.32200076350352824,0.3652243429711568,-2.671046638400712
1784804389416525824,1.562263011932373,-1.6933194398880005,-1.0036075115203857,0.964127779006958,0.33314743638038635,0.33101150393486023,-0.8828613758087158,0.014615625143051147,0.23013049364089966,0.2778351306915283,0.204820597362267,0.13180045053775027,0.20297280989611194,-0.9484087646586549,-0.3373752911563548,0.36082904871965854,-2.654094052188241
1784804389426444800,1.5721819400787354,-0.28318873047828674,-1.0835038423538208,1.0366593599319458,0.3277081847190857,0.3361442983150482,-0.8829577565193176,-0.03757756948471069,0.3787910044193268,0.014686882495880127,0.21132512289311436,0.1270904258785966,0.2058376810288075,-0.9470061682274838,-0.3428199752367764,0.3553894838676706,-2.6403287520083087
1784804389436364800,1.5821020603179932,1.0494303703308105,-1.132297396659851,0.9518366456031799,0.32167088985443115,0.32868027687072754,-0.8879736065864563,-0.08441197872161865,0.501107931137085,-0.2094995379447937,0.2169692633460288,0.12358549093680721,0.20184107451310343,-0.9470539722298441,-0.334905876163274,0.3475484322720471,-2.631838122853949
1784804389446283776,1.5920209884643555,1.6960413455963135,-1.2373188734054565,0.7511884570121765,0.3144388794898987,0.31269094347953796,-0.8962993621826172,-0.08491617441177368,0.5545117855072021,-0.2760944366455078,0.2214046418267744,0.12072323915280637,0.1930704628196133,-0.9482245593368133,-0.31802471535155913,0.3374042717374642,-2.628210439862662
1784804389456204032,1.6019411087036133,1.6912952661514282,-1.2638753652572632,0.4839330315589905,0.30645009875297546,0.2934826612472534,-0.9055143594741821,-0.08840200304985046,0.6001635789871216,-0.23622453212738037,0.2247341492527771,0.1181476140665493,0.18243891844710344,-0.9498693192317499,-0.29786789151165916,0.32632741947045873,-2.627554168982232
1784804389466122752,1.6118600368499756,1.7167465686798096,-1.2998239994049072,0.3005426526069641,0.29686248302459717,0.27593716979026794,-0.9141834378242493,-0.13356292247772217,0.6524075269699097,-0.19981497526168823,0.22687946416283855,0.11488007964502368,0.17236836699533964,-0.9516393420419283,-0.27956459796311023,0.31398738513683144,-2.628975135510106
1784804389476041728,1.621778964996338,1.842239499092102,-1.3741531372070312,0.08623433113098145,0.2855287194252014,0.258886456489563,-0.9227411150932312,-0.21314102411270142,0.6439608335494995,-0.2272985577583313,0.22791914856372733,0.11092786437984316,0.16224814314777738,-0.9536368884108073,-0.26186918144886373,0.3000904526480501,-2.6325819599424096
1784804389485961984,1.6316990852355957,2.078026294708252,-1.4121968746185303,0.020890381187200546,0.2728336751461029,0.24066786468029022,-0.9314723610877991,-0.3246067464351654,0.5799650549888611,-0.19560283422470093,0.2281882052252677,0.10658860179783754,0.1513363442505832,-0.9558589160909254,-0.24305388151952584,0.28493572465091754,-2.637880290649533
1784804389495880960,1.641618013381958,2.3992950916290283,-1.2352626323699951,0.05412077158689499,0.2606753706932068,0.21971745789051056,-0.9400917887687683,-0.4393405616283417,0.46462395787239075,-0.17029023170471191,0.22815918430365956,0.1028956881760124,0.13916384112993488,-0.9581176125274294,-0.22152484573813402,0.2704912921337177,-2.643769467854792
1784804389505800960,1.6515381336212158,2.493009090423584,-1.1437219381332397,0.04395075887441635,0.249710351228714,0.19651219248771667,-0.9481707215309143,-0.5402376651763916,0.3669338524341583,-0.03797429800033569,0.2279862013537245,0.10008665056272524,0.1260845179939354,-0.9602643927720957,-0.19779948026513697,0.2575128345178602,-2.649692047864287
1784804389515719936,1.6614570617675781,2.3759591579437256,-0.9945442080497742,0.05538530647754669,0.23964948952198029,0.17327538132667542,-0.9552715420722961,-0.6030375957489014,0.3647800087928772,0.10930907726287842,0.22761466862638854,0.09776162832563123,0.1131674855690384,-0.9621992665903681,-0.17415439114295359,0.24579782630163283,-2.6554538671879047
1784804389525638912,1.6713759899139404,1.9744075536727905,-0.8389186263084412,-0.008963587693870068,0.2310553640127182,0.15233929455280304,-0.9609402418136597,-0.6857520341873169,0.48576799035072327,0.08345311880111694,0.2271986738807994,0.09590946297337836,0.10164275216189415,-0.9637691638804287,-0.15293476440653359,0.23596775244269214,-2.660404058757394
1784804389535558912,1.6812961101531982,1.3572359085083008,-0.7959634065628052,-0.0853521004319191,0.2231922298669815,0.13664719462394714,-0.9651491045951843,-0.7752552032470703,0.6197919845581055,0.021454036235809326,0.22651640574517426,0.0938515439245258,0.09282963424417885,-0.9650206544441378,-0.13707606996331553,0.2272567349220714,-2.6648188509164847
1784804389545477888,1.6912150382995605,1.1439793109893799,-0.7066918015480042,-0.06825564056634903,0.21577246487140656,0.12539850175380707,-0.9683580994606018,-0.8366525769233704,0.6501446962356567,-0.1665753722190857,0.22589116387420946,0.09150234020200813,0.08630330542101253,-0.9659980305044225,-0.12572949750970858,0.2192413858976864,-2.668307506963246
1784804389555397888,1.7011351585388184,1.4966048002243042,-0.8146461844444275,-0.06532323360443115,0.20837685465812683,0.11327407509088516,-0.9714669585227966,-0.8744535446166992,0.5866618156433105,-0.39466768503189087,0.22534405664945178,0.08925342766666347,0.07937469033665526,-0.9669299786141193,-0.11351772270235785,0.2112954414268376,-2.67161373241245
1784804389565316864,1.7110540866851807,2.7213425636291504,-1.082193374633789,-0.0737467110157013,0.19912633299827576,0.09390003234148026,-0.9754647612571716,-0.9554892778396606,0.7358424067497253,-0.37058931589126587,0.2244124959214169,0.08692520511294258,0.06864132621318665,-0.9681794064567493,-0.09403857234509587,0.20136817609185953,-2.6765533534577792
1784804389575235840,1.720973014831543,4.2997541427612305,-1.5266823768615723,-0.13900800049304962,0.18626989424228668,0.05973505601286888,-0.9806810021400452,-1.0030423402786255,0.8293182849884033,-0.41854995489120483,0.22291666898937906,0.08448696182035852,0.050214005764870825,-0.9698704621744713,-0.059770640125404416,0.18770339024273366,-2.6841288515586674
1784804389585155840,1.7308931350708008,5.014561653137207,-1.1223418712615967,-0.19645677506923676,0.17248068749904633,0.014038227498531342,-0.9849128723144531,-1.05439293384552,0.758712649345398,-0.22863388061523438,0.22016088901224548,0.08286998091989595,0.026002594316085696,-0.971589300328901,-0.014038688623861373,0.173364799059027,-2.6947015318018117
1784804389595074816,1.740812063217163,4.232854843139648,-1.1030341386795044,-0.25400716066360474,0.16176176071166992,-0.03164273872971535,-0.9863224029541016,-1.1994357109069824,0.6849325299263,-0.0054531097412109375,0.21738270663197506,0.0826675191807959,0.002209717718304298,-0.972576973082048,0.03164801983036493,0.16255779108045162,-2.7043753226092386
1784804389604994816,1.7507319450378418,3.45015025138855,-1.0453035831451416,-0.5235654711723328,0.1510675847530365,-0.06779754906892776,-0.9861957430839539,-1.2273005247116089,0.7752560377120972,0.12634778022766113,0.21376169839831852,0.08132816586417534,-0.01696613040904706,-0.9733467010235768,0.06784959423343832,0.15200061199066464,-2.7143947428271633
1784804389614914048,1.7606511116027832,3.7719764709472656,-1.0918058156967163,-0.6590378284454346,0.1409655660390854,-0.10243666917085648,-0.9847006797790527,-1.1786853075027466,0.5893598794937134,-0.0028328895568847656,0.20932326904967616,0.07997809402112217,-0.03540003974039893,-0.9739271348120769,0.10261667129849829,0.14218968033069607,-2.725494023646233
1784804389624832768,1.7705700397491455,4.6931471824646,-1.0104643106460571,-0.5231794118881226,0.13074806332588196,-0.14182355999946594,-0.9812191724777222,-1.1472580432891846,0.575157880783081,-0.17319977283477783,0.20448493336614418,0.07891979216366601,-0.05623246282592822,-0.9740613843316294,0.14230335159403174,0.13247026354151914,-2.7371971220905125
1784804389634753024,1.7804901599884033,5.3827314376831055,-1.3773070573806763,-0.5774179100990295,0.11959619075059891,-0.19044898450374603,-0.9743849039077759,-1.029355764389038,0.5246317386627197,-0.3979142904281616,0.1993170806212505,0.0781874220328928,-0.08181856288373276,-0.9733781945112657,0.19161948468356388,0.12212933700486313,-2.7493916045800306
1784804389644672000,1.7904090881347656,5.021141529083252,-1.4575954675674438,-0.05312112718820572,0.1068376749753952,-0.24119599163532257,-0.9645777344703674,-0.8207048177719116,0.2863009572029114,-0.31890004873275757,0.19519716658105513,0.07680742296522865,-0.1086818686614741,-0.9716929132296303,0.24359803245878683,0.11031144446301466,-2.758618829879668
1784804389654591744,1.8003289699554443,4.579946994781494,-1.76677405834198,-0.439003050327301,0.09151915460824966,-0.2859286665916443,-0.9538705348968506,-0.7690246105194092,0.2263125777244568,-0.08357453346252441,0.19150848602849813,0.07344454252599043,-0.13293087470756126,-0.96966996454073,0.28997540751529427,0.09565225322608518,-2.7655910277359768
1784804389664510976,1.8102481365203857,4.2133355140686035,-1.4850175380706787,-0.6512603759765625,0.07654032856225967,-0.3257637321949005,-0.9423478841781616,-0.9214500188827515,0.3368416130542755,-0.007725358009338379,0.18565454107159027,0.06927594882112346,-0.15500609782362362,-0.9678359133891269,0.33181940523393855,0.08104509651841553,-2.7761264219661435
1784804389674429952,1.820167064666748,3.459564685821533,-1.390476107597351,-1.0121221542358398,0.06515612453222275,-0.3596874475479126,-0.9307951331138611,-0.678406834602356,0.1801830530166626,0.20887136459350586,0.1785014061778428,0.0658579941111555,-0.17396880615747876,-0.9661961208127648,0.3679329144784827,0.06988649635064495,-2.7892282099918315
1784804389684349696,1.8300869464874268,3.5316760540008545,-0.029124954715371132,-1.3008636236190796,0.06106244772672653,-0.3913808763027191,-0.9182006120681763,-0.31057417392730713,-0.07118931412696838,0.23901665210723877,0.17238945140802775,0.06586217558435375,-0.1912115639272036,-0.9640446752487635,0.4021316858501151,0.06640451482376888,-2.801234541354046
1784804389694268928,1.8400061130523682,2.946816921234131,0.0004300065338611603,-0.5429347157478333,0.06473412364721298,-0.4194108247756958,-0.9054855108261108,-0.3721376955509186,0.0187302827835083,0.36141812801361084,0.16628060352378032,0.06927490087563067,-0.2060539327432214,-0.9618178085762379,0.4327962102292938,0.07136963782189118,-2.814909958237814
1784804389704188928,1.8499259948730469,2.4950098991394043,-0.275346040725708,0.47892260551452637,0.06251299381256104,-0.44441649317741394,-0.8936364650726318,0.6839011907577515,-0.31867554783821106,0.44171690940856934,0.16570828581091177,0.07054308802887949,-0.21955739206295066,-0.9588321074686972,0.4605227997212306,0.06983972829306646,-2.8157054731535465
1784804389714107648,1.8598449230194092,1.5585142374038696,-0.7561408877372742,1.0360828638076782,0.05593690648674965,-0.4633053243160248,-0.8844316005706787,0.605714738368988,-0.5221835374832153,0.7293412685394287,0.16795825019414004,0.06967282101863677,-0.2300649820347511,-0.9560365636675987,0.48172135060564636,0.06316203469713151,-2.809297651519374
1784804389724027904,1.869765043258667,-0.22386090457439423,-0.3313254117965698,0.3840608298778534,0.04243217036128044,-0.4676482081413269,-0.8828956484794617,0.6652551889419556,-0.3621399998664856,0.5580360293388367,0.17079893538765992,0.06394517850062369,-0.23337352352759197,-0.9551311966255367,0.4866282382393227,0.048023282962657204,-2.799611460356534
1784804389733946880,1.8796839714050293,-0.17910754680633545,-0.6735807657241821,-0.548255443572998,0.03512861579656601,-0.4637974202632904,-0.8852445483207703,0.6214265823364258,0.007681697607040405,0.45183390378952026,0.16984598333196932,0.059596573845547535,-0.23200424061624164,-0.9559156245183402,0.4822767407945514,0.03966157541358758,-2.7996601500978193
1784804389743865856,1.8896031379699707,1.0546901226043701,-1.1610713005065918,-0.07277106493711472,0.027447447180747986,-0.46678727865219116,-0.8839436173439026,0.8151581287384033,0.32369038462638855,0.03866773843765259,0.16679460315924358,0.05525666991123896,-0.23446727978511783,-0.9561126416831324,0.48565451117188313,0.03104115641468082,-2.8038571662542715
1784804389753785856,1.8995230197906494,0.8644810914993286,-0.818256676197052,-0.2167396992444992,0.016512900590896606,-0.47509393095970154,-0.879780113697052,0.4454774558544159,0.18523800373077393,-0.03301584720611572,0.1658360079343741,0.05030409516063047,-0.23995713824700368,-0.9551903076718327,0.49507077068399835,0.018767145412131713,-2.80253127826652
1784804389763704832,1.9094419479370117,0.6979062557220459,-1.0071396827697754,-0.7055090665817261,0.011177606880664825,-0.48132848739624023,-0.8764690160751343,-0.06655174493789673,0.25861120223999023,0.2570079565048218,0.1615353262520609,0.04712406105029755,-0.24401804453390236,-0.9550606862401838,0.5021696814764718,0.012752306081365057,-2.8097626732194643
1784804389773624832,1.9193620681762695,0.4687548577785492,-0.7181702256202698,-0.5943987965583801,0.0058151246048510075,-0.486015647649765,-0.8739307522773743,0.17837370932102203,0.039284080266952515,0.10569649934768677,0.15742107933605634,0.04379193076666161,-0.24721831669476765,-0.9550831818956376,0.5075249403184432,0.006653889797895433,-2.8166068646061477
1784804389783543808,1.9292809963226318,0.46268031001091003,-0.7134988307952881,-0.46597084403038025,0.0020564955193549395,-0.49044522643089294,-0.8714696168899536,-0.13683736324310303,-0.0012387335300445557,0.1471501588821411,0.15437528350041357,0.041505582016898836,-0.2500849533592731,-0.9549362131390285,0.5126005721597174,0.0023597973495574883,-2.8216636906106283
1784804389793462784,1.9391999244689941,0.6845554709434509,-0.7489084601402283,-0.6474801898002625,-0.0015017770929262042,-0.4945608973503113,-0.869141697883606,0.031073320657014847,0.14894932508468628,0.06213486194610596,0.15121403464997696,0.03924292801891347,-0.2527630197106163,-0.9548326119562879,0.5173295619859949,-0.0017278835315593835,-2.827010165722597
1784804389803382784,1.949120044708252,0.36410433053970337,-0.8717347979545593,-0.874563992023468,-0.004400408361107111,-0.4989013075828552,-0.8666476607322693,0.3541623651981354,0.19628900289535522,-0.011724531650543213,0.14657737663155992,0.03692484947492854,-0.2555635652170057,-0.9549025478368705,0.5223305634395564,-0.00507746194138521,-2.8356136089960384
1784804389813301760,1.9590389728546143,0.7758298516273499,-0.7246825098991394,-0.4229861795902252,-0.008610681630671024,-0.5037267804145813,-0.8638201355934143,0.41479966044425964,0.0265997052192688,-0.1265057921409607,0.14266674480109856,0.03414705553975929,-0.2586965818320908,-0.954754597187071,0.5279074862289528,-0.009967812286373477,-2.842238456662049
1784804389823222016,1.968959093093872,1.0191764831542969,-0.5976455807685852,-0.43384861946105957,-0.012961194850504398,-0.5111488103866577,-0.8593944907188416,0.42261388897895813,-0.13915026187896729,-0.09434086084365845,0.13948480707533256,0.031694009197871104,-0.26324559853478835,-0.9540656116086023,0.5365208763103432,-0.015080631874145408,-2.8471032363613338
1784804389833140736,1.9788780212402344,0.9222619533538818,-0.994351327419281,-0.47439444065093994,-0.016521364450454712,-0.5206233859062195,-0.8536266088485718,0.4354667067527771,0.019890904426574707,-0.016185402870178223,0.1364386150372214,0.029827127161846573,-0.2688810750071022,-0.9529942082536799,0.5475808985307242,-0.0193519054641155,-2.851753634511654
1784804389843059712,1.9887969493865967,-0.10444216430187225,-0.4243161678314209,-0.5809329748153687,-0.019644424319267273,-0.523696780204773,-0.851678192615509,0.45615261793136597,0.03721606731414795,0.2635282278060913,0.13318700805074118,0.027558563182415473,-0.2709269608536421,-0.952942967755551,0.5511846080863456,-0.023061458762504254,-2.8573421609702323
1784804389852979968,1.9987170696258545,-0.6801736354827881,-0.19433704018592834,-0.18694809079170227,-0.020720651373267174,-0.5206109285354614,-0.8535425662994385,0.3362571597099304,-0.2962836027145386,0.508983850479126,0.13123091242989157,0.02619788832502305,-0.26933695370494054,-0.9537031532640378,0.5475663650225633,-0.024271293725328935,-2.861290693574595
1784804389862898944,2.008635997772217,-1.314475655555725,-0.14720703661441803,-0.2773212194442749,-0.02195141091942787,-0.512069046497345,-0.8586637377738953,0.4304444491863251,-0.07745426893234253,0.40064066648483276,0.13012246308176492,0.024568067354221082,-0.2646970573582046,-0.9551963172737138,0.5375918638939566,-0.025559051308463265,-2.8637667904546684
1784804389872818944,2.0185561180114746,-0.6735209226608276,-0.1241384744644165,-0.06760100275278091,-0.02054540626704693,-0.5039955973625183,-0.8634617924690247,0.2965921461582184,0.09165740013122559,0.32612359523773193,0.1296252894339536,0.0245127162799717,-0.2601311589580723,-0.9565187900263095,0.5282186964891529,-0.023789737696760453,-2.865764614435376
1784804389882737920,2.028475046157837,-1.8260910511016846,-0.1287948191165924,0.011169976554811,-0.021917162463068962,-0.49353063106536865,-0.8694522380828857,0.3014581799507141,0.12063634395599365,0.13602328300476074,0.12910906934975144,0.022851230650182183,-0.2544635706357822,-0.9581529206435148,0.5161445606983259,-0.0252026753917739,-2.8670576723032086
1784804389892657664,2.0383949279785156,-2.501588821411133,-0.04830531030893326,-0.5453755259513855,-0.020845569670200348,-0.47466209530830383,-0.8799211978912354,0.23710837960243225,-0.06079930067062378,0.2507250905036926,0.1283234082179869,0.021744509157821702,-0.24406263514834614,-0.9609857906710678,0.49458009696672345,-0.023685837966028262,-2.8701171218039043
1784804389902576896,2.048314094543457,-1.9220789670944214,0.03926939517259598,-0.4240609407424927,-0.018623026087880135,-0.45461609959602356,-0.8904927968978882,0.22849240899085999,-0.07744261622428894,0.14937341213226318,0.12599958396224495,0.020803107990501987,-0.233068328405594,-0.9640386135891141,0.47194115388035496,-0.020910121231396208,-2.876638544654333
1784804389912495872,2.0582330226898193,-0.6905571222305298,0.07857472449541092,-0.066519595682621,-0.01696462370455265,-0.4424535632133484,-0.8966309428215027,0.2598692774772644,0.2348424792289734,-0.09392386674880981,0.12502928752208947,0.0205290213161774,-0.22641352507263954,-0.9657552505612826,0.4583327633658194,-0.018918150544326377,-2.8796864118651784
1784804389922415872,2.068153142929077,0.8709781169891357,-0.22210238873958588,0.13331632316112518,-0.01834249496459961,-0.4439978301525116,-0.8958401083946228,0.2070326954126358,0.4287542998790741,-0.4210086464881897,0.12516267841194417,0.01997091459408026,-0.22733478336659432,-0.9655332697801142,0.4600554805406661,-0.020472328541791172,-2.878974980692072
1784804389932334848,2.0780720710754395,0.8556973934173584,-0.12337689846754074,0.01440405286848545,-0.020642539486289024,-0.45233815908432007,-0.8916075825691223,0.17625167965888977,0.08142751455307007,-0.3472535014152527,0.1254625902260968,0.019477558252153204,-0.23198455650080285,-0.9643977395910389,0.46938532333819416,-0.023147911461628624,-2.877322453248682
1784804389942254848,2.087991952896118,0.47030994296073914,0.09795763343572617,0.020965881645679474,-0.02073088102042675,-0.45798933506011963,-0.888715922832489,0.0885714665055275,-0.20309767127037048,-0.02098250389099121,0.12532793659755606,0.019813049882946833,-0.2350520662628458,-0.9636653855901878,0.4757320569097745,-0.023322549286210453,-2.8772827627153985
1784804389952173824,2.0979111194610596,0.16401737928390503,0.16485197842121124,0.08418027311563492,-0.02030363865196705,-0.46074363589286804,-0.8873010277748108,0.2040347158908844,-0.23479774594306946,0.05365234613418579,0.12561135973695053,0.02030249748957908,-0.23651069231547298,-0.963261312291331,0.4788328986824564,-0.02287847744262005,-2.8766669198533807
1784804389962092800,2.107830047607422,0.1522677093744278,0.10231790691614151,0.31446418166160583,-0.02057146281003952,-0.46186918020248413,-0.886709451675415,0.09761309623718262,-0.20327666401863098,0.12950736284255981,0.12672839431809946,0.020523781626143874,-0.23711608654585942,-0.9629614108923403,0.4801014674448432,-0.02319561652265375,-2.874213184041626
1784804389972012800,2.1177499294281006,-0.22677600383758545,0.2394390106201172,0.15250296890735626,-0.02055218257009983,-0.46162599325180054,-0.8868365287780762,0.006819270551204681,-0.22755247354507446,0.13973569869995117,0.12830319654862854,0.020903104526450157,-0.23694892047224178,-0.9627858195208692,0.4798273076512624,-0.023170565910408544,-2.8709605316338154
1784804389981932032,2.127669095993042,-0.45207077264785767,0.40341469645500183,0.1224062517285347,-0.01816306822001934,-0.45854488015174866,-0.8884856700897217,0.006154416128993034,-0.13888248801231384,0.17387080192565918,0.12889221783311056,0.022033189875964268,-0.23509937255366747,-0.9631354028913062,0.47635708470720484,-0.020439879034182755,-2.870559581786546
1784804389991851776,2.1375889778137207,-0.9638829231262207,0.6461466550827026,0.2740442454814911,-0.015242367051541805,-0.45242688059806824,-0.8916712403297424,0.08184698969125748,-0.25046923756599426,0.17246347665786743,0.1309193791427603,0.023546664123355883,-0.23153819419994817,-0.9636886616686403,0.46948480557410643,-0.017092490749922924,-2.8674534248549337
1784804390001771008,2.147508144378662,-1.0271592140197754,0.6781041026115417,0.27256014943122864,-0.010932782664895058,-0.44293278455734253,-0.8964881896972656,0.034980639815330505,-0.24795466661453247,0.18779373168945312,0.13280659969465636,0.02545640052959334,-0.226070538184475,-0.9646795118764637,0.4588672164765332,-0.012194517825163807,-2.8651263388367014
1784804390011690496,2.1574275493621826,-1.3386644124984741,0.3616073727607727,0.13752348721027374,-0.007521206047385931,-0.4326341152191162,-0.9015381932258606,0.26109176874160767,-0.2508833408355713,0.036608994007110596,0.13440236829589583,0.026759031902793568,-0.2202608643432554,-0.9657665824034174,0.4474124391690355,-0.008342443461203133,-2.86313784508157
1784804390021609216,2.167346477508545,-1.655518889427185,0.5290383696556091,0.2990945875644684,-0.004775180481374264,-0.41876524686813354,-0.9080820083618164,0.24146951735019684,-0.12131959199905396,0.0749063491821289,0.1361583843944312,0.027462013759947272,-0.21261431308506065,-0.9672135255658367,0.43208517290289494,-0.00525848603473047,-2.8607289239704485
1784804390031528448,2.1772656440734863,-1.6961723566055298,0.6132653951644897,0.3508872091770172,-0.0010046525858342648,-0.40363964438438416,-0.914917528629303,0.1926397979259491,-0.21960559487342834,0.02478080987930298,0.13862501765136204,0.028712155193242717,-0.20424704694594073,-0.9686289317670131,0.41549148087400123,-0.001098079479559054,-2.857062378137877
1784804390041448448,2.187185525894165,-2.070000410079956,0.20243880152702332,0.15441066026687622,0.0010663390858098865,-0.38632357120513916,-0.9223626852035522,0.24077020585536957,-0.18823087215423584,-0.08152830600738525,0.1403560031436353,0.028744578852993752,-0.1949163954108653,-0.9702996835372275,0.39664238188142464,0.0011560947168138863,-2.8545133934087645
1784804390051367168,2.1971044540405273,-2.3767733573913574,0.26534372568130493,0.26042070984840393,0.00250402744859457,-0.3661661446094513,-0.9305461049079895,0.27874597907066345,-0.2017354667186737,-0.0497395396232605,0.14190815516159097,0.02817665319385936,-0.18420915797100046,-0.9721805961640664,0.3748856592761908,0.0026909159540435437,-2.85221250556244
1784804390061287424,2.207024574279785,-2.622260570526123,0.20799174904823303,0.25777989625930786,0.00399492122232914,-0.3426986634731293,-0.9394369125366211,0.1890592873096466,-0.10336151719093323,-0.035874366760253906,0.143833033313721,0.027421961942502546,-0.1718417585734393,-0.9741820105032409,0.3497880158667643,0.004252438047231015,-2.8491722689619414
1784804390071206400,2.2169435024261475,-2.3977134227752686,0.24280059337615967,0.03380541503429413,0.005601095501333475,-0.3189958930015564,-0.9477395415306091,0.13325388729572296,0.0002703070640563965,-0.12211519479751587,0.14489444505793003,0.026537565657570913,-0.15945528206950813,-0.9761533043405828,0.32466984060783477,0.005909883617029223,-2.847844200076386
1784804390081126400,2.2268636226654053,-2.188650369644165,0.15335005521774292,0.23139947652816772,0.007585597690194845,-0.2975277900695801,-0.9546830058097839,0.13599960505962372,0.08285191655158997,-0.2101423740386963,0.14583528514249888,0.025992537064775008,-0.14826623098981281,-0.9777901536411125,0.30210211526850483,0.007945504047918057,-2.846689187165246
1784804390091045376,2.2367825508117676,-2.0141801834106445,0.17709453403949738,0.2382746934890747,0.008545483462512493,-0.27739423513412476,-0.9607181549072266,0.20297184586524963,0.17529770731925964,-0.18564409017562866,0.14758053318020062,0.02514620453708128,-0.13787160805354864,-0.9790705082382951,0.28108083706784553,0.008894656634100362,-2.843632939817945
1784804390100964352,2.24670147895813,-1.5522526502609253,0.2672668695449829,-0.019669795408844948,0.01050357986241579,-0.26041391491889954,-0.9654399156570435,0.12441463768482208,0.19016245007514954,-0.15144240856170654,0.14837903614440276,0.02489778319712645,-0.12907413217202507,-0.9801549334947661,0.2634508827183492,0.010879149103659749,-2.842549132184821
1784804390110884352,2.2566215991973877,-1.3489112854003906,0.05310717970132828,0.3777305781841278,0.011507495306432247,-0.24654081463813782,-0.9690640568733215,0.22974921762943268,0.013386517763137817,-0.1967073678970337,0.14938212746587667,0.02443638144021117,-0.1219459738256642,-0.9809266058803474,0.24910926571086311,0.0118742967774292,-2.840828106785095
1784804390120803328,2.26654052734375,-1.3128749132156372,0.20093464851379395,0.16927672922611237,0.01134161651134491,-0.2336534708738327,-0.9722537994384766,0.3057055175304413,-0.0497022420167923,-0.22276878356933594,0.15119637876275915,0.02355625661687696,-0.1154045473351236,-0.9814614558570283,0.2358334755574225,0.011664754898797852,-2.837273189835595
1784804390130723584,2.276460647583008,-0.9625566005706787,-0.05521697551012039,0.3925340473651886,0.011124962940812111,-0.2224210500717163,-0.9748872518539429,0.11826957017183304,0.011330962181091309,-0.21085798740386963,0.1525486212644228,0.022712120546054045,-0.10972941075031181,-0.9819229252048864,0.22429702720153497,0.0114110430492184,-2.83462796731859
1784804390140642304,2.28637957572937,-0.8218658566474915,0.0062773572281003,0.36466002464294434,0.010156706906855106,-0.214082270860672,-0.9767628312110901,0.23293106257915497,-0.0007614791393280029,-0.2235392928123474,0.15456007323370352,0.02178477085091666,-0.10556518552574658,-0.9820858960581574,0.21575222219117562,0.010397959903755055,-2.830520720713842
1784804390150562304,2.296299457550049,-0.8224924802780151,0.09738916158676147,0.22878582775592804,0.01014736294746399,-0.20599234104156494,-0.9785009622573853,0.125655859708786,0.02827322483062744,-0.13818299770355225,0.15610653967523602,0.02129103827119903,-0.1014701761392202,-0.982283684281998,0.2074776852552465,0.010369942638123499,-2.827464211828938
1784804390160481536,2.3062186241149902,-0.6919347047805786,-0.07825982570648193,0.3703732192516327,0.009548729285597801,-0.19885538518428802,-0.979982316493988,0.11152976006269455,0.004199013113975525,-0.17028623819351196,0.15776774322005024,0.02058280718952326,-0.09790396598637036,-0.9823952678473469,0.20018984898209083,0.009743468668874685,-2.824100527341854
1784804390170400256,2.3161375522613525,-0.707831084728241,-0.06823328137397766,0.12296129018068314,0.008461073972284794,-0.19193120300769806,-0.9813718795776367,0.17020408809185028,0.03401800990104675,-0.166195809841156,0.1589785361063945,0.019595715345990933,-0.09449895948155092,-0.9825537362194386,0.19312956144212545,0.008621465984178888,-2.8216054698658106
1784804390180320256,2.3260574340820312,-0.401223361492157,-0.18392206728458405,0.1994810402393341,0.0071897660382092,-0.18653538823127747,-0.9824219346046448,0.1541566699743271,0.055950671434402466,-0.17214959859848022,0.1596656113542067,0.018587737355211267,-0.09188867843734198,-0.9827094401557998,0.18763444976652732,0.0073182787363384105,-2.8201463665635904
1784804390190239488,2.3359766006469727,-0.26840195059776306,-0.2633785605430603,0.11017166078090668,0.004787996876984835,-0.18321631848812103,-0.9830609560012817,0.24512045085430145,-0.0010640770196914673,-0.19432246685028076,0.16051634418542585,0.017202971877419638,-0.09040784166224067,-0.9827333750168162,0.18425716463884628,0.004870459823342359,-2.8182288273474843
1784804390200159232,2.3458964824676514,-0.5618144273757935,-0.24582281708717346,0.03820329159498215,0.0019764904864132404,-0.17884035408496857,-0.98387610912323,0.13036298751831055,-0.03614072501659393,-0.09675133228302002,0.16074917690784177,0.01547029130212334,-0.08844552560009157,-0.9829026732562279,0.17980768303831773,0.0020088787355851873,-2.817553302465385
1784804390210078464,2.3558156490325928,-0.5577706694602966,-0.2636590898036957,0.07461509108543396,-0.00041168835014104843,-0.17290858924388885,-0.9849377870559692,0.11498992890119553,-0.028629496693611145,-0.03637874126434326,0.1610407474692581,0.013824408488675874,-0.08567375036766557,-0.9831249298045995,0.17378197356818917,-0.0004179840861196292,-2.8168301235889586
1784804390219998464,2.3657355308532715,-0.4374919533729553,-0.29477834701538086,0.060276370495557785,-0.0031827199272811413,-0.16753649711608887,-0.9858607649803162,0.09473545104265213,0.03435778617858887,-0.10405927896499634,0.16128414033028834,0.012030727706083762,-0.08321594467157972,-0.9833197500773071,0.16833031204042773,-0.003228355384944781,-2.816175320598255
1784804390229917184,2.375654458999634,-0.4144718647003174,-0.3025723695755005,0.04091865196824074,-0.006057387217879295,-0.16315115988254547,-0.9865825176239014,0.11032069474458694,0.04536856710910797,-0.12785840034484863,0.16143229785582786,0.010259101556826735,-0.08126195719255057,-0.9834789854044844,0.1638837659135168,-0.006139690620768654,-2.8157018166608196
1784804390239836416,2.385573625564575,-0.4360477924346924,-0.27859243750572205,-0.0532800517976284,-0.008926104754209518,-0.15858399868011475,-0.9873051643371582,0.10958833992481232,-0.018921494483947754,-0.1207880973815918,0.1613205543519368,0.00845487509669413,-0.07922085648676017,-0.9836810029467782,0.15925633211529885,-0.009040631283049085,-2.815771520947836
1784804390249756416,2.395493507385254,-0.5143966674804688,-0.24185730516910553,0.011792690493166447,-0.011730902828276157,-0.1537483185529709,-0.9880403876304626,0.15321040153503418,-0.07582016289234161,-0.11605507135391235,0.1612033621465837,0.006661264728162635,-0.07704171361252639,-0.9838870272596318,0.15436058836108038,-0.011872339835711832,-2.8158736484923916
1784804390259675392,2.405412435531616,-0.41961243748664856,-0.26281899213790894,-0.059964217245578766,-0.014213688671588898,-0.14905838668346405,-0.9887262582778931,0.1799699068069458,0.03654007613658905,-0.09873712062835693,0.16085965468368665,0.005023084451751093,-0.07491095129025692,-0.9841175360967662,0.14961595096252042,-0.014374767234393527,-2.8164694693437924
1784804390269595392,2.415332555770874,-0.30286797881126404,-0.29830747842788696,0.004605717491358519,-0.017066607251763344,-0.1451643705368042,-0.9892603754997253,0.2052074670791626,0.0781630277633667,-0.11858874559402466,0.1608974647194831,0.003297116259650205,-0.07320488555552512,-0.9842469960825715,0.1456791029371489,-0.017250175461028253,-2.816255120554404
1784804390279514368,2.4252514839172363,-0.20898695290088654,-0.2647410035133362,0.079252690076828,-0.019214073196053505,-0.14273425936698914,-0.9895745515823364,0.19618551433086395,0.005923956632614136,-0.08281314373016357,0.1607123994844549,0.0020233760161756987,-0.07217091597763246,-0.984357064096117,0.1432234189412012,-0.019414059889765533,-2.816523042899211
1784804390289434368,2.435171604156494,-0.246477872133255,-0.3528690040111542,0.15149839222431183,-0.022527433931827545,-0.14073315262794495,-0.989791214466095,0.28758785128593445,-0.037123292684555054,-0.07785099744796753,0.16134181017002835,0.0002674569005573243,-0.07144445028384024,-0.9843091178064933,0.14120189742332093,-0.02275585384947287,-2.815045354125348
1784804390299353344,2.4450905323028564,-0.40201398730278015,-0.4077549874782562,0.10506041347980499,-0.02626693807542324,-0.13725945353507996,-0.9901868104934692,0.2194584608078003,-0.07358649373054504,-0.04413020610809326,0.1618083769249454,-0.0018318308768219343,-0.07002317951345692,-0.9843330371273482,0.1376941405265564,-0.026521034930735467,-2.813910461207433
1784804390309272320,2.4550094604492188,-0.5472508072853088,-0.38453060388565063,0.13686442375183105,-0.029801495373249054,-0.13234350085258484,-0.9907557964324951,0.17640794813632965,-0.14062097668647766,-0.09135174751281738,0.16217326138651367,-0.0039555513492768625,-0.06787083102794525,-0.9844174877127949,0.13273290198656584,-0.030070490221849978,-2.8130462741326308
1784804390319192320,2.4649295806884766,-0.6517002582550049,-0.4299682378768921,0.2721070647239685,-0.0338691808283329,-0.12609082460403442,-0.9914403557777405,0.1717781126499176,-0.13787096738815308,-0.15093940496444702,0.16307290860470552,-0.0064176010992203665,-0.06510480249264056,-0.9844427075460285,0.12642735310695405,-0.0341483114775156,-2.8111123373750484
1784804390329111296,2.474848508834839,-0.7485301494598389,-0.3981413245201111,0.15774480998516083,-0.038025304675102234,-0.11901576071977615,-0.9921639561653137,0.15118448436260223,-0.10417454689741135,-0.18286961317062378,0.16400191274472808,-0.0089932551427063,-0.06194466505245636,-0.9844720601758427,0.11929853960057744,-0.03830687669629239,-2.8091590270272473
1784804390339031552,2.4847686290740967,-0.6453069448471069,-0.448871910572052,0.13469721376895905,-0.042224325239658356,-0.1120188906788826,-0.9928085803985596,0.15707723796367645,-0.0306965634226799,-0.23795008659362793,0.16453315110196778,-0.011612264190381938,-0.05882912019784869,-0.984547221967095,0.11225449488066758,-0.04250456302884219,-2.808033361060692
1784804390348950272,2.494687557220459,-0.7563381195068359,-0.5730095505714417,0.20806249976158142,-0.04690151661634445,-0.10521141439676285,-0.9933432340621948,0.17168790102005005,-0.021879024803638458,-0.2639961838722229,0.16510737488815508,-0.01445181787159214,-0.05585267967632425,-0.9845867921933364,0.10540649660950968,-0.04718078098375435,-2.806810941284575
1784804390358870272,2.5046074390411377,-0.7722774744033813,-0.5105043053627014,0.13070310652256012,-0.052536167204380035,-0.09739391505718231,-0.9938583374023438,0.20756547152996063,-0.05200488865375519,-0.24369049072265625,0.16578047329912338,-0.01784546844389959,-0.05246308117469517,-0.9846045489432286,0.09754855019422981,-0.052811668101861914,-2.8053980228369593
1784804390368789504,2.514526605606079,-0.6364285349845886,-0.621652364730835,0.26337113976478577,-0.05819617956876755,-0.09041983634233475,-0.9942018985748291,0.21801674365997314,-0.029376909136772156,-0.2594143748283386,0.16648669017807421,-0.02118374266544285,-0.04950039082035074,-0.9845726192973008,0.09054350028267558,-0.058468853778535036,-2.8039214889988298
1784804390378708480,2.5244455337524414,-0.7213531732559204,-0.6149952411651611,0.25984492897987366,-0.06472339481115341,-0.08350178599357605,-0.9944034814834595,0.2169908583164215,-0.03307535499334335,-0.25286513566970825,0.1674960414357515,-0.02493522277886941,-0.046652776988764535,-0.9844525415411339,0.08359912998499597,-0.06499598089594635,-2.801818320645982
1784804390388628480,2.534365653991699,-0.813058614730835,-0.6822710037231445,0.0915999710559845,-0.07091520726680756,-0.07576321810483932,-0.9946008920669556,0.13114166259765625,-0.04858064651489258,-0.21639758348464966,0.16828171935017058,-0.02860579560784442,-0.043373422934302276,-0.9843687258839164,0.07583588603449201,-0.07117970958193344,-2.800256929487476
1784804390398547456,2.5442845821380615,-0.8937466740608215,-0.7049224376678467,0.03379053249955177,-0.07832846790552139,-0.06722190231084824,-0.9946586489677429,0.10051474720239639,-0.042687155306339264,-0.24891740083694458,0.1681482968617172,-0.032989993661145,-0.03977846164055017,-0.9844061267386338,0.06727263030533363,-0.07858690755927868,-2.8005885766772627
1784804390408467200,2.5542044639587402,-0.803231418132782,-0.8878922462463379,0.0698649138212204,-0.08606082201004028,-0.059046417474746704,-0.9945386052131653,0.16197329759597778,-0.0781453475356102,-0.27938711643218994,0.16823358484852635,-0.03749304989072699,-0.03640005921306153,-0.9843610304751699,0.05908078384472763,-0.08631838866946495,-2.8004985033508323
1784804390418386432,2.5641236305236816,-1.0131038427352905,-0.8528438210487366,-0.03032410331070423,-0.09488316625356674,-0.05019723251461983,-0.9942220449447632,0.16832372546195984,-0.09201467782258987,-0.2885538339614868,0.16798858524422738,-0.04260462442591414,-0.03276944989005924,-0.9843225132079417,0.05021833816831056,-0.09514642960028626,-2.8011300860424857
1784804390428306432,2.5740435123443604,-0.9033597707748413,-0.9299271702766418,0.009326903149485588,-0.10345571488142014,-0.040583908557891846,-0.9938057661056519,0.13771170377731323,-0.06500691175460815,-0.27238380908966064,0.16759827126260401,-0.047661586251096254,-0.028731518343550148,-0.984283306800279,0.04059505775770869,-0.10372692140234675,-2.8021713349889588
1784804390438225152,2.5839624404907227,-0.868590772151947,-0.941317617893219,0.06738211214542389,-0.1130419671535492,-0.03186758607625961,-0.9930790066719055,0.2101794183254242,-0.09543649107217789,-0.2997676134109497,0.1675144823986272,-0.05313777503627386,-0.025236063731688126,-0.9841130550168136,0.031872982072991,-0.11334192840241575,-2.8025788348752747
1784804390448145408,2.5938825607299805,-0.8610228896141052,-0.9642282724380493,0.0032577253878116608,-0.12265916913747787,-0.02354433387517929,-0.9921695590019226,0.21543261408805847,-0.0833740085363388,-0.2445247769355774,0.16729327545004277,-0.05860341666828192,-0.02192874628121207,-0.9839196443956338,0.02354650921874363,-0.12300311404745257,-2.8033091287310112
1784804390458064384,2.6038014888763428,-0.8653790950775146,-0.9632664322853088,0.13798944652080536,-0.13225489854812622,-0.014835245907306671,-0.9911047220230103,0.19925625622272491,-0.11870967596769333,-0.17109620571136475,0.167291067827601,-0.0640903768417017,-0.018440891227366175,-0.9836493355976604,0.01483578987048215,-0.13265821079811232,-2.80368714444582
1784804390467983360,2.613720655441284,-0.8692814111709595,-0.8749698996543884,0.034643080085515976,-0.14127302169799805,-0.006157976575195789,-0.989951491355896,0.18831588327884674,-0.1361149698495865,-0.16559654474258423,0.16728254059899678,-0.06929404657666255,-0.01491895848731,-0.9833576810417409,0.006158015443588076,-0.14174992829971061,-2.8041542979337843
1784804390477903360,2.623640537261963,-0.8396490812301636,-1.0231070518493652,0.2096715122461319,-0.15054439008235931,0.0023933001793920994,-0.9886003732681274,0.20892451703548431,-0.11518626660108566,-0.13350045680999756,0.1675081118504465,-0.07461648564462019,-0.011497961070362194,-0.9829757212439693,-0.00239330237930781,-0.15111935263565696,-2.8041981712418407
1784804390487822336,2.633559465408325,-0.887806236743927,-0.9343128800392151,0.008399656973779202,-0.16036593914031982,0.0111299529671669,-0.9869948625564575,0.2574270963668823,-0.1220003142952919,-0.18469703197479248,0.16771246237925386,-0.08023743054383385,-0.008032142505848841,-0.9825324350405328,-0.011130182834803786,-0.16107144068901602,-2.8043616753494947
1784804390497742336,2.643479585647583,-0.8672348856925964,-0.9355818629264832,0.10112923383712769,-0.16938741505146027,0.019618704915046692,-0.9853542447090149,0.20628315210342407,-0.1539570838212967,-0.1517001986503601,0.16744342006487806,-0.08545109079248024,-0.004580584503495387,-0.9821608405100791,-0.019619963066025575,-0.17024114708696275,-2.805544385612059
1784804390507661312,2.6533985137939453,-0.7742015719413757,-0.8886694312095642,0.0076434859074652195,-0.17782877385616302,0.028020476922392845,-0.9836624264717102,0.2540922164916992,-0.1006675735116005,-0.1467697024345398,0.16729636511318705,-0.09037426204156157,-0.0011296578423526295,-0.9817551790556688,-0.02802414419941868,-0.17885060122183052,-2.806537364527191
1784804390517581568,2.663318634033203,-0.6199920177459717,-0.9108016490936279,0.08304795622825623,-0.1867479830980301,0.03477616235613823,-0.981792151927948,0.2330126315355301,-0.06675858795642853,-0.114795982837677,0.1673916005299878,-0.09540355609906104,0.0014454099697397745,-0.9812625642091205,-0.03478317471442745,-0.18796589322648552,-2.806948560136769
1784804390527500288,2.6732375621795654,-0.757969856262207,-0.8980671763420105,0.04466062784194946,-0.1956528276205063,0.04190461337566376,-0.9797775149345398,0.1791275590658188,-0.056675124913454056,0.017741382122039795,0.16727113445961478,-0.10046571813324148,0.004228608613575808,-0.980769734285585,-0.04191688574544775,-0.19709849645468977,-2.8078865870902154
1784804390537420288,2.683157444000244,-0.7994301915168762,-0.8155319094657898,-0.006159378215670586,-0.20409823954105377,0.0495588481426239,-0.9776951670646667,0.13657809793949127,-0.1288282573223114,0.15134018659591675,0.16718030554074897,-0.1053516412077744,0.007311068113149598,-0.9802542077440897,-0.04957915889566276,-0.20579898454775947,-2.808868183543074
1784804390547339520,2.6930766105651855,-0.9022929668426514,-0.5911150574684143,0.05339236557483673,-0.21069864928722382,0.058108121156692505,-0.9758225083351135,0.13336710631847382,-0.118731290102005,0.3199387192726135,0.16679764562863605,-0.10939425659991249,0.011029696947446835,-0.9798416960014992,-0.058140873474948146,-0.21265442706060042,-2.8105739524450404
1784804390557258240,2.702995538711548,-0.7177283763885498,-0.5495235323905945,-0.003139220643788576,-0.21619628369808197,0.06593834608793259,-0.9741207957267761,0.20945189893245697,-0.08075462281703949,0.3974453806877136,0.16651777650226843,-0.11282716839538028,0.014478911838961056,-0.9794550136836677,-0.06598621957556815,-0.21839990319744798,-2.8120286869172726
1784804390567178496,2.7129156589508057,-0.6112778186798096,-0.3936135470867157,0.0064971609972417355,-0.22087712585926056,0.07224141061306,-0.9726224541664124,0.18724676966667175,-0.047247521579265594,0.42551863193511963,0.1661227868060875,-0.11571930341388104,0.017257080884978425,-0.9791396114907911,-0.07230439314843978,-0.22330702813462752,-2.8135796051035564
1784804390577097472,2.722834587097168,-0.6048727631568909,-0.11759839951992035,-0.03434031829237938,-0.22341784834861755,0.07795601338148117,-0.9716004133224487,0.19998034834861755,-0.05187874287366867,0.49261176586151123,0.1657796873841816,-0.11748601643922643,0.0199208075897641,-0.9789368212705345,-0.0780351892561527,-0.22601927068460956,-2.8149433454686643
1784804390587017216,2.7327544689178467,-0.6639158725738525,0.18265250325202942,-0.09572964161634445,-0.22306622564792633,0.08395562320947647,-0.9711812138557434,0.13415326178073883,-0.05777154117822647,0.6007741093635559,0.1650187601945148,-0.11781097987736058,0.023021192365200546,-0.9789583399859316,-0.08405456185884405,-0.2257696558112596,-2.8171356438945487
1784804390596936448,2.742673635482788,-0.5633490681648254,0.563162088394165,0.013354201801121235,-0.21944281458854675,0.08996089547872543,-0.9714689254760742,0.16080328822135925,-0.09479793161153793,0.6668882369995117,0.16440154642846355,-0.11648877299860831,0.026379915075873738,-0.979135593786311,-0.09008268221504989,-0.22215913625321468,-2.818940876314539
1784804390606856448,2.752593517303467,0.030172307044267654,0.6038679480552673,0.2483922839164734,-0.2135416865348816,0.09298314154148102,-0.972498893737793,0.1826884150505066,-0.08979405462741852,0.7673444747924805,0.16474146260597342,-0.1137888536195767,0.02833110452818179,-0.9793415345523857,-0.0931176497059146,-0.2161500314575806,-2.8183903742927194
1784804390616775168,2.762512445449829,0.47901293635368347,0.8318985104560852,0.23098266124725342,-0.20609502494335175,0.09089524298906326,-0.9743012189865112,0.18474799394607544,0.0006727352738380432,0.889096200466156,0.16606077137136327,-0.10990238944336485,0.02776412503493672,-0.9795787616503961,-0.0910208751410357,-0.20845818866257873,-2.8152683976696875
1784804390626695424,2.772432565689087,0.8253759145736694,0.9906409978866577,0.42129161953926086,-0.1963510662317276,0.08486706018447876,-0.9768540263175964,0.046814948320388794,-0.04891736060380936,0.9156968593597412,0.1678178195792711,-0.10453611665612281,0.025400274364800253,-0.9799306828886887,-0.0849692690255943,-0.19836025306796753,-2.8108337881763763
1784804390636614400,2.782351493835449,0.6029298305511475,1.473240613937378,0.35207873582839966,-0.18408119678497314,0.0783654972910881,-0.9797821044921875,0.029555439949035645,-0.2304498553276062,0.92132568359375,0.17005758393430997,-0.09787939382133641,0.02299072565753444,-0.9802915883433185,-0.07844592793535748,-0.18571475988274103,-2.805367531081385
1784804390646534400,2.792271614074707,0.11791547387838364,1.8397616147994995,0.1264069825410843,-0.16768178343772888,0.07508499175310135,-0.9829776287078857,0.030474767088890076,-0.30460768938064575,0.8964603543281555,0.1711899183613588,-0.08942833332171768,0.022665976095841266,-0.9809092533220197,-0.07515572093328528,-0.16895920741107803,-2.802396922882135
1784804390656453376,2.8021905422210693,-0.10656024515628815,1.999015212059021,0.28131693601608276,-0.14885658025741577,0.07571244984865189,-0.985956072807312,0.16078895330429077,-0.3422682285308838,0.8164156675338745,0.17181723498114787,-0.08012268361835097,0.02454236928637487,-0.9815583573731457,-0.07578497387994863,-0.1498452005599513,-2.800704645256621
1784804390666372352,2.8121094703674316,-0.40024346113204956,2.1274614334106445,0.3621954619884491,-0.12818209826946259,0.078487329185009,-0.9886400103569031,0.24187533557415009,-0.3677787184715271,0.7248460650444031,0.17313303980240763,-0.07013081533436119,0.02759817742735582,-0.9820106292754379,-0.07856813759826196,-0.1289357006865725,-2.797644839091319
1784804390676292352,2.8220295906066895,-0.27110299468040466,2.003791093826294,0.2928049564361572,-0.10735807567834854,0.08246630430221558,-0.9907944202423096,0.20788297057151794,-0.15535753965377808,0.6384689807891846,0.17437142234869893,-0.060198022217998734,0.031288897406870936,-0.982340018126514,-0.08256006012417957,-0.10793444829806266,-2.7947024136097998
1784804390686211328,2.8319485187530518,0.11652836948633194,2.032541036605835,0.2963557541370392,-0.08746631443500519,0.08380936831235886,-0.9926357269287109,0.2228575497865677,0.13565778732299805,0.46576499938964844,0.17534693382802177,-0.05050755990228772,0.03363236949573561,-0.9826349063793398,-0.08390779643795084,-0.0878882297175031,-2.7921105221087954
1784804390696131584,2.8418686389923096,0.8962838053703308,2.3430683612823486,0.5021477937698364,-0.06569698452949524,0.07881628721952438,-0.9947220087051392,0.22017696499824524,0.28730309009552,0.39125221967697144,0.17714904943825557,-0.039369901431010074,0.033000001896688315,-0.9828424582245124,-0.07889811737941799,-0.06594979048289605,-2.787542830248253
1784804390706050304,2.851787567138672,0.9787842631340027,2.3598828315734863,0.2564208507537842,-0.04175766184926033,0.0695602297782898,-0.9967033863067627,0.05838974565267563,0.12308197468519211,0.41866999864578247,0.17874993310419954,-0.026786165380570374,0.030509018864928947,-0.9830565465884086,-0.06961645047515673,-0.0418712870054909,-2.7833195457306408
1784804390715970304,2.8617074489593506,0.6820085644721985,2.224299430847168,0.08937317132949829,-0.019162721931934357,0.06097361445426941,-0.9979554414749146,0.06498486548662186,-0.0005793273448944092,0.503219723701477,0.17943299431856904,-0.014906456109187076,0.028285872370478204,-0.98325047550604,-0.06101145947217965,-0.019199623162544057,-2.7811718204909956
1784804390725889536,2.871626615524292,0.4976518452167511,2.358363389968872,0.04867687076330185,0.00349827716127038,0.05568764731287956,-0.9984421133995056,0.11764124780893326,-0.11876748502254486,0.5389847159385681,0.17936120070759937,-0.003276573613661833,0.027716581389565606,-0.983387250943642,-0.055716468440472525,0.0035037212942383667,-2.7806786848447036
1784804390735809280,2.8815464973449707,0.5614019632339478,2.2865235805511475,0.12627895176410675,0.026695458218455315,0.05036919564008713,-0.998373806476593,0.15198495984077454,-0.23979181051254272,0.4642552137374878,0.17948384546727097,0.008612231429161562,0.02718301837911181,-0.9833475620835775,-0.050390519474362364,0.026732571281951376,-2.779846979191205
1784804390745728256,2.891465425491333,0.5319386124610901,2.046262264251709,0.09258783608675003,0.04818938672542572,0.04494724050164223,-0.9978263974189758,0.18453766405582428,-0.10097751021385193,0.39275437593460083,0.17962011986451912,0.01967417326919903,0.02645233384588769,-0.9831834860086491,-0.044962388804870614,0.048256865882843746,-2.7791082072397084
1784804390755647488,2.9013845920562744,0.8279699087142944,1.9176170825958252,0.1893264651298523,0.06803188472986221,0.038292478770017624,-0.9969480037689209,0.2064889818429947,0.15569250285625458,0.20223981142044067,0.18005057941211933,0.03003217223838717,0.02498119251914018,-0.9828814266435462,-0.038301844573765245,0.06813452264788183,-2.7779318194943445
1784804390765567232,2.911304473876953,1.0064408779144287,1.6324658393859863,0.08384531736373901,0.08559989184141159,0.028922338038682938,-0.9959096908569336,0.1286487579345703,0.25484535098075867,-0.0645456314086914,0.18031287457705225,0.03952721040194552,0.021971414555463364,-0.982569129674194,-0.028926371274002338,0.08574073082625427,-2.777367153246951
1784804390775486464,2.9212236404418945,1.2304532527923584,1.5955876111984253,0.16556334495544434,0.10151579976081848,0.017902666702866554,-0.9946728348731995,0.10488983988761902,0.2208821177482605,-0.16665834188461304,0.18042272528191247,0.04836996385076348,0.017998126457219116,-0.9822341507839967,-0.017903623968534066,0.10170733419542069,-2.7773593056256636
1784804390785406464,2.9311435222625732,1.3444565534591675,1.5532013177871704,0.30883023142814636,0.11747220903635025,0.004512111656367779,-0.9930658936500549,0.11978669464588165,0.007389743346720934,-0.2945317029953003,0.18103213724692963,0.05745276791076781,0.012892621378304329,-0.9817129453859148,-0.004512127193408337,0.11774528610660141,-2.776615166365758
1784804390795325184,2.9410624504089355,0.9335244297981262,1.606406331062317,0.11783409863710403,0.13328444957733154,-0.007090028375387192,-0.9910524487495422,0.010285496711730957,-0.12044292688369751,-0.277166485786438,0.18185315742875283,0.06632060599623212,0.008680100185741457,-0.9810482967486133,0.007090087602538915,0.13368563829991362,-2.775495743660972
1784804390805245440,2.9509825706481934,0.4541653096675873,1.4504326581954956,-0.15727442502975464,0.14826685190200806,-0.013895035721361637,-0.9888497591018677,-0.028744757175445557,-0.05138206109404564,-0.2545279264450073,0.18138738328004805,0.07436803967315575,0.006671513432775002,-0.9805730527379047,0.013895482808252929,0.14882999490294893,-2.7768018298954846
1784804390815164416,2.9609014987945557,0.449865460395813,1.282733678817749,-0.030194340273737907,0.16169078648090363,-0.01792190410196781,-0.9866787195205688,0.050192758440971375,-0.03783371299505234,-0.30006444454193115,0.18069495300408253,0.0814017776205654,0.005864361848915841,-0.9801472555611502,0.01792286396155216,0.16243005709570196,-2.778435597207485
1784804390825084416,2.9708216190338135,0.386841744184494,1.0184886455535889,0.07116876542568207,0.1727379709482193,-0.02227948047220707,-0.9847158193588257,-0.0113457590341568,-0.01974322460591793,-0.3937174081802368,0.1805817543224505,0.08729160102164255,0.004719489663164473,-0.9796673717340836,0.02228132440742852,0.17365229750589892,-2.778965155239481
1784804390835003392,2.980740547180176,-0.19668200612068176,0.6097357869148254,-0.2511090934276581,0.18091240525245667,-0.023230860009789467,-0.9832248091697693,-0.09137383103370667,0.13198025524616241,-0.3681545853614807,0.1803454658802947,0.09144832488725949,0.004979791338641762,-0.9793303666707611,0.02323294977460158,0.18196374491903386,-2.7794893405826806
1784804390844923136,2.9906604290008545,0.03599890321493149,0.47154706716537476,-0.17985834181308746,0.18561170995235443,-0.020989062264561653,-0.9823989868164062,-0.11970899999141693,0.257576584815979,-0.44165802001953125,0.17903917085606028,0.09359285786448913,0.0063942379083020955,-0.9793592719423948,0.02099060437044478,0.1867359689081644,-2.781926562663206
1784804390854842368,3.000579595565796,-0.0407424122095108,0.3880540430545807,-0.19696670770645142,0.19027079641819,-0.021617872640490532,-0.9814935922622681,-0.12636698782444,0.10403059422969818,-0.5975621938705444,0.17814072289457306,0.09597895222901434,0.0064218063573776305,-0.979291944908629,0.021619557533549036,0.19148328149523217,-2.7837887238957224
1784804390864762368,3.0104994773864746,-0.2565082609653473,0.22184458374977112,-0.2903006672859192,0.1935993731021881,-0.01951182261109352,-0.9808866381645203,-0.2444569170475006,0.16939890384674072,-0.42836934328079224,0.17713065810030643,0.0974573266081986,0.007665285655743434,-0.9793202424562362,0.01951306025752594,0.19486719226368482,-2.785627010152631
1784804390874681600,3.020418643951416,-0.34707528352737427,0.06237554922699928,-0.3011895716190338,0.19475498795509338,-0.015761513262987137,-0.9807252883911133,-0.16425266861915588,0.15698160231113434,-0.4970884323120117,0.17577310258269627,0.09771045044125877,0.009488401554505924,-0.9795235562634386,0.015762165055742933,0.19603231637866445,-2.7880270299615764
1784804390884600320,3.0303375720977783,-0.4942370653152466,0.13668759167194366,-0.21046820282936096,0.19572553038597107,-0.011461918242275715,-0.9805917143821716,-0.11819562315940857,0.13104504346847534,-0.47503572702407837,0.17495406261391766,0.0978218280745045,0.011619995081140687,-0.979636138288875,0.011462169235639544,0.1970103430483302,-2.7892700442035645
1784804390894520320,3.040257453918457,-0.4320916533470154,-0.3798622786998749,-0.24883383512496948,0.19435283541679382,-0.006023002788424492,-0.9809132218360901,-0.24147197604179382,0.11666448414325714,-0.4639872908592224,0.1740067690411651,0.09666846366083046,0.014092918611828192,-0.9798868453976161,0.006023039353846211,0.19560125900533035,-2.7906908338296748
1784804390904439552,3.0501766204833984,-0.3269721567630768,-0.6020476818084717,-0.06551381945610046,0.18919341266155243,-0.002196601592004299,-0.9819374084472656,0.02827484905719757,0.09846429526805878,-0.5516624450683594,0.17343529917832468,0.09376568221762423,0.015469511250161409,-0.9802493467633003,0.0021966034671695766,0.19034112778222706,-2.791567331783367
1784804390914359296,3.060096502304077,-0.3177502453327179,-0.4772642254829407,-0.05977979674935341,0.18427325785160065,0.0009530212846584618,-0.9828745722770691,-0.02294209599494934,0.06021946296095848,-0.5262806415557861,0.17336635957070287,0.09103693346002847,0.016582603674592116,-0.9805005710671358,-0.0009530214088077936,0.18533249580124356,-2.791493377208565
1784804390924278272,3.0700154304504395,-0.660885751247406,-0.26654428243637085,0.08795960247516632,0.1804870069026947,0.00583262974396348,-0.9835600852966309,-0.0800841748714447,-0.03273387625813484,-0.49980783462524414,0.1738128007507121,0.08871478707885953,0.01869890818453016,-0.9805963147511904,-0.005832662761980728,0.18148468741436005,-2.7902018183236144
1784804390934198272,3.0799355506896973,-0.7045794725418091,-0.4612225294113159,-0.03518540412187576,0.17719289660453796,0.012279044836759567,-0.9840995073318481,0.05219246447086334,-0.016170041635632515,-0.5420692563056946,0.17428511650293452,0.0864997835908875,0.021633761657766162,-0.980649946387454,-0.0122793532814345,0.1781470578454826,-2.7887207625861015
1784804390944117248,3.0898544788360596,-0.6815290451049805,-0.599727988243103,0.2587314546108246,0.17163346707820892,0.019099628552794456,-0.9849756956100464,0.3127262592315674,0.022007552906870842,-0.5680027604103088,0.17532849624595898,0.08310935493456675,0.0245962688080162,-0.9806874814782466,-0.019100790807791698,0.172519281821838,-2.7861166355688263
1784804390954037504,3.0997745990753174,-0.7208399176597595,-0.672130823135376,0.24513016641139984,0.16575980186462402,0.025294004008173943,-0.9858417510986328,0.4085962772369385,-0.08304852247238159,-0.5906352996826172,0.17690719748535882,0.07960023088991514,0.027256969666719946,-0.9806246320741476,-0.02529670207441778,0.1665822178617505,-2.782514971617778
1784804390963956480,3.1096935272216797,-0.9220777153968811,-0.8114607334136963,0.3553951680660248,0.15887551009655,0.03295978903770447,-0.9867483377456665,0.4978932738304138,-0.18774494528770447,-0.5510934591293335,0.1788450992238063,0.07544156812191587,0.03056819947350143,-0.9805042698027371,-0.03296576128709807,0.1596390656309362,-2.7781200198384286
1784804390973876480,3.1196136474609375,-0.8685495257377625,-1.0492321252822876,0.368508517742157,0.15026941895484924,0.041336845606565475,-0.9877805113792419,0.5918112397193909,-0.18066485226154327,-0.4945192337036133,0.18113914132045994,0.07034396140753146,0.03408027104920926,-0.9803462874525607,-0.04134862620917926,0.1509708143018241,-2.773045202605118
1784804390983795456,3.1295325756073,-0.7066195011138916,-1.267907977104187,0.36489754915237427,0.13917087018489838,0.04875287413597107,-0.989067554473877,0.6456191539764404,-0.09799298644065857,-0.44199323654174805,0.1833340219980687,0.0640935893226955,0.036854236064181416,-0.980266505698265,-0.04877220905730607,0.13979140488153302,-2.7684000010603116
1784804390993715200,3.1394524574279785,-0.5227609276771545,-1.508893609046936,0.26423582434654236,0.12577973306179047,0.05454789474606514,-0.9905574321746826,0.5898879766464233,0.04107894003391266,-0.4289066791534424,0.185349758715593,0.056862124121253646,0.03857450191132525,-0.9802674347385053,-0.05457498134459163,0.12630280969958313,-2.7643914869124147
1784804391003634432,3.14937162399292,-0.1668395698070526,-1.6866811513900757,0.29964202642440796,0.11011709272861481,0.05736967921257019,-0.992261528968811,0.4310969114303589,0.09152558445930481,-0.46470868587493896,0.18707683382385612,0.048800511839841215,0.038571285787248936,-0.9803739732775664,-0.0574011955629777,0.11052363199399069,-2.7613062970840607
1784804391013554176,3.1592912673950195,-0.3509024679660797,-1.689380407333374,0.15523751080036163,0.09361334145069122,0.059202052652835846,-0.9938468933105469,0.31234675645828247,-0.07728372514247894,-0.4106788635253906,0.18861042586339344,0.04043454503982802,0.03796838203339643,-0.9804843360783656,-0.05923669155306602,0.09391582417256324,-2.7587219242767183
1784804391023473920,3.1692111492156982,-0.8436983227729797,-1.6558208465576172,0.15385159850120544,0.07738366723060608,0.06490084528923035,-0.9948867559432983,0.19350561499595642,-0.21016451716423035,-0.28271639347076416,0.18975110070635023,0.03186243597775529,0.03926078518166967,-0.9805293940177906,-0.06494649147096544,0.07762508928456613,-2.7567574301078044
1784804391033393152,3.1791303157806396,-1.416069746017456,-1.4661799669265747,0.15983940660953522,0.06192459538578987,0.07596784085035324,-0.9951855540275574,0.15781722962856293,-0.34707075357437134,-0.21624022722244263,0.19091803203170607,0.023158720996229742,0.0432540228274795,-0.9803790758665958,-0.07604110323364739,0.062144051994640924,-2.7545643930833736
1784804391043313152,3.1890501976013184,-1.7678898572921753,-1.3600982427597046,0.181839257478714,0.0485050305724144,0.09185276925563812,-0.9945905208587646,0.132586270570755,-0.3975931406021118,-0.15219902992248535,0.19219495423792324,0.014980624214929211,0.049802748239903875,-0.979977711436404,-0.091982417795599,0.048730234029322084,-2.7520220114056695
1784804391053231872,3.1989691257476807,-1.8557825088500977,-1.2517967224121094,0.12690137326717377,0.03569834679365158,0.10991708189249039,-0.9932994842529297,0.20682485401630402,-0.2531665861606598,-0.11262702941894531,0.19349998613565983,0.006869865144947003,0.057472287897027304,-0.9793913392068354,-0.11013962853549156,0.03592369633747021,-2.749493000146263
1784804391063152128,3.2088892459869385,-1.7365342378616333,-1.232950210571289,0.056589122861623764,0.02370017021894455,0.12747904658317566,-0.9915580749511719,0.15014322102069855,-0.04158732295036316,-0.13269424438476562,0.19429598692154024,-0.0007889301748693101,0.0649641897277201,-0.9787890707858942,-0.12782687444656682,0.02389739879720061,-2.748144941415367
1784804391073071104,3.218808174133301,-1.4381667375564575,-1.1971721649169922,-0.009023575112223625,0.011773606762290001,0.14321285486221313,-0.9896218776702881,0.13518379628658295,0.06555789709091187,-0.15989899635314941,0.19487968015885593,-0.008239048817452325,0.07156242121522545,-0.9781782728686886,-0.1437069792096386,0.011896514501752288,-2.7474316485978942
1784804391082991104,3.2287282943725586,-1.1212055683135986,-1.2047827243804932,-0.021316727623343468,1.1436519343988039e-05,0.15566718578338623,-0.9878095388412476,0.15456008911132812,0.08339224755764008,-0.16618210077285767,0.19515048892945472,-0.01527678826211316,0.07656265063904516,-0.9776610233718075,-0.15630283524292457,1.1577656262753058e-05,-2.7475515291187365
1784804391092910080,3.238647222518921,-0.9143897294998169,-1.2276089191436768,-0.0065256631933152676,-0.011847222223877907,0.1656472384929657,-0.9861139059066772,0.22344084084033966,0.013017922639846802,-0.14047300815582275,0.1954882415112421,-0.022133027114307213,0.08033165897821833,-0.9771598754290072,-0.1664142828907756,-0.012013472779323159,-2.74769278014049
1784804391102829824,3.2485671043395996,-0.7001900672912598,-1.2275702953338623,-0.09354738146066666,-0.023704085499048233,0.1734747439622879,-0.9845530390739441,0.19098618626594543,-0.023465588688850403,-0.1689961552619934,0.19554758251458418,-0.02875987106088343,0.08304434575980348,-0.9767486017111181,-0.17435681848825818,-0.024071336749551517,-2.7485159909798145
1784804391112749056,3.258486270904541,-0.646578848361969,-1.1900075674057007,-0.062290024012327194,-0.035453300923109055,0.1798384189605713,-0.9830570816993713,0.19358012080192566,-0.01592850685119629,-0.18839067220687866,0.19564163527205397,-0.035197467299103134,0.08504469697584227,-0.9763467961825716,-0.18082218562896873,-0.036048713682612525,-2.7493368605129787
1784804391122669056,3.2684061527252197,-0.5308243036270142,-1.2056552171707153,-0.08072122931480408,-0.0471876785159111,0.1855638027191162,-0.9814985394477844,0.1245497390627861,-0.01814436912536621,-0.13767260313034058,0.1956633130026373,-0.04156476658989008,0.08673578618435071,-0.9759431854041154,-0.18664559507073236,-0.04804018565139197,-2.7503634289837637
1784804391132588032,3.278325319290161,-0.47255146503448486,-1.0644763708114624,-0.08349668234586716,-0.058344487100839615,0.19042673707008362,-0.9799661040306091,0.05138648301362991,-0.03782358765602112,-0.10351473093032837,0.19560341786938568,-0.047559815699956216,0.08806252928537256,-0.975562566912507,-0.19159682174364398,-0.05946705341638545,-2.751549928812324
1784804391142508032,3.28824520111084,-0.4508139491081238,-0.9868691563606262,-0.11137038469314575,-0.06835182011127472,0.19475626945495605,-0.9784671664237976,0.03015907108783722,-0.015419721603393555,-0.03544884920120239,0.19543801231767555,-0.05292999651299433,0.08924586597801784,-0.9752115821962384,-0.1960089568667961,-0.069742721206709,-2.7528811404170814
1784804391152427008,3.298164129257202,-0.45463380217552185,-0.8297690749168396,-0.10898302495479584,-0.0771203264594078,0.1989172399044037,-0.9769771695137024,0.0701623186469078,-0.047687381505966187,0.017840206623077393,0.1952065088376832,-0.05767020925096618,0.0904741022973485,-0.9748758935907789,-0.20025296101416282,-0.07877434806900625,-2.7542631419314523
1784804391162347008,3.30808424949646,-0.5237108469009399,-0.6663351655006409,-0.10885226726531982,-0.08439566195011139,0.20349429547786713,-0.9754319190979004,0.09899832308292389,-0.11810611188411713,0.09741067886352539,0.19485465591011153,-0.06170781839513411,0.09206617724865335,-0.9745500162898996,-0.204925582954701,-0.08630639316330597,-2.7557905169618118
1784804391172265984,3.3180031776428223,-0.5819584131240845,-0.510138988494873,-0.07788313180208206,-0.0901525616645813,0.20871879160404205,-0.9738115668296814,0.1532934308052063,-0.18473199009895325,0.1698717474937439,0.19456894610851028,-0.06507005682320166,0.09412810454722775,-0.9741913676967054,-0.2102647217290963,-0.0923138837224514,-2.7570811984064774
1784804391182184960,3.3279221057891846,-0.7606613039970398,-0.3154858350753784,-0.15434381365776062,-0.09415633231401443,0.21506008505821228,-0.9720513224601746,0.15033918619155884,-0.2844875752925873,0.22170037031173706,0.19385066888812374,-0.06763858567023535,0.09695033350261,-0.9738827697905494,-0.21675335793891837,-0.09656229337016449,-2.7591445346965786
1784804391192104960,3.3378422260284424,-0.7827662825584412,-0.16383212804794312,-0.11792998760938644,-0.0964953601360321,0.2223888486623764,-0.9701710343360901,0.1754290759563446,-0.2711864709854126,0.2690296769142151,0.1930599669160601,-0.06947525076431386,0.10043739224261414,-0.9735570538578908,-0.22426398902522812,-0.0991361649475513,-2.761236895100104
1784804391202023936,3.3477611541748047,-0.7673508524894714,0.05063089728355408,-0.020994650200009346,-0.09733285009860992,0.2297690361738205,-0.9683659076690674,0.14083565771579742,-0.2244284600019455,0.3232090473175049,0.19246552167659478,-0.07059055529198831,0.10408663640087955,-0.9732111162604875,-0.23184036632861862,-0.10017602385153233,-2.7627788841331675
1784804391211944192,3.3576812744140625,-0.8386397361755371,0.12134692072868347,0.19266420602798462,-0.09633313864469528,0.23750391602516174,-0.9665980339050293,0.13847792148590088,-0.23596279323101044,0.4247279763221741,0.19251592406855644,-0.07089962568499315,0.10804727821783912,-0.9727468953581139,-0.23979543817502236,-0.09933403158977355,-2.762800180848757
1784804391221862912,3.367600202560425,-0.8639394640922546,0.33155715465545654,0.17082788050174713,-0.09328499436378479,0.24602149426937103,-0.9647648930549622,0.1353382170200348,-0.2582895755767822,0.5175145864486694,0.19294177277452143,-0.07031817594542945,0.11257397169154672,-0.9721913109133092,-0.24857344515953578,-0.0963922894848139,-2.7618141372268052
1784804391231783168,3.3775203227996826,-0.5707594752311707,0.37513402104377747,0.3537716269493103,-0.08915308862924576,0.2528931200504303,-0.963377833366394,0.15511682629585266,-0.2935272753238678,0.5330342054367065,0.19372635686422907,-0.06907493434238113,0.11636042478777589,-0.9716784734304107,-0.2556694048905281,-0.09227935914198768,-2.7598771264488686
1784804391241702144,3.387439250946045,-0.43699154257774353,0.5564425587654114,0.4356158971786499,-0.08353360742330551,0.25833287835121155,-0.9624376893043518,0.2370980679988861,-0.28259435296058655,0.5551653504371643,0.19530538895351499,-0.06704671009498635,0.1195236692249329,-0.9711203032087922,-0.26129611834516947,-0.08657682293817962,-2.7560435580940146
1784804391251621888,3.3973591327667236,-0.09841949492692947,0.6007238626480103,0.45136722922325134,-0.07653473317623138,0.26102909445762634,-0.9622921943664551,0.19549225270748138,-0.21159061789512634,0.6080594062805176,0.1968978951873963,-0.06405418480664292,0.12145356148886072,-0.9707612127686392,-0.2640880897461435,-0.07936671327029728,-2.751912053035366
1784804391261541120,3.407278299331665,0.00027539324946701527,0.6884278655052185,0.32265400886535645,-0.06903064250946045,0.2615695893764496,-0.9627128839492798,0.19192492961883545,-0.058230966329574585,0.6079307794570923,0.19854740226324508,-0.060594962031762754,0.1223593145283341,-0.9705335532070677,-0.264648047480239,-0.07158177295680147,-2.7475419173405116
1784804391271461120,3.4171981811523438,0.4094983637332916,0.926190972328186,0.5364135503768921,-0.059336334466934204,0.2596823275089264,-0.9638694524765015,0.1877390593290329,0.04824003577232361,0.591905951499939,0.20011615818798584,-0.05578431148974127,0.12228407786006679,-0.9705092084061249,-0.26269323471424855,-0.061482965123047795,-2.7430232246399875
1784804391281379840,3.427117109298706,0.5808807611465454,1.2514464855194092,0.4935409724712372,-0.04704362154006958,0.25489678978919983,-0.965823233127594,0.20828324556350708,-0.05488458275794983,0.506899893283844,0.2023181138756982,-0.0494595340438841,0.12100469141412007,-0.9705560711460379,-0.25774097127412504,-0.04866984719158262,-2.7368753141380884
1784804391291300096,3.437037229537964,0.7230653762817383,1.3438891172409058,0.34813210368156433,-0.033392954617738724,0.24889196455478668,-0.9679554104804993,0.19911865890026093,-0.07422460615634918,0.5695942044258118,0.20369871052854474,-0.04223540993952547,0.11932501692356422,-0.9708164164863713,-0.2515360531123109,-0.03448476630285996,-2.732309612585416
1784804391301219072,3.446956157684326,0.943510115146637,1.3758326768875122,0.31723836064338684,-0.019558757543563843,0.24103446304798126,-0.9703194499015808,0.30090031027793884,-0.06604667007923126,0.5636727213859558,0.20458781394002115,-0.034668955521477474,0.11678328094998816,-0.9712382299391902,-0.24343160215736284,-0.020154299933444697,-2.728835699529896
1784804391311139072,3.456876277923584,1.2263433933258057,1.5356318950653076,0.3989242613315582,-0.004566071555018425,0.23045064508914948,-0.9730733036994934,0.20570741593837738,-0.09122945368289948,0.5814259648323059,0.20569491652789737,-0.02627344322343341,0.11301793125878526,-0.9717131286931154,-0.23254076506802898,-0.00469238855376447,-2.7249341109174465
1784804391321058048,3.4667952060699463,1.0563175678253174,1.6634002923965454,0.3329868018627167,0.011746125295758247,0.219308003783226,-0.9755849838256836,0.1297333687543869,-0.1612788289785385,0.6009969711303711,0.20666593371990463,-0.017161734193417117,0.10914665557102532,-0.9721530846199828,-0.2211051548807614,0.012039502646766712,-2.7213212133807523
1784804391330978048,3.476715326309204,0.9811241626739502,1.7290865182876587,0.42904430627822876,0.0290303286164999,0.20930449664592743,-0.9774194955825806,0.15103864669799805,-0.20974700152873993,0.6193720102310181,0.20761113944110077,-0.007699009636554043,0.10597630901112838,-0.9724234604310384,-0.21086365019907174,0.029692263837857703,-2.7177687860100628
1784804391340897024,3.4866342544555664,0.7792871594429016,1.7524957656860352,0.4519701302051544,0.04691990464925766,0.20057785511016846,-0.9785535335540771,0.12306300550699234,-0.29448044300079346,0.5557324886322021,0.20894764571183652,0.0018781356220471891,0.10353597993018158,-0.972428708933476,-0.20194772665962665,0.04791152960126922,-2.713429872087477
1784804391350817024,3.496554136276245,0.7756444811820984,1.7187798023223877,0.35917386412620544,0.06464961171150208,0.1929679661989212,-0.9790729284286499,0.08091922849416733,-0.31296306848526,0.4969104528427124,0.20993987577105752,0.011293312727661767,0.10166611034273633,-0.9723486012289739,-0.1941860702941615,0.06593574123669194,-2.7098765360452632
1784804391360736256,3.5064733028411865,0.9960147142410278,1.7233742475509644,0.3619579076766968,0.08204106241464615,0.18417611718177795,-0.9794633388519287,0.05231257528066635,-0.21229806542396545,0.4047868251800537,0.21078379086695886,0.0206846073220019,0.09919919295733802,-0.9722663916882316,-0.18523358014735047,0.08356616988695015,-2.706841382943027
1784804391370656000,3.5163931846618652,1.1438848972320557,1.7313735485076904,0.3345829248428345,0.09939921647310257,0.17338639497756958,-0.979824960231781,0.009228110313415527,-0.04094010591506958,0.348446786403656,0.21152355156297326,0.030285748322372776,0.0957616497412013,-0.9721986196260186,-0.1742671045405913,0.10110001969990573,-2.7042864340418142
1784804391380574976,3.5263121128082275,1.446150541305542,1.643492341041565,0.4075567424297333,0.1164291501045227,0.16061696410179138,-0.9801257252693176,0.0005142092704772949,0.04765024781227112,0.2926562428474426,0.21221479015062783,0.03994616839032433,0.09133147957145582,-0.9721253997942773,-0.16131570346377766,0.11823594860957241,-2.7021681490671043
1784804391390494208,3.536231279373169,1.5510427951812744,1.5920631885528564,0.4048224985599518,0.132928729057312,0.1452169120311737,-0.980429470539093,0.043035611510276794,-0.0445394366979599,0.1651982069015503,0.21320779021977299,0.04960717646307088,0.08558258698721848,-0.971986170339124,-0.14573220188368494,0.1347604021919128,-2.6998752990925543
1784804391400413952,3.5461511611938477,1.472370982170105,1.5447134971618652,0.3702661097049713,0.14883601665496826,0.13005684316158295,-0.9802719354629517,0.05224430561065674,-0.08756111562252045,0.12935030460357666,0.21392571605799837,0.05898913508669647,0.07990191132443376,-0.9717879592921682,-0.13042631120520778,0.15068051463854343,-2.6983733633969944
1784804391410332928,3.55607008934021,1.4645628929138184,1.41448175907135,0.3172062337398529,0.16376282274723053,0.11517295241355896,-0.9797534942626953,0.09469053149223328,-0.06397971510887146,0.015779554843902588,0.21467225768805173,0.06787182429839463,0.0742742351473485,-0.971489957549877,-0.11542910812511582,0.16561596004814547,-2.6970469534102857
1784804391420252928,3.5659902095794678,1.295567512512207,1.3055635690689087,0.33366695046424866,0.17705199122428894,0.1011577844619751,-0.9789891242980957,0.11146119236946106,0.0485004261136055,-0.0832972526550293,0.21511974589265462,0.07589269161057967,0.06888932098599039,-0.971194186457258,-0.10133110520275207,0.17891792625734054,-2.696534067818503
1784804391430171904,3.57590913772583,0.9150391221046448,1.2758402824401855,0.47564437985420227,0.19001086056232452,0.08969945460557938,-0.97767573595047,0.14348521828651428,0.10658960044384003,-0.14325010776519775,0.21633557760696237,0.0834396945460857,0.06480694661675032,-0.9705858218794207,-0.08982018254593566,0.19195660058850014,-2.6943257889233925
1784804391440092160,3.585829257965088,0.3889944553375244,1.1905685663223267,0.3836425244808197,0.20232757925987244,0.08219897001981735,-0.9758621454238892,0.050083309412002563,-0.03511034697294235,-0.23565518856048584,0.21776274461596407,0.0902478197606891,0.06264399869896967,-0.9697991554156689,-0.08229181601093187,0.2044356464291357,-2.691385741181429
1784804391450011136,3.59574818611145,-0.11028966307640076,1.1929196119308472,0.2739047110080719,0.21430008113384247,0.08042190968990326,-0.9734514951705933,0.03237350285053253,-0.11679886281490326,-0.27651798725128174,0.21877284448101222,0.09630433760408726,0.06324343209326187,-0.9689500750577775,-0.08050885265951059,0.21668821880539926,-2.6887111128590937
1784804391459931136,3.605668306350708,-0.6003611087799072,0.9144147634506226,0.20005741715431213,0.22477276623249054,0.08320824056863785,-0.9708520174026489,-0.0050309449434280396,-0.05591026693582535,-0.4224737882614136,0.21985849036194205,0.10112046045255971,0.06594434220016962,-0.9680331766200807,-0.08330455586422432,0.22751262960794175,-2.685409330945786
1784804391469850112,3.6155872344970703,-0.8672565817832947,0.7350133061408997,-0.0671226978302002,0.23265092074871063,0.09043235331773758,-0.9683468341827393,-0.020355388522148132,0.17290383577346802,-0.5320498943328857,0.22024317858284473,0.10421221470405989,0.07047277255513816,-0.9672984654007812,-0.09055606593656726,0.23578682451683822,-2.683115005298934
1784804391479769856,3.625507116317749,-0.7971973419189453,0.43479621410369873,-0.08118871599435806,0.23872868716716766,0.09871817380189896,-0.9660555720329285,-0.07938115298748016,0.30554819107055664,-0.6029446721076965,0.21998440683956474,0.10634393483674819,0.07525415953700007,-0.9667650833020984,-0.09887921936284497,0.24226335566336044,-2.682072088725027
1784804391489689088,3.6354262828826904,-0.8728904724121094,0.25999951362609863,-0.07108677923679352,0.24186399579048157,0.10681069642305374,-0.9644134640693665,-0.14426878094673157,0.34459006786346436,-0.620410144329071,0.22003958734999177,0.1070127654911505,0.07963384495751565,-0.9663277276548761,-0.10701483721700304,0.24572084043465203,-2.680586756696786
1784804391499609088,3.645346164703369,-0.781013548374176,0.01065840944647789,-0.24404151737689972,0.24322596192359924,0.11469631642103195,-0.9631645083427429,-0.30194178223609924,0.39201754331588745,-0.5959175229072571,0.219687304728794,0.10685786404444364,0.08366085343356065,-0.9660847558068185,-0.11494929487342816,0.24735649212122643,-2.6800929721160838
1784804391509527808,3.6552650928497314,-0.6860409379005432,-0.22065961360931396,-0.3346138894557953,0.24172894656658173,0.12287601828575134,-0.9625324010848999,-0.36762920022010803,0.5042449235916138,-0.5889660120010376,0.21852040901409678,0.10532522307785959,0.08740940117782883,-0.9661857689556393,-0.12318734484309071,0.24604990456145565,-2.681489600904657
1784804391519448064,3.6651852130889893,-0.5345485806465149,-0.3780820071697235,-0.23915235698223114,0.23863689601421356,0.12915799021720886,-0.9624814987182617,-0.31825727224349976,0.46666720509529114,-0.6304597854614258,0.2176613982987009,0.10318466673283658,0.090067597582833,-0.9663665267654215,-0.12951980558882661,0.2430381482947266,-2.6826739477065913
1784804391529367040,3.6751041412353516,-0.4190237522125244,-0.6442191004753113,-0.2798754870891571,0.23323655128479004,0.1342381089925766,-0.9631099700927734,-0.24187302589416504,0.3785182237625122,-0.6107578277587891,0.2169086384210634,0.1000208750370243,0.09187401250685642,-0.9666982795836141,-0.13464457965592508,0.23759598495556108,-2.6840472545665035
