time,seconds_elapsed,rotationRateX,rotationRateY,rotationRateZ,gravityX,gravityY,gravityZ,accelerationX,accelerationY,accelerationZ,quaternionW,quaternionX,quaternionY,quaternionZ,pitch,roll,yaw
1783115955041938432,0.17368221282958984,-0.10300526022911072,-0.03409622609615326,0.007779853418469429,0.06691821664571762,0.6964996457099915,-0.714430034160614,0.009925022721290588,-0.048733532428741455,0.032072246074676514,0.6382739902233152,-0.2331248989075625,0.2973848696537732,-0.6706873412118963,-0.7705077304376392,0.09339408576886363,-1.582415807289744
1783115955051859456,0.18360328674316406,-0.1358138769865036,-0.0816410705447197,-0.026255246251821518,0.06688889116048813,0.6971062421798706,-0.713840901851654,0.005483523011207581,-0.04427415132522583,0.025196552276611328,0.6382907497087554,-0.23345844297541588,0.2976183747362576,-0.6704516997723011,-0.7713533979879911,0.09342999020239375,-1.5819778852114332
1783115955061779200,0.19352316856384277,-0.08324627578258514,-0.060737382620573044,-0.019150199368596077,0.06689197570085526,0.6974257826805115,-0.7135283946990967,-0.011960357427597046,-0.022941529750823975,0.02251887321472168,0.6383727817136443,-0.2336598627438998,0.29772282203841266,-0.6702569918960752,-0.7717992324774416,0.0934749655497994,-1.5815167685765144
1783115955071700224,0.203444242477417,-0.028003524988889694,-0.043794579803943634,-0.05792901664972305,0.066602423787117,0.6973496675491333,-0.7136299014091492,-0.041471220552921295,-0.0094071626663208,0.01543349027633667,0.6383923848407372,-0.23373811731647673,0.2975761086231829,-0.670276254240926,-0.7716930055817474,0.09305951406157145,-1.581689786600515
1783115955081620224,0.2133641242980957,-0.0016092028236016631,-0.060714446008205414,-0.07418867945671082,0.06488261371850967,0.6972185969352722,-0.7139163017272949,-0.04616009443998337,-0.014708220958709717,0.023364543914794922,0.6381759170080746,-0.23422295164546347,0.2969536328425215,-0.6705890627233363,-0.771510168574367,0.09063367637268073,-1.5834911710607782
1783115955091541248,0.22328519821166992,0.03856764733791351,-0.05927915871143341,-0.057276081293821335,0.06252215057611465,0.6970326900482178,-0.7143084406852722,-0.022803544998168945,-0.06092429161071777,0.025129973888397217,0.637915884263526,-0.23490339224179424,0.2960847593413229,-0.6709826356349767,-0.7712508254357151,0.08730572240708209,-1.5858512971570404
1783115955101461504,0.23320531845092773,0.07524655759334564,-0.06157054007053375,-0.07281641662120819,0.060425400733947754,0.6963622570037842,-0.7151421904563904,-0.02542174980044365,-0.07452082633972168,0.01947873830795288,0.63776745014946,-0.23528399047674323,0.29507684605260015,-0.671434152238069,-0.7703163088308307,0.08429402878296359,-1.5880257114731895
1783115955111382272,0.24312615394592285,0.10997391492128372,-0.039697274565696716,-0.08274096250534058,0.058456432074308395,0.6952411532402039,-0.7163955569267273,-0.026397705078125,-0.08508795499801636,0.022654712200164795,0.6376641814207393,-0.2354048077967794,0.2939163253381099,-0.6719985781099249,-0.7687553241512145,0.08141760732385962,-1.590268179268334
1783115955121303296,0.25304722785949707,0.095187246799469,-0.020546745508909225,-0.11075048893690109,0.05665063485503197,0.6939634680747986,-0.7177781462669373,-0.016352184116840363,-0.09368270635604858,0.04135596752166748,0.6375115623501681,-0.23536406285633468,0.29277072522238595,-0.6726575096444826,-0.766979304909311,0.07876172824691884,-1.5926432175113037
1783115955131223296,0.2629671096801758,0.06322185695171356,-0.03002459742128849,-0.1342085301876068,0.05483466386795044,0.6929331421852112,-0.7189136743545532,-0.013727504760026932,-0.10507303476333618,0.08845102787017822,0.6372286527422686,-0.23540102429310233,0.29176963160160885,-0.6733472717229803,-0.7655492674860185,0.0761269345875906,-1.5952375027928334
1783115955141144320,0.27288818359375,0.09132513403892517,-0.058981411159038544,-0.10464292764663696,0.05316147953271866,0.6919733285903931,-0.719963014125824,-0.00018296390771865845,-0.11831915378570557,0.12796783447265625,0.637011948614507,-0.23545131225839777,0.29082840779914154,-0.6739415878699084,-0.7642189010442192,0.07370541999109624,-1.5974909416225793
1783115955151064320,0.2828083038330078,0.08105278760194778,-0.10077280551195145,-0.13921836018562317,0.05136863887310028,0.6910651326179504,-0.720964789390564,0.008445821702480316,-0.11440497636795044,0.14969098567962646,0.6368494628800446,-0.23559925279011684,0.2898457998744317,-0.6744665782494743,-0.7629616413643567,0.07112965621168367,-1.599611274846537
1783115955160985344,0.29272913932800293,0.0691915974020958,-0.10227882117033005,-0.19061043858528137,0.04923876374959946,0.6904150247573853,-0.7217358946800232,0.0060438066720962524,-0.10078489780426025,0.1623181700706482,0.6365413062598864,-0.23594752791411097,0.288895861019993,-0.6750431694397792,-0.7620626348561025,0.06811714001578024,-1.6021929728535769
1783115955170905344,0.30264925956726074,0.05223012715578079,-0.1072019413113594,-0.19433128833770752,0.04696112498641014,0.6899592876434326,-0.7223232984542847,0.012746509164571762,-0.08238482475280762,0.15639007091522217,0.6361108344905636,-0.23640187651336197,0.28801476859728703,-0.6756661745651376,-0.7614327738594866,0.06492263075450794,-1.6050937307723938
1783115955180826368,0.31257033348083496,0.05458063259720802,-0.0706748217344284,-0.2403658926486969,0.04476023092865944,0.6896272897720337,-0.7227798700332642,0.016976822167634964,-0.06333029270172119,0.15562593936920166,0.635575365460572,-0.23684803775886032,0.28725088674870486,-0.6763386042890243,-0.7609742423087723,0.061848905568884734,-1.6081747170169751
1783115955190747136,0.3224911689758301,0.10922816395759583,-0.06894402951002121,-0.2949841320514679,0.042396336793899536,0.6892508268356323,-0.7232812643051147,0.01419851928949356,-0.0396842360496521,0.16642707586288452,0.6348526978384232,-0.2372577817897019,0.2864753096681844,-0.6772020421243393,-0.7604545044787321,0.0585496705396491,-1.6119214982643315
1783115955200667392,0.3324112892150879,0.20895501971244812,-0.08621596544981003,-0.36544686555862427,0.03954961523413658,0.6883770227432251,-0.7242739796638489,0.01437494158744812,0.03301268815994263,0.19934117794036865,0.6339920308946899,-0.237547044885721,0.28536713939801533,-0.6783737687918686,-0.75924918126945,0.054551698781704315,-1.6166371621313111
1783115955210588160,0.342332124710083,0.5591588616371155,-0.02521774172782898,-0.33705103397369385,0.036619968712329865,0.6862275004386902,-0.726464569568634,-0.009489834308624268,0.13205558061599731,0.24366122484207153,0.633224312364159,-0.2372699454510489,0.2836735575571703,-0.6798965116725808,-0.7562899341290693,0.05036584262839839,-1.6218402819413147
1783115955220506880,0.3522508144378662,0.7847291231155396,0.08262217789888382,-0.20260293781757355,0.03516998142004013,0.6817424893379211,-0.7307463884353638,-0.02998199313879013,0.17839545011520386,0.23802483081817627,0.6331005206835864,-0.23552855412146778,0.28134161307327626,-0.6815841559108815,-0.7501417529614477,0.04809173766420463,-1.625582813311234
1783115955230427648,0.36217164993286133,0.6502624154090881,0.11523565649986267,-0.3013893961906433,0.034249965101480484,0.6772262454032898,-0.7349773049354553,-0.05640573799610138,0.1404770016670227,0.30934858322143555,0.6328254688041579,-0.2335246189479604,0.2792447129974692,-0.683389123099881,-0.7439862298404505,0.04656634246462188,-1.6294196611436516
1783115955240347904,0.37209177017211914,0.37014156579971313,0.04464910924434662,-0.481181800365448,0.03221087530255318,0.6745028495788574,-0.7375692129135132,-0.04960590973496437,0.11787080764770508,0.40100616216659546,0.6318387192225483,-0.23256891226256524,0.2777176282222191,-0.6852477037548175,-0.7402910595267161,0.04364393040385553,-1.6349161165503765
1783115955250268928,0.38201284408569336,0.10141158849000931,0.02961636334657669,-0.5995180606842041,0.028665835037827492,0.6740626692771912,-0.7381176948547363,-0.07430485635995865,0.13663679361343384,0.49571657180786133,0.6300159826175401,-0.23299535365523494,0.27686517110568076,-0.6871234256351227,-0.7396950482172263,0.03881689365230851,-1.6424058184517025
1783115955260188928,0.39193272590637207,-0.046027932316064835,0.1587037742137909,-0.6970006227493286,0.024854751303792,0.6752971410751343,-0.7371268272399902,-0.09736452996730804,0.16601139307022095,0.4988608956336975,0.6274869391536443,-0.23407236816768273,0.2768514096721668,-0.6890743622371134,-0.741367484005278,0.0337056489357833,-1.6511853012505033
1783115955270109952,0.4018537998199463,0.08960479497909546,0.24237492680549622,-0.7507846355438232,0.021195078268647194,0.676902174949646,-0.7357677221298218,-0.09991516172885895,0.17708641290664673,0.44624751806259155,0.6244209503447046,-0.23506513604506096,0.2772372977660008,-0.6913625770104636,-0.7435458643766397,0.028798786456069057,-1.6612308041446946
1783115955280030720,0.4117746353149414,0.627764880657196,0.34890004992485046,-0.7396323680877686,0.01816340908408165,0.6760310530662537,-0.736649215221405,-0.03757258877158165,0.23876386880874634,0.32240360975265503,0.6215675032040846,-0.23469856964240352,0.27675255872892945,-0.694246635832617,-0.7423630609498002,0.024651800887039322,-1.6715588667025532
1783115955289950720,0.4216947555541992,1.4958593845367432,0.3854452967643738,-0.8505890369415283,0.015231579542160034,0.6701779365539551,-0.7420441508293152,0.00794653408229351,0.4050631523132324,0.21705025434494019,0.6192509526163217,-0.23212553467525945,0.2740358799651542,-0.6982479989483615,-0.7344484900054652,0.02052363148406724,-1.6826774222414742
1783115955299872000,0.43161582946777344,2.575561285018921,0.4694325923919678,-1.0146379470825195,0.011915373615920544,0.6571564078330994,-0.7536600232124329,-0.028318574652075768,0.5604796409606934,0.16361796855926514,0.6173974411634954,-0.226576410259598,0.2680169983291792,-0.7040244048206691,-0.7170399544587199,0.015808693483265326,-1.6957968156363585
1783115955309791744,0.44153571128845215,3.7252156734466553,0.5998969078063965,-1.232257604598999,0.008354156278073788,0.6357623338699341,-0.7718396782875061,-0.03914640098810196,0.6241253018379211,0.1491590142250061,0.6158504465927036,-0.21762019817297862,0.258305283199049,-0.7117921364179247,-0.6889957417804081,0.010823271567128546,-1.7111914212634005
1783115955319712768,0.45145678520202637,4.449147701263428,0.7110652327537537,-1.5231895446777344,0.004492010921239853,0.6069517135620117,-0.7947260141372681,-0.054342471063137054,0.5919618606567383,0.19493353366851807,0.6139757062989066,-0.20583259784872826,0.24549934227589565,-0.721385378840349,-0.6522193486349529,0.005652215964344975,-1.7294091220995929
1783115955329632768,0.4613766670227051,4.7810163497924805,0.8240101337432861,-1.8592637777328491,6.554271294589853e-06,0.5737287998199463,-0.8190453052520752,-0.03806198760867119,0.5032364726066589,0.28155452013015747,0.6076957357622054,-0.19166523217025444,0.23182273130637346,-0.7350024129931566,-0.6110512792854732,8.002330322297754e-06,-1.7598567490420367
1783115955339553792,0.4712977409362793,4.651339530944824,1.0038076639175415,-2.1047375202178955,-0.004070733208209276,0.5386719107627869,-0.8425058126449585,0.03068206086754799,0.37290340662002563,0.4202951192855835,0.6016770686725388,-0.17755748328869572,0.21730264532678667,-0.7478219607611359,-0.5688599781231919,-0.00483166004315881,-1.7879595002874769
1783115955349474816,0.4812188148498535,4.206489086151123,1.1121145486831665,-2.3393735885620117,-0.00707772234454751,0.504998505115509,-0.8630911707878113,0.07795479893684387,0.23406094312667847,0.47901225090026855,0.5953445879384553,-0.1642565486487122,0.2036521273352673,-0.759677797459372,-0.5293802200562002,-0.008200250365517445,-1.8143943918893322
1783115955359394816,0.4911386966705322,3.954540967941284,1.1220399141311646,-2.437823534011841,-0.00928869005292654,0.4730593264102936,-0.8809816241264343,0.12954320013523102,0.13274511694908142,0.4222108721733093,0.5871584515525996,-0.15147949392638052,0.19121494196266733,-0.7718392200242973,-0.4927599798691252,-0.01054317825473977,-1.84358275933817
1783115955369315840,0.5010597705841064,4.193589687347412,1.139014720916748,-2.4170265197753906,-0.010511556640267372,0.44009146094322205,-0.8978914022445679,0.20199410617351532,0.15797674655914307,0.28332847356796265,0.5793890577472458,-0.13868857213696417,0.17838096972575768,-0.7831053323232008,-0.4557005240919517,-0.011706400584999433,-1.8703461017525131
1783115955379235840,0.5109796524047852,4.7896552085876465,1.2017875909805298,-2.3608155250549316,-0.00993611291050911,0.40222299098968506,-0.9154878258705139,0.2292964607477188,0.21580374240875244,0.11940628290176392,0.5711142684022341,-0.12404760840066105,0.1639154813285227,-0.7947152531064847,-0.41394360873075914,-0.010852927123573287,-1.8976177366952456
1783115955389156864,0.5209007263183594,5.496026992797852,1.218451976776123,-2.32612943649292,-0.007451330311596394,0.35748767852783203,-0.9338881373405457,0.22679643332958221,0.24193859100341797,0.046009719371795654,0.56297646563092,-0.10717508246203625,0.14686537444107095,-0.8062267132865467,-0.3655764111697667,-0.007978655875183559,-1.9239186759503262
1783115955399076608,0.5308206081390381,6.204845905303955,1.1875725984573364,-2.260737657546997,-0.003425522707402706,0.30523982644081116,-0.9522693753242493,0.22666160762310028,0.24686893820762634,0.07165414094924927,0.5550229226148595,-0.08821271856893917,0.12682208057709782,-0.8173642573744688,-0.31019027182123265,-0.0035972049258119454,-1.9491155275215448
1783115955408997888,0.5407416820526123,6.722511291503906,1.1459513902664185,-2.2200067043304443,0.0020489178132265806,0.24614591896533966,-0.969230592250824,0.23037296533584595,0.24865081906318665,0.11479949951171875,0.5476469803616716,-0.06759272267137252,0.10399959016957085,-0.8274648577505171,-0.24870180420763324,0.002113959917748457,-1.9720251486278784
1783115955418918912,0.5506627559661865,7.0258917808532715,1.0519788265228271,-2.2106592655181885,0.008532308042049408,0.18228790163993835,-0.983208179473877,0.2569248378276825,0.21936920285224915,0.16667985916137695,0.5398826206541245,-0.04602379537254437,0.07923207415379147,-0.8367381634479578,-0.18331283303943388,0.008677809705097647,-1.994775670830842
1783115955428838656,0.5605826377868652,7.237668991088867,0.8192052245140076,-2.200058937072754,0.015061507932841778,0.11538682132959366,-0.9932064414024353,0.31391799449920654,0.12950149178504944,0.2186092734336853,0.5315464324022311,-0.024385912579871345,0.052934937268444025,-0.8450216166637381,-0.11564441417320881,0.015163366443947179,-2.017726504183915
1783115955438759680,0.5705037117004395,7.360531806945801,0.5854018330574036,-2.201016426086426,0.020795205608010292,0.046088919043540955,-0.9987208843231201,0.37233224511146545,0.0018694549798965454,0.2586543560028076,0.5226405457553452,-0.003185399629114762,0.025088237260447937,-0.8521778743769383,-0.04610525194437977,0.02081883144322858,-2.04082960599755
1783115955448679936,0.5804238319396973,7.356023788452148,0.34844088554382324,-2.234755277633667,0.025791151449084282,-0.02406691387295723,-0.9993776082992554,0.35383227467536926,-0.10523606836795807,0.27612626552581787,0.5129093826869896,0.01724521557113312,-0.003714746967992981,-0.8582614847876975,0.024069238173367792,0.025801486720964575,-2.0645761991674956
1783115955458600704,0.5903446674346924,7.264196872711182,0.22346435487270355,-2.262883424758911,0.030367452651262283,-0.09384201467037201,-0.9951238632202148,0.3161138594150543,-0.155059352517128,0.27036190032958984,0.502359923642334,0.03676819310123341,-0.03295710278419097,-0.8632475910013774,0.09398029507408502,0.030506787151651407,-2.0889560406133754
1783115955468520960,0.6002647876739502,7.09935998916626,0.16661545634269714,-2.3034372329711914,0.03578075021505356,-0.1620408296585083,-0.9861351251602173,0.24650683999061584,-0.149467334151268,0.22333306074142456,0.4909436591299389,0.05567703451652375,-0.061907187254638944,-0.8672034561579879,0.16275846365592186,0.036267911527192,-2.114276420364552
1783115955478441728,0.6101856231689453,6.512546539306641,0.20076490938663483,-2.269693613052368,0.042519159615039825,-0.2259218692779541,-0.9732170701026917,0.23001806437969208,-0.1490781307220459,0.18473440408706665,0.4789213948942598,0.07358484198214905,-0.08931262476520575,-0.8701969775305517,0.2278892620252759,0.04366152285876435,-2.1403512948506562
1783115955488361728,0.6201057434082031,5.308518409729004,0.11131252348423004,-2.4705467224121094,0.05165984854102135,-0.28069600462913513,-0.9584054350852966,0.23305389285087585,-0.24483191967010498,0.2130441665649414,0.4664304436745034,0.08987408186859557,-0.11278262796488898,-0.8727229763227354,0.2845191830990979,0.05384976231306047,-2.167648140130075
1783115955498283008,0.6300268173217773,4.680819511413574,0.283634752035141,-1.9440687894821167,0.05854238569736481,-0.3231818377971649,-0.944524347782135,0.2995203733444214,-0.5796349048614502,-0.08181232213973999,0.45467816727055577,0.10190929852040048,-0.13172815569793742,-0.874945768700551,0.3290898470316087,0.06190162390840426,-2.1933643256006157
1783115955508203776,0.6399476528167725,4.613534450531006,-0.3755756616592407,-1.458765983581543,0.06454641371965408,-0.3660081624984741,-0.928370475769043,0.333112895488739,-1.2016798257827759,-0.08020490407943726,0.4446736794641442,0.11370364565550929,-0.15128196066161587,-0.8754715964500744,0.3747158990334459,0.06941486005841696,-2.2148229154713923
1783115955518123776,0.6498677730560303,2.7301671504974365,-0.6037003993988037,-0.957708477973938,0.06512033194303513,-0.39763879776000977,-0.9152282476425171,0.3633006811141968,-0.9187521934509277,0.6438659429550171,0.43696904401745906,0.12049481620669776,-0.16693374812287157,-0.8755982087493291,0.4089419997010885,0.07103230235658711,-2.230550664135227
1783115955528044800,0.6597886085510254,1.382929801940918,-0.49652886390686035,-1.056889295578003,0.06443358957767487,-0.4150540232658386,-0.9075122475624084,0.32074403762817383,-0.9431155323982239,0.756129801273346,0.43104439141169415,0.12339206689733885,-0.1761200523326422,-0.8763315117056572,0.42800217824999154,0.07088129899553944,-2.242752542571246
1783115955537964800,0.6697087287902832,0.4398151934146881,-0.18229292333126068,-1.2069247961044312,0.06641559302806854,-0.42158907651901245,-0.904351532459259,-0.20243242383003235,-0.8679922223091125,0.663110077381134,0.42516343950597557,0.12475484277461346,-0.17961201347687553,-0.8783006259673637,0.43519704107645246,0.07330841133676681,-2.2561547515368106
1783115955547885824,0.6796298027038574,0.5736315250396729,-0.08077680319547653,-1.1009427309036255,0.07064713537693024,-0.4246132969856262,-0.9026142954826355,-0.15840043127536774,-0.3674246668815613,0.4531819224357605,0.4197102454025702,0.12635989933524241,-0.180903391955596,-0.8804262662316413,0.4385347098457461,0.07811021873434247,-2.269318538904852
1783115955557805824,0.6895496845245361,1.4250644445419312,-0.24296490848064423,-0.8842577934265137,0.07364492863416672,-0.4329618215560913,-0.8983988165855408,0.10958260297775269,-0.060888856649398804,0.19086408615112305,0.4087724029222614,0.12753483653395348,-0.18583715510236906,-0.8843667240960066,0.4477759662974504,0.08179066251598875,-2.294286908270303
1783115955567726848,0.6994707584381104,2.0923960208892822,-0.5401075482368469,-0.9297513365745544,0.07422908395528793,-0.44797319173812866,-0.890960156917572,0.21870914101600647,0.05304524302482605,0.0902705192565918,0.40336763433560285,0.13028923573142354,-0.19376435546709042,-0.8847454739663495,0.4644970471274941,0.08312161665461895,-2.3057410767176925
1783115955577647872,0.7093918323516846,2.81827449798584,-0.7241772413253784,-1.0541788339614868,0.07337571680545807,-0.46895527839660645,-0.8801686763763428,0.14534375071525574,0.03946617245674133,0.10271817445755005,0.3921134425105598,0.1324082523236482,-0.20587304264423942,-0.8867532212472621,0.4881075535422322,0.08317318866060681,-2.329634928019289
1783115955587567872,0.7193117141723633,3.4823994636535645,-0.7237786650657654,-1.0975497961044312,0.07239596545696259,-0.49527618288993835,-0.8657137751579285,0.08751615881919861,0.042395323514938354,0.12946194410324097,0.38096158616434456,0.13557030522123764,-0.22082525541922288,-0.8875389274629899,0.5181527105344608,0.08343162693613448,-2.3528145848706066
1783115955597488896,0.7292327880859375,4.483913421630859,-0.7702992558479309,-1.2648533582687378,0.07230579853057861,-0.5281575918197632,-0.8460623025894165,0.07286632806062698,0.06529748439788818,0.1506582498550415,0.3689659119853185,0.1403054066914322,-0.2393391647759281,-0.8870712419342189,0.5564293950508484,0.08525439534406903,-2.3776180584525903
1783115955607408640,0.7391526699066162,5.5183210372924805,-0.9501689076423645,-1.39649498462677,0.07278472185134888,-0.5686072111129761,-0.8193828463554382,0.12855501472949982,0.026996493339538574,0.13949698209762573,0.3561266960702407,0.1466958225037053,-0.2622763952548687,-0.8847967441379906,0.6048117113432373,0.08859617192684555,-2.403937155852531
1783115955617329920,0.7490737438201904,6.354778289794922,-1.2437435388565063,-1.3617851734161377,0.07244811952114105,-0.6149914264678955,-0.7851985692977905,0.21756044030189514,-0.012663602828979492,0.24909627437591553,0.3419399134931232,0.15353864542857254,-0.2895282157180323,-0.8807249200105143,0.6623750747595294,0.09200674991688197,-2.4325796845765875
1783115955627249664,0.7589936256408691,7.070682048797607,-1.5344284772872925,-1.3264819383621216,0.070635125041008,-0.6650444865226746,-0.7434557676315308,0.2661263644695282,-0.0027869343757629395,0.38760554790496826,0.32664092827978697,0.16003423286969318,-0.3204077870626079,-0.8746619766319369,0.7275533735454635,0.09472484130167654,-2.4628604597147983
1783115955637170688,0.7689146995544434,7.57938814163208,-1.6990829706192017,-1.301727056503296,0.06831398606300354,-0.7165287733078003,-0.6942043900489807,0.20397910475730896,0.08475387096405029,0.4921932816505432,0.3101353734566824,0.16610674031308797,-0.3539863784582668,-0.8665553830164866,0.7988132301642743,0.09809034015052286,-2.495642555780152
1783115955647090944,0.7788348197937012,8.13217544555664,-1.6533548831939697,-1.2401162385940552,0.06636660546064377,-0.7676774263381958,-0.637390673160553,0.12053831666707993,0.2082291841506958,0.626373827457428,0.29253203174541625,0.17185570287701854,-0.389577042399232,-0.8562245117272276,0.8752089498487753,0.10374847834019615,-2.5317265226992016
1783115955657011712,0.7887556552886963,8.12710952758789,-1.7118576765060425,-1.2402842044830322,0.06624119728803635,-0.8159965872764587,-0.5742488503456116,0.03222378343343735,0.32222217321395874,0.6043696403503418,0.2746811927449427,0.17787562953211775,-0.4257180278976879,-0.8436081615897839,0.954451130897891,0.114845177747212,-2.571471739238078
1783115955666932736,0.7986767292022705,8.174330711364746,-1.7231841087341309,-1.2856730222702026,0.06758344173431396,-0.8588869571685791,-0.5076867341995239,0.08619465678930283,0.4550325870513916,0.6119958162307739,0.25629263338846336,0.1831881699869943,-0.46108430015709717,-0.8295526440588146,1.0330924865728515,0.13234227887118188,-2.6175355000565914
1783115955676852736,0.8085966110229492,8.073691368103027,-1.6843962669372559,-1.7053192853927612,0.07274733483791351,-0.896409809589386,-0.43721526861190796,0.062476031482219696,0.41340816020965576,0.43053194880485535,0.23671787263218982,0.18884541978517574,-0.4957113845090885,-0.8139853757743699,1.1116018273639923,0.16487743722888448,-2.678127996993898
1783115955686773760,0.8185176849365234,7.364622116088867,-1.3721883296966553,-1.4080852270126343,0.08095303922891617,-0.9259291887283325,-0.36891987919807434,-0.006230734288692474,0.39930260181427,0.48094987869262695,0.21746897093675566,0.19429901217261863,-0.5270559315652903,-0.7982275826947246,1.183488333062778,0.21600901300929526,-2.755110065314131
1783115955696694016,0.8284378051757812,7.164286136627197,-1.2920902967453003,-1.5098483562469482,0.08991124480962753,-0.9492000937461853,-0.30155447125434875,0.07959863543510437,0.2532925009727478,0.39683032035827637,0.19906722397618892,0.19918006737259863,-0.5563722388568373,-0.7817604469024182,1.2506839634909037,0.2897671469995753,-2.8528266924107046
1783115955706614784,0.8383586406707764,6.26019811630249,-1.2215347290039062,-1.6378123760223389,0.10183452069759369,-0.9656828045845032,-0.23892728984355927,0.0023372024297714233,0.16012567281723022,0.41960659623146057,0.18090571919086051,0.20396802706253594,-0.5821798684859567,-0.7659873439789149,1.3080595492038825,0.40289975363359387,-2.9883278780510834
1783115955716534784,0.8482787609100342,5.5482683181762695,-1.0012463331222534,-1.6706783771514893,0.11553693562746048,-0.9763259887695312,-0.18286240100860596,-0.01296737790107727,0.15724951028823853,0.43747055530548096,0.16370105964760254,0.20851324150590608,-0.6042276268549547,-0.7514207275896222,1.3527688021919813,0.563491734273994,3.1140252480032813
1783115955726455808,0.8581998348236084,4.588617324829102,-0.9488636255264282,-1.742580771446228,0.13052862882614136,-0.9823048114776611,-0.13431131839752197,-0.03360480070114136,0.11627697944641113,0.398593544960022,0.1476588157350626,0.21285050459072602,-0.622526309813285,-0.7384798745907226,1.3823944954929275,0.7711162436272716,2.8883518277929836
1783115955736375808,0.8681197166442871,3.487022876739502,-0.8773350715637207,-1.8738600015640259,0.14731188118457794,-0.9844196438789368,-0.09600592404603958,-0.04698534309864044,0.19198495149612427,0.4445929527282715,0.13237554587247738,0.21679288429155655,-0.6363944390979351,-0.7283403434600078,1.3940423431220814,0.9932137529006159,2.6493340042644817
1783115955746296832,0.8780407905578613,2.8077752590179443,-0.7556803226470947,-1.924235224723816,0.16520191729068756,-0.9840260148048401,-0.06634188443422318,-0.07773852348327637,0.3220692276954651,0.3971066474914551,0.11806739030459962,0.22058783009113386,-0.6466607039692932,-0.7205769128274034,1.3918175354075,1.188928088501783,2.438277464409479
1783115955756217600,0.8879616260528564,2.219998836517334,-0.5490949749946594,-2.0580320358276367,0.1843322068452835,-0.9819457530975342,-0.042474109679460526,-0.0746520608663559,0.39727479219436646,0.34813815355300903,0.1046278225386324,0.2248648907653982,-0.6543689530079556,-0.7143458591126041,1.3804869078970872,1.3443276310947534,2.2697373845851145
1783115955766137856,0.8978817462921143,1.6368639469146729,-0.3859701156616211,-2.2669434547424316,0.20525780320167542,-0.9784023761749268,-0.024458836764097214,-0.07485614717006683,0.3699427843093872,0.3776235580444336,0.09214414531363715,0.2302043229509404,-0.6593758798152589,-0.7097456981083717,1.3625856425034466,1.452194031320196,2.151860558520498
1783115955776058880,0.9078028202056885,1.5030465126037598,-0.29883041977882385,-2.356222152709961,0.22764115035533905,-0.97369784116745,-0.00958781037479639,-0.046275198459625244,0.16453957557678223,0.33890300989151,0.07988455056318208,0.2362293414697661,-0.6628738892764631,-0.7059832447019408,1.3409344201627011,1.5287031156234316,2.066797475240472
1783115955785978880,0.9177227020263672,1.1488187313079834,-0.24115365743637085,-2.381561756134033,0.25051775574684143,-0.9681070446968079,0.0030576474964618683,-0.009886711835861206,-0.03755384683609009,0.2723177671432495,0.06794442102051099,0.24257005676606885,-0.6653484735675889,-0.7027478918724287,1.31756147483084,1.5830010329085769,2.004964787264183
1783115955795899904,0.9276437759399414,0.7187230587005615,-0.24655933678150177,-2.4350926876068115,0.27355945110321045,-0.9617826342582703,0.011799790896475315,-0.023483186960220337,-0.045907676219940186,0.23911571502685547,0.05657341243938859,0.2490169995636031,-0.666251025732418,-0.7006421784270302,1.2934398169029646,1.6139038900761018,1.9675857609991203
1783115955805819648,0.9375636577606201,0.22410601377487183,-0.2689986526966095,-2.497166156768799,0.2971731424331665,-0.9546880125999451,0.016101952642202377,-0.05205589532852173,-0.04158896207809448,0.12914645671844482,0.045379458632744715,0.25543394956985904,-0.6654355517513837,-0.6999213359820038,1.2686096198036863,1.6249271361395696,1.9503746748293687
1783115955815740928,0.9474847316741943,-0.39307332038879395,-0.2690865397453308,-2.403465986251831,0.3203572928905487,-0.9471799731254578,0.01488503534346819,-0.06101885437965393,-0.04659450054168701,0.0718001127243042,0.03514037304432673,0.26173267161324065,-0.6625243588638243,-0.7009442136895226,1.2443253296231287,1.6172267881095332,1.953141983007778
1783115955825661952,0.9574058055877686,-0.7019479870796204,-0.37780487537384033,-2.311288595199585,0.3424256145954132,-0.9395008087158203,0.009120297618210316,-0.12793278694152832,0.009599566459655762,0.0001266011968255043,0.025837529324181506,0.26757708905108457,-0.6579989741843146,-0.7034005866484297,1.2211700341449796,1.5974244200200696,1.968723246074816
1783115955835581696,0.9673256874084473,-0.586767852306366,-0.5680099725723267,-2.307199239730835,0.36389845609664917,-0.9314373135566711,0.0015780751127749681,-0.19640272855758667,0.14837151765823364,-0.12662386894226074,0.01639949953251579,0.2727482036364099,-0.652991159950457,-0.7063582798269891,1.19834276127818,1.5751328806863674,1.9856330797755104
1783115955845502976,0.9772467613220215,-0.047229353338479996,-0.5746625065803528,-2.3390982151031494,0.3852789103984833,-0.9227949380874634,-0.003125155111774802,-0.21039792895317078,0.2850385904312134,-0.24417400360107422,0.005940244661539411,0.27746359479918414,-0.649192865016396,-0.7081859385946194,1.1752726434164245,1.5626850947015525,1.9905691278603588
1783115955855422720,0.9871666431427002,0.7353155016899109,-0.6568260788917542,-2.2807044982910156,0.40637093782424927,-0.9137053489685059,-0.0022596325725317,-0.17837414145469666,0.24671322107315063,-0.25601059198379517,-0.005500108188543638,0.28200073201668246,-0.647569124351368,-0.7078838481841349,1.1523106600769224,1.5652358665898225,1.9788174663316338
1783115955865343744,0.9970877170562744,1.5232683420181274,-0.6862252354621887,-2.1218249797821045,0.42632779479026794,-0.9045503735542297,0.00574082275852561,-0.11355322599411011,0.11207002401351929,-0.259204626083374,-0.017855893665577865,0.2859865809778956,-0.6489083809273531,-0.7048479572994115,1.1303240513628006,1.5842612611007851,1.9483979574153876
1783115955875264000,1.0070078372955322,2.2012526988983154,-0.8709537982940674,-2.0896213054656982,0.4451086223125458,-0.8952686190605164,0.019302403554320335,-0.06632435321807861,0.10663330554962158,-0.198028564453125,-0.030350038185670395,0.2898167063150558,-0.6524243089602827,-0.6995911484659837,1.1090338253075795,1.6141347787534592,1.9066697918216877
1783115955885184768,1.0169286727905273,2.7742719650268555,-0.9726746678352356,-2.066364049911499,0.4637987017631531,-0.8851437568664551,0.0375724658370018,-0.027198880910873413,0.11448323726654053,-0.16776049137115479,-0.044108916841802175,0.2930520214463214,-0.6579564919337744,-0.6922920913373056,1.086802821410209,1.6516300940921325,1.854605171409536
1783115955895104768,1.0268487930297852,2.9554526805877686,-1.1554378271102905,-2.047389268875122,0.4824034869670868,-0.8740201592445374,0.058098405599594116,0.010180681943893433,0.044506728649139404,-0.126198410987854,-0.058914778072120096,0.2955071183909233,-0.6646237632206894,-0.6837249033357412,1.0634155628156154,1.6906543515362444,1.7983377639387181
1783115955905025792,1.0367696285247803,2.9834492206573486,-1.218313455581665,-1.9135122299194336,0.5002119541168213,-0.8623607754707336,0.07824138551950455,0.0041519999504089355,0.0675916075706482,-0.10175514966249466,-0.07384615566524642,0.29713563392940856,-0.6714395781559157,-0.674852558332275,1.0399141906052152,1.725955561126147,1.744354760623911
1783115955914946816,1.0466907024383545,2.979302406311035,-1.2129336595535278,-1.892741084098816,0.5175617337226868,-0.8500456809997559,0.09773664176464081,-0.05253475904464722,0.08902871608734131,-0.16931556165218353,-0.08871782605313776,0.298324376143943,-0.6781378095235049,-0.6657784532339225,1.01607205974007,1.75743899596579,1.6935950152809027
1783115955924866816,1.0566108226776123,2.917018413543701,-1.1117022037506104,-1.8547178506851196,0.534428060054779,-0.837118923664093,0.11669780313968658,-0.07103395462036133,0.12166494131088257,-0.23843242228031158,-0.10314769658531092,0.2994592832462037,-0.6845969895033786,-0.65651471233541,0.9919949455934094,1.785781967749896,1.646505355179381
1783115955934787840,1.0665316581726074,2.4253077507019043,-1.0580520629882812,-1.8740222454071045,0.5512365698814392,-0.8236488699913025,0.13319481909275055,-0.06127685308456421,0.11821979284286499,-0.28723227977752686,-0.11688980244914267,0.30093855419116033,-0.6899517360658679,-0.647872982294323,0.9678155567256896,1.8078811607944685,1.6071415228167794
1783115955944707840,1.0764517784118652,1.9599417448043823,-0.9469037652015686,-1.9634459018707275,0.5681630373001099,-0.8099340796470642,0.14559492468833923,0.010969161987304688,0.12312060594558716,-0.21584627032279968,-0.12968015538048422,0.303065253938126,-0.6935048071972506,-0.6406135782756102,0.9440397382945743,1.8216538374709743,1.5784152381149321
1783115955954628608,1.0863726139068604,1.4957066774368286,-0.8612527847290039,-1.836069941520691,0.5848109126091003,-0.7963578104972839,0.15430673956871033,0.10780084133148193,0.08162081241607666,-0.13038097321987152,-0.14147491141902035,0.30567701790337737,-0.6954961747715253,-0.634690117773844,0.9212492834648526,1.8287742212455933,1.5584618352781832
1783115955964548864,1.0962927341461182,1.068127155303955,-0.8893489837646484,-1.7912418842315674,0.6002973318099976,-0.7837580442428589,0.15926764905452728,0.23391586542129517,-0.03241920471191406,0.0019566863775253296,-0.15207639036048318,0.3082522977945143,-0.6961424774265418,-0.6302688678548743,0.9006939201649984,1.8301360093213963,1.5458634660028114
1783115955974469888,1.1062138080596924,0.9723219871520996,-0.8178606629371643,-1.7553422451019287,0.6156082153320312,-0.7712481021881104,0.1618727445602417,0.21601098775863647,-0.002708137035369873,0.05274210870265961,-0.16224864538269063,0.31100396392878477,-0.695854086771949,-0.6266888741918741,0.8807995784142808,1.8279234312874306,1.5376810309579998
1783115955984389888,1.116133689880371,1.1995216608047485,-0.6943482160568237,-1.6538879871368408,0.6296620965003967,-0.7589962482452393,0.16568148136138916,0.23018592596054077,-0.04378390312194824,0.01696622371673584,-0.17174686599678346,0.3136551699721066,-0.696032451169375,-0.6226253209677869,0.8617701263181087,1.8280917147990203,1.5279072725249672
1783115955994310912,1.1260547637939453,1.2999016046524048,-0.6987821459770203,-1.6053481101989746,0.6431002616882324,-0.7465068101882935,0.17073258757591248,0.23534822463989258,-0.10978591442108154,-0.005952954292297363,-0.18115258495986467,0.3161210438878453,-0.6967307822624631,-0.6179137984721577,0.8427966115386029,1.83029389784691,1.5159126515591057
1783115956004231936,1.1359758377075195,1.391204595565796,-0.6214267611503601,-1.3937205076217651,0.6554474234580994,-0.734296977519989,0.17662586271762848,0.28278499841690063,-0.09687978029251099,-0.008351922035217285,-0.1902427197697248,0.31813968914996094,-0.6979255488775506,-0.6127763013399422,0.8246304235933695,1.8340175881997427,1.5021172231336997
1783115956014151936,1.1458957195281982,1.3565515279769897,-0.6946556568145752,-1.2632226943969727,0.6662869453430176,-0.7230343818664551,0.18243610858917236,0.28798240423202515,-0.11177390813827515,-0.017641201615333557,-0.1987636557667902,0.31945669483315314,-0.6994036536456256,-0.6076799587276575,0.8081848021096406,1.8380559805196073,1.4876897202403192
1783115956024072960,1.1558167934417725,1.2178399562835693,-0.6739514470100403,-1.136806607246399,0.6760802865028381,-0.7126538157463074,0.18718962371349335,0.2553771734237671,-0.13320189714431763,-0.03983546793460846,-0.20682002306943387,0.32024378670649883,-0.7007415551974173,-0.6030179322292819,0.7932739171413135,1.8409047329425305,1.4742457439291836
1783115956033992704,1.1657366752624512,1.0068098306655884,-0.672026515007019,-1.0419206619262695,0.6850619316101074,-0.7030720710754395,0.1907350867986679,0.19887971878051758,-0.14603376388549805,-0.08428966999053955,-0.2141252572740516,0.32102742757098435,-0.7016473004265722,-0.5989848494702065,0.7797083399502475,1.8423394847849504,1.4632694837104079
1783115956043913728,1.1756577491760254,0.8778581023216248,-0.77773118019104,-0.8980814218521118,0.6932798624038696,-0.6945179104804993,0.19237424433231354,0.2401002049446106,-0.18089401721954346,-0.06474973261356354,-0.22109220876780944,0.3212831919805164,-0.7021141184931745,-0.5957609573746322,0.7677496648078395,1.8414706554751497,1.454208761477411
1783115956053833728,1.185577630996704,0.9129172563552856,-0.8336168527603149,-0.7425613403320312,0.7005265355110168,-0.6870458722114563,0.19295254349708557,0.27849268913269043,-0.20273995399475098,-0.016972869634628296,-0.22776387734065937,0.32083247026589984,-0.7025260138853103,-0.592998636962163,0.7574155479840853,1.83957091944461,1.4454525164285
1783115956063754752,1.1954987049102783,0.895768404006958,-0.8068705797195435,-0.46326202154159546,0.7063313126564026,-0.680962324142456,0.19335582852363586,0.2658976912498474,-0.23067402839660645,0.025684118270874023,-0.23390188924518357,0.31955039614318254,-0.7032534813238448,-0.590433754877334,0.749075885107361,1.8379969321807992,1.4358127590456304
1783115956073675776,1.2054197788238525,1.0916674137115479,-0.7595959901809692,-0.4516519606113434,0.710972785949707,-0.6757948398590088,0.1944715678691864,0.24193859100341797,-0.2660081386566162,0.02839839458465576,-0.23962651913747654,0.3176440542202203,-0.7045126257878976,-0.5876592608388354,0.7420425456625952,1.837794320113823,1.4244061954308247
1783115956083595776,1.2153396606445312,1.2207919359207153,-0.6481128931045532,-0.30866914987564087,0.7150899767875671,-0.6706058979034424,0.19731789827346802,0.1807841658592224,-0.2691372036933899,-0.021887511014938354,-0.24513822337780694,0.3156157627500971,-0.7064316259597705,-0.584164708141758,0.7350252336211719,1.8400310116710126,1.4106705659873278
1783115956093516800,1.2252607345581055,1.2846894264221191,-0.5877379775047302,-0.12396536022424698,0.7177594304084778,-0.6665305495262146,0.20139187574386597,0.252455472946167,-0.2790718674659729,0.0015806257724761963,-0.2498803286197441,0.31308787058773024,-0.7089936003517903,-0.580399863563364,0.7295450888173168,1.8443465815653444,1.3952102520147196
1783115956103436800,1.2351806163787842,1.1714320182800293,-0.6831478476524353,0.017951231449842453,0.719545304775238,-0.6634613871574402,0.2051183134317398,0.32626157999038696,-0.3446868062019348,0.013234972953796387,-0.2542479609084509,0.3099993024829694,-0.7116597400459138,-0.5768871735158074,0.7254355261094859,1.848497039582575,1.3795753124173713
1783115956113357824,1.2451016902923584,1.0919981002807617,-0.7294168472290039,0.2757992744445801,0.7201451659202576,-0.6620746850967407,0.2074805498123169,0.34716135263442993,-0.4109538793563843,0.042382121086120605,-0.25812704022179656,0.30606269645827905,-0.7141889814385965,-0.5741342981518328,0.7235836801196667,1.8513088832494313,1.36466512372273
1783115956123277824,1.2550218105316162,0.9238499999046326,-0.7311248183250427,0.3675795793533325,0.7195512652397156,-0.6622219085693359,0.20906482636928558,0.29584479331970215,-0.47912025451660156,0.03329062461853027,-0.26134300278829825,0.3015491761993905,-0.7166592710928745,-0.5719855128059959,0.7237801693351344,1.8535599886429737,1.3504131583837478
1783115956133198848,1.2649426460266113,0.6644165515899658,-0.5953014492988586,0.4813849627971649,0.7183650732040405,-0.6633875370025635,0.2094484120607376,0.20923197269439697,-0.499347448348999,0.02974843978881836,-0.2638300086553503,0.2971737257308819,-0.7186181046698837,-0.5706746331299426,0.7253368715910014,1.8544945562170543,1.3388106502507922
1783115956143118848,1.2748627662658691,0.4395315647125244,-0.5651865601539612,0.6524059176445007,0.7158733010292053,-0.6661844849586487,0.2091016322374344,0.2212604284286499,-0.505644679069519,0.006749138236045837,-0.26507109996179223,0.2928838839285275,-0.7202567942328547,-0.5702512128145878,0.7290809679963788,1.8549833743686244,1.3297061063393978
1783115956153039872,1.2847838401794434,0.32197245955467224,-0.5292762517929077,0.7164123058319092,0.7125368118286133,-0.6701661348342896,0.20777085423469543,0.2872343063354492,-0.48808276653289795,-0.018867135047912598,-0.2656608902126606,0.288436933425571,-0.7215882232045618,-0.5705601555908001,0.7344326267503432,1.8545226970972548,1.3223193636722865
1783115956162960640,1.2947046756744385,0.2702499330043793,-0.5790347456932068,0.9381282329559326,0.7083621025085449,-0.67520672082901,0.20571653544902802,0.32525306940078735,-0.45669031143188477,-0.010068267583847046,-0.2658683832256909,0.28354588906275086,-0.7228139422715834,-0.5713631540215603,0.7412449339756187,1.8534333288147435,1.3154764593960862
1783115956172880896,1.3046247959136963,0.16926367580890656,-0.5473759174346924,1.026138186454773,0.7029487490653992,-0.6815802454948425,0.20325225591659546,0.3073357343673706,-0.48934870958328247,0.012369632720947266,-0.2654822545058155,0.27809888281683104,-0.7240767489967722,-0.572619459521692,0.7499200188882426,1.8522624627474613,1.3087892283798097
1783115956182801664,1.3145456314086914,-0.044587697833776474,-0.44192492961883545,1.1222597360610962,0.6968151330947876,-0.6887353658676147,0.20023083686828613,0.24482005834579468,-0.5448614358901978,0.07071948051452637,-0.2643668436881788,0.27283851838725554,-0.7250341798526454,-0.5744517186057773,0.7597432840457068,1.850608944051661,1.304022090829392
1783115956192721920,1.3244657516479492,-0.23643329739570618,-0.33553698658943176,1.2681751251220703,0.6895150542259216,-0.697059690952301,0.19666355848312378,0.24716085195541382,-0.6212843656539917,0.08335050940513611,-0.2622245404256237,0.2676968033494515,-0.7257204676318892,-0.576980450259,0.7712885188186501,1.848639027130391,1.3013547873078628
1783115956202642944,1.3343868255615234,-0.512978732585907,-0.2628113627433777,1.4177837371826172,0.6808478236198425,-0.7068057656288147,0.19202065467834473,0.25651490688323975,-0.6367000937461853,0.09240317344665527,-0.2590136288777774,0.26252367996475023,-0.7260107734485187,-0.5804322685623627,0.7849725152361138,1.845688013977814,1.3012780844724987
1783115956212562688,1.3443067073822021,-0.8169199824333191,-0.1696273535490036,1.4711500406265259,0.6712167263031006,-0.717598021030426,0.18579934537410736,0.2402060627937317,-0.5992965698242188,0.12908102571964264,-0.2548482799938573,0.25760440266090656,-0.7256305169453418,-0.5849382571143631,0.8003473115384057,1.840844293927148,1.304954585895113
1783115956222484224,1.3542280197143555,-0.9990227222442627,-0.10546030849218369,1.5781711339950562,0.6606990694999695,-0.7291930317878723,0.17819812893867493,0.24526113271713257,-0.4872986674308777,0.14486099779605865,-0.2498190945482778,0.2529382918331703,-0.7246525280340107,-0.5903316719369326,0.8171419834829382,1.834239245639276,1.3120978458956267
1783115956232405248,1.3641490936279297,-1.092881679534912,-0.11728767305612564,1.63607919216156,0.6494390368461609,-0.7412126064300537,0.16980202496051788,0.2906549572944641,-0.3962995409965515,0.15611039102077484,-0.24431639582489514,0.2482300854001435,-0.7233829140714227,-0.5961614292761198,0.834875023249858,1.826531027728369,1.3209933927293784
1783115956242324992,1.3740689754486084,-1.3831230401992798,-0.1104227676987648,1.6980348825454712,0.6374506950378418,-0.7536926865577698,0.16001202166080475,0.3398136496543884,-0.39279162883758545,0.19116900861263275,-0.2384065187684591,0.24340607348515422,-0.721636677330279,-0.6026244833258394,0.8536626843892294,1.816733501907855,1.3324096666308016
1783115956252246016,1.3839900493621826,-2.026153802871704,-0.154635488986969,1.6913162469863892,0.6252430081367493,-0.7666016817092896,0.14626337587833405,0.30342209339141846,-0.4486539959907532,0.27181220054626465,-0.23192982411170757,0.2390675661260657,-0.7183163561926095,-0.6108001631037836,0.8735320089877289,1.8005944763764905,1.3517385681336584
1783115956262166016,1.3939099311828613,-2.551776885986328,-0.0680667906999588,1.6901564598083496,0.6128552556037903,-0.7797619104385376,0.12798380851745605,0.24706906080245972,-0.5748981237411499,0.32320332527160645,-0.224641223453133,0.23551027677793535,-0.7131106623191802,-0.6209222570335516,0.8942854706741121,1.7766696342104924,1.3812178009128273
1783115956272087040,1.4038310050964355,-3.0208537578582764,0.08129340410232544,1.831342101097107,0.6002190709114075,-0.7927391529083252,0.1063084676861763,0.22132933139801025,-0.7058874368667603,0.2969508171081543,-0.21646512462123108,0.23274932793605643,-0.7063865682583296,-0.6324464525969692,0.9152895753465764,1.746094478130426,1.4198226152501392
1783115956282007040,1.4137508869171143,-3.451233386993408,0.24430811405181885,1.859420895576477,0.5864593386650085,-0.8057998418807983,0.08217120915651321,0.26351624727249146,-0.7356125116348267,0.2808506488800049,-0.2066562295221472,0.2307899958204038,-0.6984422530234919,-0.6451415393456367,0.9370248816242288,1.710004151998817,1.4675091265011153
1783115956291928064,1.4236719608306885,-3.7749297618865967,0.22796669602394104,1.9602620601654053,0.5711433291435242,-0.8190344572067261,0.05457037687301636,0.34887009859085083,-0.5698814988136292,0.2607372999191284,-0.19551929510604305,0.2288226034810641,-0.6891483178283516,-0.659156313161438,0.9597261175652902,1.6660530166009304,1.5249299637978475
1783115956301848064,1.4335920810699463,-3.8206124305725098,-0.02983809821307659,2.0599889755249023,0.5548343658447266,-0.8316085934638977,0.02420719899237156,0.46031755208969116,-0.4139968752861023,0.2908104658126831,-0.1842548929504716,0.22606722167594379,-0.678967753557915,-0.6737555226987078,0.9819978573955064,1.6143982709424982,1.5889940806246317
1783115956311769088,1.4435129165649414,-3.7360029220581055,-0.21666871011257172,2.2333431243896484,0.5371579527854919,-0.8434463143348694,-0.007738741580396891,0.48193085193634033,-0.3734574317932129,0.36194097995758057,-0.17325107124317704,0.22191813142956188,-0.668493060744045,-0.6883702288094344,1.0036664844148722,1.5563904969047206,1.6569065756658863
1783115956321690112,1.4534339904785156,-3.622838258743286,-0.17471618950366974,2.3693034648895264,0.5177958011627197,-0.8545817732810974,-0.03971876576542854,0.3780171871185303,-0.4182147979736328,0.42123425006866455,-0.16198279842951382,0.21675696051155688,-0.6581466688561877,-0.7025816907592193,1.024745017694576,1.4942388598685161,1.7278177684599365
1783115956331609856,1.4633538722991943,-3.4263834953308105,-0.10472112894058228,2.5347235202789307,0.4970431327819824,-0.864884614944458,-0.070163294672966,0.27837803959846497,-0.427870512008667,0.4927096366882324,-0.1500837570644507,0.21122309390984498,-0.6483079198984201,-0.7159305846749282,1.0449204825537295,1.4305615167580363,1.8006030056222224
1783115956341531136,1.4732749462127686,-3.5267574787139893,0.07271037995815277,2.5869991779327393,0.47491949796676636,-0.8743588924407959,-0.09974007308483124,0.26427727937698364,-0.4766390323638916,0.6086664795875549,-0.13734487882386404,0.20549037528824765,-0.6386733652426462,-0.7287018936546562,1.0641131053629642,1.3637900462123125,1.8773937573553
1783115956351451136,1.4831950664520264,-3.939751386642456,0.161401629447937,2.757582426071167,0.4519956707954407,-0.8822529911994934,-0.13164199888706207,0.2756654620170593,-0.4666849970817566,0.7670789957046509,-0.12359149937476409,0.20000705972435173,-0.6278345158830623,-0.7419879667921953,1.0806265978167573,1.2873898270986184,1.965657346653322
1783115956361371904,1.4931159019470215,-4.466143608093262,0.5117343068122864,2.915269374847412,0.42755377292633057,-0.88849937915802,-0.16663412749767303,0.3116125762462616,-0.43831348419189453,0.8333211541175842,-0.10793621154437187,0.19489090564929543,-0.6153864431929656,-0.7560866335984056,1.0940644976095228,1.1991673475146762,2.069061258176561
1783115956371292160,1.5030360221862793,-5.581498146057129,0.8269729018211365,2.9986181259155273,0.40275898575782776,-0.8914502263069153,-0.20760980248451233,0.28857097029685974,-0.4214007258415222,0.8122088313102722,-0.08988649288351173,0.19106594339473232,-0.5997406964548099,-0.7718325118096073,1.1005357388875634,1.0948501791476697,2.1940139203703897
1783115956381212928,1.5129568576812744,-7.022667407989502,1.0247294902801514,2.944472074508667,0.37876269221305847,-0.8884231448173523,-0.25931316614151,0.2778840661048889,-0.4963119626045227,0.7966819405555725,-0.06972767823283832,0.18854825673476258,-0.5786129698259721,-0.7904396056539166,1.0938984554605276,0.9704588945197593,2.3442810677777044
1783115956391133184,1.5228769779205322,-8.222830772399902,0.875396192073822,3.169839859008789,0.3550236225128174,-0.8774027228355408,-0.3226807713508606,0.3907497525215149,-0.6316000819206238,0.7470581531524658,-0.04783375052618141,0.18617185190731872,-0.5513616342701395,-0.8118204577666895,1.0704213209700415,0.8330861005318793,2.5107779498718523
1783115956401054208,1.5327980518341064,-8.13131046295166,0.4432660937309265,3.5810914039611816,0.32802796363830566,-0.8598169088363647,-0.39129605889320374,0.5349481105804443,-0.6035925149917603,0.7168270349502563,-0.024758875224200606,0.18125885981294274,-0.5210539339787185,-0.8336876402632483,1.034911004094807,0.697669003785375,2.67394454287495
1783115956410974976,1.5427188873291016,-7.90889310836792,0.19070439040660858,3.5335240364074707,0.299411416053772,-0.837181568145752,-0.4576896131038666,0.5937923192977905,-0.41226905584335327,0.5894492864608765,-0.001997554544516375,0.17420836259621025,-0.4907205245862764,-0.8537217349890116,0.9921094909060701,0.5793081194326045,2.817078834131479
1783115956420894976,1.5526390075683594,-6.581364631652832,0.17670278251171112,3.664138078689575,0.2709212601184845,-0.812000572681427,-0.516968846321106,0.5015091896057129,-0.287975013256073,0.6465617418289185,0.020040036642475802,0.16622497100866265,-0.4624768528882216,-0.8706795276657641,0.9475716276200029,0.482707641331951,2.9365223658955135
1783115956430816256,1.5625600814819336,-4.635521411895752,0.23040516674518585,3.4683074951171875,0.2432125359773636,-0.7915295958518982,-0.560650110244751,0.4062015414237976,-0.2972002625465393,0.4511682987213135,0.04063065654126689,0.15812463871783916,-0.44121598837412085,-0.8824251670264864,0.9133078576902744,0.4093044314683235,3.030377116426509
1783115956440736000,1.5724799633026123,-2.9644277095794678,0.08458127081394196,3.153043270111084,0.2187349498271942,-0.7774056792259216,-0.5897417664527893,0.3989102840423584,-0.0756826400756836,0.3743945360183716,0.05837826344869822,0.15095496408715237,-0.4270148972451401,-0.8896419146917681,0.8905307188449241,0.35517091724040406,3.101759278407886
1783115956450657024,1.5824010372161865,-1.526049017906189,-0.13797856867313385,3.1633901596069336,0.19430404901504517,-0.7711566686630249,-0.6062699556350708,0.5064862966537476,0.04467052221298218,0.3584215044975281,0.07380918858955547,0.14347394521772486,-0.41985741662970727,-0.8931333179558097,0.8806560030550244,0.31014825393576034,-3.123739234033653
1783115956460577024,1.5923209190368652,-0.9014251828193665,-0.3406444489955902,3.1102657318115234,0.16874302923679352,-0.7698079943656921,-0.6155658960342407,0.4239388108253479,-0.004255056381225586,0.4441182017326355,0.0880859955255337,0.13539523343598023,-0.4169954360581245,-0.894440454564633,0.8785403219707525,0.2675541151160419,-3.071570393066187
1783115956470498048,1.6022419929504395,-0.637708842754364,-0.4719100594520569,2.9303972721099854,0.14323826134204865,-0.7702785730361938,-0.6214126348495483,0.27813318371772766,-0.09082067012786865,0.46359097957611084,0.1011347907869609,0.12708452377051532,-0.4161048106583468,-0.8946943360453858,0.8792778637560231,0.2265472677137775,-3.023381786997841
1783115956480419072,1.6121630668640137,-0.9815662503242493,-0.4759739339351654,2.8607866764068604,0.11818338185548782,-0.7693846821784973,-0.6277577877044678,0.23527121543884277,-0.06981819868087769,0.4708821773529053,0.11342851992935386,0.11859472475198017,-0.4147968003873128,-0.8949932361954317,0.8778773734546967,0.18608464233573113,-2.977024237817899
1783115956490339072,1.6220829486846924,-1.5735046863555908,-0.3714589774608612,2.865795612335205,0.09372664242982864,-0.7648373246192932,-0.6373689770698547,0.18132829666137695,0.015890181064605713,0.35695821046829224,0.12594872835598242,0.11012157035052098,-0.41132560958435055,-0.8960030099708349,0.870788759118742,0.14600597940962837,-2.9302997980031558
1783115956500260096,1.6320040225982666,-2.408745288848877,-0.16597360372543335,2.6870651245117188,0.07091832906007767,-0.754634439945221,-0.6523016691207886,0.053929075598716736,0.08527714014053345,0.2587469816207886,0.13883172276604225,0.10196111723890994,-0.40429334496642677,-0.8982630853377527,0.8550968235222354,0.10829480227493762,-2.8842913104855827
1783115956510180096,1.6419239044189453,-3.3083808422088623,0.029994569718837738,2.382173538208008,0.05199214443564415,-0.7377690076828003,-0.6730480790138245,-0.03352900594472885,-0.000603795051574707,0.14645200967788696,0.15134832455914385,0.09477158058076583,-0.39305763003257527,-0.9020076067499866,0.8297594142057135,0.0770956726053481,-2.8430787111628066
1783115956520101120,1.6518449783325195,-4.160897254943848,-0.017285821959376335,2.3105602264404297,0.03525601699948311,-0.7134636044502258,-0.6998047232627869,0.017295237630605698,0.061089396476745605,0.054525792598724365,0.1634967609291095,0.08744319461983326,-0.3774272519582497,-0.9072877754061069,0.794428994011632,0.050337234452488916,-2.806132670839109
1783115956530020864,1.6617648601531982,-4.545328617095947,-0.05257803201675415,2.2162892818450928,0.019287610426545143,-0.683272123336792,-0.7299090027809143,0.04522654414176941,0.265211820602417,0.04240900278091431,0.17553079400809254,0.07951341079239144,-0.35878004076940906,-0.9133144956345377,0.7522346540562663,0.026418530386604525,-2.772274832951203
1783115956539942144,1.6716859340667725,-4.490660667419434,-0.027730055153369904,1.9854227304458618,0.004997247364372015,-0.6503724455833435,-0.7595990300178528,-0.05673981085419655,0.3272828459739685,0.05073672533035278,0.18673252397018808,0.07162948511133206,-0.33921925312496887,-0.9192009534475803,0.7080746225788164,0.0065787015197028295,-2.743185630160114
1783115956549863168,1.6816070079803467,-4.16324520111084,0.07123434543609619,1.8633434772491455,-0.0069812387228012085,-0.6174370646476746,-0.7865893244743347,-0.08925594389438629,0.27591484785079956,0.07923763990402222,0.19698245970245554,0.06446411267951976,-0.3202338465640448,-0.9243876761921284,0.6654803302709537,-0.008875095822923715,-2.7186161245205454
1783115956559782912,1.6915268898010254,-3.920482873916626,0.10958922654390335,1.608535647392273,-0.016715921461582184,-0.5856459140777588,-0.8103945851325989,-0.10350808501243591,0.26124411821365356,0.08496129512786865,0.20632023917510228,0.05816700478368763,-0.3023562539474626,-0.928778330350306,0.6256767202647013,-0.02062396786997592,-2.6977372783030527
1783115956569703936,1.7014479637145996,-3.6110763549804688,0.1694032996892929,1.3785855770111084,-0.02400401048362255,-0.5549842119216919,-0.8315144777297974,-0.1560649573802948,0.2679816484451294,0.11247456073760986,0.21442582095573676,0.052752158058297055,-0.2854119356323934,-0.9326193518445763,0.5883440186583945,-0.028859805179767363,-2.6808680096372837
1783115956579624192,1.7113680839538574,-3.0384130477905273,0.21458975970745087,1.1123132705688477,-0.02903042547404766,-0.5271973013877869,-0.8492468595504761,-0.2034982591867447,0.32686465978622437,0.13125979900360107,0.22128775312987972,0.04839627477638711,-0.2702487033478154,-0.9357644934787284,0.5552988716515547,-0.03417042400503377,-2.6674284714509144
1783115956589544960,1.7212889194488525,-2.1790006160736084,0.13043493032455444,0.9573436379432678,-0.033000051975250244,-0.5051088333129883,-0.8624245524406433,-0.25432294607162476,0.4806947708129883,0.1398293375968933,0.2268993795183349,0.044918248388816785,-0.25839907494172937,-0.9379387255406403,0.5295080747145644,-0.03824561709598083,-2.6565168246523534
1783115956599465216,1.7312090396881104,-1.3054144382476807,0.14912046492099762,0.5417585968971252,-0.035466235131025314,-0.4903559386730194,-0.8708003163337708,-0.3043775260448456,0.6087336540222168,0.18046218156814575,0.230982748238842,0.04273829274922841,-0.25054596660351947,-0.9391736302194966,0.5124981254469069,-0.04070582573165664,-2.648613478847611
1783115956609385984,1.7411298751831055,-0.358513742685318,0.019609346985816956,0.2643461227416992,-0.03654151409864426,-0.4834521412849426,-0.8746078014373779,-0.34080833196640015,0.6001208424568176,0.22409510612487793,0.23313096054883914,0.041806713464700794,-0.24687711224389228,-0.9396562819182154,0.5045940658872452,-0.04175617397252911,-2.644443164507175
1783115956619305984,1.7510499954223633,0.5921173691749573,-0.1926276683807373,0.04877925291657448,-0.038142260164022446,-0.48509979248046875,-0.8736265301704407,-0.29781049489974976,0.5382766723632812,0.21449267864227295,0.2336807787184125,0.04138127765010313,-0.24794014946212423,-0.9392584979486881,0.5064772953465364,-0.043631977263862476,-2.6426148797736104
1783115956629227264,1.7609710693359375,1.0842759609222412,-0.4773443341255188,-0.2520732581615448,-0.04055829346179962,-0.4932735562324524,-0.8689281940460205,-0.3193507790565491,0.5656154751777649,0.219651460647583,0.23259691658883466,0.04102833670708721,-0.25269066883705693,-0.9382765074921204,0.5158490180801504,-0.046642375998501656,-2.6432875551198274
1783115956639148032,1.7708919048309326,1.2835121154785156,-0.6285974383354187,-0.5965700745582581,-0.04358115419745445,-0.5042303204536438,-0.8624688386917114,-0.42220863699913025,0.6880224347114563,0.2782708406448364,0.22964587285294535,0.04024045459075055,-0.2591260248437658,-0.9372817641074765,0.528490436942492,-0.05048776130232013,-2.647370946094842
1783115956649068032,1.7808120250701904,0.9958891272544861,-0.27956831455230713,-0.6569985151290894,-0.04434852674603462,-0.5154613256454468,-0.8557644486427307,-0.5548946261405945,0.7590832114219666,0.273046612739563,0.22576594110418,0.04033058698136721,-0.2655018163385097,-0.9364357497153785,0.5415459257727147,-0.0517769694333114,-2.6540648369941335
1783115956658989056,1.7907328605651855,0.4682680070400238,-0.2660526931285858,-0.6656680703163147,-0.043099451810121536,-0.5226179957389832,-0.8514769077301025,-0.6315984129905701,0.8003584742546082,0.31392502784729004,0.2222877297548164,0.04095388295902959,-0.2694148049582213,-0.9361231697416518,0.5499187665767743,-0.050574128312512304,-2.661047016227249
1783115956668909056,1.8006529808044434,1.1386128664016724,-0.3861575126647949,-0.9778797626495361,-0.04196111485362053,-0.5312509536743164,-0.8461747169494629,-0.576019823551178,0.8343515992164612,0.19746261835098267,0.21791642684273435,0.041439105273005934,-0.27421785021746536,-0.9357349108671648,0.5600764331759096,-0.04954859375102883,-2.6697310708376585
1783115956678830080,1.8105740547180176,1.0224827527999878,-0.23994557559490204,-0.8868454098701477,-0.041021041572093964,-0.5445218086242676,-0.8377429842948914,-0.5260413289070129,0.7970090508460999,0.17416876554489136,0.21292902771788033,0.04222843855929265,-0.28168293887210105,-0.9346297107543841,0.5758188824233594,-0.048927064459610835,-2.6791035738725326
1783115956688750080,1.8204939365386963,0.669621467590332,-0.29722270369529724,-1.1606855392456055,-0.03846069052815437,-0.554278552532196,-0.83144211769104,-0.5797339081764221,0.6445038318634033,0.21190482378005981,0.20767008769939302,0.043233634021815674,-0.2870710534746823,-0.9341274692778966,0.5874959676534488,-0.046224857802891414,-2.690093601949982
1783115956698671104,1.8304150104522705,0.24561277031898499,-0.09514405578374863,-1.5531209707260132,-0.03333938494324684,-0.5587728023529053,-0.8286503553390503,-0.647797703742981,0.5536305904388428,0.1740177869796753,0.20106940981598626,0.044396487213226275,-0.28931602863522854,-0.9348242065881076,0.5929053016784556,-0.040211666789655556,-2.705587939589789
1783115956708591104,1.8403348922729492,-0.6074184775352478,-0.26237326860427856,-1.6579458713531494,-0.026108145713806152,-0.5583723187446594,-0.8291795253753662,-0.7881313562393188,0.5118635296821594,0.12194991111755371,0.19344286493746046,0.04568220768521586,-0.28865789085236604,-0.9365733103724606,0.5924225058200575,-0.03147632384744898,-2.724627404278691
1783115956718512128,1.8502559661865234,-1.5302764177322388,-0.14612841606140137,-1.3670377731323242,-0.02031734399497509,-0.5503909587860107,-0.8346598148345947,-0.7188488841056824,0.35526156425476074,0.2542002201080322,0.18617121493693775,0.045446407013398055,-0.2839096944929404,-0.9395053197005744,0.5828324359570876,-0.024337258434145637,-2.74304321741501
1783115956728433152,1.8601770401000977,-2.178637742996216,0.0165779460221529,-2.027341365814209,-0.011826927773654461,-0.5342051982879639,-0.8452721238136292,-0.7490373253822327,0.40061455965042114,0.36036306619644165,0.17869779840624506,0.04568398718273432,-0.274366406479479,-0.9437707115314801,0.5635672862289482,-0.01399094534733281,-2.763283979561016
1783115956738352896,1.8700969219207764,-2.107663631439209,0.0012682704254984856,-1.8913921117782593,-0.0022233331110328436,-0.5164682269096375,-0.8563034534454346,-0.9070021510124207,0.600498378276825,0.04001927375793457,0.16966762944716862,0.04606975213497169,-0.2640565105724531,-0.9483483985189507,0.5427213717148952,-0.0025964253721076232,-2.786799221721807
1783115956748274176,1.8800179958343506,-1.8886528015136719,-0.41957855224609375,-1.526562213897705,0.0051747774705290794,-0.49916699528694153,-0.866490364074707,-0.48700156807899475,0.15917065739631653,-0.18613719940185547,0.16236279978277976,0.046061909415444156,-0.25423044912500115,-0.952304338447363,0.5226371773928005,0.005972040838465265,-2.8054480462632307
1783115956758193920,1.8899378776550293,-1.0242866277694702,-0.6220644116401672,-1.0218483209609985,0.005762816406786442,-0.4865831434726715,-0.8736152648925781,-0.4517771899700165,0.185756117105484,-0.2561759948730469,0.15595387147529544,0.0434397569177722,-0.2475991555437985,-0.9552414222912992,0.508174381275264,0.006596419583480791,-2.8196389154951627
1783115956768114944,1.8998589515686035,-0.6937952637672424,-0.9490600824356079,-1.0832821130752563,0.0035174458753317595,-0.4795176386833191,-0.8775252103805542,-0.3356860280036926,0.2153880000114441,-0.2941361665725708,0.15053332667355854,0.040239164731864466,-0.24416841045402546,-0.9571323428948765,0.5001049476334509,0.004008348739921574,-2.830621378502342
1783115956778035200,1.9097790718078613,-0.5157516598701477,-0.26995402574539185,-1.1957813501358032,0.003502846462652087,-0.4739445447921753,-0.8805477619171143,-0.7728509902954102,0.07837569713592529,-0.14681124687194824,0.1433310442909874,0.03790931412160379,-0.24143116941976922,-0.959025656648472,0.49376500773794196,0.003978010267732467,-2.845881729270159
1783115956787955968,1.9196999073028564,-1.609102725982666,-0.12978386878967285,-1.2870465517044067,0.007189818657934666,-0.46462535858154297,-0.8854781985282898,-0.531313955783844,-0.06885242462158203,0.002665698528289795,0.13829627680305198,0.03774412033993949,-0.23629704648855965,-0.9610479905870442,0.4832114689887907,0.00811952313159585,-2.857752665814541
1783115956797876992,1.9296209812164307,-1.5431022644042969,0.12106562405824661,-1.470308780670166,0.012820377945899963,-0.45157456398010254,-0.8921412825584412,-0.24220573902130127,0.06378769874572754,0.15338701009750366,0.13235063973398556,0.0381155913162457,-0.22907762178352328,-0.9636150855143027,0.4685292814112487,0.01436935577942804,-2.8720338955252305
1783115956807796992,1.9395408630371094,-1.5449116230010986,0.4209926724433899,-1.030748963356018,0.019744565710425377,-0.4359889030456543,-0.8997354507446289,0.15107758343219757,0.1529078483581543,0.2626199722290039,0.12697875072670295,0.03918471138328006,-0.2204469232268074,-0.9663043698590759,0.4511368230784649,0.021941335995701996,-2.885311896984211
1783115956817718016,1.9494619369506836,-1.3454904556274414,1.0193893909454346,-1.274178147315979,0.03132114186882973,-0.42338886857032776,-0.9054064750671387,0.46455898880958557,0.24846211075782776,-0.029011249542236328,0.12256682728514684,0.043152425303124506,-0.21315402152813137,-0.9683391525141892,0.4371827658337004,0.03457966977964683,-2.8974654663459627
1783115956827638272,1.9593820571899414,-1.3373949527740479,1.0997847318649292,-0.6313841938972473,0.044797491282224655,-0.4105663001537323,-0.9107296466827393,0.5647148489952087,0.2277049720287323,-0.025976896286010742,0.11923245408613938,0.048364844687803214,-0.20565997158131097,-0.9701279809687068,0.4230750383042713,0.04914896057309806,-2.907568297496329
1783115956837559040,1.9693028926849365,-1.0031472444534302,0.44093215465545654,-0.9656892418861389,0.055435795336961746,-0.39987432956695557,-0.9148920178413391,1.1335290670394897,0.17244207859039307,-0.1401616930961609,0.11670095687942411,0.052494870932780845,-0.19949507188675872,-0.9715075475943212,0.41137974324652976,0.06051872766970998,-2.9151215264172627
1783115956847479040,1.9792230129241943,-0.7406674027442932,-0.05991922318935394,-0.2404596209526062,0.059117767959833145,-0.39247655868530273,-0.9178601503372192,0.938486635684967,0.005940914154052734,-0.08494746685028076,0.11402502228084738,0.05331431418492855,-0.19551855970230694,-0.972588544678673,0.40332265456778615,0.06431940682411265,-2.921334599930393
1783115956857400064,1.9891440868377686,0.1491594761610031,-0.4705028533935547,-0.30165717005729675,0.058553341776132584,-0.3881567120552063,-0.9197314381599426,0.7277473211288452,0.0063818395137786865,-0.001960456371307373,0.11252119875632678,0.05243575764825503,-0.19335145424705644,-0.9732444024986151,0.39863063590549447,0.0635777195313033,-2.9242323334930997
1783115956867321088,1.9990649223327637,1.0121665000915527,-0.49019718170166016,-0.44145074486732483,0.05489185452461243,-0.3936096727848053,-0.9176373481750488,0.2844788730144501,0.1989838182926178,-0.25387144088745117,0.10997019880480173,0.05042402852774851,-0.19656739766029954,-0.9729980668331203,0.40455495206071856,0.059747481297013585,-2.9287604526891426
1783115956877241088,2.0089850425720215,1.53272545337677,-0.11111971735954285,0.11668852716684341,0.052957091480493546,-0.40544793009757996,-0.9125828742980957,0.15010686218738556,0.27648064494132996,-0.1425776481628418,0.10877459722730502,0.04996797638817218,-0.20300680604661805,-0.9718330236747456,0.4174687898898397,0.057964892229288974,-2.9309473558358725
1783115956887161856,2.0189058780670166,1.1871720552444458,-0.05095277726650238,-0.028065461665391922,0.05185860022902489,-0.41861239075660706,-0.9066831469535828,0.14536124467849731,-0.13947781920433044,0.040273845195770264,0.10866722902333707,0.05024915509517375,-0.21007962547131412,-0.9703261713898398,0.43191685410550273,0.05713369689715149,-2.9310784067928672
1783115956897082112,2.0288259983062744,0.1039389967918396,-0.19785282015800476,-0.19834022223949432,0.05160343647003174,-0.42394012212753296,-0.9042189121246338,0.14166438579559326,-0.47408536076545715,0.18610984086990356,0.1075889911004683,0.05023418556157232,-0.2129954547466127,-0.9698113868849851,0.4377913250330071,0.05700779178747488,-2.9333053429390072
1783115956907003136,2.0387470722198486,-0.8233981728553772,0.1408754289150238,-0.11418700218200684,0.051491495221853256,-0.4206642508506775,-0.9057539701461792,0.25592735409736633,-0.5741172432899475,0.2841871976852417,0.10707106285978595,0.049849724513061876,-0.21127711443492844,-0.9702643815603235,0.43417737348805524,0.05678819186229296,-2.934305833260691
1783115956916923136,2.0486669540405273,-1.3698729276657104,-0.1198350191116333,-0.2748142182826996,0.053398773074150085,-0.4095607101917267,-0.9107187390327454,0.07105190306901932,-0.3429264724254608,0.35230809450149536,0.1061096085360187,0.0498991042499251,-0.20530641093160418,-0.9716481004498673,0.421972489742055,0.05856660865152268,-2.9365899793994172
1783115956926844160,2.0585880279541016,-1.664288878440857,0.268414169549942,-0.18900690972805023,0.05422600731253624,-0.39759913086891174,-0.9159554839134216,0.37848272919654846,-0.36129674315452576,0.10191434621810913,0.10651550584224295,0.04964086376599546,-0.19889203228630103,-0.9729502214174791,0.4088987826472653,0.059132556761753996,-2.935771825515601
1783115956936763904,2.0685079097747803,-1.2766070365905762,0.13669365644454956,0.07287486642599106,0.05748295411467552,-0.383907288312912,-0.9215806722640991,0.09927059710025787,-0.134433776140213,0.12087571620941162,0.10553761263508069,0.05023668624690518,-0.191535743376864,-0.9745010368156891,0.39402412980416435,0.06229360501957561,-2.93827305693961
1783115956946685184,2.0784289836883545,-1.5826705694198608,0.11812078207731247,-0.060352958738803864,0.05901911109685898,-0.37029096484184265,-0.9270390272140503,0.4571857154369354,-0.06984880566596985,0.008856654167175293,0.10642660246950504,0.05033623269404485,-0.18424646110999812,-0.9758036713374454,0.3793222424680504,0.06357830373096406,-2.9365292404189147
1783115956956606208,2.0883500576019287,-1.3802410364151,0.08666481077671051,-0.26797208189964294,0.05957198888063431,-0.35736000537872314,-0.9320648908615112,0.4189436435699463,-0.10539326071739197,-0.052096426486968994,0.10604458533298781,0.049742526140502064,-0.1774633019121951,-0.9771320680297186,0.36543972498353494,0.06382717604482618,-2.937184034401627
1783115956966525952,2.0982699394226074,-1.3271650075912476,-0.03390873968601227,0.05491487309336662,0.060057949274778366,-0.34430617094039917,-0.9369345307350159,0.34286564588546753,-0.08864670991897583,-0.07823270559310913,0.10542788592216455,0.049078993619907176,-0.17065752076430854,-0.978443800923181,0.351499675552652,0.06401290015566449,-2.9382910453937576
1783115956976447232,2.1081910133361816,-1.5627765655517578,-0.027514223009347916,-0.019211452454328537,0.05981175974011421,-0.33087465167045593,-0.9417773485183716,0.3858821988105774,-0.17193296551704407,-0.07967650890350342,0.10625823971036644,0.04828009556699978,-0.163647090132099,-0.9795906778185578,0.3372302735857491,0.06342426834943427,-2.936293735554141
1783115956986366976,2.1181108951568604,-1.8204046487808228,0.09277676045894623,0.04343568533658981,0.059473078697919846,-0.3162758946418762,-0.9468011856079102,0.25215718150138855,-0.1370932161808014,-0.06345266103744507,0.10644261105475081,0.04725675835119423,-0.15609676020566263,-0.9808519870873272,0.3218012928668295,0.06273232544020667,-2.935582515704246
1783115956996288000,2.1280319690704346,-2.0293080806732178,0.0038864994421601295,0.14026379585266113,0.060678597539663315,-0.2976944148540497,-0.9527308940887451,0.2222346067428589,-0.14421537518501282,0.05736041069030762,0.10737220918553547,0.0468914202095065,-0.14640953577339536,-0.982260998066389,0.30227666936783737,0.06360321918188791,-2.933524618644902
1783115957006208256,2.1379520893096924,-1.9737417697906494,-0.04176380857825279,0.031490977853536606,0.06024004518985748,-0.27912867069244385,-0.958362340927124,0.2561814785003662,-0.0024265050888061523,-0.05125069618225098,0.10827319342695507,0.04568813460751414,-0.1368628384654462,-0.983594521011152,0.2828866006053237,0.06277468789243751,-2.9312589525485397
1783115957016129024,2.1478729248046875,-2.1032581329345703,-0.10657967627048492,0.17790590226650238,0.05994966998696327,-0.25944778323173523,-0.9638946652412415,0.19285795092582703,0.07512161135673523,-0.058139026165008545,0.10895965166318605,0.04446022561362909,-0.12679102382763177,-0.9849239498508611,0.26245035202639855,0.062115241885198076,-2.929434534148262
1783115957026050048,2.1577939987182617,-1.7843701839447021,-0.34201616048812866,0.0671844556927681,0.05789365619421005,-0.24074475467205048,-0.9688603281974792,0.33282288908958435,0.055915042757987976,-0.09475356340408325,0.10991126930449695,0.0424348107807031,-0.11734195720586876,-0.9860779426082993,0.2431331057094156,0.05968342096323128,-2.926876519448925
1783115957035970048,2.1677138805389404,-1.6100783348083496,-0.15339861810207367,0.059976477175951004,0.05585392564535141,-0.22406943142414093,-0.9729713201522827,0.1863793581724167,0.16987021267414093,-0.19139635562896729,0.11054870808433744,0.040497859604052736,-0.10896904537838033,-0.9870484415555706,0.22598807725945286,0.057342584679555296,-2.9250325631488887
1783115957045891072,2.1776349544525146,-0.9537099599838257,-0.28194671869277954,0.0648316890001297,0.053344834595918655,-0.21163612604141235,-0.975891649723053,0.25395190715789795,0.25878578424453735,-0.2501367926597595,0.1112472557210933,0.038581633100976495,-0.10278929449290869,-0.9877094659007888,0.2132486966161067,0.05460831514849038,-2.923121109404049
1783115957055811072,2.1875550746917725,-0.5265165567398071,-0.15883322060108185,-0.009291508235037327,0.05158950015902519,-0.20524023473262787,-0.9773510098457336,0.1616673320531845,0.23946569859981537,-0.35025519132614136,0.11110724837639152,0.03731202954821522,-0.09966100026966182,-0.9880944686938345,0.20670916660191999,0.05273608693483093,-2.9231126863081576
1783115957065732096,2.1974759101867676,-0.4537549912929535,-0.20165550708770752,0.05674955993890762,0.04949967935681343,-0.2002592533826828,-0.9784917235374451,0.11364729702472687,0.1798887699842453,-0.19970041513442993,0.11135482716099797,0.035998683592874565,-0.09725349283966297,-0.9883552092619068,0.20162252071171208,0.05054464986114214,-2.9223191804319564
1783115957075652096,2.2073960304260254,-0.21623481810092926,-0.5301035642623901,-0.08221165835857391,0.046487610787153244,-0.19721299409866333,-0.9792578220367432,0.28749674558639526,0.06296618282794952,-0.18308037519454956,0.11114590531602314,0.03429355692957616,-0.09589070575325004,-0.988572442223738,0.19851426741481334,0.04743667611385848,-2.922396391474568
1783115957085572864,2.2173168659210205,-0.478007048368454,-0.3221524655818939,-0.1954130381345749,0.04289986565709114,-0.19372285902500153,-0.9801178574562073,0.20970939099788666,-0.08148464560508728,-0.11259448528289795,0.11011569957774543,0.03219799193933785,-0.09436285533271492,-0.9889052649875779,0.19495547918679593,0.043742186447350145,-2.924082231572139
1783115957095493120,2.2272369861602783,-0.2368767261505127,-0.05647081136703491,0.0677177831530571,0.04119197279214859,-0.19037695229053497,-0.9808464646339417,0.1963416039943695,-0.06583335995674133,-0.056186556816101074,0.1099247999285522,0.031133438335341164,-0.09277641552130017,-0.9891106640556296,0.19154611272992506,0.04197168790739672,-2.9242637483975154
1783115957105414144,2.2371580600738525,-0.5930489301681519,-0.1942656934261322,-0.03328872099518776,0.04073015972971916,-0.1863676905632019,-0.9816354513168335,0.13430340588092804,-0.1351197361946106,-0.1324392557144165,0.10990139310913015,0.030670087866117975,-0.09078340687445971,-0.9893125485577572,0.18746376631359477,0.041468358530831376,-2.9242214569812734
1783115957115334912,2.2470788955688477,-0.28744760155677795,-0.27187278866767883,0.09241414815187454,0.038615453988313675,-0.18194839358329773,-0.9825495481491089,0.31654810905456543,-0.15002182126045227,-0.10212147235870361,0.11002718639449446,0.029371475221992155,-0.08867096026557007,-0.9895295977256491,0.18296756489664148,0.03928106436385162,-2.923723687992574
1783115957125255168,2.2569990158081055,-0.39854696393013,-0.0813654363155365,-0.04088585451245308,0.03760411590337753,-0.17907866835594177,-0.9831158518791199,0.18666957318782806,-0.20341339707374573,-0.18164855241775513,0.11011423477782963,0.02870962162346076,-0.08728020802708158,-0.9896630236691515,0.18004989816390288,0.038231295427577416,-2.923426974328269
1783115957135176192,2.2669200897216797,-0.15862251818180084,-0.15665984153747559,0.28431636095046997,0.03730843588709831,-0.1768745630979538,-0.9835260510444641,0.1305229812860489,-0.0823112279176712,-0.10247248411178589,0.1105761462112366,0.028475969695791904,-0.08617482175544477,-0.9897150860289683,0.17781004073465162,0.03791516781210572,-2.9224451960596505
1783115957145095936,2.2768399715423584,-0.12831947207450867,-0.3410470187664032,0.02953891083598137,0.036445531994104385,-0.17604288458824158,-0.98370760679245,0.1920090615749359,-0.09368672966957092,-0.13109952211380005,0.11128544242565286,0.028058808889014495,-0.08578407014699709,-0.9896814950940291,0.17696510123797876,0.03703221354977539,-2.920927624468419
1783115957155017216,2.2867610454559326,0.003081023693084717,-0.37154820561408997,0.26585790514945984,0.03340525925159454,-0.17568783462047577,-0.9838789701461792,0.24509815871715546,-0.06131166219711304,-0.050575315952301025,0.11201048226007516,0.026583355568537897,-0.0857544659969936,-0.9896429145028018,0.1766044205063564,0.033939573430214476,-2.9191914741197484
1783115957164936960,2.2966809272766113,-0.1773683726787567,-0.30328208208084106,0.1252099722623825,0.03028385154902935,-0.1748267561197281,-0.9841333627700806,0.158635213971138,-0.09737478196620941,0.0002313852310180664,0.11225578366608861,0.024996613066512133,-0.08548966294213228,-0.989679459304424,0.17572981115045788,0.03076239279077054,-2.9184154105219635
1783115957174857984,2.3066020011901855,-0.3222757875919342,-0.15316441655158997,0.11889122426509857,0.02795282006263733,-0.17363020777702332,-0.9844141602516174,0.14967474341392517,-0.07188370823860168,0.04776865243911743,0.11325414468775218,0.023849597355531816,-0.0849948812838819,-0.9896365168762016,0.17451467838273366,0.028387758418119986,-2.916187251597571
1783115957184779264,2.3165230751037598,-0.266780287027359,-0.3449740409851074,0.0886949747800827,0.026125997304916382,-0.17052814364433289,-0.9850063920021057,0.14198008179664612,-0.07181194424629211,0.10797697305679321,0.11323219318714105,0.022754834131352812,-0.08354055086278084,-0.989788724567761,0.17136564533352844,0.026517465500203362,-2.9160601061133984
1783115957194699008,2.3264429569244385,-0.6188153028488159,-0.4426383376121521,0.14869201183319092,0.022749828174710274,-0.166969433426857,-0.9856995940208435,0.2712412476539612,-0.197868213057518,0.028134286403656006,0.11377331221572895,0.020907875137268845,-0.08193334204646345,-0.9899017258328976,0.16775514505544528,0.0230757832518312,-2.9146691625540306
1783115957204620032,2.3363640308380127,-0.5727591514587402,-0.456053227186203,0.09867383539676666,0.018864678218960762,-0.1606786698102951,-0.986826479434967,0.2154187709093094,-0.061474040150642395,0.07514435052871704,0.11422026514507524,0.018638433171537447,-0.07898969411338469,-0.9901348753356308,0.1613782242215282,0.019114181492931058,-2.9134371361539144
1783115957214540032,2.3462839126586914,-0.433905690908432,-0.4788651168346405,0.052430409938097,0.014937451109290123,-0.1561979055404663,-0.9876128435134888,0.14791959524154663,0.008736968040466309,-0.09403693675994873,0.1143605844269282,0.016429608237143838,-0.07696530019325618,-0.9903171237192055,0.15684013210098094,0.015123651833521582,-2.912842090819507
1783115957224462336,2.356206178665161,-0.33023709058761597,-0.4306773543357849,0.09144385904073715,0.011019429191946983,-0.15305346250534058,-0.9881564974784851,0.17254380881786346,0.015373408794403076,-0.07634240388870239,0.11450972715031042,0.014304789627364891,-0.07561175180029782,-0.9904371925733286,0.15365740121834343,0.011151040134858245,-2.91224251483203
1783115957234382336,2.366126298904419,-0.3604091703891754,-0.3128684163093567,0.08700073510408401,0.007474440615624189,-0.14935995638370514,-0.9887546300888062,0.19597099721431732,0.003577485680580139,-0.05693018436431885,0.11518487939606976,0.012373329934604119,-0.07395661818461739,-0.9905097990369786,0.14992093119954578,0.007559305552535741,-2.910623340143132
1783115957244303104,2.376047134399414,-0.30026674270629883,-0.2953035533428192,0.20843608677387238,0.00419793464243412,-0.1467200666666031,-0.9891691207885742,0.19421209394931793,-0.04624256491661072,-0.0973634123802185,0.11575573414675595,0.010628529855405303,-0.07281799991496798,-0.99054793134602,0.14725163220318166,0.004243874020104493,-2.9092403604806414
1783115957254223360,2.385967254638672,-0.3115217089653015,-0.2920454740524292,0.17756369709968567,0.0012817811220884323,-0.14360512793064117,-0.9896342158317566,0.22401423752307892,-0.050776585936546326,-0.04120379686355591,0.11654414549522517,0.009049922361634207,-0.07142114813873959,-0.9905728341272885,0.14410334789759355,0.001295206208385049,-2.9074563610573914
1783115957264144384,2.395888328552246,-0.09276354312896729,-0.38209760189056396,0.15794578194618225,-0.0017109402688220143,-0.14160960912704468,-0.9899210929870605,0.1638203114271164,0.02608533203601837,-0.08210033178329468,0.11708007201167887,0.007480114422122764,-0.0705938823917663,-0.9905819965182117,0.1420872147240498,-0.0017283585547776365,-2.906174807014635
1783115957274065152,2.405809164047241,-0.1884019821882248,-0.4519720673561096,-0.007876371964812279,-0.0059710536152124405,-0.1405356526374817,-0.9900575876235962,0.2096911519765854,0.06053383648395538,-0.09945040941238403,0.11752581339620195,0.005327412668589758,-0.07030513569639016,-0.9905636882736389,0.14100240926048477,-0.006030943008147418,-2.9049800801339805
1783115957283985408,2.415729284286499,0.04397452622652054,-0.28291913866996765,0.21662144362926483,-0.010014600120484829,-0.13982358574867249,-0.9901257753372192,0.2060595154762268,0.021720558404922485,-0.06094539165496826,0.11772742962995689,0.003286746777712188,-0.07018763443576591,-0.9905569616089054,0.1402832425213176,-0.01011412735151478,-2.9042923820452646
1783115957293906176,2.425650119781494,-0.19651031494140625,-0.12048878520727158,0.11880230903625488,-0.012119978666305542,-0.13950686156749725,-0.9901469349861145,0.08945152163505554,-0.04665036499500275,-0.104381263256073,0.11871531370097976,0.002289998824655701,-0.07015190946732282,-0.9904444591342543,0.13996338310636205,-0.01223997463262104,-2.9021515907379807
1783115957303826432,2.435570240020752,-0.15952512621879578,-0.28993773460388184,0.13433998823165894,-0.013834827579557896,-0.13771885633468628,-0.990374743938446,0.06026732176542282,0.01813572645187378,-0.008557140827178955,0.11908280713635808,0.0013550888357290727,-0.0693599047769738,-0.9904578182614905,0.13815795396844383,-0.013968377191563852,-2.901314751610711
1783115957313747456,2.445491313934326,-0.1978662610054016,-0.3009764552116394,0.09507281333208084,-0.01677788607776165,-0.13541829586029053,-0.9906464219093323,0.261650949716568,-0.03677712380886078,-0.06114184856414795,0.11976812260979064,-0.00020031574091557776,-0.06838665969777709,-0.9904437715095137,0.13583563870406065,-0.016934682146926287,-2.8997618763408752
1783115957323667200,2.455411195755005,-0.08477725833654404,-0.37143412232398987,0.12352202832698822,-0.020686766132712364,-0.13355250656604767,-0.9908258318901062,0.1408497393131256,-0.04410557448863983,-0.0933416485786438,0.11992518795407965,-0.0022469633293128325,-0.06769080996965848,-0.9904700860698943,0.13395274372503008,-0.020875274835038163,-2.899207326045123
1783115957333588480,2.465332269668579,0.20332936942577362,-0.4442610442638397,0.23410166800022125,-0.02492084726691246,-0.13441884517669678,-0.99061119556427,0.23250141739845276,0.006031394004821777,-0.16933143138885498,0.12083054285020027,-0.004238576108869692,-0.06838450263325409,-0.9903058558149865,0.1348269645192907,-0.02515173626364187,-2.8970679974351388
1783115957343509504,2.4752533435821533,-0.13695870339870453,-0.41623711585998535,0.1414838582277298,-0.02921767346560955,-0.13456809520721436,-0.9904735088348389,0.2137269526720047,-0.08807289600372314,-0.11980175971984863,0.12173681844779081,-0.006304168787634871,-0.06872777428502412,-0.9901600940757278,0.13497758508156257,-0.029490141294938304,-2.894933900387008
1783115957353429248,2.485173225402832,0.12925460934638977,-0.45188283920288086,0.1918235868215561,-0.03383876755833626,-0.13493230938911438,-0.9902768135070801,0.23525479435920715,-0.049485400319099426,-0.07603782415390015,0.1224531811589513,-0.00853058980829067,-0.06920123946700764,-0.990022053461439,0.1353451480842623,-0.034157727637884765,-2.8931527445672613
1783115957363350272,2.4950942993164062,0.054169707000255585,-0.4610358774662018,0.32937026023864746,-0.03813840448856354,-0.1353066861629486,-0.9900694489479065,0.19591428339481354,-0.1043478399515152,-0.08431708812713623,0.1232842003830398,-0.010587948331983323,-0.06966461788937359,-0.9898665235113302,0.13572299528253937,-0.038501901545021526,-2.891159040678448
1783115957373270272,2.505014181137085,-0.10118352621793747,-0.5114889740943909,0.07964465022087097,-0.04265280067920685,-0.13520894944667816,-0.9898986220359802,0.22008199989795685,-0.06787027418613434,-0.07156378030776978,0.12430588721603575,-0.012767494522559479,-0.06991195060558099,-0.9896956057809236,0.13562434713646088,-0.043061413478302404,-2.8887759633682206
1783115957383191296,2.514935255050659,-0.26901113986968994,-0.6154036521911621,0.09541882574558258,-0.04810968413949013,-0.1333172470331192,-0.989905059337616,0.15376153588294983,-0.1185748428106308,-0.05223971605300903,0.12449973922434894,-0.015586112627595898,-0.06931491391857532,-0.9896728739100755,0.13371535737230159,-0.048562091350711066,-2.888057426204745
1783115957393111296,2.524855136871338,-0.3337123692035675,-0.6271251440048218,0.31669703125953674,-0.05489173159003258,-0.13026972115039825,-0.9899579286575317,0.2764798700809479,-0.15412358939647675,-0.04963862895965576,0.12533001184330805,-0.0190924295481736,-0.0682386614630477,-0.9895814385215944,0.13064100966845174,-0.055391828910899776,-2.886010764624078
1783115957403032320,2.534776210784912,-0.5533110499382019,-0.46682998538017273,0.0014951257035136223,-0.059821102768182755,-0.12598265707492828,-0.9902271628379822,0.07038018852472305,-0.10535585880279541,-0.09966236352920532,0.12583599884610075,-0.021778883464903094,-0.06642367938649843,-0.9895852430073537,0.12631831194628154,-0.06033816487916877,-2.884812471718395
1783115957412952320,2.54469633102417,-0.29500246047973633,-0.5991884469985962,0.17988912761211395,-0.06510172039270401,-0.12214593589305878,-0.990374743938446,0.1419754922389984,-0.014725401997566223,-0.12765198945999146,0.12623158674239807,-0.02462057359647193,-0.06485718326717929,-0.989572169583874,0.12245172516472826,-0.06563999462471057,-2.883814227618111
1783115957422873344,2.554617166519165,-0.4059250056743622,-0.5959785580635071,0.019190000370144844,-0.07097434252500534,-0.11879805475473404,-0.9903785586357117,0.23625755310058594,-0.09101029485464096,-0.15886765718460083,0.1263100568646042,-0.027747587120721742,-0.06356727379737982,-0.9895630421611592,0.11907927310937297,-0.07154155096163446,-2.8834147411972166
1783115957432794368,2.5645382404327393,-0.20728559792041779,-0.5004503130912781,0.19123809039592743,-0.07650850713253021,-0.116092249751091,-0.9902873635292053,0.1790170520544052,-0.080654576420784,-0.15692943334579468,0.12666379166289254,-0.030648885545568185,-0.06258570623963296,-0.989494746161368,0.11635461170985165,-0.07710572710331949,-2.8824672192655183
1783115957442714112,2.574458122253418,-0.27264782786369324,-0.390198677778244,0.16376730799674988,-0.08107626438140869,-0.11371693015098572,-0.9901995062828064,0.1266237497329712,-0.07877268642187119,-0.16563844680786133,0.1273914930882158,-0.03302613477399549,-0.06172124247481192,-0.9893792148609897,0.11396345808239418,-0.08169647281688662,-2.8808209333576036
1783115957452635392,2.584379196166992,0.09304453432559967,-0.6381361484527588,0.16064190864562988,-0.08592977374792099,-0.11274522542953491,-0.9899013042449951,0.2022780478000641,0.009138047695159912,-0.11877179145812988,0.12774366667389597,-0.03548128871808402,-0.06156644451270392,-0.9892583989076729,0.11298546144480202,-0.0865893457121078,-2.879852528789853
1783115957462555392,2.59429931640625,-0.05866509675979614,-0.7122730016708374,0.28485092520713806,-0.09271646291017532,-0.1130138486623764,-0.9892580509185791,0.2659952640533447,-0.034386046230793,-0.17633026838302612,0.12876511451044526,-0.0387787553994514,-0.06218660625945313,-0.9889633351868204,0.1132558098180057,-0.09345024837349639,-2.8773437210053863
1783115957472476160,2.604220151901245,-0.1413823515176773,-0.6759669184684753,0.342651903629303,-0.099946528673172,-0.11138540506362915,-0.9887385964393616,0.268189936876297,-0.09944528341293335,-0.09793132543563843,0.1301939339737979,-0.042393668892244996,-0.06191515272027723,-0.9886449358310105,0.11161702383807642,-0.10074268121511219,-2.874088066876764
1783115957482396416,2.614140272140503,-0.17475095391273499,-0.6127868890762329,0.3608221113681793,-0.10676268488168716,-0.10963352769613266,-0.9882217645645142,0.17265012860298157,-0.09243861585855484,-0.14771878719329834,0.13156370901868045,-0.045816456639350196,-0.06156280980873046,-0.9883328605165373,0.10985434993224984,-0.10761775298152068,-2.8709923040114904
1783115957492317184,2.624061107635498,-0.24351391196250916,-0.7333716750144958,0.21788781881332397,-0.11347348988056183,-0.10706178098917007,-0.9877558350563049,0.18940122425556183,-0.14216002821922302,-0.12889760732650757,0.1329513965477893,-0.04924202101064139,-0.060805570572383325,-0.9880293063285371,0.10726737041118015,-0.11437869446090221,-2.86792807510036
1783115957502238208,2.6339821815490723,-0.20841717720031738,-0.7925007939338684,0.3819483816623688,-0.12123268842697144,-0.10456114262342453,-0.9871016144752502,0.27728432416915894,-0.13423889875411987,-0.15773481130599976,0.13418511866019983,-0.05319838612546999,-0.06015914708896326,-0.9876968882679913,0.10475261315991799,-0.12220483126934716,-2.865118432421247
1783115957512158464,2.64390230178833,-0.24874688684940338,-0.8079751133918762,0.2854413688182831,-0.12942571938037872,-0.10180491954088211,-0.9863492250442505,0.23034733533859253,-0.10930041968822479,-0.171686053276062,0.13545493517590046,-0.05738986295553854,-0.059428986295658334,-0.9873330186820806,0.10198160094457957,-0.13047152152466127,-2.862241368263443
1783115957522079232,2.653823137283325,-0.23563455045223236,-0.7654798626899719,0.2740057706832886,-0.13722632825374603,-0.09928620606660843,-0.9855512380599976,0.20558570325374603,-0.09167753905057907,-0.20457327365875244,0.13645169283876835,-0.06139038113055672,-0.058784491871249366,-0.986993713617436,0.09945005600468512,-0.13834865891852427,-2.8599386576778754
1783115957531999232,2.663743257522583,-0.2642951011657715,-0.79884272813797,0.23625071346759796,-0.14517544209957123,-0.09652674943208694,-0.9846860766410828,0.18248318135738373,-0.11801182478666306,-0.21180135011672974,0.13748307714448366,-0.06548332407353122,-0.05804216640025405,-0.9866314047807814,0.0966772791625699,-0.14637870851579465,-2.857589985704889
1783115957541920512,2.6736643314361572,-0.3316565454006195,-0.7922652363777161,0.2655516266822815,-0.15305167436599731,-0.0931570827960968,-0.9838175177574158,0.178884819149971,-0.1265389621257782,-0.17089128494262695,0.13826837281047497,-0.0696003565558135,-0.056982646871463545,-0.9863014965569692,0.0932923525565479,-0.154332058546799,-2.855812015657574
1783115957551840256,2.683584213256836,-0.4398305416107178,-0.8782415390014648,0.18681491911411285,-0.16110080480575562,-0.08932008594274521,-0.9828878045082092,0.14765781164169312,-0.10872373729944229,-0.16332191228866577,0.13898273526080412,-0.07384475473626662,-0.055704989936064715,-0.9859653256398396,0.08943928060916627,-0.16246101982024438,-2.8542297435538257
1783115957561761280,2.69350528717041,-0.5422490835189819,-0.952137291431427,0.201951801776886,-0.17010101675987244,-0.08430872112512589,-0.9818134903907776,0.19356903433799744,-0.09873570501804352,-0.1343058943748474,0.13952832014427397,-0.07866068635904844,-0.05390513718295919,-0.9856157894179586,0.08440891982042721,-0.17154897673350894,-2.8530701058776318
1783115957571682304,2.7034261226654053,-0.5700442790985107,-0.9629843831062317,0.2258143424987793,-0.1796405017375946,-0.07844217866659164,-0.9805998802185059,0.2037799060344696,-0.09266988188028336,-0.13638925552368164,0.14013331111258423,-0.08380967473290864,-0.051730080383402904,-0.9852220780759516,0.0785228484584404,-0.181185447440041,-2.851880780067699
1783115957581602304,2.713346242904663,-0.5527968406677246,-0.8899354934692383,0.18351297080516815,-0.1884729415178299,-0.07304011285305023,-0.9793584942817688,0.12446233630180359,-0.09480655938386917,-0.16126644611358643,0.14048850481697744,-0.08859309828285425,-0.04971929598062219,-0.9848564294519394,0.0731052123098223,-0.19012098655948706,-2.851233555021418
1783115957591523328,2.7232673168182373,-0.6008651852607727,-0.9123426079750061,0.2050532102584839,-0.19723394513130188,-0.066904716193676,-0.9780707955360413,0.19305305182933807,-0.1412251591682434,-0.14033734798431396,0.1411906679380307,-0.09338214401902212,-0.047374710191148604,-0.9844291298348132,0.06695472929756477,-0.19898744712114647,-2.8500016976307117
1783115957601443328,2.733187198638916,-0.5618304014205933,-0.947084367275238,0.20327316224575043,-0.20645339787006378,-0.06112464517354965,-0.9765453338623047,0.20985610783100128,-0.10754601657390594,-0.1546955108642578,0.1414933710340222,-0.09840452568545772,-0.04520934194240649,-0.9839981935713271,0.06116277216027965,-0.20834416466440295,-2.8495653519966453
1783115957611364352,2.7431082725524902,-0.5483390092849731,-0.815017580986023,0.17371955513954163,-0.21497388184070587,-0.05533044412732124,-0.9750511646270752,0.17832227051258087,-0.11663610488176346,-0.1429755687713623,0.14201294238513193,-0.10307507055882066,-0.043011027417591226,-0.9835434970709709,0.05535871546242225,-0.21700281349350384,-2.8487648588614163
1783115957621284352,2.753028154373169,-0.40267640352249146,-0.8188768029212952,0.03950582444667816,-0.22245275974273682,-0.0501672588288784,-0.9736518859863281,0.13811743259429932,-0.0733068585395813,-0.13357162475585938,0.14208248715572877,-0.10720367138137704,-0.04100519402273571,-0.9831777411791145,0.05018832652343741,-0.22461723224202157,-2.848891192388786
1783115957631205376,2.762949228286743,-0.28961077332496643,-0.7029286623001099,0.26589423418045044,-0.22987282276153564,-0.04658152908086777,-0.9721052646636963,0.20419228076934814,-0.06445667892694473,-0.1684587001800537,0.14269922447252995,-0.11117446015849976,-0.03984478648247539,-0.982695021984784,0.04659839036939043,-0.2322036804425908,-2.8477487374331996
1783115957641125120,2.772869110107422,-0.19227144122123718,-0.7568355798721313,0.14288631081581116,-0.23689477145671844,-0.04397949203848839,-0.970539391040802,0.16028039157390594,-0.09347167611122131,-0.1267353892326355,0.1432519399166664,-0.11488312317594404,-0.03914308993560797,-0.9822161970357073,0.04399368320257928,-0.23940455762599602,-2.8466513206161252
1783115957651046400,2.782790184020996,-0.14786508679389954,-0.6829939484596252,0.16311994194984436,-0.24376319348812103,-0.04198130965232849,-0.9689257144927979,0.19839882850646973,-0.06913319230079651,-0.11222046613693237,0.1438055979558601,-0.11847634356578313,-0.03873614210003745,-0.9817244225840136,0.041993651926000256,-0.24646599500585686,-2.8454940737256997
1783115957660967424,2.7927112579345703,-0.18715763092041016,-0.548676073551178,0.08236916363239288,-0.249440997838974,-0.04003717750310898,-0.9675620198249817,0.130483478307724,-0.10997198522090912,-0.06049889326095581,0.14409484635459527,-0.12147822316605901,-0.038236674803468096,-0.9813346547812898,0.04004788048991426,-0.2523096647870163,-2.8449253154544443
1783115957670887168,2.802631139755249,-0.3647155165672302,-0.44077712297439575,0.12760502099990845,-0.25410810112953186,-0.03724227473139763,-0.9664584994316101,0.13260236382484436,-0.12141861766576767,-0.004351377487182617,0.1443912396680369,-0.12403267236110647,-0.03723751233994017,-0.9810098957407871,0.037250888022305535,-0.25710781820953854,-2.8445026854608866
1783115957680808192,2.8125522136688232,-0.4982490539550781,-0.43468329310417175,0.0782899409532547,-0.25845667719841003,-0.032912082970142365,-0.9654620289802551,0.18681666254997253,-0.13545338809490204,0.08344298601150513,0.1444188524836705,-0.126549761433012,-0.03541386523073536,-0.9807518075234489,0.032918026670610064,-0.26156927839553606,-2.8448573016042045
1783115957690728448,2.822472333908081,-0.553510308265686,-0.3584311604499817,0.022472677752375603,-0.2620447874069214,-0.027633532881736755,-0.9646599888801575,0.17816725373268127,-0.12393201142549515,0.11016786098480225,0.14426639705213726,-0.12875848513370416,-0.033034149325579035,-0.9805697999637046,0.027637051004626653,-0.26524417077437307,-2.8457512813302386
1783115957700649216,2.832393169403076,-0.6155496835708618,-0.2694876790046692,0.031515173614025116,-0.2650507390499115,-0.022082293406128883,-0.963981568813324,0.1543329656124115,-0.10566428303718567,0.13031762838363647,0.14392227650449038,-0.130698881599977,-0.030446943032096777,-0.980447430570087,0.0220840880262205,-0.2683236016218138,-2.8471087701953786
1783115957710569472,2.842313289642334,-0.6473502516746521,-0.13020172715187073,-0.06081581860780716,-0.2668127417564392,-0.015955979004502296,-0.9636163115501404,0.09495300054550171,-0.09724897891283035,0.17897886037826538,0.14342518110821048,-0.13205327666795572,-0.027455129546432717,-0.9804271580763085,0.015956656152633267,-0.27011962073987744,-2.8489080787387016
1783115957720490240,2.852234125137329,-0.6772250533103943,-0.062119871377944946,-0.053940869867801666,-0.2677074074745178,-0.009849745780229568,-0.9634498953819275,0.09102588891983032,-0.08666209876537323,0.19967120885849,0.14267855843017802,-0.13297006335892406,-0.02437226437850697,-0.9804936266763558,0.00984990514598316,-0.27102627064245294,-2.8512439997273518
1783115957730411264,2.8621551990509033,-0.7618900537490845,0.09410461783409119,-0.07435513287782669,-0.26756519079208374,-0.003109196899458766,-0.9635347127914429,0.09326407313346863,-0.024783866479992867,0.25708335638046265,0.14187851326210218,-0.13340314076954962,-0.020886175307515936,-0.9806313244730877,0.0031092019657267093,-0.2708665479723387,-2.853801413872063
1783115957740331520,2.872075319290161,-0.7432742714881897,0.27361416816711426,-0.06451501697301865,-0.2658160924911499,0.00374431861564517,-0.9640164971351624,0.0659259557723999,0.015405461192131042,0.31118446588516235,0.14106276925613098,-0.13302317242580308,-0.017221880504275016,-0.980871845509407,-0.0037443274777294944,-0.2690523137034235,-2.8564308064882264
1783115957750252288,2.8819961547851562,-0.7800551652908325,0.4798007607460022,0.010840324684977531,-0.2621803879737854,0.011061182245612144,-0.9649555087089539,0.0856209397315979,0.0715956836938858,0.37047308683395386,0.1404832629976557,-0.13170975310169164,-0.013221056852775068,-0.9811942372375908,-0.011061407748316328,-0.2652975468749473,-2.858649963608445
1783115957760172288,2.891916275024414,-0.6287604570388794,0.7151550054550171,-0.05119108781218529,-0.25626641511917114,0.01765957847237587,-0.9664448499679565,0.06968197226524353,0.10821016877889633,0.4172047972679138,0.13998327467646765,-0.12918476380967306,-0.00942694773746057,-0.9816450989848313,-0.017660496479994733,-0.2591989881816975,-2.860602945439712
1783115957770093312,2.901837110519409,-0.4727914333343506,0.7642543911933899,-0.18766561150550842,-0.24912351369857788,0.022662300616502762,-0.968206524848938,0.06142514944076538,0.07305607944726944,0.487066388130188,0.13907392122490303,-0.12592506145143018,-0.0062936246802363345,-0.9822228764492473,-0.02266424014480571,-0.251841206578704,-2.8631498325531424
1783115957780013312,2.911757230758667,-0.24747683107852936,0.9234533309936523,-0.31829124689102173,-0.2411665916442871,0.025402113795280457,-0.9701512455940247,0.05914449691772461,0.10742564499378204,0.5557225346565247,0.1376496904508731,-0.12209398998588028,-0.004176484694770414,-0.982918216312994,-0.025404846734558603,-0.24364796431573954,-2.8664291678279454
1783115957789934336,2.921678304672241,-0.017572788521647453,1.2687112092971802,-0.27109551429748535,-0.23062822222709656,0.025959623977541924,-0.9726955890655518,-0.010262280702590942,0.11112532764673233,0.5997860431671143,0.13619827945209967,-0.1168046929232135,-0.002977113183220617,-0.983767245728694,-0.025962540135019647,-0.23280315916790756,-2.869486408033914
1783115957799854336,2.93159818649292,0.14303472638130188,1.4191025495529175,-0.5009047389030457,-0.21748466789722443,0.024275727570056915,-0.9757618308067322,-0.031630322337150574,0.1357584446668625,0.6111683249473572,0.13437682998797387,-0.11005384546377397,-0.002691747669986713,-0.9847963642405018,-0.024278112082837103,-0.21930239759766715,-2.8730379320406367
1783115957809775360,2.941519260406494,0.24433691799640656,1.5826375484466553,-0.5913398265838623,-0.2026851773262024,0.021187635138630867,-0.9790146946907043,0.033663585782051086,0.10521616786718369,0.5950578451156616,0.13189100658410466,-0.10239106328673035,-0.0029520973695091545,-0.9859574668387296,-0.02118922148042288,-0.20414571288888933,-2.877803073146496
1783115957819696384,2.9514403343200684,0.24021008610725403,1.5311381816864014,-0.5951859354972839,-0.18644200265407562,0.017272815108299255,-0.9823141098022461,0.10036717355251312,0.013061657547950745,0.5559530258178711,0.12893212715032684,-0.09397083399750218,-0.003524620846599261,-0.9871846634574154,-0.01727367475281393,-0.18756771523138452,-2.8834759020543497
1783115957829616384,2.961360216140747,0.2693963348865509,1.640149474143982,-0.46756240725517273,-0.17038029432296753,0.013441579416394234,-0.9852867126464844,0.19174259901046753,0.017854198813438416,0.5249137878417969,0.12662426791937867,-0.08566919540450299,-0.0041761392117819806,-0.9882355844738269,-0.013441984347929259,-0.17123121777698136,-2.887871757727821
1783115957839537408,2.9712812900543213,0.2327834665775299,1.4813592433929443,-0.5383439064025879,-0.15469197928905487,0.010064025409519672,-0.9879114627838135,0.07781819999217987,0.004035096615552902,0.5322229862213135,0.1242191059435699,-0.0776051338262575,-0.004658316987571373,-0.9892043754980653,-0.010064195484162307,-0.15532360279350582,-2.8925340723176722
1783115957849457152,2.981201171875,0.20302656292915344,1.5228790044784546,-0.3650592565536499,-0.14004477858543396,0.007389775477349758,-0.990117609500885,0.11616477370262146,-0.04794763773679733,0.5381065011024475,0.12218634985888893,-0.07012114595794743,-0.004922107303406503,-0.9900148286903756,-0.007389842566913417,-0.14051049944619784,-2.896517249115885
1783115957859378432,2.991122245788574,0.24390502274036407,1.6956281661987305,-0.34932583570480347,-0.12404104322195053,0.004599743522703648,-0.9922664165496826,0.05711600184440613,-0.03179090842604637,0.5231960415840149,0.12051463851866548,-0.061964346751415544,-0.005215923407528191,-0.990762080593033,-0.0045997596647780045,-0.12436267188128276,-2.8997917014161714
1783115957869298176,3.001042127609253,0.38275909423828125,1.8002684116363525,-0.3293541967868805,-0.10663681477308273,0.0012390417978167534,-0.9942972660064697,-0.0012733414769172668,0.024700898677110672,0.5418589115142822,0.11902853153207722,-0.053087853684139,-0.005748576001711799,-0.9914539431451814,-0.0012390421607266565,-0.10684003818750595,-2.902693572999632
1783115957879219200,3.010963201522827,0.3515034317970276,1.79021418094635,-0.28882700204849243,-0.08880546689033508,-0.0029909545555710793,-0.9960445165634155,0.10301139950752258,-0.019622571766376495,0.509334921836853,0.11771535221251961,-0.04396068061441682,-0.006723770914727471,-0.9920510912195184,0.0029909590015105756,-0.08892300552087756,-2.905246953034811
1783115957889139456,3.020883321762085,0.4409704804420471,1.6970120668411255,-0.2807018458843231,-0.07139462977647781,-0.00694927666336298,-0.9974239468574524,0.12904232740402222,-0.028756290674209595,0.5249508023262024,0.11645278385726181,-0.03507182507354434,-0.007615604219619952,-0.9925476392819526,0.006949332584384011,-0.07145715093712789,-2.9077579007469763
1783115957899060224,3.03080415725708,0.49178412556648254,1.6782634258270264,-0.1561356782913208,-0.05447255074977875,-0.01160580012947321,-0.998447835445404,0.16132985055446625,-0.028295934200286865,0.48573726415634155,0.11538052331231358,-0.02639467489852702,-0.008911329049954009,-0.9929306347979708,0.011606060971601743,-0.05450319968807186,-2.9099099420415415
1783115957908981248,3.0407252311706543,0.4450138807296753,1.713747262954712,-0.012774157337844372,-0.0375395305454731,-0.016725603491067886,-0.9991551637649536,0.1509123295545578,-0.025724345818161964,0.4551030397415161,0.11509662564803097,-0.01768597681897732,-0.010470206614956899,-0.9931416651839593,0.016726384276384093,-0.03755360989298367,-2.910525045721493
1783115957918901248,3.050645112991333,0.36210915446281433,1.6753860712051392,-0.0471624918282032,-0.020429519936442375,-0.020540732890367508,-0.9995802640914917,0.08706465363502502,-0.05680606886744499,0.4770277738571167,0.11505453233817577,-0.008966076152750142,-0.011378720437525833,-0.9932535358285006,0.020542177922794322,-0.02043525385566781,-2.910738641722098
1783115957928822272,3.0605661869049072,0.34025347232818604,1.6282018423080444,0.03803832456469536,-0.004055780358612537,-0.02386258728802204,-0.999707043170929,0.14080505073070526,-0.11116243898868561,0.44620972871780396,0.11502650211446752,-0.0006419594508344275,-0.012086250913339161,-0.9932886394412869,0.023864851982688194,-0.004056946741122219,-2.9109638876661728
1783115957938742272,3.070486307144165,0.4746866524219513,1.7767491340637207,0.13211555778980255,0.012985964305698872,-0.0281345397233963,-0.9995197653770447,0.152327761054039,-0.0550716370344162,0.36168718338012695,0.11556382320312611,0.008076301376641903,-0.013224140748865304,-0.9931791953025877,0.02813825244656887,0.012991472509169988,-2.910102298272835
1783115957948663296,3.08040714263916,0.45980802178382874,1.8373825550079346,0.04287072643637657,0.03102213703095913,-0.03271183371543884,-0.9989832639694214,0.11256306618452072,-0.023669391870498657,0.2993067502975464,0.11604503334113211,0.017309126554786156,-0.014448591906292553,-0.9929880304057929,0.032717670745420945,0.031043733450264066,-2.9094270236116015
1783115957958583296,3.090327262878418,0.512786328792572,1.724452018737793,0.08284398168325424,0.048999249935150146,-0.03735247999429703,-0.9981001019477844,0.15700966119766235,-0.05082806199789047,0.24504834413528442,0.11631262867456098,0.026519091601455446,-0.015705847647904923,-0.9927343467861037,0.03736117052173502,0.0490531368365349,-2.909244983891823
1783115957968504320,3.100248336791992,0.532488226890564,1.4950388669967651,0.011886248365044594,0.06517871469259262,-0.04289732500910759,-0.9969511032104492,0.2634040415287018,-0.06528748571872711,0.141055166721344,0.11678767485262313,0.03489946670278434,-0.017506071119086072,-0.9923891041683449,0.04291049098578273,0.06528513345605698,-2.908704977361585
1783115957978424320,3.110168218612671,0.46946319937705994,1.4353764057159424,0.0968855619430542,0.07965675741434097,-0.047895096242427826,-0.9956710338592529,0.25469380617141724,-0.08461222052574158,0.1145523190498352,0.11713272158900881,0.042407617868596786,-0.01913279454933573,-0.9920259131110573,0.047913425702465144,0.07983305370695425,-2.908446385753565
1783115957988345344,3.120089292526245,0.3133673369884491,1.5140714645385742,0.25637295842170715,0.09453447163105011,-0.051995329558849335,-0.9941627979278564,0.1524442881345749,-0.07320304214954376,0.08043599128723145,0.11814866551189,0.050084426512814625,-0.020251886875562192,-0.991525191381494,0.05201878523067622,0.09480447326839975,-2.906862241386855
1783115957998266112,3.1300101280212402,0.21864961087703705,1.3013733625411987,0.13062886893749237,0.10865462571382523,-0.05484452098608017,-0.9925655126571655,0.11006485670804977,-0.10677657276391983,-0.023425698280334473,0.11912551535384831,0.05731842239765571,-0.020781089225568195,-0.9910055041760063,0.05487205277655027,0.10903432381982918,-2.905322449295727
1783115958008186368,3.139930248260498,0.1564437597990036,1.0029842853546143,0.1335921734571457,0.11998242884874344,-0.056885380297899246,-0.9911449551582336,0.16253405809402466,-0.12007080018520355,-0.11403387784957886,0.11989536257064885,0.0631141341031835,-0.021074665870385954,-0.9905541781484449,0.056916105081528404,0.12046820269071067,-2.9041205675132673
1783115958018107392,3.1498513221740723,-0.06862026453018188,0.8359255194664001,0.17338219285011292,0.12880800664424896,-0.05749370902776718,-0.9900014996528625,0.024664893746376038,-0.13227984309196472,-0.16322726011276245,0.12073277485477006,0.0675790435689177,-0.020792367639602946,-0.9901638081962577,0.05752543245948215,0.12938209227687966,-2.902653895210385
1783115958028027392,3.159771203994751,-0.07369518280029297,0.6278695464134216,0.1282075196504593,0.1361655443906784,-0.05707532912492752,-0.9890406131744385,-0.0809439867734909,-0.02777879685163498,-0.24583792686462402,0.12155286795003892,0.07124900347877312,-0.020081556822038136,-0.9898208145027666,0.05710636082811327,0.13681430013537155,-2.9011240768722315
1783115958037948416,3.169692277908325,-0.08256644010543823,0.3980565667152405,0.03292069211602211,0.14122053980827332,-0.0560820996761322,-0.9883883595466614,-0.09188887476921082,0.0329497754573822,-0.3103024363517761,0.12212129113914327,0.07372739696808071,-0.01923770480152857,-0.9895860553772262,0.05611153857767937,0.14191906966080448,-2.900010750940185
1783115958047868160,3.179612159729004,0.08610007911920547,0.1712377965450287,0.031928133219480515,0.14381112158298492,-0.05665610730648041,-0.9879820346832275,-0.17660225927829742,0.1900942176580429,-0.39277052879333496,0.12234984433124244,0.07506431716907416,-0.019347966393825255,-0.9894552214205731,0.05668646186196655,0.14454530099001087,-2.899639336825103
1783115958057789440,3.189533233642578,-0.2593034505844116,0.08388686925172806,-0.02911514788866043,0.14496426284313202,-0.05603637173771858,-0.9878488183021545,-0.2700558304786682,0.19638670980930328,-0.36621612310409546,0.12249640084224579,0.07560553579246912,-0.018957665338113706,-0.9894034214645149,0.05606573784891405,0.14570742691844718,-2.899322576149068
1783115958067710464,3.1994543075561523,-0.142190620303154,0.3888015151023865,-0.05846328288316727,0.14739711582660675,-0.053723108023405075,-0.9876173138618469,-0.17931850254535675,0.13903500139713287,-0.3273240923881531,0.12230231065750906,0.07667500618185291,-0.017671893792052494,-0.9893689681113742,0.053748983481195375,0.1481516513752143,-2.899597386006155
1783115958077630208,3.209374189376831,-0.29050230979919434,0.23613472282886505,-0.08133824169635773,0.15085600316524506,-0.05166957899928093,-0.9872044920921326,-0.15767668187618256,0.06119106709957123,-0.42789560556411743,0.12216295230231734,0.0782763926102391,-0.016448613451010882,-0.9892818389919974,0.0516925979966441,0.1516382469291656,-2.899791353694031
1783115958087551232,3.2192952632904053,-0.3982938230037689,-0.1993703991174698,0.017508545890450478,0.15097405016422272,-0.0483090914785862,-0.9873566031455994,0.07421515882015228,0.0776822566986084,-0.41384273767471313,0.12201595184559948,0.07812332255385347,-0.01477983110163668,-0.9893383457853859,0.048327900562666226,0.15173206713954251,-2.899844449588176
1783115958097471232,3.229215145111084,-0.42025449872016907,-0.3465813994407654,-0.022397058084607124,0.1480713188648224,-0.04344933107495308,-0.9880217909812927,0.2018127143383026,-0.00971229374408722,-0.3856354355812073,0.12233005063046702,0.07637086877316905,-0.012514016016431094,-0.9894676317566824,0.0434630146275694,0.14875934198232277,-2.898815883104405
1783115958107392256,3.239136219024658,-0.5125471353530884,-0.23743470013141632,0.014319411478936672,0.1450977474451065,-0.03882760554552078,-0.988655149936676,0.0060252845287323,0.04506845399737358,-0.4324415922164917,0.12232711901742092,0.07459436417015342,-0.010396723888997327,-0.9896280226940607,0.03883736853478513,0.1457224303196635,-2.898457056741249
1783115958117312512,3.249056339263916,-0.439534455537796,-0.04223617911338806,-0.25130027532577515,0.1438673734664917,-0.034240927547216415,-0.9890044331550598,-0.0381544828414917,0.07577535510063171,-0.3654114603996277,0.12201553639794233,0.0736907991799952,-0.008213187900391902,-0.989754806095382,0.034247623620073706,0.1444536425577514,-2.8987514992706256
1783115958127233280,3.258977174758911,-0.42378154397010803,0.11072669923305511,-0.09477481991052628,0.14437651634216309,-0.029848117381334305,-0.9890725612640381,-0.053098440170288086,0.037874236702919006,-0.3394796848297119,0.12136797755803862,0.0736694753971001,-0.006044283276044322,-0.9898515466217038,0.029852550547203788,0.14494790348910727,-2.8997534520525825
1783115958137153280,3.268897294998169,-0.18869447708129883,-0.21506339311599731,-0.20203255116939545,0.14406125247478485,-0.026644716039299965,-0.9892100095748901,0.14941102266311646,0.057848937809467316,-0.30269062519073486,0.1207800267163648,0.07331190659363852,-0.004513063999410637,-0.9899581295240617,0.026647870568076083,0.14461597568043988,-2.9007126129620633
1783115958147074304,3.278818130493164,-0.3135669529438019,-0.3176729679107666,-0.2028132975101471,0.14129148423671722,-0.024161910638213158,-0.9896731376647949,0.3122149705886841,-0.006737133488059044,-0.3303952217102051,0.1197379722870681,0.07177065893400604,-0.003521789042030911,-0.9902017671190632,0.024164261369746826,0.14180754282390118,-2.902631928760767
1783115958156995328,3.2887392044067383,-0.3040032684803009,-0.2973456084728241,-0.022792138159275055,0.13858214020729065,-0.020644526928663254,-0.9901357293128967,0.37814146280288696,-0.12828125059604645,-0.2316354513168335,0.1194351135475701,0.07020184833574544,-0.001956568737964854,-0.9903550618337871,0.020645993680213696,0.13905943111827077,-2.9029932019042124
1783115958166915328,3.298659324645996,-0.35670191049575806,-0.3730839192867279,-0.04001200199127197,0.13576683402061462,-0.017469555139541626,-0.9905868172645569,0.3427335321903229,-0.09526237100362778,-0.3137344717979431,0.11937404065474237,0.06860249599820377,-0.0005506651268159027,-0.990476338687658,0.01747044454748061,0.13620833120810713,-2.902897698259247
1783115958176836352,3.308580160140991,-0.5931392312049866,-0.7334975004196167,-0.01262485422194004,0.1301078498363495,-0.01303892396390438,-0.9914141297340393,0.5307655334472656,-0.20720644295215607,-0.3127545714378357,0.11949846784329465,0.0655072594123313,0.0013208789379946418,-0.9906701120684932,0.01303929318755523,0.13048891381119945,-2.9023568413511027
1783115958186756352,3.318500280380249,-0.5269284844398499,-0.9145013093948364,-0.012973462231457233,0.12194375693798065,-0.0071652792394161224,-0.9925111532211304,0.5883070826530457,-0.19989648461341858,-0.33584272861480713,0.11954811914771932,0.0610765185635121,0.003752941611370046,-0.9909409017133725,0.007165340461604978,0.12225117236231804,-2.9019096062648098
1783115958196677120,3.328421115875244,-0.46802815794944763,-0.9085052013397217,0.05579441413283348,0.11345156282186508,-0.0025687229353934526,-0.9935402274131775,0.3763402998447418,-0.23029565811157227,-0.38907390832901,0.1200012110480977,0.056560320641035756,0.00555210527865432,-0.9911457402669906,0.002568725780373752,0.11369673505011826,-2.9007652923072533
1783115958206597376,3.338341236114502,-0.43163228034973145,-0.9462352991104126,0.11018858104944229,0.10512803494930267,0.0014446757268160582,-0.9944576621055603,0.27431225776672363,-0.11536679416894913,-0.3236423134803772,0.12030070818729113,0.0521665222536566,0.007059134092447432,-0.9913407709176698,-0.0014446762273981632,0.10532276239268339,-2.899994404519958
1783115958216518400,3.348262310028076,-0.4628876745700836,-0.8246819972991943,0.07030827552080154,0.098121277987957,0.004886162932962179,-0.9951624870300293,0.2627338171005249,-0.10083343088626862,-0.2758793830871582,0.12112970456144952,0.04846086493165211,0.008385095888778636,-0.9914175981533205,-0.004886182191477746,0.09828058850424976,-2.8982008867882922
1783115958226437888,3.3581817150115967,-0.6050223708152771,-0.8136278390884399,0.21232058107852936,0.09086764603853226,0.009710968472063541,-0.995815634727478,0.13494718074798584,-0.14357632398605347,-0.20222818851470947,0.12192626476691004,0.04454812926463108,0.010375421231281108,-0.9914846816395254,-0.009711121060802876,0.09099746574102084,-2.896432318905841
1783115958236358656,3.368102550506592,-0.6458196043968201,-0.9891487956047058,0.2195737063884735,0.08272703737020493,0.015771375969052315,-0.9964474439620972,0.21436157822608948,-0.08295582234859467,-0.13712799549102783,0.12298699211829099,0.04011388031002476,0.012928901513624904,-0.9915129709119701,-0.015772030029924104,0.08283201711001145,-2.8941203096426267
1783115958246279680,3.378023624420166,-0.7489582896232605,-0.982828676700592,0.33317428827285767,0.07361672073602676,0.022591061890125275,-0.9970306754112244,0.27568745613098145,-0.11597485095262527,-0.14667654037475586,0.12464081214343027,0.03513805955006036,0.01581028931395451,-0.9914535484253996,-0.022592984347487924,0.07370222196415174,-2.8906413740250096
1783115958256199680,3.3879435062408447,-0.7890170216560364,-1.0352133512496948,0.389487087726593,0.0640949159860611,0.02968917042016983,-0.9975020885467529,0.2425152063369751,-0.05887923389673233,-0.14182591438293457,0.12654775580958694,0.029928462206411727,0.018794903478681756,-0.9913307020638266,-0.02969353356915201,0.06416720438546296,-2.8867040891873854
1783115958266120704,3.397864580154419,-0.7566608190536499,-1.0338025093078613,0.44095951318740845,0.05430886521935463,0.03709521144628525,-0.9978349208831787,0.31272605061531067,-0.009476803243160248,-0.1379072666168213,0.1289217999186919,0.024548380850354542,0.021907208393327944,-0.991108780795196,-0.03710372309238946,0.05437305741932943,-2.8818794541556843
1783115958276040704,3.4077847003936768,-0.8107642531394958,-1.065434217453003,0.34931668639183044,0.044375546276569366,0.04449564218521118,-0.998023509979248,0.23562324047088623,-0.06265360116958618,-0.17282915115356445,0.13094581409477918,0.019091270815855377,0.02497524162213694,-0.9908910371741823,-0.044510337787541224,0.044434159349586985,-2.877826950611668
1783115958285961728,3.417705535888672,-0.7782853245735168,-1.082947015762329,0.3326466679573059,0.03409159928560257,0.052260298281908035,-0.9980514049530029,0.23028218746185303,-0.034666914492845535,-0.16637730598449707,0.13292488523597107,0.013425889488049247,0.028178692003468602,-0.9906345023055712,-0.05228411705805079,0.034144881901479886,-2.8739300508709245
1783115958295881728,3.4276256561279297,-0.763042151927948,-1.0439437627792358,0.2569708228111267,0.02379702404141426,0.059741538017988205,-0.9979301691055298,0.16915036737918854,-0.027957480400800705,-0.18314588069915771,0.13448809873121753,0.00777498490677594,0.03121631188293337,-0.9903928420320102,-0.059777131776899556,0.02384186277329353,-2.870945515156662
1783115958305802496,3.437546491622925,-0.6000710725784302,-1.0096999406814575,0.1875402331352234,0.014004979282617569,0.06660519540309906,-0.9976811408996582,0.15753433108329773,0.01060427725315094,-0.1951746940612793,0.1357718682398246,0.0024147927268266902,0.033964847832114356,-0.9901548316609475,-0.06665453934387316,0.014036608535726167,-2.868580647364531
1783115958315722752,3.4474666118621826,-0.46262189745903015,-1.0047259330749512,0.22277943789958954,0.004327753093093634,0.07169675827026367,-0.9974170923233032,0.21220971643924713,0.05402040481567383,-0.22659718990325928,0.13690199363090455,-0.002769198983444736,0.03582998650494051,-0.9899325092784027,-0.07175832243821595,0.0043389328985158635,-2.866591683851907
1783115958325643776,3.457387685775757,-0.29837775230407715,-1.0428959131240845,0.16427288949489594,-0.0056581213138997555,0.0754888579249382,-0.9971305727958679,0.2269258201122284,0.0263940691947937,-0.2185370922088623,0.13805611843039237,-0.00802228069477836,0.03701819927133253,-0.989699796309754,-0.07556073930129155,-0.005674342611407438,-2.8646099458875183
1783115958335564544,3.467308521270752,-0.23192444443702698,-1.0268993377685547,0.2801574170589447,-0.015739843249320984,0.07796673476696014,-0.9968317151069641,0.16954843699932098,0.009740784764289856,-0.2217656970024109,0.13927759783688212,-0.013237397995076106,0.037535573732044775,-0.9894531992041851,-0.07804594072178105,-0.015788557438402614,-2.8625223041637176
