time,seconds_elapsed,rotationRateX,rotationRateY,rotationRateZ,gravityX,gravityY,gravityZ,accelerationX,accelerationY,accelerationZ,quaternionW,quaternionX,quaternionY,quaternionZ,pitch,roll,yaw
1784114889780555264,0.1726231575012207,-0.14943420886993408,-0.34327951073646545,-0.00336291640996933,-0.12679627537727356,0.9537702798843384,-0.2724795639514923,0.0011096149682998657,0.06148850917816162,0.002933025360107422,0.7660094557345001,-0.5963149709314157,0.09038075310591545,-0.22241709824759454,-1.2655410457927379,-0.435539103414867,-0.8869274810353468
1784114889790475008,0.18254303932189941,-0.11048760265111923,-0.3745623230934143,0.03946550935506821,-0.12743975222110748,0.9543272256851196,-0.2702198028564453,-0.0008103847503662109,0.05737626552581787,0.015947341918945312,0.7656476865190847,-0.5974223592994444,0.0893119602367587,-0.22111889235092863,-1.2673997323745627,-0.4406829797833634,-0.8885321562759321
1784114889800395264,0.19246315956115723,-0.07391774654388428,-0.39471471309661865,0.08373010903596878,-0.12763671576976776,0.9550718069076538,-0.2674824595451355,-0.01307988166809082,0.04279208183288574,0.03402295708656311,0.7652210760500125,-0.5987116898834074,0.08833507635208714,-0.21949499742718875,-1.269902021570924,-0.44522381272402956,-0.8891718535954987
1784114889810315008,0.20238304138183594,-0.07040982693433762,-0.42769718170166016,0.0575922466814518,-0.12801814079284668,0.9560144543647766,-0.2639089822769165,-0.018695145845413208,0.03551703691482544,0.040535539388656616,0.764554624148831,-0.6003595250326449,0.0872579142843102,-0.21774038777893817,-1.2730990135431828,-0.45164412225181505,-0.891333075870803
1784114889820235264,0.21230316162109375,-0.06678100675344467,-0.4481731653213501,0.023050781339406967,-0.1292768269777298,0.9569831490516663,-0.25975143909454346,-0.021983548998832703,0.04881519079208374,0.029404789209365845,0.7636560552070693,-0.6022969479533201,0.08580596480842091,-0.2161137565576312,-1.2764194436321212,-0.46180137545616523,-0.896870831292787
1784114889830155008,0.22222304344177246,-0.0922488123178482,-0.48071858286857605,-0.009649107232689857,-0.13098031282424927,0.9578254222869873,-0.2557630240917206,0.0020893216133117676,0.018676042556762695,0.012614190578460693,0.7627836960080291,-0.6041893977795787,0.08410508485826679,-0.2145753323652486,-1.2793364409837205,-0.4732932860876554,-0.9035270587918478
1784114889840075264,0.23214316368103027,-0.11900266259908676,-0.4715690314769745,-0.042552463710308075,-0.13279594480991364,0.9586297273635864,-0.2517821490764618,0.004088073968887329,-0.006603419780731201,-0.003222733736038208,0.7618980814894365,-0.6060751950607697,0.0823515922261911,-0.21307833120726824,-1.2821487813201218,-0.4853453357416829,-0.9107358225799876
1784114889849995264,0.24206304550170898,-0.06384939700365067,-0.4526355564594269,-0.08018053323030472,-0.13478414714336395,0.9592553973197937,-0.24831925332546234,0.0002779066562652588,0.0230291485786438,-0.024034857749938965,0.761128280528395,-0.607744017148152,0.08054552297721171,-0.21176276348507023,-1.284354951839125,-0.49728757304825943,-0.9180471982051902
1784114889859915264,0.2519831657409668,-0.03978986665606499,-0.4129810929298401,-0.1240803450345993,-0.13693039119243622,0.9595227241516113,-0.24610230326652527,0.004423052072525024,0.03629636764526367,-0.03005129098892212,0.760683813432127,-0.6088986656295909,0.07868459389311908,-0.21073998341385458,-1.2853025191296599,-0.5077406895528531,-0.9242591214326958
1784114889869836288,0.261904239654541,-0.0563371516764164,-0.37876373529434204,-0.16547119617462158,-0.13928711414337158,0.9596220850944519,-0.24438630044460297,0.013875126838684082,0.02907121181488037,-0.02578580379486084,0.7603241527692935,-0.6098381123732635,0.0768395986400719,-0.21000090854088585,-1.285655552071078,-0.518028117324991,-0.9307631584753998
1784114889879756288,0.2718241214752197,-0.05934812128543854,-0.3307855427265167,-0.190958172082901,-0.141726553440094,0.9596545100212097,-0.2428518682718277,0.027667075395584106,-0.000319063663482666,-0.021460920572280884,0.7599564555300742,-0.610682478023089,0.07510641500285804,-0.20950474825857035,-1.2857708311005407,-0.5282678404620651,-0.9377459348918891
1784114889889676288,0.28174424171447754,-0.0043538459576666355,-0.29770854115486145,-0.19977536797523499,-0.14405225217342377,0.959553599357605,-0.24187996983528137,0.04647229611873627,-0.02734839916229248,0.00582653284072876,0.7597310079404872,-0.6112771420201818,0.07348652274570941,-0.20916227522234465,-1.2854123183497241,-0.5371429625338804,-0.9437686207804497
1784114889899596288,0.29166412353515625,0.09386533498764038,-0.24377991259098053,-0.19257940351963043,-0.14608651399612427,0.9592964053153992,-0.2416798621416092,0.05973704159259796,-0.03409498929977417,0.077739417552948,0.759727947757715,-0.6115317935545947,0.07203426373277057,-0.20893386820686832,-1.2845000327832412,-0.5436946150916632,-0.9478956721169808
1784114889909516288,0.30158424377441406,0.2704598307609558,-0.27080196142196655,-0.01784009113907814,-0.14693902432918549,0.958993673324585,-0.24236354231834412,0.10416862368583679,0.005117595195770264,0.126076340675354,0.7601110306706037,-0.6113810634319504,0.07093252949967702,-0.2083579563055518,-1.2834301348659383,-0.5450208950576221,-0.9468069066144027
1784114889919436288,0.3115041255950928,0.46852874755859375,-0.34679409861564636,0.24934251606464386,-0.14452491700649261,0.9589839577674866,-0.24384911358356476,0.2622159719467163,0.05508464574813843,0.14848168194293976,0.761156066946315,-0.6108089153862831,0.07062516783891713,-0.20631531971340894,-1.2833956916067646,-0.5350210769021846,-0.9333817399717262
1784114889929356288,0.3214242458343506,0.6044926643371582,-0.4478282928466797,-0.1692211925983429,-0.14166539907455444,0.9587236642837524,-0.2465360313653946,0.33104223012924194,0.10722488164901733,0.1803433895111084,0.7626648478536067,-0.6097557612846454,0.07021321272542878,-0.20398634923863662,-1.2824788622348846,-0.5215513052880794,-0.9159437629071326
1784114889939276288,0.3313441276550293,0.5568872094154358,-0.5138142704963684,-0.28296753764152527,-0.1409587860107422,0.9583089351654053,-0.2485448718070984,0.2792644500732422,0.10058993101119995,0.2766210436820984,0.7638428873578064,-0.6090894568078176,0.06883020816072331,-0.2020308395159061,-1.2810239784264104,-0.5159042963810021,-0.9054744574974611
1784114889949196288,0.3412642478942871,0.5225135684013367,-0.35595083236694336,-0.49329012632369995,-0.14092585444450378,0.9580209255218506,-0.2496715933084488,0.1975664645433426,0.015321969985961914,0.3241649866104126,0.764590776137444,-0.6087698287188718,0.06755365689610761,-0.20059113151722413,-1.2800176498075402,-0.513865637702357,-0.8995084844305671
1784114889959116288,0.3511841297149658,0.5734803676605225,-0.18769986927509308,-0.6631115078926086,-0.14062562584877014,0.9583569169044495,-0.24854883551597595,0.06840576231479645,0.08886903524398804,0.39112693071365356,0.7644617732313241,-0.6092733217846097,0.06716848088902566,-0.19968139471673543,-1.2811919147844228,-0.514882673831218,-0.8986065939704397
1784114889969036288,0.36110424995422363,0.7915807366371155,-0.07639171928167343,-0.6763319373130798,-0.1418306678533554,0.9583205580711365,-0.24800392985343933,0.11340352892875671,0.1696244478225708,0.3098783493041992,0.7642565577604622,-0.609563987724566,0.06655656578450936,-0.19978480860447465,-1.2810645200211659,-0.5194929617191086,-0.902480227553028
1784114889978957056,0.37102508544921875,1.008395791053772,-0.024629302322864532,-0.6968553066253662,-0.1452001929283142,0.9567870497703552,-0.2519439458847046,0.18810786306858063,0.17459124326705933,0.2916930615901947,0.7651939712592222,-0.6081186920550413,0.06495913846521315,-0.20112264436448304,-1.2757443226456042,-0.5228253383837405,-0.9055865170587825
1784114889988877312,0.38094520568847656,1.1030423641204834,0.06796374917030334,-0.7582888007164001,-0.1495600938796997,0.9543815851211548,-0.25843289494514465,0.2034999281167984,0.11307752132415771,0.33887726068496704,0.7667646762120267,-0.6056548740779794,0.06297395430162847,-0.20319534993032587,-1.267581662315865,-0.5246249066891704,-0.9077518505817755
1784114889998797056,0.3908650875091553,1.211395025253296,0.25378721952438354,-0.832947313785553,-0.15421289205551147,0.9515982270240784,-0.26585546135902405,0.18029019236564636,0.050782084465026855,0.39880529046058655,0.7684445593319379,-0.6027644285751041,0.06121531250207801,-0.2059627545639019,-1.258394872469754,-0.5256308824046687,-0.9105055723199285
1784114890008717312,0.4007852077484131,1.4430676698684692,0.45153623819351196,-0.8939142227172852,-0.15858222544193268,0.9484609961509705,-0.2743600904941559,0.16142034530639648,0.09273773431777954,0.46643775701522827,0.7702656452507848,-0.5993459235919553,0.06003675362979206,-0.20945393840504734,-1.2483436010539013,-0.5240916482183648,-0.9126565155876531
1784114890018637056,0.4107050895690918,1.3081157207489014,0.5759394764900208,-0.8903453350067139,-0.1626453399658203,0.9451957941055298,-0.28311070799827576,0.19760318100452423,0.1896767020225525,0.5316306352615356,0.7720020387860874,-0.5957493416415514,0.059391626522225675,-0.21346750207908732,-1.238193699066948,-0.52145373308111,-0.915273145217082
1784114890028557312,0.4206252098083496,0.9519234895706177,0.6588258147239685,-0.7737244367599487,-0.16628733277320862,0.9424923658370972,-0.2899255156517029,0.23914805054664612,0.07627594470977783,0.5831536650657654,0.7730442426481465,-0.5928856233685725,0.05936222621979804,-0.21763606875720562,-1.2300106409406932,-0.5207453159927877,-0.9209009530713774
1784114890038477056,0.4305450916290283,0.5180315971374512,0.8411816358566284,-0.5749319791793823,-0.16753995418548584,0.9416669607162476,-0.2918795347213745,0.24581754207611084,-0.22804391384124756,0.590051531791687,0.7726779483097269,-0.5918951548191921,0.06099470090162614,-0.22115273757152223,-1.227549602335084,-0.521085233700908,-0.9288709400282253
1784114890048397312,0.44046521186828613,0.22487400472164154,1.0035202503204346,-0.4480464458465576,-0.16367731988430023,0.9448938965797424,-0.283523291349411,0.20902641117572784,-0.38095957040786743,0.4811550974845886,0.7694783896092235,-0.594887339536196,0.06593492542193012,-0.22285590736581565,-1.2372702964003273,-0.5235592924281501,-0.9407353745381979
1784114890058317312,0.45038509368896484,0.1296013444662094,1.2115614414215088,-0.43737417459487915,-0.16303257644176483,0.9452093243598938,-0.2828424870967865,0.13977815210819244,-0.36502426862716675,0.358724445104599,0.7680669295952777,-0.5947572871045753,0.06958826720554083,-0.22692405223846665,-1.2382351493151615,-0.5228915274681281,-0.9513579532117928
1784114890068237312,0.46030521392822266,0.32095959782600403,1.4134464263916016,-0.47806432843208313,-0.16264186799526215,0.9447139501571655,-0.28471639752388,0.07533101737499237,-0.24375557899475098,0.2763698399066925,0.767127282841926,-0.5934898266538068,0.07356373191828602,-0.2321078990780805,-1.2367210392564476,-0.5190051729399331,-0.9609804677167022
1784114890078157312,0.47022509574890137,0.7520262598991394,1.4479120969772339,-0.592049241065979,-0.16295135021209717,0.9430243968963623,-0.2900896370410919,0.09242519736289978,-0.14338743686676025,0.14357468485832214,0.7670062291938934,-0.5907519093626669,0.07724873539436113,-0.23821495005442592,-1.2316060722092599,-0.5118025167397267,-0.968385003266286
1784114890088077312,0.4801452159881592,1.388604998588562,1.4470499753952026,-0.6822744607925415,-0.16407950222492218,0.9394448399543762,-0.30086779594421387,0.1459978222846985,-0.08835530281066895,0.05652880668640137,0.7683935065441386,-0.5858059734228268,0.07998410219760177,-0.2449599695116662,-1.2210066709555254,-0.4992693143553642,-0.9702702396785984
1784114890097998080,0.4900660514831543,2.062697649002075,1.3826707601547241,-0.8155801892280579,-0.1660986989736557,0.9334744215011597,-0.31786274909973145,0.1784278005361557,-0.03735625743865967,0.003958940505981445,0.7715521743305968,-0.5783041057118402,0.08144316729391216,-0.25226692986890176,-1.2039814828611475,-0.4815232526431831,-0.9662422979912089
1784114890107918336,0.4999861717224121,2.3994345664978027,1.2862563133239746,-0.997728168964386,-0.1695736050605774,0.9251505136489868,-0.3396192789077759,0.1640346795320511,0.021489441394805908,-0.07313093543052673,0.7759531715741326,-0.5688163131602838,0.08147610612888904,-0.260204288856254,-1.1814318957512755,-0.4630914355687574,-0.9607232157392159
1784114890117838080,0.5099060535430908,2.109264612197876,1.0468617677688599,-1.1890623569488525,-0.17483393847942352,0.9159064292907715,-0.36131495237350464,0.21011227369308472,-0.08306646347045898,-0.11140230298042297,0.7801771393655677,-0.5593679771734648,0.08031185712689697,-0.2682928808687207,-1.1577603156552625,-0.45067058997696174,-0.9598583769546769
1784114890127758336,0.5198261737823486,1.516279935836792,0.8388499617576599,-1.3440519571304321,-0.1824236512184143,0.9075526595115662,-0.3782459795475006,0.2568712532520294,-0.3013666272163391,-0.07344478368759155,0.7828207361028179,-0.5520390845585754,0.07829345579472527,-0.27625138976569463,-1.137418946583289,-0.44937820696999004,-0.9685994065995892
1784114890137678080,0.5297460556030273,1.0761394500732422,0.807949960231781,-1.3511394262313843,-0.19079472124576569,0.9006972312927246,-0.3903101980686188,0.2087542563676834,-0.32780587673187256,-0.11307734251022339,0.7839211698817651,-0.54682044255711,0.07636955995041894,-0.2839416013070149,-1.1213717266367071,-0.4546704740765495,-0.9835101063568856
1784114890147598336,0.5396661758422852,0.9853113293647766,0.805863618850708,-1.47055983543396,-0.19962552189826965,0.8944342136383057,-0.4001713991165161,0.13222743570804596,-0.22548890113830566,-0.1634577512741089,0.784208827593455,-0.5425467748467714,0.07454725052231745,-0.29172300004783974,-1.1071644701792953,-0.4627272146037397,-1.0014386708750036
1784114890157518080,0.5495860576629639,1.1661590337753296,0.782878041267395,-1.6274222135543823,-0.20963384211063385,0.8873744010925293,-0.41063424944877625,0.08283329010009766,-0.0996394157409668,-0.21047478914260864,0.7844023399016371,-0.5380268704008083,0.07218009324904573,-0.30005035726208684,-1.0916187435030087,-0.47202205806565756,-1.0207736224326427
1784114890167438336,0.5595061779022217,1.3922739028930664,0.8196565508842468,-1.6837270259857178,-0.22037458419799805,0.8789055943489075,-0.42303651571273804,0.07279162108898163,-0.060317397117614746,-0.2602978050708771,0.7849231942000262,-0.5326253017806104,0.06922453001578956,-0.30889113551572933,-1.07356295484767,-0.48025512638799767,-1.0392018075476863
1784114890177358080,0.5694260597229004,1.5626293420791626,0.8181964159011841,-1.9455407857894897,-0.23195035755634308,0.8688928484916687,-0.4372920095920563,0.08827359974384308,-0.0891534686088562,-0.2443791627883911,0.7856780956151662,-0.5263473309282104,0.06566953546559318,-0.3183644754637978,-1.0529612078290687,-0.4876898628034847,-1.0571880527211452
1784114890187278336,0.5793461799621582,1.517695665359497,0.8334494233131409,-2.26469349861145,-0.24593442678451538,0.8573490381240845,-0.4521825611591339,0.0313500314950943,0.04711580276489258,-0.07477974891662598,0.7860303290446256,-0.5197811552560262,0.06112500791513617,-0.329010245584644,-1.0300971751227204,-0.498134763306837,-1.0787879411040426
1784114890197198080,0.5892660617828369,1.6684792041778564,0.8972417116165161,-2.3853843212127686,-0.261135071516037,0.8445415496826172,-0.46750181913375854,-0.03871533274650574,0.24359315633773804,0.023623675107955933,0.785959041311236,-0.5129274220948973,0.056165420669743664,-0.34061595130124256,-1.0057084868088044,-0.5094032809837227,-1.1023531687356967
1784114890207118336,0.5991861820220947,1.606325626373291,0.9030628800392151,-2.4337029457092285,-0.27640780806541443,0.83074951171875,-0.48317068815231323,-0.0004781782627105713,0.233673095703125,-0.017897427082061768,0.7856744495030645,-0.5057745645995543,0.051056372337649515,-0.35256338258936143,-0.9804528264836572,-0.5196300822020723,-1.125458945628932
1784114890217039360,0.609107255935669,1.4497772455215454,0.8950908184051514,-2.436640501022339,-0.29141318798065186,0.8168952465057373,-0.4977553188800812,0.06677329540252686,0.12968367338180542,-0.052476584911346436,0.7848891942901295,-0.4989993872225208,0.04606458814305816,-0.3644537248368213,-0.9560075148611371,-0.5296557356237394,-1.1486008125457134
1784114890226959104,0.6190271377563477,1.238360047340393,0.9936245679855347,-2.5116159915924072,-0.3060292601585388,0.8033469915390015,-0.5108616948127747,0.02905172109603882,0.043012261390686035,-0.05687206983566284,0.7833993626400664,-0.4927962222086658,0.041485335745346096,-0.37645217408412274,-0.9328944522324244,-0.5397171423868747,-1.1726764910353205
1784114890236879360,0.6289472579956055,1.1261768341064453,1.0942339897155762,-2.560311794281006,-0.3201129138469696,0.7899016737937927,-0.5230517387390137,-0.006287813186645508,0.058410704135894775,-0.06459468603134155,0.7812376837413135,-0.4868990127606539,0.037462997835175565,-0.3888362061132988,-0.9106486076572424,-0.5492036358881011,-1.197791809644737
1784114890246799104,0.6388671398162842,1.1094383001327515,1.1705492734909058,-2.585479974746704,-0.3335290551185608,0.7763248085975647,-0.5348626971244812,0.013277590274810791,0.07358968257904053,-0.1095770001411438,0.7786021244714229,-0.48106150268989223,0.03388936116438066,-0.40150968943091175,-0.8888141764438611,-0.5575767048484398,-1.2231600487962535
1784114890256719104,0.6487870216369629,1.1276270151138306,1.2291021347045898,-2.7665793895721436,-0.34673964977264404,0.7618183493614197,-0.5471785068511963,0.03462114930152893,0.04260969161987305,-0.14630287885665894,0.7757032704929664,-0.47486125777489063,0.030290562856965665,-0.4145764977643212,-0.8661155375155194,-0.5648214231984128,-1.2483674108475382
1784114890266639360,0.6587071418762207,1.2741310596466064,1.1666721105575562,-2.8813326358795166,-0.3608008623123169,0.7458071112632751,-0.559995174407959,0.0893622636795044,0.08128029108047485,-0.14189386367797852,0.7724157579110318,-0.4683186836356132,0.02607734315433303,-0.42821905105925895,-0.8417455763240718,-0.5723526730680104,-1.2743333860842039
1784114890276559104,0.6686270236968994,1.4148756265640259,1.1713415384292603,-2.9456753730773926,-0.3748653829097748,0.7282394170761108,-0.5737102031707764,0.17628750205039978,0.17228853702545166,-0.19325757026672363,0.7691074511803634,-0.4611839532000248,0.021313416301386737,-0.44196030599307984,-0.8157494197607886,-0.5787655064141628,-1.2990339898100507
1784114890286479360,0.6785471439361572,1.40380859375,1.1885149478912354,-3.031130790710449,-0.3885662853717804,0.7096104621887207,-0.5877662897109985,0.1811535656452179,0.1637568473815918,-0.22012555599212646,0.7655485854919125,-0.45370497512905933,0.01639068753344382,-0.45587114916781285,-0.7889452364162444,-0.5841317373469328,-1.323216603583588
1784114890296399104,0.6884670257568359,1.350033164024353,1.0317833423614502,-3.045525312423706,-0.4019496738910675,0.6903917789459229,-0.6014944314956665,0.2074611783027649,0.13016480207443237,-0.23935633897781372,0.7616516894380376,-0.44623361663522526,0.011328736970657838,-0.4697167011222643,-0.7620304536545296,-0.5890991092889897,-1.3471000290998483
1784114890306319360,0.6983871459960938,1.4430822134017944,0.9937298893928528,-3.0765490531921387,-0.4156683385372162,0.6705286502838135,-0.6145008206367493,0.2938879430294037,0.09041190147399902,-0.200181245803833,0.7574413700812839,-0.4389956670720571,0.005692364837706113,-0.483252607453806,-0.7349211488623304,-0.5947331512249628,-1.3706451829605273
1784114890316239104,0.7083070278167725,1.3843826055526733,0.8710952997207642,-3.263134002685547,-0.4292583465576172,0.649498701095581,-0.6276055574417114,0.23724177479743958,-0.017449140548706055,-0.1760595440864563,0.7530129504680705,-0.4315056086258725,-0.00036228945466939167,-0.4967637906074515,-0.7069249319294734,-0.5998809025914303,-1.3935628840504821
1784114890326159360,0.7182271480560303,1.2759994268417358,0.8575938940048218,-3.3892438411712646,-0.44368287920951843,0.6279358267784119,-0.6394075751304626,0.19371342658996582,-0.001623690128326416,-0.062252581119537354,0.74761646553199,-0.4245595906098711,-0.006736019929368362,-0.5106597081141286,-0.678898123204106,-0.606618114552904,-1.4186528913505971
1784114890336080384,0.7281482219696045,1.1460890769958496,0.8614338636398315,-3.4032087326049805,-0.45773306488990784,0.6059478521347046,-0.6506210565567017,0.21018972992897034,-0.013555824756622314,-0.09577786922454834,0.7416609510405022,-0.4177542395881874,-0.013071942366417764,-0.5246423952053488,-0.6509568017318736,-0.6130928598114899,-1.4441691507281031
1784114890346000128,0.7380681037902832,1.0056179761886597,0.9645043015480042,-3.3269786834716797,-0.4705685079097748,0.5844525694847107,-0.6610450148582458,0.16408047080039978,-0.023783624172210693,-0.06586843729019165,0.7351859730016258,-0.41124756707727217,-0.018786305438898285,-0.5385389369293251,-0.6242052454221586,-0.6186384132754191,-1.4699356264482033
1784114890355920384,0.747988224029541,1.0597238540649414,1.0874577760696411,-3.2513229846954346,-0.48139452934265137,0.5631255507469177,-0.6716762781143188,0.16167709231376648,-0.1323089599609375,-0.09774816036224365,0.7286596060453161,-0.4044677299097208,-0.023826854026106396,-0.5521716018323224,-0.598163228890712,-0.6218503778904146,-1.4944553441478363
1784114890365840128,0.7579081058502197,1.1512916088104248,1.2524595260620117,-3.142357110977173,-0.4901348352432251,0.54118812084198,-0.6832886338233948,0.1599498689174652,-0.22488868236541748,-0.005111634731292725,0.722270342913865,-0.39692132014682396,-0.028445474046788162,-0.5656589424459169,-0.5718493831460698,-0.6222540778043651,-1.517296245759038
1784114890375760384,0.7678282260894775,1.219683289527893,1.4221704006195068,-2.9657843112945557,-0.4961981177330017,0.5188215374946594,-0.6961405277252197,0.1511968970298767,-0.2273634672164917,0.10852456092834473,0.7162398475185086,-0.38842678550947024,-0.032471052105298825,-0.5788529663717429,-0.5454718839173095,-0.6192546755315638,-1.5379113216442386
1784114890385680128,0.7777481079101562,1.3928744792938232,1.6062003374099731,-2.7305731773376465,-0.49933212995529175,0.4963008165359497,-0.7101780772209167,0.14296314120292664,-0.1857539713382721,0.19006699323654175,0.7108073100228425,-0.37897601882387005,-0.03589083902487992,-0.5914743327222673,-0.5193325817718224,-0.612809060824479,-1.5557400943381445
1784114890395600384,0.7876682281494141,1.32795250415802,1.9515124559402466,-2.3786792755126953,-0.4984907805919647,0.47389209270477295,-0.7259016036987305,0.09448385238647461,-0.30570974946022034,0.24038225412368774,0.7064163391493228,-0.3682054615337535,-0.038391707650592535,-0.6032633625529868,-0.49370544662423593,-0.6017571438658706,-1.5696651359788178
1784114890405520128,0.7975881099700928,-0.13392788171768188,1.6158933639526367,-2.0266482830047607,-0.4950271248817444,0.4591698944568634,-0.7376389503479004,0.13720852136611938,-0.578554630279541,0.6152329444885254,0.7012287562989491,-0.3602421290659278,-0.03749852267047605,-0.6140828597627056,-0.47706051970205654,-0.5910633392477516,-1.5862686871428717
1784114890415440384,0.8075082302093506,-1.02040433883667,1.6599559783935547,-2.160998821258545,-0.4918840825557709,0.45216649770736694,-0.7440400123596191,0.07142812013626099,-0.8017148375511169,0.5880341529846191,0.6943877923134201,-0.3561268980642632,-0.033964965907104606,-0.6243762524580805,-0.46919284575859704,-0.5841381103500776,-1.6081891481762782
1784114890425360128,0.8174281120300293,-2.650534152984619,1.8739655017852783,-1.2142034769058228,-0.4868987202644348,0.4588720202445984,-0.743213415145874,-0.10604256391525269,-0.9003851413726807,0.3818395137786865,0.6855905840274993,-0.35746896364465347,-0.02468266891934746,-0.6336974144918794,-0.4767252568709952,-0.5799705791475007,-1.636925298345945
1784114890435280384,0.8273482322692871,-2.854694128036499,1.6796319484710693,-0.20425817370414734,-0.4763706624507904,0.47644469141960144,-0.7389664649963379,0.06265914440155029,-1.3571057319641113,-0.13464492559432983,0.6787705153402306,-0.36111032218677747,-0.01077472998184242,-0.6393385861404509,-0.4966064662206422,-0.5726011389006109,-1.6599825168520776
1784114890445200128,0.8372681140899658,-2.7431955337524414,1.8200801610946655,-0.6414512395858765,-0.4656449556350708,0.4948149025440216,-0.7337117791175842,-0.2897719144821167,-1.5608243942260742,-0.45378822088241577,0.6727139425683506,-0.364876606221073,0.0030292908412516183,-0.64367054825329,-0.5176218047830162,-0.565503495344877,-1.6802131481723652
1784114890455120384,0.8471882343292236,-2.978344678878784,1.8993194103240967,-1.017836093902588,-0.4565490484237671,0.5117892026901245,-0.7277601957321167,-0.9415832757949829,-0.9866122007369995,-0.5349351167678833,0.6646230903611104,-0.36855982060077863,0.016839503453899722,-0.6497356158268783,-0.5372661008887671,-0.5602762662722517,-1.7062161398071551
1784114890465041152,0.8571090698242188,-1.2944045066833496,1.5695984363555908,-0.524501383304596,-0.4478611648082733,0.5245131850242615,-0.7240899801254272,-0.9154505729675293,0.13826757669448853,-1.0884863138198853,0.6575613778599608,-0.37032001001848436,0.028602507780117557,-0.6554830505462298,-0.5521432381992442,-0.5539230072158414,-1.728353086143548
1784114890474961408,0.8670291900634766,1.8982617855072021,0.7886300086975098,-0.5491681694984436,-0.4423735737800598,0.520592212677002,-0.7302666306495667,-0.6927887797355652,1.0078959465026855,-2.061115264892578,0.6561850237739604,-0.3659671866496566,0.03057296408268142,-0.6592074992606367,-0.5475444382004597,-0.5446513219097221,-1.7319190598541565
1784114890484881152,0.8769490718841553,4.7405686378479,0.785858154296875,-0.9569138884544373,-0.44081172347068787,0.4908667206764221,-0.7514885067939758,-1.0877223014831543,0.7635583281517029,-2.1256935596466064,0.659756918377024,-0.3519341253318536,0.01995310104763115,-0.663675489184106,-0.5130842881647862,-0.5304969671775147,-1.7189971244005937
1784114890494801408,0.8868691921234131,3.8604092597961426,0.9132190942764282,-1.0200157165527344,-0.43894368410110474,0.4508688449859619,-0.7772037982940674,-0.46842020750045776,-0.6044027805328369,-0.8670070171356201,0.6641594207667721,-0.3337153492192755,0.005671916911249054,-0.6689500370285537,-0.46773849645394433,-0.5141144149756479,-1.7030677104458327
1784114890504721152,0.8967890739440918,1.4818155765533447,1.0858103036880493,-0.8145740628242493,-0.43548089265823364,0.4251995384693146,-0.7934492826461792,0.46007806062698364,-1.6120433807373047,0.2329024076461792,0.6654128018689831,-0.32135960069509806,-0.0018360019493175923,-0.6737584325130793,-0.43918233724046923,-0.5019562297259916,-1.697580175507103
1784114890514641408,0.9067091941833496,0.07399381697177887,0.9546095728874207,-0.7617526054382324,-0.4307044744491577,0.4141795337200165,-0.8018409609794617,0.7944129705429077,-1.5893504619598389,0.44075703620910645,0.6638413188375145,-0.3147570577507186,-0.0027401992310124735,-0.6784063089184632,-0.42704121101075615,-0.4929197955084781,-1.7014854182861983
1784114890524561152,0.9166290760040283,0.20012353360652924,0.815613329410553,-0.8976028561592102,-0.4274989664554596,0.4063114523887634,-0.8075615763664246,0.4066707193851471,-0.27630653977394104,0.28616875410079956,0.661243347607593,-0.3101791130731649,-0.0028521987466313603,-0.6830359424831843,-0.41841362777685903,-0.4868667011389334,-1.7085784544903253
1784114890534481408,0.9265491962432861,1.0234906673431396,1.0864578485488892,-0.883090615272522,-0.42356497049331665,0.39568623900413513,-0.8148773312568665,-0.17901983857154846,0.5941208600997925,0.10975348949432373,0.6591285482872488,-0.30421409679988315,-0.0038867470341168737,-0.6877413693633173,-0.4068149534144792,-0.47935385142931114,-1.714001821054131
1784114890544401152,0.9364690780639648,1.316799283027649,1.4052860736846924,-0.8283205628395081,-0.4166252911090851,0.3802330493927002,-0.8257398009300232,-0.4197852611541748,0.7059333324432373,0.022074639797210693,0.658122631596707,-0.29511849532163154,-0.005930434347793685,-0.6926359756548381,-0.3900482669144872,-0.4672793008291426,-1.7158392916139327
1784114890554321408,0.9463891983032227,1.086305022239685,1.526665449142456,-0.7725021839141846,-0.40739187598228455,0.36379435658454895,-0.8376666903495789,-0.042437195777893066,0.28984642028808594,-0.17043572664260864,0.6571882738682817,-0.28479754728762,-0.00754997367944966,-0.6978086417264056,-0.37233812912429626,-0.4526610358360347,-1.7174254442067418
1784114890564241152,0.9563090801239014,-0.09630201011896133,1.2991212606430054,-0.8422203063964844,-0.39820459485054016,0.3511885106563568,-0.8474076390266418,0.5063893795013428,-0.3081892430782318,-0.21831190586090088,0.6551605771268354,-0.2761145571101698,-0.007544419370127654,-0.7031845484382332,-0.35884016098368343,-0.43928644964601044,-1.7224122974561191
1784114890574160384,0.9662282466888428,-0.4979884624481201,1.220307469367981,-0.687406063079834,-0.3898720145225525,0.3480927050113678,-0.8525440096855164,0.54561847448349,-0.4343201220035553,-0.31347161531448364,0.6520043790947813,-0.27149657213264566,-0.004196190450749225,-0.7079281687854706,-0.3555357986442253,-0.42891152783547903,-1.731218710993119
1784114890584080128,0.9761481285095215,0.16234125196933746,1.3566136360168457,-0.6224411725997925,-0.38046056032180786,0.34471583366394043,-0.8581496477127075,0.25039464235305786,-0.0034224987030029297,-0.5240219831466675,0.6495893608212635,-0.2663163125710483,-0.0008963796282415272,-0.7121156103625454,-0.35193604834493347,-0.41730996597548803,-1.7378282778665797
1784114890594001408,0.9860692024230957,0.9109160900115967,1.4926257133483887,-0.5595835447311401,-0.3677992522716522,0.33150508999824524,-0.868808388710022,0.04127645492553711,0.2955700755119324,-0.39234572649002075,0.6485625126934327,-0.2561162769833466,-0.0004950887013131928,-0.7167780461711395,-0.3378984327790381,-0.40046171000492736,-1.7398467752083422
1784114890603921152,0.9959890842437744,1.0554336309432983,1.6065826416015625,-0.5587800741195679,-0.35525694489479065,0.31864383816719055,-0.8787824511528015,0.10487550497055054,0.10530635714530945,-0.2603166103363037,0.6479179276521666,-0.24618835620162186,-0.0002607236907526208,-0.7208283455756704,-0.3242983889204433,-0.3841737326406855,-1.7408399992992734
1784114890613841408,1.0059092044830322,0.8225995302200317,1.7440794706344604,-0.5447830557823181,-0.3417466878890991,0.3071490526199341,-0.8881828188896179,0.13013780117034912,-0.04393494129180908,-0.06701737642288208,0.6471434939197234,-0.23644874231774762,0.0007702557241514436,-0.7247736151315181,-0.3121958201060679,-0.3673090985374248,-1.7422947637861323
1784114890623761152,1.015829086303711,0.4672846496105194,1.8882224559783936,-0.5232929587364197,-0.32653915882110596,0.2985149919986725,-0.896806001663208,0.09552109241485596,-0.007163643836975098,0.005723237991333008,0.6460586491075748,-0.22712335865390648,0.003461591883777445,-0.7287051775849787,-0.3031363107344649,-0.34919233418064816,-1.7447566999740431
1784114890633681408,1.0257492065429688,0.138874351978302,2.015291452407837,-0.515771746635437,-0.3099323511123657,0.2930563986301422,-0.9044666290283203,0.09547007083892822,0.059116482734680176,-0.0050945281982421875,0.6445048103234994,-0.21841452679453338,0.007859963463122344,-0.7326983378163993,-0.2974220217151524,-0.3301286727131445,-1.748600632793326
1784114890643601152,1.0356690883636475,-0.011803306639194489,2.122711181640625,-0.4995219111442566,-0.2920010983943939,0.2899334132671356,-0.9114131927490234,0.09209570288658142,0.10841253399848938,-0.04802894592285156,0.6427211868132959,-0.21002344157611236,0.013548532801087613,-0.7366247877683229,-0.2941572494642289,-0.3100501290511727,-1.7530399852686407
1784114890653521408,1.0455892086029053,-0.08945216238498688,2.2960221767425537,-0.506089448928833,-0.27274391055107117,0.2881840765476227,-0.9179110527038574,0.03286048769950867,0.10622507333755493,-0.05357027053833008,0.6406756108874087,-0.2015875514544705,0.020172546306259382,-0.7406013821462829,-0.29232992855965245,-0.28882670666704763,-1.758042001765679
1784114890663441152,1.055509090423584,-0.1998247355222702,2.417567014694214,-0.45195886492729187,-0.2518647015094757,0.2873985171318054,-0.9241029620170593,0.05336311459541321,0.05125507712364197,-0.10011273622512817,0.6385717794585449,-0.19283656807588406,0.027614928944377684,-0.7444981191029006,-0.2915096443464155,-0.2660874824245021,-1.7629610545116987
1784114890673361408,1.0654292106628418,-0.2710287272930145,2.4853241443634033,-0.44328755140304565,-0.23012207448482513,0.28787583112716675,-0.929608166217804,0.08063170313835144,-0.06250351667404175,-0.17230528593063354,0.6363864296587012,-0.18417190375118547,0.03572987576295026,-0.7482088189887366,-0.2920080165115484,-0.2426689878610975,-1.767827014807842
1784114890683281152,1.0753490924835205,-0.24440857768058777,2.5850086212158203,-0.4267879128456116,-0.20746676623821259,0.2888000011444092,-0.934640109539032,-0.013678863644599915,-0.11059260368347168,-0.17568093538284302,0.6340676760273225,-0.17527943008441194,0.04423885969814197,-0.7518498693097786,-0.29297319565612673,-0.21843338349489466,-1.772713227975062
1784114890693201408,1.0852692127227783,-0.1026659682393074,2.6721010208129883,-0.40788936614990234,-0.1837954819202423,0.2891274094581604,-0.9394810199737549,-0.08619353175163269,-0.1287727952003479,-0.17322039604187012,0.631777192433358,-0.16576570100755203,0.05273735535894468,-0.7553794413339499,-0.29331518791223626,-0.1931950678609074,-1.7771620086365618
1784114890703121152,1.095189094543457,-0.08476659655570984,2.721273899078369,-0.4592716097831726,-0.1594809591770172,0.28873294591903687,-0.9440334439277649,-0.05833825469017029,-0.16167300939559937,-0.12328833341598511,0.6293439331063665,-0.15572977059399376,0.061086229420887685,-0.7589090127974247,-0.2929031614089372,-0.16735558036609205,-1.7816590797660878
1784114890713041408,1.1051092147827148,-0.1394394189119339,2.756138324737549,-0.4652712047100067,-0.13478289544582367,0.2887006402015686,-0.947884738445282,0.006944760680198669,-0.0800977349281311,-0.05399209260940552,0.6266600531983346,-0.145632016258048,0.0696343165276186,-0.7623906627206585,-0.29286941090548274,-0.14124645755254936,-1.786473593131358
1784114890722962176,1.11503005027771,-0.13493095338344574,2.831860303878784,-0.5021858215332031,-0.10954971611499786,0.2889503240585327,-0.9510555267333984,-0.022637173533439636,0.038823723793029785,-0.0051364898681640625,0.6237564214609163,-0.13537708488922431,0.07839190151288837,-0.7658039905351874,-0.29313019974917864,-0.11468208927714046,-1.7914862810635561
1784114890732882176,1.1249501705169678,-0.1975904107093811,2.9400510787963867,-0.545870304107666,-0.08340543508529663,0.28969717025756836,-0.9534773826599121,-0.014937467873096466,0.06922006607055664,0.0010542869567871094,0.6204728074008095,-0.12485897576726183,0.08758739523015004,-0.769254373687539,-0.2939104272066496,-0.08725290238274692,-1.7970236079729258
1784114890742802176,1.1348700523376465,-0.25605717301368713,2.9908111095428467,-0.6094517111778259,-0.05668171867728233,0.29101407527923584,-0.9550381898880005,0.07580098509788513,0.05044707655906677,-0.015619099140167236,0.6168215122750362,-0.11421830826694694,0.0971342966395577,-0.7726903338488629,-0.2952866269602333,-0.059280670392395464,-1.8030319214174066
1784114890752722176,1.1447901725769043,-0.20822015404701233,3.0413613319396973,-0.7194465398788452,-0.02963211014866829,0.29274019598960876,-0.9557327628135681,0.09432937204837799,0.007888466119766235,-0.051316797733306885,0.612630555950049,-0.10346159852990293,0.10690796844203616,-0.7762410823399928,-0.29709131497307234,-0.03099466886978298,-1.809956257770486
1784114890762642176,1.154710054397583,-0.0829746201634407,2.995629072189331,-0.7832228541374207,-0.002849732991307974,0.29362067580223083,-0.9559177756309509,0.1291772574186325,-0.08625373244285583,-0.17246967554092407,0.6080276622058862,-0.09241290323538291,0.11619368447618071,-0.7799110112264503,-0.29801226773803446,-0.0029811398159627143,-1.8176706009719465
1784114890772562176,1.1646301746368408,-0.06329479068517685,2.956986665725708,-0.8016016483306885,0.0233613271266222,0.2941301763057709,-0.9554798007011414,0.07221972197294235,-0.21638667583465576,-0.15394091606140137,0.6031548345193927,-0.08136179372630778,0.12506137123846472,-0.7835459845127852,-0.2985453235283161,0.02444496870271283,-1.8258402557181204
1784114890782482176,1.1745500564575195,0.15081989765167236,2.911630392074585,-0.8804953694343567,0.049033328890800476,0.2938128411769867,-0.9546045064926147,-0.040305305272340775,-0.1961413323879242,-0.16760313510894775,0.5980774006580841,-0.07015547109279544,0.13332651242306473,-0.7871504255918165,-0.29821330984329375,0.05131997121003293,-1.8343936115724802
1784114890792402176,1.1844701766967773,0.2510048449039459,2.9297521114349365,-1.0522860288619995,0.07405154407024384,0.29201802611351013,-0.9535417556762695,-0.11496036499738693,-0.11205586791038513,-0.17751598358154297,0.5924062344487133,-0.05856630879691687,0.14070933237697947,-0.7910915602835019,-0.29633615221213205,0.07750391119898511,-1.8444936755098036
1784114890802322176,1.194390058517456,0.299411416053772,2.8931660652160645,-1.2144423723220825,0.09865136444568634,0.29031506180763245,-0.9518324732780457,-0.03198572248220444,-0.15919628739356995,-0.15723735094070435,0.5859555084385845,-0.04695582963189736,0.14791520185911977,-0.795344192158189,-0.2945560482632194,0.10327487768231682,-1.856347537926839
1784114890812242176,1.2043101787567139,0.31965020298957825,2.7376868724823,-1.4047119617462158,0.12166564166545868,0.2883271872997284,-0.949770987033844,0.12828856706619263,-0.1859407126903534,-0.142422616481781,0.5787793480152037,-0.03567234647582782,0.1544085309569188,-0.7999375576368801,-0.292479386980808,0.12740610375074385,-1.8701133068536189
1784114890822162176,1.2142300605773926,0.4460211992263794,2.619722604751587,-1.5803263187408447,0.1428258717060089,0.28657418489456177,-0.9473521113395691,0.08448432385921478,-0.17564278841018677,-0.1475270390510559,0.5708159755260098,-0.02496839814733534,0.16031384537689727,-0.8048882783967359,-0.290649131509797,0.14963630274041362,-1.8859225440142156
1784114890832082176,1.2241501808166504,0.523073136806488,2.475059986114502,-1.7429510354995728,0.1622902750968933,0.284218966960907,-0.9449240565299988,0.06534034013748169,-0.2309505045413971,-0.21327906847000122,0.5621480157385496,-0.014541833809642819,0.16530731948007263,-0.810217077282314,-0.2881916858180973,0.170090070932902,-1.9037161383350274
1784114890842002176,1.234070062637329,0.5381812453269958,2.3351471424102783,-1.874570608139038,0.1799618899822235,0.28206491470336914,-0.9423657059669495,0.11022976040840149,-0.25095224380493164,-0.25724977254867554,0.5529261453532985,-0.004714016876546961,0.16969069673141818,-0.8157545640824867,-0.28594575168335523,0.18869625062799583,-1.9229952268640307
1784114890851922176,1.243990182876587,0.520630955696106,2.1650965213775635,-2.036905527114868,0.19573131203651428,0.2803993821144104,-0.9397156238555908,0.1520165055990219,-0.2525368332862854,-0.2956969738006592,0.5430936028724171,0.004390078825209156,0.17355955337022994,-0.821527325392832,-0.28421015936071325,0.20535175685515905,-1.943864535334892
1784114890861843456,1.2539112567901611,0.4339892864227295,2.1298863887786865,-2.1402297019958496,0.2099810689687729,0.2803262174129486,-0.9366563558578491,0.1926831156015396,-0.1998056173324585,-0.2864270806312561,0.5326629425145433,0.012609313072427561,0.1775185044298728,-0.8274045737401432,-0.28413393581547014,0.2205352804843505,-1.9659492091010407
1784114890871763200,1.2638311386108398,0.5994260311126709,2.0894875526428223,-2.3176209926605225,0.2236701101064682,0.27972015738487244,-0.9336639046669006,0.2956627905368805,-0.18590912222862244,-0.32054752111434937,0.521635666138546,0.020953906933674275,0.18091151726721255,-0.8335035192514406,-0.28350262391512615,0.23513050622991516,-1.9894861486664237
1784114890881683456,1.2737512588500977,0.042790498584508896,1.8640551567077637,-2.2156965732574463,0.23556876182556152,0.28241774439811707,-0.9299180507659912,0.486004114151001,-0.11994215846061707,-0.1434309482574463,0.5103215466691045,0.027775234858256136,0.18512027161894778,-0.8393633411469927,-0.2863135143862994,0.2481028559165824,-2.0131071564120955
1784114890891603200,1.2836711406707764,0.13062980771064758,1.6542354822158813,-2.034895420074463,0.24600976705551147,0.28637829422950745,-0.9259949326515198,0.624183714389801,-0.29382458329200745,-0.14697259664535522,0.4998632011435864,0.033540363750602556,0.18941374398599978,-0.8444727360551405,-0.29044466890698856,0.25967235570180847,-2.034485444945741
1784114890901523200,1.293591022491455,-0.2163664996623993,1.3218719959259033,-2.0155129432678223,0.2541441321372986,0.2914901077747345,-0.9221953749656677,0.5654511451721191,-0.5802627801895142,-0.23759466409683228,0.4899561400365031,0.037970569947681776,0.1935473136499497,-0.8491410775543603,-0.29578423792616254,0.2689109328603131,-2.0546173898339877
1784114890911443200,1.303511142730713,-0.4514384865760803,1.026145100593567,-2.053819417953491,0.25905781984329224,0.29976868629455566,-0.9181654453277588,0.41795939207077026,-0.44581055641174316,-0.2992875576019287,0.48034957431518666,0.040191838630802855,0.19824706096532527,-0.8534324810391578,-0.30445019187365574,0.27499870547539196,-2.0738411751082073
1784114890921363200,1.3134310245513916,-0.35085514187812805,0.7908651828765869,-2.148331642150879,0.26121795177459717,0.3088220953941345,-0.9145458340644836,0.21110260486602783,-0.14283698797225952,-0.42816656827926636,0.47065807800052556,0.041113116864267406,0.20257538341735232,-0.8577610514067912,-0.3139543550566746,0.27821790160844667,-2.0935802052376107
1784114890931283200,1.3233511447906494,-0.16824612021446228,0.514892578125,-2.2406668663024902,0.26060670614242554,0.3166723847389221,-0.9120322465896606,0.08636289834976196,0.006127297878265381,-0.5218056440353394,0.46066121688130823,0.04125436064619572,0.2056257886050843,-0.8624427578183738,-0.32221925157594905,0.2783260811934627,-2.1149101924712266
1784114890941203200,1.3332710266113281,0.3965325951576233,0.17069312930107117,-2.2142751216888428,0.2568662762641907,0.3217397928237915,-0.9113194942474365,0.10404986143112183,0.019584059715270996,-0.611278772354126,0.4507053046606937,0.04071373774031085,0.20659778830092682,-0.8674816594284682,-0.3275664072366407,0.274734443627202,-2.1375697302280994
1784114890951123200,1.343191146850586,1.430509090423584,-0.34192630648612976,-2.0841357707977295,0.24943509697914124,0.31904011964797974,-0.9143279194831848,0.24417147040367126,-0.015268146991729736,-0.7665345072746277,0.4413491639712755,0.040214570795743775,0.20302421005784962,-0.8731408224156957,-0.3247165031994037,0.2663262976597194,-2.1616828257731595
1784114890961043200,1.3531110286712646,2.6594343185424805,-0.9139376282691956,-1.996240258216858,0.23735585808753967,0.30538102984428406,-0.9221738576889038,0.3855994641780853,-0.14044877886772156,-1.0056062936782837,0.43271457075732933,0.03987957905230964,0.19319081076032998,-0.8796846290603619,-0.3103385416563068,0.2519192638454141,-2.1876921327337513
1784114890970963200,1.3630311489105225,3.8663763999938965,-1.230200171470642,-1.7831168174743652,0.22205568850040436,0.2794850766658783,-0.9341195821762085,0.48784422874450684,-0.2284596860408783,-1.077370285987854,0.42476955774628816,0.040446994726948515,0.17693009616090694,-0.8869219791107447,-0.28325777402601676,0.23338479301495188,-2.2148744217779304
1784114890980883200,1.3729510307312012,5.1105427742004395,-1.4105275869369507,-1.5730122327804565,0.20537486672401428,0.24109426140785217,-0.9485223889350891,0.5029534101486206,-0.17123953998088837,-0.9328100085258484,0.4175541459948622,0.04260283761167219,0.15467323022448898,-0.8943766463099976,-0.2434932204301146,0.21322935073021448,-2.241823904685637
1784114890990803200,1.382871150970459,6.190409183502197,-1.3364007472991943,-1.416762113571167,0.18920393288135529,0.19012242555618286,-0.9633563160896301,0.5332387089729309,-0.03936558961868286,-0.6522595286369324,0.4105944990164927,0.04713603685027863,0.12688596926752935,-0.9017152378636805,-0.19128684861757161,0.19393238878253727,-2.268344271564876
1784114891000724224,1.3927922248840332,6.242118835449219,-1.2091090679168701,-1.3370680809020996,0.17451950907707214,0.13238447904586792,-0.9757137298583984,0.6437482833862305,0.10743790864944458,-0.18552589416503906,0.4036083667220435,0.05318564721656854,0.0965112395684514,-0.9082715688891096,-0.13277425477345042,0.17699182429082028,-2.293470945116157
1784114891010644224,1.402712106704712,5.573623180389404,-1.2461861371994019,-0.9849094748497009,0.16154249012470245,0.07590477913618088,-0.9839423298835754,0.827288031578064,0.15467078983783722,0.18796759843826294,0.3970842492894792,0.059181127430858044,0.06727878061114671,-0.9133976746642843,-0.07597785404503757,0.16272710510256932,-2.3152227355529242
1784114891020564224,1.4126322269439697,4.656137943267822,-1.4860037565231323,-0.44775792956352234,0.14813202619552612,0.027324652299284935,-0.9885900616645813,1.0560762882232666,0.219852477312088,0.3922613263130188,0.3926493375483769,0.06288176295947016,0.04184331516267603,-0.9165815023410571,-0.027328053616923337,0.14873513632315358,-2.330088788211141
1784114891030484224,1.4225521087646484,4.743470668792725,-1.7904560565948486,-0.15847070515155792,0.1319093108177185,-0.0179893895983696,-0.9910985231399536,0.991305410861969,0.1265861988067627,0.2360326647758484,0.3902418781936111,0.06436221067323855,0.017556650613855584,-0.9182921759837736,0.01799036058881374,0.1323164122980674,-2.339102901524121
1784114891040404224,1.4324722290039062,4.8988118171691895,-2.11263108253479,0.3656415045261383,0.1127161830663681,-0.06580696254968643,-0.9914456605911255,0.5115056037902832,0.42881354689598083,0.015585064888000488,0.38886256447714534,0.06486385012571004,-0.008357557960105193,-0.9189715371851946,0.06585455156528237,0.11320266295553931,-2.344720572560959
1784114891050324224,1.442392110824585,4.512500762939453,-1.6662344932556152,1.0246559381484985,0.09301096200942993,-0.11310452222824097,-0.9892200827598572,0.15131276845932007,0.613745391368866,-0.2853465676307678,0.3905158814983859,0.06511191420320023,-0.03391766646183848,-0.9176641090632177,0.11334707316654287,0.09374891971673452,-2.342235293486182
1784114891060244224,1.4523122310638428,4.171178817749023,-0.8948637247085571,1.6555551290512085,0.07956361025571823,-0.15690122544765472,-0.9844042062759399,-0.34651613235473633,-0.4165393114089966,-0.5795758962631226,0.3945716043882935,0.0678685393992885,-0.05649565597520106,-0.9146121099938936,0.15755222268340935,0.08064882040532699,-2.3333898090630787
1784114891070164224,1.4622321128845215,2.9559991359710693,-0.5014910697937012,1.6040000915527344,0.07011380046606064,-0.1939844936132431,-0.9784958362579346,-0.10391202569007874,-1.7187962532043457,-0.6975142955780029,0.401051786054671,0.07157617415930341,-0.07502627706071979,-0.9101677090832696,0.19522217495271832,0.071532417261439,-2.318522569185209
1784114891080084224,1.4721522331237793,1.1596518754959106,-1.016371250152588,1.113296389579773,0.060476064682006836,-0.21369154751300812,-0.9750274419784546,0.28547120094299316,-1.9200059175491333,-0.43229061365127563,0.4056327002771723,0.07166632761166743,-0.08573332181730267,-0.9071801680776858,0.21535224547124343,0.06194562974187881,-2.3073517884800254
1784114891090004224,1.482072114944458,0.667856752872467,-1.9544185400009155,2.3650879859924316,0.04233493283390999,-0.22303976118564606,-0.9738896489143372,1.1296621561050415,-1.3278788328170776,-0.40671032667160034,0.41222092922392756,0.06596510020361394,-0.09329410297890932,-0.9038908216409054,0.22493167273557177,0.0434426002028592,-2.290749656886694
1784114891099924224,1.4919922351837158,0.5480853319168091,-2.6327884197235107,3.1351828575134277,0.014021462760865688,-0.22963964939117432,-0.9731746912002563,1.495057463645935,-0.8465474843978882,-0.5695651173591614,0.42348357308675083,0.05566993045555347,-0.1015554109324039,-0.8984703076696623,0.2317074167566862,0.014406963299068215,-2.2623560358190473
1784114891109844224,1.5019121170043945,0.2390124648809433,-3.1370344161987305,3.308506965637207,-0.021207861602306366,-0.23371899127960205,-0.9720728397369385,1.2055950164794922,-0.8608092069625854,-0.5747563242912292,0.4361143164123237,0.04209210103241315,-0.11041658644781605,-0.8920990385770501,0.23590086697373389,-0.021813692513661668,-2.22961063794682
1784114891119764224,1.5118322372436523,-0.023768555372953415,-3.7083306312561035,3.73803973197937,-0.061602748930454254,-0.23309138417243958,-0.9705016613006592,1.1680480241775513,-0.8430957794189453,-0.5435974597930908,0.4496452506108352,0.025524154114860673,-0.1187336411233666,-0.8849124778498386,0.23525543332804558,-0.06339011765015111,-2.1938479494663903
1784114891129684224,1.521752119064331,0.4043346345424652,-4.483860969543457,4.268359184265137,-0.11026889085769653,-0.23124834895133972,-0.9666255712509155,1.4669889211654663,-0.6843400001525879,-0.557681679725647,0.4646122202303674,0.005512337593860276,-0.12906135383828482,-0.8760412985861684,0.23336061801484084,-0.11358511014381088,-2.1529947853162343
1784114891139605248,1.5316731929779053,0.9980142116546631,-4.700700759887695,4.515302658081055,-0.1642904132604599,-0.232118621468544,-0.9587124586105347,1.346083641052246,-0.6829509735107422,-0.6544619202613831,0.48054835528721235,-0.015615562992345455,-0.142828284513327,-0.8651181618910436,0.23425522815592642,-0.1697171715640545,-2.1075068864780993
1784114891149525248,1.541593074798584,1.4976462125778198,-4.870218276977539,4.661408424377441,-0.22002626955509186,-0.23534975945949554,-0.9466778635978699,1.1962072849273682,-0.8820818662643433,-0.6733782887458801,0.49668536075663444,-0.03629925086063328,-0.15919623837466332,-0.8524333942273999,0.2375784276867936,-0.2283649870520687,-2.05906453242862
1784114891159445248,1.5515131950378418,2.1759774684906006,-5.000357627868652,4.961456298828125,-0.2772606313228607,-0.2405397742986679,-0.9301973581314087,1.247933268547058,-1.049896001815796,-0.6712735295295715,0.513027440552276,-0.05641093740226889,-0.17809861179032288,-0.8377956778415656,0.24292191708221147,-0.2896819505660856,-2.007080509216224
1784114891169365248,1.5614330768585205,2.819638252258301,-5.124360084533691,5.671717643737793,-0.3360997438430786,-0.24744802713394165,-0.908738911151886,1.3792973756790161,-1.1304969787597656,-0.6385022401809692,0.5309033360645242,-0.07557534047236722,-0.1997971473045199,-0.8200678214316832,0.25004547663433496,-0.3542505482697198,-1.9475314345991779
1784114891179285248,1.5713531970977783,3.003617525100708,-4.907530784606934,6.130499362945557,-0.39560702443122864,-0.2522597312927246,-0.8830968737602234,1.4666366577148438,-1.2586045265197754,-0.5591791272163391,0.5506877959051372,-0.0940719102736398,-0.22271514972909687,-0.7989313338098807,0.25501478697019897,-0.42117026272448976,-1.879807631926447
1784114891189205248,1.581273078918457,2.576575517654419,-4.408865451812744,6.2244720458984375,-0.4511466324329376,-0.25080084800720215,-0.8564844727516174,1.4724020957946777,-1.5140917301177979,-0.30023854970932007,0.5708618074512957,-0.11148510618710786,-0.24357512119087368,-0.7761178799707427,0.25350744230026945,-0.484811899317803,-1.8102332015863587
1784114891199125248,1.5911931991577148,1.8375047445297241,-4.013286113739014,6.384047031402588,-0.5015712976455688,-0.23961448669433594,-0.8312708139419556,1.6882778406143188,-1.714639663696289,-0.058652281761169434,0.5907737081781694,-0.1288702210888464,-0.2603018421259605,-0.7527429651866979,0.2419687479740781,-0.542900275496372,-1.743101412958748
1784114891209045248,1.6011130809783936,1.2719300985336304,-3.931483030319214,6.798635482788086,-0.548573911190033,-0.2180628478527069,-0.8071649074554443,2.0380759239196777,-1.8188481330871582,0.09348088502883911,0.6107152120222618,-0.14742598841880108,-0.2732821168109942,-0.7284293509567663,0.21982910346661824,-0.5969239684072277,-1.678272064527406
1784114891218965248,1.6110332012176514,0.9150039553642273,-3.929626226425171,7.389894485473633,-0.5937296152114868,-0.18658530712127686,-0.7827330827713013,2.3550057411193848,-1.8218528032302856,0.19496458768844604,0.6312559725485177,-0.16774706704900091,-0.2837153188033949,-0.702055832865559,0.18768526652020062,-0.6489404843039482,-1.6136038673927047
1784114891228885248,1.62095308303833,0.6133565902709961,-3.8977456092834473,7.9567365646362305,-0.6363112330436707,-0.14570991694927216,-0.7575464844703674,2.504734754562378,-1.7205010652542114,0.38431650400161743,0.6525135323970314,-0.18957848711621453,-0.2920389754559454,-0.673052231517691,0.14623050467174326,-0.6986382940679496,-1.5484344405017727
1784114891238805248,1.630873203277588,0.4625588357448578,-3.718120574951172,8.278020858764648,-0.6742224097251892,-0.09692154079675674,-0.7321408987045288,2.536740779876709,-1.614946722984314,0.5689482092857361,0.6739635017045306,-0.21208491323306494,-0.29824408831574223,-0.6417503959851503,0.0970739304104578,-0.7442382579058241,-1.4839257925222014
1784114891248725248,1.6407930850982666,0.44014284014701843,-3.4170823097229004,8.556973457336426,-0.7055187821388245,-0.04273021221160889,-0.7074018120765686,2.573850631713867,-1.5959416627883911,0.6830030083656311,0.6951792642243102,-0.23409401486196768,-0.3024881498589484,-0.6086268520435227,0.04274322484003159,-0.7840654373624566,-1.420548253730245
1784114891258645248,1.6507132053375244,0.5490618944168091,-3.0957045555114746,8.895417213439941,-0.7291068434715271,0.01574891060590744,-0.68421870470047,2.677165985107422,-1.5589922666549683,0.7830651998519897,0.7164326452977287,-0.25494443045478704,-0.3047851342731,-0.5734402310178952,-0.015749560914046765,-0.8171481189719485,-1.3568011797305233
1784114891268565248,1.6606330871582031,0.7066565752029419,-2.8854947090148926,9.14038372039795,-0.7448521256446838,0.07719983905553818,-0.6627483367919922,2.805276870727539,-1.4957484006881714,0.941892683506012,0.7375491839528147,-0.2743941666495361,-0.30550557940637285,-0.5360925805657905,-0.0772767276879751,-0.8436610353464091,-1.2917414261379816
1784114891278486272,1.6705541610717773,0.6725561022758484,-2.6476476192474365,9.300224304199219,-0.7528275847434998,0.14079098403453827,-0.6429840326309204,2.938633918762207,-1.4870433807373047,1.120782494544983,0.7579465721216518,-0.2926792555652539,-0.30470777527095577,-0.4969999385991994,-0.14126031319245033,-0.8639314038721089,-1.225976817342067
1784114891288406016,1.680474042892456,0.3337595462799072,-2.3548531532287598,9.588858604431152,-0.75234454870224,0.207419291138649,-0.6252638101577759,3.0106148719787598,-1.5810154676437378,1.264042615890503,0.7772318807176695,-0.31058463621312377,-0.30150500129065255,-0.4566645091129083,-0.20893614094733254,-0.8773851791395891,-1.1607417034094893
1784114891298326272,1.6903941631317139,-0.12860168516635895,-1.9463261365890503,9.932893753051758,-0.7421649098396301,0.2785486578941345,-0.6095916032791138,3.0074846744537354,-1.6977686882019043,1.4207793474197388,0.7952484812503491,-0.3290577090594657,-0.2948308235363444,-0.4151815562345781,-0.2822826152046223,-0.883160346981928,-1.0964371082851467
1784114891308246016,1.7003140449523926,-0.4152145981788635,-1.4228284358978271,10.215271949768066,-0.7210114598274231,0.3523036539554596,-0.5966780185699463,2.9891388416290283,-1.7888728380203247,1.5213453769683838,0.8119854732245142,-0.3475315646646986,-0.28439902591391686,-0.37285202516621196,-0.3600314408096328,-0.8794767836904861,-1.0317505609446003
1784114891318166272,1.7102341651916504,-0.5053344368934631,-0.9308261871337891,10.500029563903809,-0.6889966726303101,0.4245501458644867,-0.587401807308197,3.0916457176208496,-1.807942509651184,1.6219630241394043,0.8275033765972551,-0.364574614842603,-0.2708956352687601,-0.3300594073719721,-0.4384649712073874,-0.8648256505910148,-0.9640058590927568
1784114891328086016,1.720154047012329,-0.5396959185600281,-0.4975224435329437,10.831938743591309,-0.6460961103439331,0.49456000328063965,-0.581352174282074,3.2879416942596436,-1.7672803401947021,1.7531967163085938,0.8418711439976634,-0.38023760956706054,-0.25444698428798695,-0.2862327813972973,-0.5173285208061369,-0.8380960713054298,-0.8901023036507626
1784114891338006272,1.730074167251587,-0.6596369743347168,-0.15193389356136322,11.13576602935791,-0.590795636177063,0.5644391775131226,-0.5765144228935242,3.465444564819336,-1.720826506614685,1.8662636280059814,0.8546805382969982,-0.396079778114214,-0.23422979699431248,-0.24037118850594302,-0.5997536884331718,-0.7976318422852176,-0.8074520159176487
1784114891347926016,1.7399940490722656,-0.9451558589935303,0.11236153542995453,11.451957702636719,-0.5243046879768372,0.6307563185691833,-0.5720586776733398,3.6340458393096924,-1.8003120422363281,1.9030523300170898,0.8652794094512545,-0.411606061357998,-0.21107134347608117,-0.19318629467280016,-0.6825274862794231,-0.7418689477585984,-0.713857225788899
1784114891357846272,1.7499141693115234,-1.689220666885376,0.3652611970901489,11.828323364257812,-0.44675832986831665,0.6938610076904297,-0.5647690296173096,3.7631492614746094,-1.9758281707763672,2.0205490589141846,0.87257670816204,-0.4282931468954599,-0.18487957420947937,-0.14489503428725223,-0.7668369657031532,-0.669257317221982,-0.6078031107018357
1784114891367766016,1.7598340511322021,-2.8377134799957275,0.680917501449585,12.069243431091309,-0.35817646980285645,0.7538582682609558,-0.5508242845535278,3.7541420459747314,-2.251615285873413,2.2040529251098633,0.8753111720181406,-0.4476941383683531,-0.15542782878042466,-0.09613821261798967,-0.8539146645245537,-0.5765547234074292,-0.4869859562958185
1784114891377686272,1.76975417137146,-3.9542441368103027,0.8887543082237244,12.203719139099121,-0.2599813938140869,0.8092327117919922,-0.5268322229385376,3.700289011001587,-2.420713424682617,2.347877264022827,0.872430767813192,-0.4705267321490003,-0.12324155120261969,-0.047757052556046474,-0.9428448520102624,-0.4584183440923727,-0.3461211730062768
1784114891387606016,1.7796740531921387,-4.6884918212890625,0.9130823612213135,12.349453926086426,-0.15404042601585388,0.8563866019248962,-0.4928218424320221,3.7743866443634033,-2.284945011138916,2.3232510089874268,0.8639504606242209,-0.49555827713238476,-0.08950458879562363,0.0006201422357804308,-1.0282303822086218,-0.30294698320517377,-0.1705564662272439
1784114891397526272,1.7895941734313965,-4.976429462432861,0.8611840605735779,12.519186973571777,-0.0422225184738636,0.8910916447639465,-0.45185503363609314,3.846848964691162,-2.0536739826202393,2.177593469619751,0.850573075555271,-0.5206080273127675,-0.05513408644263976,0.04952730025950202,-1.0997449178790166,-0.09317207274911497,0.05919122150332375
1784114891407446272,1.7995140552520752,-5.555643558502197,1.0028990507125854,12.517959594726562,0.0737437829375267,0.9114967584609985,-0.40464237332344055,3.801942825317383,-2.0698983669281006,2.091348886489868,0.8322542659563907,-0.5452279591033843,-0.020131756815671305,0.09835635004450734,-1.1469085497584883,0.18026599322274536,0.35187931376811443
1784114891417367296,1.8094351291656494,-6.255253791809082,1.02802312374115,12.263870239257812,0.1901811808347702,0.9173157811164856,-0.34980419278144836,3.6775708198547363,-2.3741180896759033,2.055462121963501,0.8084398799378376,-0.5699851019571596,0.01465904993849518,0.14603825163716638,-1.161285772893893,0.4979772500813882,0.6880254047314154
1784114891427287296,1.8193552494049072,-6.090106010437012,1.5828458070755005,11.538124084472656,0.30236777663230896,0.9083218574523926,-0.2890070676803589,3.605377674102783,-2.4641690254211426,2.132406234741211,0.7797829429327379,-0.594267768449642,0.0483971722246641,0.19089811067695045,-1.139254390782929,0.8079869307227677,1.014665358142511
1784114891437207296,1.829275131225586,-2.7171614170074463,-8.29127311706543,15.10430908203125,0.47777479887008667,0.8214081525802612,-0.31148019433021545,7.848015785217285,0.25497734546661377,-0.36155450344085693,0.7637336756287941,-0.5764008897228938,0.10964451715513392,0.269167156296642,-0.9638755823864957,0.9930589781648039,1.2300135990734586
1784114891447127296,1.8391952514648438,1.5242680311203003,-1.9756966829299927,0.5315560698509216,0.49950769543647766,0.8000422716140747,-0.33230161666870117,6.169620513916016,10.66837215423584,3.8873095512390137,0.7520984222682428,-0.5704880798181242,0.0916108576841434,0.31701533913532487,-0.9273656801010551,0.9837694427679663,1.3213797486327241
1784114891457047296,1.8491151332855225,-2.758275032043457,0.6410436034202576,5.09204626083374,0.5290795564651489,0.7767265439033508,-0.34171736240386963,-0.062282681465148926,1.5051186084747314,-1.8941682577133179,0.7474305926462985,-0.5647806214404916,0.10081749171985836,0.3349719960134857,-0.8894517511315451,0.9973289077433694,1.3504971117164073
1784114891466967296,1.8590352535247803,-4.871837139129639,2.8700361251831055,5.280783176422119,0.5817106366157532,0.7558056712150574,-0.3006168603897095,1.928146481513977,3.056144952774048,1.2826114892959595,0.7237329986665482,-0.5796581139461287,0.11699591982950709,0.35569501604919673,-0.8568836746078036,1.09381441613843,1.4560739870541473
1784114891476887296,1.868955135345459,-5.805159568786621,4.695517063140869,1.878013014793396,0.6215639710426331,0.7475907802581787,-0.23402240872383118,1.9152402877807617,0.5586226582527161,0.05822589993476868,0.6983670155408768,-0.6041964983580453,0.1339230521825127,0.3595759612474723,-0.8444271790127028,1.2107061856760777,1.553776350958708
1784114891486807296,1.8788752555847168,-6.528698921203613,0.34908467531204224,1.999664545059204,0.6405417919158936,0.7480055093765259,-0.173764169216156,3.641700029373169,0.07651835680007935,0.669583261013031,0.6752807160075126,-0.6277606435744622,0.1379655286234373,0.3617707461103007,-0.845051855509846,1.305894762229581,1.6460875069037413
1784114891496727296,1.8887951374053955,-7.201966285705566,-2.9669008255004883,4.801203727722168,0.6634324193000793,0.7369581460952759,-0.12942154705524445,5.156269550323486,1.0344650745391846,1.4924739599227905,0.6473046191963937,-0.6465960975238149,0.1311591043630159,0.3817163677838543,-0.8285590269232048,1.3781372060756938,1.760692160692429
1784114891506647296,1.8987152576446533,-5.157680511474609,-3.896151065826416,4.584727764129639,0.6946573853492737,0.7112312316894531,-0.1077086329460144,3.3592824935913086,1.8226127624511719,0.8781401515007019,0.619770501519705,-0.6563049498160505,0.12413499865155163,0.4119936754561742,-0.7912481552663508,1.4169683880308663,1.8607035935927823
1784114891516567296,1.908635139465332,-3.369232654571533,-3.805943727493286,2.9909253120422363,0.7157067060470581,0.6904069781303406,-0.10536617785692215,0.9530859589576721,2.607429265975952,0.22986266016960144,0.6007296084719895,-0.6587837369379725,0.11541620368401788,0.4379577043413199,-0.7620514530975643,1.4246265308388781,1.9260200271891634
1784114891526487040,1.9185550212860107,-2.1411190032958984,-2.336475372314453,2.899343729019165,0.7318466305732727,0.6724629402160645,-0.11042694747447968,-0.7516067624092102,3.392676830291748,-0.24896329641342163,0.5875921917127008,-0.6578257324967726,0.1097808439586268,0.45820180988608,-0.7375315210787863,1.4210379369993416,1.9666144514302704
1784114891536407296,1.9284751415252686,-0.6621233820915222,-1.017714500427246,-0.029459098353981972,0.7407283186912537,0.662211000919342,-0.11312826722860336,-2.005697250366211,3.434666872024536,-0.5463261008262634,0.5801805008303451,-0.6572455328492338,0.10707089930943799,0.4689932484966959,-0.7237656494760837,1.419241714822889,1.988328720864698
1784114891546327040,1.9383950233459473,-1.0559518337249756,-1.1427359580993652,0.2086111456155777,0.7311121225357056,0.673624575138092,-0.1081899031996727,-1.019823670387268,1.7649435997009277,0.1551564335823059,0.57949189904128,-0.6604842768953807,0.09831362293470096,0.4672088659628415,-0.739102119301581,1.4238826032130474,2.0022093356557926
1784114891556248064,1.9483160972595215,-4.469913482666016,2.6123046875,-1.4731569290161133,0.7319141626358032,0.675550103187561,-0.0890721008181572,-1.1561695337295532,0.17843854427337646,0.9676731824874878,0.5722344477367561,-0.6680809143628054,0.09556067165685114,0.46592254744414946,-0.7417105107649797,1.4496943638272444,2.03004364292113
1784114891566168320,1.9582362174987793,-5.361700534820557,0.4412320852279663,-2.807997465133667,0.7162361741065979,0.6966137290000916,-0.04165686294436455,-0.6099739074707031,0.8706012964248657,1.0172275304794312,0.5585414243670433,-0.6877658645056991,0.07841992516415704,0.45701208907885454,-0.770666739879755,1.5127009841402597,2.102526834772143
1784114891576088064,1.968155860900879,-3.229444742202759,0.4559255838394165,-1.3175526857376099,0.7024224400520325,0.7116893529891968,-0.010055751539766788,1.3925025463104248,1.2484852075576782,0.0572054386138916,0.5482637813109446,-0.7007434341585662,0.06269580239023995,0.4521446158712382,-0.7919000788316278,1.5564814863493301,2.160987717636338
1784114891586007808,1.9780757427215576,-1.8548846244812012,0.020238377153873444,-0.6332865953445435,0.696437656879425,0.7175481915473938,0.009958908893167973,1.0024454593658447,1.5798914432525635,0.10243737697601318,0.5416119367002301,-0.7084475202936578,0.055511848044549034,0.44908472455091547,-0.8002758082299031,1.5850951365117039,2.195131700142654
1784114891595928064,1.9879958629608154,-0.9793035387992859,0.27452337741851807,-1.1169252395629883,0.6897301077842712,0.7237138152122498,0.02260415069758892,0.27575457096099854,1.65735924243927,0.481469988822937,0.5381270201957565,-0.7133497334081007,0.04933794835761814,0.4462256838900239,-0.8091688002338902,1.6035570587014045,2.217761797572957
1784114891605847808,1.9979157447814941,0.945849597454071,0.4723817706108093,-0.6232273578643799,0.6835622191429138,0.7294647097587585,0.024986248463392258,0.017045140266418457,1.2770967483520508,0.07263946533203125,0.5400467710596789,-0.7143077942588131,0.04751315152893178,0.4425568060651272,-0.8175390402904286,1.6073330599552769,2.2175414692682085
1784114891615768064,2.007835865020752,1.2395598888397217,0.008201575838029385,-1.2689087390899658,0.6762399673461914,0.7364521026611328,0.018385980278253555,0.02929598093032837,1.3091869354248047,-0.20747292041778564,0.5462821857299461,-0.7120103297900994,0.04726817673544316,0.4386147391499486,-0.8278106735370296,1.5979781746181472,2.2010391121111943
1784114891625687808,2.0177557468414307,2.0822460651397705,0.0949731096625328,-1.0890320539474487,0.666756808757782,0.7452429533004761,0.006934476085007191,-0.16109585762023926,1.4382591247558594,-0.158042311668396,0.5546084429665488,-0.7080504865065196,0.046170842614871525,0.4346747425033306,-0.8408991340997541,1.58119626009572,2.178184688332149
1784114891635608064,2.0276758670806885,2.137921094894409,0.04120867699384689,-1.355519413948059,0.6579844355583191,0.7529759407043457,-0.009162090718746185,-0.2583261728286743,1.1396328210830688,-0.3044823408126831,0.5647418693078158,-0.7023071314939523,0.04672951695628753,0.43086862657049396,-0.8525727962353734,1.556872747681821,2.1456091058323037
1784114891645527808,2.037595748901367,2.4398651123046875,0.052057407796382904,-1.423634648323059,0.6459912061691284,0.7628694772720337,-0.026934340596199036,-0.7503919005393982,0.9977200627326965,-0.03327685594558716,0.5760167565244693,-0.6960195171276458,0.045712813589352384,0.42622981047421027,-0.8677396959185837,1.5291258703940864,2.110461203005263
1784114891655448064,2.047515869140625,2.6286232471466064,-0.23724870383739471,-1.7977945804595947,0.6346085667610168,0.7714213132858276,-0.04670131579041481,-0.5612901449203491,0.8317737579345703,0.01946437731385231,0.588282991233516,-0.6888392866472344,0.04636570860760687,0.42103888659163846,-0.8810718074335964,1.497337999060252,2.0680698702500284
1784114891665367808,2.0574357509613037,3.1638906002044678,-0.6258513331413269,-2.4295918941497803,0.6159552931785583,0.7846588492393494,-0.07006853818893433,-0.7090796828269958,1.0946135520935059,0.11563128978013992,0.6028384656544379,-0.6805121457698753,0.04323137787552361,0.41427048138377587,-0.9021455940192137,1.4575273511730762,2.0204137111811757
1784114891675288064,2.0673558712005615,4.689614295959473,-0.7362540364265442,-1.3748536109924316,0.6000685691833496,0.7933092713356018,-0.10285080969333649,-0.2876143455505371,0.8792371153831482,-0.002282261848449707,0.619890992278162,-0.668363193958201,0.04318836315901649,0.4088528775110772,-0.9162254737555435,1.4010473352224804,1.9541885303728923
1784114891685207808,2.0772757530212402,5.391773223876953,-0.4840133786201477,-1.3208643198013306,0.5880694389343262,0.7952578067779541,-0.1474429965019226,-0.20879697799682617,0.5734403133392334,-0.05902367830276489,0.6395855996055526,-0.6512376979794064,0.046561393416620425,0.4057730869692469,-0.919432660676533,1.3251365783482438,1.8679646436817663
1784114891695128064,2.087195873260498,5.006351470947266,-0.9907482266426086,-1.7780838012695312,0.5734196901321411,0.7964934706687927,-0.19180211424827576,-0.4688665270805359,0.8507691025733948,0.18119724094867706,0.6591153900424711,-0.6338290143198556,0.048577011041315045,0.4018307559986753,-0.9214735162694307,1.24800677230607,1.781421472954914
1784114891705048832,2.097116708755493,5.00360107421875,-0.8257246613502502,-1.3269394636154175,0.5587309002876282,0.7946394085884094,-0.23741939663887024,-0.44892871379852295,1.0405045747756958,0.13950373232364655,0.6785212978269255,-0.6153893212106725,0.05085555506922144,0.3978926447412029,-0.9184133907513817,1.1689882152358197,1.6930697733054003
1784114891714968832,2.107036828994751,5.314692974090576,-0.42094898223876953,-1.8312934637069702,0.5431761145591736,0.7915447354316711,-0.28002992272377014,-0.4626554846763611,0.8043262362480164,0.23878544569015503,0.6973506198405778,-0.5976000745514589,0.0534713773379752,0.3920678197960556,-0.9133326513019301,1.0947928196734462,1.6062900254393755
1784114891724888832,2.1169567108154297,4.680607318878174,-1.581839680671692,-1.9159705638885498,0.5233305096626282,0.7876648902893066,-0.32512959837913513,-0.22180157899856567,-0.09462594985961914,0.07689964771270752,0.7162814417665567,-0.5784645673325655,0.053046590114382494,0.38665972845369,-0.9070096669828542,1.014883647046622,1.519246483781704
1784114891734808832,2.1268768310546875,4.201968669891357,-0.6284133195877075,-1.1846449375152588,0.5078743100166321,0.7803220748901367,-0.36491265892982483,0.17640608549118042,-0.10733318328857422,0.24282711744308472,0.7322654590349861,-0.5609320113536761,0.05384183843444286,0.38241823588318014,-0.8951806554494113,0.9477553820747364,1.4453864656449638
1784114891744728832,2.136796712875366,4.404411315917969,-0.5575283765792847,-0.48115015029907227,0.4962860941886902,0.7701484560966492,-0.40071386098861694,-0.3256775736808777,0.11303025484085083,0.29503148794174194,0.7458666404067109,-0.5445661786617516,0.05559443260053002,0.3795259943567126,-0.8790738136118016,0.8915442383906808,1.3834315064553004
1784114891754648832,2.146716833114624,4.078957557678223,0.023594951257109642,-1.7566481828689575,0.48679590225219727,0.7587310075759888,-0.4328475594520569,-0.18760156631469727,0.25593262910842896,0.2846847474575043,0.7593178039389159,-0.5291347100718368,0.05993893070225763,0.37397895882734206,-0.861362820915674,0.8439932284087543,1.3221389577330003
1784114891764568832,2.1566367149353027,4.494138240814209,-0.44143182039260864,-0.9357640743255615,0.4731132388114929,0.7468097805976868,-0.4673748016357422,-0.3807212710380554,0.5581371188163757,0.1691112518310547,0.7735039655547503,-0.5123006119930387,0.06213441141771412,0.36793904759072443,-0.8432519846267654,0.7914996327322111,1.2584865461300765
1784114891774488832,2.1665568351745605,3.9193196296691895,0.4908093214035034,-0.8199445009231567,0.46681755781173706,0.7313804030418396,-0.4971560835838318,0.11149051785469055,0.2668648362159729,0.3794955611228943,0.7857855615350559,-0.49677150914398305,0.06811771843613337,0.36210382016531517,-0.8203438765988678,0.753936187569271,1.2045887038721321
1784114891784408832,2.1764767169952393,4.535534858703613,-0.5201367139816284,-0.8512434363365173,0.45579004287719727,0.716019332408905,-0.5287454128265381,0.21085116267204285,0.1132194995880127,0.05203038454055786,0.7979336567200245,-0.4802610790616236,0.07054487981491524,0.35731582458813355,-0.7980832397068649,0.7114320090618358,1.1528352160490896
1784114891794328832,2.186396837234497,3.180326223373413,0.03520294651389122,-0.7902969717979431,0.4478209316730499,0.6982964873313904,-0.5584250092506409,1.08652663230896,-0.17792600393295288,0.10913002490997314,0.8090321370392616,-0.4639746970523509,0.07426282599031866,0.3530999579714953,-0.7730148713320938,0.6759200822009693,1.1071855608306265
1784114891804248832,2.196316719055176,2.277540922164917,-0.5760137438774109,-0.2599014341831207,0.441928505897522,0.685673713684082,-0.5784037709236145,1.094021201133728,-0.32704639434814453,0.18396401405334473,0.8161471310323584,-0.4527786433086625,0.07608961085051247,0.350864458858465,-0.755528825234531,0.6524316781313513,1.078929534064965
1784114891814168832,2.2062368392944336,1.012010931968689,-0.512424111366272,-0.3252900242805481,0.43475401401519775,0.6785653233528137,-0.5920625925064087,0.8118280172348022,-0.3209450840950012,-0.1344999074935913,0.8206274459080521,-0.4453822925933655,0.0748553078668493,0.35014569831662556,-0.7458077253398092,0.633379864163987,1.0616081995282292
1784114891824088832,2.2161567211151123,1.96834397315979,-1.3811458349227905,-1.3142746686935425,0.4215960204601288,0.674540638923645,-0.6060129404067993,0.7814373970031738,-0.014491260051727295,-0.20136010646820068,0.8259154841753737,-0.43815789386312987,0.07078983932434726,0.3476636754937208,-0.7403423226868506,0.6078262518292221,1.0390818346562558
1784114891834008832,2.22607684135437,2.822995662689209,-1.7650262117385864,-0.48702847957611084,0.4026908278465271,0.665304958820343,-0.6286567449569702,0.8989754319190979,0.2455683946609497,-0.4745689034461975,0.8335658455080477,-0.4259821265812238,0.06489102228024808,0.3456822725773493,-0.727902212062123,0.5697086072838755,1.0083955183048503
1784114891843930112,2.2359979152679443,3.108140230178833,-1.4956772327423096,-0.7632065415382385,0.3839767575263977,0.6512882709503174,-0.654511570930481,0.8550369143486023,0.4377162456512451,-0.34429824352264404,0.8417364808699587,-0.4113140624811644,0.059707224603889095,0.34458006855003337,-0.709280899164811,0.5305540539922391,0.9776417416246351
1784114891853849856,2.245917797088623,2.949491262435913,-1.5592091083526611,-0.9578198194503784,0.3645128309726715,0.6355499029159546,-0.6805928945541382,0.162327378988266,0.2967468500137329,-0.18265783786773682,0.8501573435713659,-0.3958612076688254,0.05474911393207211,0.3428248393478848,-0.6887205789081491,0.4917058556956355,0.9461156914454886
1784114891863770112,2.255837917327881,3.13938570022583,-1.2079317569732666,-1.1456048488616943,0.34612134099006653,0.6198210120201111,-0.7042882442474365,-0.07176831364631653,0.17009598016738892,-0.08222603797912598,0.8583406509106767,-0.38115305395773524,0.050776290176137405,0.3396990317700252,-0.6685145922973842,0.4567829871506424,0.9147992940125134
1784114891873689856,2.2657577991485596,3.2056853771209717,-0.8745715618133545,-0.966352641582489,0.3302714228630066,0.6015461087226868,-0.7273671627044678,-0.06930035352706909,0.20445358753204346,-0.07593178749084473,0.8665514843979406,-0.36597951177453475,0.0487381292114856,0.3358155559441338,-0.6454351808131513,0.4262286009140386,0.8839027155811412
1784114891883610112,2.2756779193878174,3.9172611236572266,-0.9947076439857483,-0.6052042841911316,0.31770533323287964,0.579001784324646,-0.7508795857429504,0.12113744020462036,0.288063645362854,0.08873975276947021,0.8743277411177208,-0.34958530311558567,0.04847998379607765,0.3331526722555286,-0.6175038435059699,0.40026947071909585,0.857327421738034
1784114891893529856,2.285597801208496,3.5347535610198975,-0.6755685210227966,-0.8422771096229553,0.3066839575767517,0.5529899597167969,-0.7746915817260742,0.1224541962146759,-0.039318084716796875,0.06192302703857422,0.88217692521817,-0.3319664457013508,0.04952253708387985,0.3303175594991539,-0.5859485477418174,0.37694856916294633,0.831497201712542
1784114891903450112,2.295517921447754,3.687201738357544,-0.7243215441703796,-0.7214781641960144,0.2955709397792816,0.5282624959945679,-0.7959752678871155,-0.07755336165428162,-0.12391984462738037,0.13658195734024048,0.8893994978590734,-0.3154277085309014,0.05017706449981846,0.32704168929652394,-0.5565529383653754,0.35555085592551944,0.8073004019340109
1784114891913369856,2.3054378032684326,3.1941728591918945,-0.3570721745491028,-0.5704758763313293,0.2870713770389557,0.5026983618736267,-0.8154044151306152,0.2378309667110443,-0.1537756323814392,0.055791378021240234,0.8959737025321741,-0.29932545148694395,0.051981338114032244,0.32393427784259454,-0.5267174225446398,0.3385089252451714,0.7859299672509937
1784114891923290112,2.3153579235076904,2.7593910694122314,-0.3827400505542755,-0.405721515417099,0.2796238362789154,0.4803789258003235,-0.8312921524047852,0.2255336344242096,-0.2978533208370209,0.19533634185791016,0.9012241665253724,-0.285515579397502,0.05324275778837242,0.3216225861722281,-0.5010867101813788,0.32448333590593764,0.7692986752138415
1784114891933209856,2.325277805328369,2.25413179397583,-0.3945807218551636,-0.20935066044330597,0.27359992265701294,0.4609408676624298,-0.8442017436027527,0.25897759199142456,-0.6124911308288574,0.18203133344650269,0.9055082856356468,-0.27374077554191417,0.054452823284294176,0.31961797605721953,-0.4790551342386831,0.31341136324509916,0.7557724667235952
1784114891943130112,2.335197925567627,1.2985050678253174,-0.3860914707183838,0.16381148993968964,0.26623696088790894,0.44750699400901794,-0.853730320930481,0.42628318071365356,-0.6126680970191956,0.25645554065704346,0.9081841439763366,-0.2651280009019833,0.05331037121061837,0.3194790462921524,-0.46397567209747864,0.30229382309558245,0.7484476517195674
1784114891953049856,2.3451178073883057,0.5717970728874207,-0.4956222176551819,-0.2108558565378189,0.25671324133872986,0.44202399253845215,-0.8594842553138733,0.38847413659095764,-0.46994757652282715,0.22122430801391602,0.9100639263983568,-0.2603232040299283,0.0498970391116269,0.3186313116897564,-0.4578538203122299,0.2902480043061869,0.7416467031971908
1784114891962969856,2.3550376892089844,0.2842199206352234,-0.3867993652820587,0.30023378133773804,0.25074097514152527,0.43913331627845764,-0.8627229928970337,0.33553221821784973,-0.30502381920814514,0.1663576364517212,0.9107386992173291,-0.2576782259524899,0.047333313991133545,0.3192439132865966,-0.4546337763009915,0.28284678046501716,0.7401417314965446
1784114891972889856,2.364957809448242,0.2924019396305084,-0.4829983413219452,0.13888244330883026,0.24729616940021515,0.4364376962184906,-0.8650819063186646,0.33259886503219604,-0.0616208016872406,0.10969555377960205,0.9108599620248823,-0.255673367805068,0.04571839287292818,0.32074139701094423,-0.4516355809420635,0.2784384928203559,0.7415043982497257
1784114891982809856,2.374877691268921,0.3335862457752228,-0.3234438896179199,0.16487935185432434,0.2430819571018219,0.43380966782569885,-0.8675945401191711,0.2112790048122406,-0.02719348669052124,0.04006463289260864,0.9112540441810201,-0.2535245081612503,0.04390950296475496,0.3215794269455011,-0.4487167539637457,0.27317487499774,0.741216431749968
1784114891992730880,2.384798765182495,0.25589677691459656,-0.4197949469089508,0.24832791090011597,0.23967456817626953,0.43087300658226013,-0.8700026273727417,0.25202465057373047,-0.11941060423851013,0.0089033842086792,0.9114257223457061,-0.25139778738270374,0.04240096839798255,0.3229620749063933,-0.445459972085024,0.2688190818310102,0.7423208864629189
1784114892002650880,2.394718885421753,0.3438539206981659,-0.39010775089263916,0.15495142340660095,0.23625479638576508,0.42823219299316406,-0.8722389936447144,0.17681586742401123,-0.05732154846191406,-0.01852327585220337,0.9116108365770382,-0.24941657393566166,0.04088847245825418,0.3241685933368461,-0.4425356048202824,0.26451336611301257,0.7431435883854639
1784114892012570880,2.4046387672424316,0.3492644131183624,-0.2567627429962158,0.28095167875289917,0.23378479480743408,0.42456525564193726,-0.8746936917304993,0.16067014634609222,-0.06294721364974976,-0.015122592449188232,0.9117446459870736,-0.24709876839692235,0.039941918741965746,0.3256817821562754,-0.4384816530329874,0.2611713629180387,0.744673315513237
1784114892022490880,2.4145588874816895,0.43538698554039,-0.24432995915412903,0.13560965657234192,0.23091727495193481,0.4213331937789917,-0.8770151734352112,0.0387360155582428,0.03469094634056091,0.05282694101333618,0.9120872990818191,-0.24490365679714637,0.03891819671809102,0.3265032768874572,-0.43491486362192944,0.2574557491569061,0.7447071458658132
1784114892032410880,2.424478769302368,0.6289250254631042,-0.38745009899139404,-0.044279687106609344,0.2279757410287857,0.4159666895866394,-0.8803401589393616,0.0850277990102768,-0.015484511852264404,-0.07151836156845093,0.912829332151423,-0.24157808944615525,0.03833996654245448,0.3269751126339927,-0.429005579564802,0.25339670217234855,0.7434083300352782
1784114892042330880,2.434398889541626,0.5221646428108215,-0.25103262066841125,0.019726555794477463,0.22431105375289917,0.41142603754997253,-0.8834099769592285,0.07816392183303833,0.07983067631721497,-0.022550106048583984,0.9135889303544801,-0.23854019063101545,0.037330781185603144,0.32720077450585777,-0.4240180999849017,0.2486599633311697,0.7416186660462197
1784114892052250880,2.4443187713623047,1.0650068521499634,-0.2809082269668579,-0.14968430995941162,0.22109374403953552,0.40464264154434204,-0.8873454332351685,0.07515564560890198,0.18951934576034546,-0.06841933727264404,0.9147082304576687,-0.23442734728206185,0.037028566586661066,0.32708018479341217,-0.41658800118308664,0.24419085528251386,0.7386792514525417
1784114892062170880,2.4542388916015625,1.3846080303192139,-0.4543554186820984,-0.14812998473644257,0.21638506650924683,0.39434757828712463,-0.8931223154067993,0.08753949403762817,0.33001765608787537,-0.11140948534011841,0.9165272717903781,-0.22822563554486985,0.03676816343806821,0.3264028886394334,-0.4053577768267312,0.23769903776750123,0.7333194861765124
1784114892072090880,2.464158773422241,1.2732179164886475,-0.379101425409317,-0.11979901790618896,0.21008235216140747,0.3838319182395935,-0.8991876840591431,0.17431706190109253,0.2868834137916565,-0.018262267112731934,0.9183699648289227,-0.2216521220382994,0.0357281394967718,0.32586885939949833,-0.3939425237728344,0.22951867619386376,0.7279460144727925
1784114892082010880,2.474078893661499,1.4521849155426025,-0.29462411999702454,-0.11843360960483551,0.2040785700082779,0.37253338098526,-0.9053015112876892,0.1292191594839096,0.05066916346549988,-0.02572876214981079,0.9202304729474347,-0.21477197667754647,0.03496057586502619,0.3253101116569811,-0.38173740749396823,0.22171994894396052,0.7226062642228057
1784114892091930880,2.4839987754821777,0.9369641542434692,-0.2733406722545624,-0.08100900799036026,0.19847725331783295,0.362528920173645,-0.9105929732322693,0.10352468490600586,-0.04062950611114502,0.006860673427581787,0.9218506596816072,-0.20865811094761458,0.034136482507142726,0.3247891468923805,-0.37097997576909275,0.21460827543769118,0.7179059919392135
1784114892101850880,2.4939188957214355,0.7044664025306702,-0.29690784215927124,-0.05263442546129227,0.1939038187265396,0.35641780495643616,-0.913984477519989,0.2441302388906479,-0.05061641335487366,0.1509992480278015,0.9228281252055037,-0.20473422984618384,0.03304011284349691,0.3246236087229822,-0.3644310956395569,0.20905259523103015,0.7151582444341346
1784114892111770880,2.5038387775421143,0.46497097611427307,-0.26548972725868225,-0.054791852831840515,0.18966400623321533,0.3523326516151428,-0.9164547324180603,0.18289458751678467,-0.011512339115142822,0.0940517783164978,0.9235962179531579,-0.20189832820924852,0.03177578998307778,0.3243414972049924,-0.36006241874532185,0.20407310999224648,0.7127045798940896
1784114892121690880,2.513758897781372,0.6438948512077332,-0.3346121609210968,-0.0858980044722557,0.1858426034450531,0.34789514541625977,-0.9189295172691345,0.1946810632944107,0.12733983993530273,0.023482799530029297,0.9242950478404147,-0.19897486779867882,0.03072832014868667,0.3242583868993624,-0.3553250606621436,0.19954669432640798,0.7107501702876422
1784114892131610880,2.523678779602051,0.9154384732246399,-0.31660521030426025,-0.08267584443092346,0.18211638927459717,0.3418899476528168,-0.9219245314598083,0.18253813683986664,0.17988431453704834,-0.055736541748046875,0.9252088975674012,-0.19528250662931693,0.03004110475465924,0.3239609212371482,-0.3489272916433243,0.19502845552137468,0.7080957577330337
1784114892141531904,2.533599853515625,0.9920815825462341,-0.19595904648303986,-0.034230686724185944,0.17793592810630798,0.3338964581489563,-0.9256629943847656,0.16733995079994202,0.0978509783744812,-0.09844589233398438,0.9263506187837706,-0.1905225576643662,0.02948996456694128,0.32358327757602967,-0.34043425815910083,0.1899089103412566,0.7048566938302588
1784114892151451904,2.5435197353363037,1.174996256828308,-0.28502821922302246,0.0023654100950807333,0.1751275658607483,0.3248688876628876,-0.9294033050537109,0.2243475317955017,0.08276966214179993,-0.05617713928222656,0.9273544585245516,-0.18551821546396985,0.029687146543382337,0.32359772917268437,-0.3308731081748813,0.18624630955286306,0.702657091574193
1784114892161371904,2.5534398555755615,1.1186580657958984,-0.23401117324829102,-0.033543623983860016,0.1723288595676422,0.314416766166687,-0.9335120916366577,0.1981545239686966,0.0214444100856781,-0.11087566614151001,0.9284833478227277,-0.17982049238634967,0.030141869657905662,0.3235348964532603,-0.31984220510635025,0.1825475862487749,0.7001205839427476
1784114892171291904,2.5633597373962402,1.139738917350769,-0.24031540751457214,-0.028968576341867447,0.16986259818077087,0.30418694019317627,-0.9373457431793213,0.16190925240516663,-0.0011931657791137695,-0.02723860740661621,0.9295771653434123,-0.1743061723577014,0.03073257565727354,0.3233562877688669,-0.3090847988697056,0.17927109441251382,0.6975228096391634
1784114892181211904,2.573279857635498,1.076344609260559,-0.2740876078605652,-0.01760546863079071,0.1673148274421692,0.29424503445625305,-0.9409705400466919,0.19350974261760712,-0.008005410432815552,-0.012001872062683105,0.9305653003242559,-0.1689411753354136,0.031202482767680045,0.3233164897643665,-0.2986654888828263,0.1759717403343114,0.6953288884244287
1784114892191131904,2.5831997394561768,1.0477325916290283,-0.26032331585884094,-0.0107430350035429,0.16447171568870544,0.28477227687835693,-0.9443801045417786,0.13467684388160706,0.019671082496643066,-0.030015647411346436,0.9314540021455934,-0.16377528062832938,0.03142610542855395,0.3233936444551803,-0.2887688592991076,0.17242894091300986,0.6934741159219701
1784114892201051904,2.5931198596954346,1.1431950330734253,-0.2896318733692169,-0.04428168758749962,0.16159597039222717,0.27437907457351685,-0.9479466676712036,0.13932259380817413,0.06282490491867065,-0.03848826885223389,0.9324290941936415,-0.1581612112926253,0.03180722027087307,0.32334102351565086,-0.2779439332069659,0.1688464109348827,0.6912661746936032
1784114892210971904,2.6030397415161133,1.2524222135543823,-0.2518291175365448,-0.13384458422660828,0.15876084566116333,0.26329028606414795,-0.9515635967254639,0.12627333402633667,0.09571850299835205,0.021128416061401367,0.9335557164872705,-0.15221529715948787,0.03238393836405583,0.3228861477789646,-0.26643123271115754,0.16531934350182004,0.6881802964483269
1784114892220891904,2.612959861755371,0.9627397656440735,-0.24255603551864624,-0.13238424062728882,0.15584684908390045,0.25274649262428284,-0.9548984169960022,0.13735078275203705,-0.015441805124282837,0.007907450199127197,0.934655595190012,-0.14653352635087902,0.03284392092619658,0.322285755623743,-0.25551787645838697,0.16178139475665249,0.684928093528113
1784114892230811904,2.62287974357605,0.7757986187934875,-0.18158775568008423,0.033097654581069946,0.15333208441734314,0.24478767812252045,-0.957375705242157,0.15770305693149567,-0.10175180435180664,0.06624722480773926,0.9353992442656184,-0.1422081571002587,0.032999747178671726,0.3220497742551658,-0.24730070751868988,0.1588100349729306,0.6829386177678933
1784114892240731904,2.6327998638153076,0.6986692547798157,-0.2837107479572296,-0.07899159938097,0.15072667598724365,0.23776595294475555,-0.9595565795898438,0.20951807498931885,-0.09090010821819305,0.00325775146484375,0.9360156822496012,-0.1383371039594479,0.03293263436693788,0.3219517622824405,-0.24006520101530346,0.15580637691294355,0.6813971179888921
1784114892250651904,2.6427197456359863,0.7979883551597595,-0.3098699152469635,0.026596613228321075,0.14727462828159332,0.23069866001605988,-0.9618151187896729,0.15523086488246918,-0.0066080838441848755,-0.02712225914001465,0.9366603907996686,-0.13430610983821423,0.03247015005921138,0.32183055989850984,-0.23279564379117898,0.15194140802385173,0.6797122471891632
1784114892260571904,2.652639865875244,0.823539137840271,-0.26829442381858826,-0.02507689967751503,0.14442062377929688,0.22282575070858002,-0.9641013145446777,0.10541152954101562,-0.007158026099205017,-0.056162357330322266,0.9372566787203802,-0.12999821047039642,0.032400659602296045,0.32187043537111676,-0.2247121446005274,0.14869256947775664,0.6784052914641554
1784114892270491904,2.662559747695923,0.8150414824485779,-0.24896520376205444,0.1092553362250328,0.14172451198101044,0.21494396030902863,-0.9662883877754211,0.10626132786273956,-0.025750234723091125,-0.0033008456230163574,0.9377765944717367,-0.12572543400061975,0.03238703030966943,0.32205462166693677,-0.21663444119233116,0.1456306243617687,0.6774722512740622
1784114892280411904,2.6724798679351807,0.9400814175605774,-0.24921661615371704,-0.017774246633052826,0.139339417219162,0.20660927891731262,-0.9684509038925171,0.214572936296463,-0.06448893249034882,-0.01491701602935791,0.9382747516748687,-0.1212948305939924,0.03259016775961751,0.3222823233007781,-0.2081081950014813,0.14289800439727432,0.6766644190572755
1784114892290331904,2.6823997497558594,0.7686045169830322,-0.16854998469352722,0.020198170095682144,0.13767893612384796,0.19838012754917145,-0.9704070687294006,0.18582265079021454,-0.07778990268707275,-0.013723790645599365,0.9387750693603589,-0.11703882843606601,0.033141944326412355,0.32234293507770984,-0.1997049212701951,0.1409368884844594,0.6756473510309757
1784114892300252928,2.6923208236694336,0.633331835269928,-0.1725694239139557,0.0758064016699791,0.13607291877269745,0.19177940487861633,-0.9719592928886414,0.23848457634449005,-0.030280381441116333,0.022465884685516357,0.9391491804373593,-0.11358608269256541,0.03344501127791699,0.3224568098245068,-0.19297489010990493,0.1390945533447812,0.6749606819928162
1784114892310172672,2.7022407054901123,0.8450925350189209,-0.275387167930603,0.15191474556922913,0.13426938652992249,0.18440209329128265,-0.973636269569397,0.23584780097007751,-0.017470940947532654,-0.05219686031341553,0.939389641753312,-0.10974765834929674,0.03372409700501011,0.32305590782938687,-0.18546348440006452,0.1370407097606756,0.6752243895499039
1784114892320092928,2.71216082572937,0.7324473261833191,-0.34993070363998413,-0.029312890022993088,0.13139168918132782,0.17719967663288116,-0.9753648042678833,0.15692313015460968,0.0021368712186813354,-0.0792464017868042,0.9397631323856207,-0.10580609018171173,0.03350625975122092,0.32330741800488927,-0.1781403711614728,0.13390419987117264,0.6746705660991842
1784114892330012672,2.722080707550049,0.6229474544525146,-0.32105323672294617,0.06526049226522446,0.1282016634941101,0.17035381495952606,-0.9770076274871826,0.0961482971906662,-0.07686321437358856,-0.07471966743469238,0.9401302056029298,-0.10198713730733637,0.03308787889125245,0.3235106052821237,-0.1711887237475478,0.1304732614633497,0.6740515409104563
1784114892339932928,2.7320008277893066,0.7146428823471069,-0.3544495105743408,-0.039048973470926285,0.12471093237400055,0.16395577788352966,-0.9785528779029846,0.07702552527189255,-0.017883405089378357,-0.10889524221420288,0.9404635695539828,-0.09833844121287222,0.03245188503562658,0.32373555898945994,-0.16469937809755372,0.1267609096760567,0.6735264926466562
1784114892349852928,2.7419207096099854,0.8205496072769165,-0.37057575583457947,0.00472140870988369,0.1209365576505661,0.15624579787254333,-0.9802864789962769,0.0655563622713089,-0.03811223804950714,-0.14817726612091064,0.9409123946088238,-0.09401127142927315,0.03191606839570598,0.32377025887075234,-0.15688861230258963,0.12274835580544811,0.6724833002368502
1784114892359772928,2.751840829849243,0.7716571688652039,-0.40017572045326233,0.022185087203979492,0.11705507338047028,0.1487056016921997,-0.9819291234016418,0.031031467020511627,-0.03824722766876221,-0.10387104749679565,0.9413480840534784,-0.08975240329176053,0.0313042512414383,0.32377229231917287,-0.14925919743836874,0.118649373607699,0.6714232308395663
1784114892369692928,2.761760711669922,0.7095293402671814,-0.3050324320793152,0.10815006494522095,0.1134171113371849,0.14141730964183807,-0.9834315776824951,0.070985347032547,-0.09370307624340057,-0.09046673774719238,0.9416296773175532,-0.08567107808030279,0.030735468864910333,0.32411320149189354,-0.14189297414745963,0.11482064831946319,0.6711737947763324
1784114892379612928,2.7716808319091797,0.6837725639343262,-0.4198881685733795,0.056445322930812836,0.11001692712306976,0.13465726375579834,-0.9847658276557922,0.15252579748630524,-0.01808011531829834,-0.06509989500045776,0.9418212864609433,-0.08189023603168749,0.03018417602334531,0.32458526384160935,-0.13506756143817406,0.11125753153154205,0.6713088108602705
1784114892389532928,2.7816007137298584,0.7425762414932251,-0.4505068063735962,0.0021091143134981394,0.10572875291109085,0.12773406505584717,-0.9861568808555603,0.19413696229457855,0.04685698449611664,-0.09665250778198242,0.9421311853449434,-0.07787825297697337,0.029266475722705854,0.32475711337027324,-0.12808399595124878,0.10680493092860116,0.6707551965962247
1784114892399452928,2.791520833969116,0.7559120059013367,-0.5420191287994385,0.15722359716892242,0.1007622629404068,0.12045874446630478,-0.9875913262367249,0.2310095727443695,-0.014852672815322876,-0.12102067470550537,0.9423773061686039,-0.07359669307507682,0.028068781925160328,0.32514704000409256,-0.12075197838580681,0.10167645883531926,0.6706295758816214
1784114892409372928,2.801440715789795,0.8766219019889832,-0.48561790585517883,0.02673962526023388,0.0963190570473671,0.11225437372922897,-0.9890003204345703,0.159830242395401,-0.06644749641418457,-0.1457347869873047,0.94252918142113,-0.0689707166794024,0.027256018764334762,0.3257894952500265,-0.11249147777078723,0.097084149288356,0.6710672737191348
1784114892419292928,2.8113608360290527,0.7402861714363098,-0.5102883577346802,0.12024001777172089,0.09112200140953064,0.1042618677020073,-0.9903666973114014,0.09663739055395126,-0.1292710304260254,-0.10300177335739136,0.9427658677224606,-0.06431691821893182,0.026076301853566537,0.326152937805066,-0.10445169264465083,0.09175001792662789,0.6709297126226151
1784114892429212928,2.8212807178497314,0.667453944683075,-0.45479974150657654,0.13382592797279358,0.08649082481861115,0.09709204733371735,-0.9915102124214172,0.13721828162670135,-0.19064366817474365,-0.10077494382858276,0.9428481710259626,-0.060159113515364855,0.025015636869318174,0.3267911115612237,-0.09724524110793438,0.0870111469913094,0.6715219171017479
1784114892439132928,2.8312008380889893,0.4988832175731659,-0.4746032655239105,0.15398631989955902,0.0819794163107872,0.09148597717285156,-0.9924261569976807,0.1388457715511322,-0.17608070373535156,-0.09674614667892456,0.9428721853739913,-0.05676568701910216,0.023760778600711116,0.3274219466981566,-0.09161407514946592,0.08241793279611542,0.6722439050547353
1784114892449053952,2.8411219120025635,0.4661928713321686,-0.5768973231315613,0.2119494527578354,0.07671941071748734,0.08647465705871582,-0.9932956695556641,0.19055354595184326,-0.19081425666809082,-0.10278892517089844,0.94273096401784,-0.05354145623447541,0.022033680102914878,0.328490744410936,-0.08658279595276112,0.07708419422056931,0.6739201366663503
1784114892458973952,2.851041793823242,0.5176307559013367,-0.555290937423706,0.19809569418430328,0.07099641859531403,0.08155329525470734,-0.9941371083259583,0.14230619370937347,-0.13112910091876984,-0.11580246686935425,0.9426002298776358,-0.05028029945780382,0.02008339159072257,0.32950482166551914,-0.08164396757538053,0.07129408276737466,0.6754967615765008
1784114892468893952,2.8609619140625,0.5513703227043152,-0.5629656314849854,0.18155986070632935,0.06560037285089493,0.07634041458368301,-0.9949214458465576,0.10126973688602448,-0.10156320035457611,-0.10491675138473511,0.9425020410516224,-0.046931178502593256,0.01835018036161502,0.33037957905144555,-0.07641475865779028,0.06583992320663733,0.676819724069593
1784114892478813952,2.8708817958831787,0.4912993907928467,-0.6303839087486267,0.19415266811847687,0.06022310256958008,0.0710131973028183,-0.9956557154655457,0.16507291793823242,-0.1224658340215683,-0.13190776109695435,0.9423188435617804,-0.04353375068801517,0.016641950116295674,0.3314561068996578,-0.07107301616394876,0.06041226737430389,0.6786058466932867
1784114892488733952,2.8808019161224365,0.3258529007434845,-0.6528817415237427,0.3411157429218292,0.053951557725667953,0.06703106313943863,-0.9962911605834961,0.14500778913497925,-0.16859355568885803,-0.1414194107055664,0.9420192840222779,-0.04062472176835592,0.014284751617539662,0.33278422634938865,-0.06708136128199262,0.05409955829788191,0.680980164049392
1784114892498653952,2.8907217979431152,0.09998614341020584,-0.6268609166145325,0.28399088978767395,0.04807066544890404,0.06480211019515991,-0.9967396259307861,0.15955567359924316,-0.1888408213853836,-0.1428171992301941,0.941583942471969,-0.038607450141719506,0.01181727043343118,0.3343494810833418,-0.06484755374202385,0.048190567146644894,0.6839722693790422
1784114892508573952,2.900641918182373,0.07103811204433441,-0.6953850984573364,0.3706570863723755,0.04169446974992752,0.06383073329925537,-0.9970893859863281,0.15757006406784058,-0.18504655361175537,-0.13700485229492188,0.941101642434297,-0.037093525641126855,0.008909883144775426,0.3359650655845117,-0.06387416145527695,0.041791832736964823,0.6871144274271059
1784114892518493952,2.9105618000030518,-0.025107327848672867,-0.6985412836074829,0.35406026244163513,0.03510732203722,0.0633074939250946,-0.9973763823509216,0.1683228611946106,-0.1552264392375946,-0.15690523386001587,0.9405252681802204,-0.035747452471429506,0.005825063389162713,0.3377874858469816,-0.0633498617724834,0.03518514662572106,0.6907166802956017
1784114892528413952,2.9204819202423096,-0.07841981202363968,-0.6897203326225281,0.3583375811576843,0.028025230392813683,0.06391400843858719,-0.9975618124008179,0.15240994095802307,-0.09215802699327469,-0.14162886142730713,0.9399586108531859,-0.03483798230832093,0.002324778389976428,0.3394978521470017,-0.06395760334913529,0.028086341246277256,0.6941049665812871
1784114892538333952,2.9304018020629883,-0.015125799924135208,-0.7225416898727417,0.39312031865119934,0.0211957897990942,0.0641632005572319,-0.9977142810821533,0.13795337080955505,-0.0790557786822319,-0.16683650016784668,0.9393067389009476,-0.03379129433607258,-0.0009994133000165084,0.34140894850949716,-0.06420730577266762,0.02124115231205395,0.6979287067826864
1784114892548253952,2.940321922302246,0.1940937340259552,-0.8311040997505188,0.3575652539730072,0.01374061405658722,0.0634312778711319,-0.9978916049003601,0.13101951777935028,-0.0040745809674263,-0.1578548550605774,0.9386568890571588,-0.03216272275568919,-0.004444463901104474,0.343320854658483,-0.063473890302795,0.01376877520929897,0.7017236200214657
1784114892558173952,2.950241804122925,0.27887868881225586,-0.8047613501548767,0.34791675209999084,0.005823854822665453,0.06090107560157776,-0.9981268048286438,0.18181347846984863,-0.02440205216407776,-0.1687280535697937,0.9380487318378162,-0.02959685465415869,-0.007785746912210635,0.34514942741649857,-0.06093878551589385,0.005834718247375738,0.7053185424307828
1784114892568093952,2.9601619243621826,0.32576441764831543,-0.7823495268821716,0.30138811469078064,-0.0019769330974668264,0.05793408304452896,-0.9983184337615967,0.15879151225090027,-0.05202893540263176,-0.12172240018844604,0.9374874778945776,-0.02683599027643971,-0.01098194048588215,0.3468090817468448,-0.05796654003957024,-0.0019802604022877866,0.7085874801374289
1784114892578014720,2.9700825214385986,0.3539888560771942,-0.8021872043609619,0.398260235786438,-0.009619053453207016,0.05454524978995323,-0.9984649419784546,0.12753897905349731,-0.08133968710899353,-0.10048830509185791,0.9369007575606347,-0.023893979019183928,-0.014021212387376619,0.3484960641462683,-0.05457233205394287,-0.009633543967939992,0.7119548252895405
1784114892587934720,2.9800026416778564,0.22430942952632904,-0.809943675994873,0.40841034054756165,-0.01758795790374279,0.0512666217982769,-0.9985300898551941,0.12455207109451294,-0.1188935786485672,-0.07407116889953613,0.9361491233094708,-0.0209291904232114,-0.017231067818243958,0.35055678171185556,-0.051289105551867935,-0.017612027842815816,0.7161546336481612
1784114892597854720,2.989922523498535,0.06719117611646652,-0.7865094542503357,0.49824368953704834,-0.025313684716820717,0.04979380592703819,-0.9984386563301086,0.07220394909381866,-0.134770005941391,0.009455561637878418,0.9353239523246474,-0.0188374656820813,-0.020635182923353777,0.3526874710635318,-0.04981440631267312,-0.025347839877216484,0.7205460690252448
1784114892607775744,2.9998435974121094,-0.043390195816755295,-0.6768737435340881,0.5198916792869568,-0.032296013087034225,0.04976761341094971,-0.9982385039329529,0.10624010860919952,-0.1516047716140747,0.007042884826660156,0.934368978820717,-0.017532445189062988,-0.02394475009667754,0.35506881327844675,-0.049788180947518655,-0.03234172233627507,0.7255047457611394
1784114892617695488,3.009763479232788,-0.19763688743114471,-0.7448717951774597,0.39839303493499756,-0.03896850720047951,0.05110456794500351,-0.9979327321052551,0.1474127173423767,-0.1469145119190216,0.014793694019317627,0.9334297389869495,-0.016906683611230926,-0.02734570737020635,0.3573168547456659,-0.05112683778953137,-0.03902940154455167,0.7301847216375962
1784114892627615744,3.019683599472046,-0.20485804975032806,-0.7262669801712036,0.47021982073783875,-0.04569659009575844,0.05324791744351387,-0.997535228729248,0.14887651801109314,-0.12456749379634857,0.024894237518310547,0.9325765492490894,-0.01664088267848925,-0.03091083268724067,0.35926114141749865,-0.05327311077829239,-0.045777497860788156,0.7342071412685879
1784114892637535488,3.0296034812927246,-0.16355767846107483,-0.7112151980400085,0.48644569516181946,-0.052660390734672546,0.05526706576347351,-0.9970819354057312,0.20228807628154755,-0.09826634079217911,0.0014154911041259766,0.9315473770701012,-0.01624443426325028,-0.03457077475591347,0.3616081209187898,-0.055295239867052065,-0.052765480835209266,0.7390912955520349
1784114892647455744,3.0395236015319824,-0.270389586687088,-0.6826857924461365,0.48311755061149597,-0.05945710837841034,0.05751687288284302,-0.9965724349021912,0.13845185935497284,-0.09995156526565552,-0.0048465728759765625,0.9305878934883588,-0.015976753316471318,-0.03819050770816897,0.3637203234737256,-0.05754863416412186,-0.05959096335474228,0.7434717533848586
1784114892657375488,3.049443483352661,-0.4880138039588928,-0.6743640899658203,0.5155616402626038,-0.06569360196590424,0.061600372195243835,-0.9959366321563721,0.19173119962215424,-0.12692324817180634,0.04410862922668457,0.9295144230963274,-0.016640403226544954,-0.04189019362108979,0.36602100820704425,-0.061639396278715355,-0.06586621533532366,0.7482284799546863
1784114892667295744,3.059363603591919,-0.8187158107757568,-0.7297006249427795,0.5234882831573486,-0.07230778783559799,0.06830647587776184,-0.9950405955314636,0.1919061690568924,-0.20772603154182434,0.08473175764083862,0.9283778526430411,-0.01843784577727205,-0.046257350978555614,0.36828634068669913,-0.06835970532403313,-0.07254066859178096,0.7528329775375913
1784114892677215488,3.0692834854125977,-1.0737706422805786,-0.7043350338935852,0.5285472273826599,-0.07895209640264511,0.07826066017150879,-0.9938017129898071,0.1429627239704132,-0.2118818759918213,0.08868086338043213,0.9270852064058211,-0.021710902347488684,-0.051261897023003454,0.37069393014661717,-0.07834076948644332,-0.07927800742065247,0.7576436085982163
1784114892687135744,3.0792036056518555,-1.2555052042007446,-0.7103700637817383,0.4046374559402466,-0.08542508631944656,0.0901365727186203,-0.9922590255737305,0.039633460342884064,-0.151461660861969,0.03388500213623047,0.9477682927154907,-0.02946643309568547,-0.054792537345540356,0.31283341387438646,-0.09025907737687973,-0.08587976727238958,0.6337473497211924
1784114892697055488,3.089123487472534,-1.047656774520874,-0.6493422985076904,0.39272600412368774,-0.09163738787174225,0.10202068090438843,-0.990552544593811,0.025643140077590942,-0.07450909167528152,-0.01617652177810669,0.9572797855815989,-0.03613246148280151,-0.05846509166608389,0.2808764360802756,-0.10219849281407374,-0.0922488147315055,0.5660805399489719
1784114892706975744,3.099043607711792,-0.7810012102127075,-0.6380542516708374,0.4361507296562195,-0.0973784327507019,0.1113903596997261,-0.9889942407608032,0.06812734156847,-0.024552591145038605,-0.104175865650177,0.962400965881749,-0.041104431187798614,-0.061751920521668335,0.2613074002155017,-0.11162200368270832,-0.09814572934403952,0.5247611731686499
1784114892716895488,3.1089634895324707,-0.5740845203399658,-0.5725056529045105,0.4512377679347992,-0.1029222309589386,0.11809857189655304,-0.9876536726951599,0.1243913546204567,-0.06949933618307114,-0.09544569253921509,0.9652480665756077,-0.04444515807777558,-0.06479043806885888,0.24924487420740912,-0.11837483793673725,-0.10383405377100663,0.4992388483052271
1784114892726815744,3.1188836097717285,-0.5831285715103149,-0.46112799644470215,0.4286365807056427,-0.10744967311620712,0.12434349209070206,-0.9864042401313782,0.11927523463964462,-0.11221276223659515,-0.040283381938934326,0.9670755262603471,-0.04751277104672391,-0.06738272181297662,0.24076360321884296,-0.12466615874048506,-0.10850285739634044,0.48122145849142717
1784114892736735488,3.1288034915924072,-0.4706810712814331,-0.4617452323436737,0.426991730928421,-0.1113395169377327,0.12986180186271667,-0.985261082649231,0.1417502760887146,-0.16974827647209167,0.004273533821105957,0.9681577874558601,-0.05014148759867927,-0.06967987394095508,0.23516162301382912,-0.1302296061215256,-0.11252771124549674,0.46921750252155414
1784114892746655744,3.138723611831665,-0.585081160068512,-0.43340280652046204,0.3562541902065277,-0.11527165025472641,0.13538245856761932,-0.984065055847168,0.10146244615316391,-0.20033912360668182,0.11692333221435547,0.9689658223923419,-0.05272456136473712,-0.07202493695190147,0.23051643917419865,-0.13579946608752483,-0.1166068417688943,0.4591770929331698
1784114892756575488,3.1486434936523438,-0.520002543926239,-0.3157479465007782,0.35804715752601624,-0.11854207515716553,0.1411493569612503,-0.9828655123710632,0.03620564937591553,-0.1350763589143753,0.24047964811325073,0.969406203920892,-0.05541548569461861,-0.07413745565845058,0.2273421132817267,-0.14162230526798894,-0.12002888034702594,0.4521843670024137
1784114892766496768,3.158564567565918,-0.6530543565750122,-0.14359323680400848,0.2377718687057495,-0.12005100399255753,0.14723320305347443,-0.981789231300354,0.02411898970603943,-0.09311027824878693,0.3279806971549988,0.9698172366459025,-0.058458026143607025,-0.07541903540180189,0.22438630105500115,-0.14777040065400146,-0.12167375269624105,0.4457203947089229
1784114892776416512,3.1684844493865967,-0.7255126237869263,0.03548794239759445,0.19486752152442932,-0.12032393366098404,0.15417836606502533,-0.9806891083717346,0.021111294627189636,-0.06253409385681152,0.4256049394607544,0.9700248718368848,-0.06200595035674729,-0.07622790673157954,0.22225283278760705,-0.15479582064046096,-0.12208308915251086,0.4409867267720234
1784114892786336768,3.1784045696258545,-1.0072729587554932,0.16804678738117218,0.28116166591644287,-0.11880456656217575,0.16273044049739838,-0.9794918298721313,0.04434167593717575,-0.07418371737003326,0.4611203074455261,0.9701173006951066,-0.06651791458271758,-0.0763507860701776,0.22049600633614272,-0.16345735854086246,-0.12070243285780004,0.43708346820736826
1784114892796256512,3.188324451446533,-1.1142982244491577,0.1537930965423584,0.3391267955303192,-0.11677879840135574,0.17374537885189056,-0.9778421521186829,0.11525291204452515,-0.06376004219055176,0.5031870007514954,0.9699331590580764,-0.07224859340180849,-0.07654456083680677,0.21943277103003636,-0.17463163099625018,-0.11886204947396126,0.4345619662975779
1784114892806176768,3.198244571685791,-0.9956057071685791,0.11188798397779465,0.2946788966655731,-0.11492586880922318,0.18433049321174622,-0.9761220812797546,0.12650728225708008,-0.010380297899246216,0.42509669065475464,0.9696565381265347,-0.07772981985435831,-0.07679215622525255,0.21869445664844395,-0.18539064012138334,-0.11719764488319016,0.4327457746891527
1784114892816096512,3.2081644535064697,-0.6536674499511719,0.2711160480976105,0.29400888085365295,-0.11242302507162094,0.19270703196525574,-0.974794864654541,0.08692558854818344,0.13647082448005676,0.3731255531311035,0.9694527761505481,-0.08218736896642559,-0.07647087862919008,0.21807967600190256,-0.19392014696204646,-0.11482263418412139,0.4313557974934202
1784114892826016768,3.2180845737457275,-0.32651811838150024,0.4611067473888397,0.1849159449338913,-0.10850463807582855,0.1974075734615326,-0.9742981791496277,-0.010529175400733948,0.1845961958169937,0.31737685203552246,0.9694820244916329,-0.08499040669863861,-0.07501684585008561,0.21737941438883177,-0.19871275336126798,-0.11090995098987179,0.4300808350127366
1784114892835936512,3.2280044555664062,-0.09849392622709274,0.7663086652755737,0.17506082355976105,-0.10204394906759262,0.19965538382530212,-0.9745382070541382,-0.032462283968925476,0.16850867867469788,0.3212789297103882,0.9698092450501079,-0.08688941667030567,-0.07197994807732568,0.2161925511148072,-0.2010062033949383,-0.10432986269658219,0.428142486091567
1784114892845856768,3.237924575805664,-0.08975476026535034,0.882180392742157,0.013155006803572178,-0.09337275475263596,0.20023922622203827,-0.9752875566482544,0.07941096276044846,0.05142398178577423,0.3147345781326294,0.9703356817050719,-0.08821646459359524,-0.06763198031016392,0.2146917317573702,-0.20160208034691254,-0.09544778273607277,0.425833149862404
1784114892855776512,3.2478444576263428,0.08114654570817947,0.8153401017189026,-0.18236714601516724,-0.08495039492845535,0.200223907828331,-0.9760603308677673,0.16731736063957214,0.06675910949707031,0.3908400535583496,0.9711164435294358,-0.08928243199973598,-0.06323346001575722,0.2120445836118845,-0.20158644419009958,-0.08681519078414619,0.42116878765867877
1784114892865696768,3.2577645778656006,0.306185781955719,0.8778274655342102,-0.18740850687026978,-0.07671064138412476,0.1978818029165268,-0.9772196412086487,0.20674605667591095,0.11492335796356201,0.37010300159454346,0.9719287057900241,-0.08913657931875132,-0.05869276315815283,0.2096766442731654,-0.19919652075344355,-0.07833823103725171,0.4171201764837889
1784114892875616512,3.2676844596862793,0.4739338159561157,0.9594902396202087,-0.18800902366638184,-0.06819356977939606,0.19395199418067932,-0.9786379337310791,0.09831443428993225,0.20434816181659698,0.4397585988044739,0.9728291201291662,-0.08821927113203364,-0.05383660139641623,0.207177282268168,-0.19518904469395015,-0.06956966630351867,0.4128440171149962
1784114892885536768,3.277604579925537,0.37642884254455566,1.1867718696594238,-0.19127939641475677,-0.05792573466897011,0.18946440517902374,-0.9801774621009827,-0.015469036996364594,0.11569611728191376,0.44312912225723267,0.973784760369382,-0.08718920541094291,-0.04805532415280394,0.2045284750317998,-0.19061664122691593,-0.05902853607971952,0.40840596920658456
1784114892895456512,3.287524461746216,0.21746543049812317,1.2900947332382202,-0.14904944598674774,-0.04604747146368027,0.18657951056957245,-0.981360137462616,-0.022372934967279434,0.018346011638641357,0.45934170484542847,0.97458808191324,-0.08707676185805979,-0.04168417380786109,0.20213387494715754,-0.18767936571227584,-0.04688770248008981,0.4045961972759951
1784114892905376768,3.2974445819854736,0.09102334082126617,1.2385891675949097,-0.1411542296409607,-0.03398822620511055,0.18490001559257507,-0.9821694493293762,0.08872149884700775,-0.06495067477226257,0.4003975987434387,0.9753178643663731,-0.08755672600727041,-0.03534269428661966,0.19959915105315026,-0.185970128808734,-0.03459145379691985,0.4004999756436209
1784114892915296512,3.3073644638061523,0.0901939645409584,1.2334368228912354,-0.031381167471408844,-0.02203904464840889,0.18406052887439728,-0.9826678037643433,0.1386467069387436,-0.03749985992908478,0.35208308696746826,0.9758568145762511,-0.08839718731932668,-0.029189682966992203,0.19757900707532755,-0.1851159791737151,-0.022424008358254928,0.3974519758847319
1784114892925217536,3.3172855377197266,0.056860510259866714,1.2658019065856934,0.01616664230823517,-0.009964044205844402,0.1834138184785843,-0.9829853177070618,0.14891058206558228,-0.01567395031452179,0.30219918489456177,0.9762736112214412,-0.08931480831107634,-0.023026439705312044,0.19591469383913443,-0.1844580626356682,-0.010136166871516864,0.39515348766597985
1784114892935137792,3.3272056579589844,0.3104259967803955,1.2842835187911987,0.09355853497982025,0.002737571718171239,0.18149304389953613,-0.9833884239196777,0.14272446930408478,0.01598621904850006,0.24376440048217773,0.9766328524529155,-0.089636952805923,-0.016462302918227912,0.19463414542821125,-0.18250449230537988,0.002783808085463014,0.39368221205858794
1784114892945057536,3.337125539779663,0.2333751618862152,1.1494359970092773,0.1342676281929016,0.014661508612334728,0.1790066659450531,-0.9837386012077332,0.1886923760175705,0.033441439270973206,0.18196558952331543,0.9769305368534489,-0.08958607961280021,-0.01024837884179001,0.1935870890903572,-0.17997671172744784,0.014902762474600227,0.3925932257337066
1784114892954977792,3.347045660018921,0.3783509433269501,1.1616946458816528,0.21541251242160797,0.02643396332859993,0.17580778896808624,-0.9840695261955261,0.19242285192012787,-0.004192188382148743,0.14085358381271362,0.9771649446610323,-0.08915538102215353,-0.004067730064537446,0.192829920734175,-0.17672627492415674,0.026855427741561338,0.3920449662351836
1784114892964897536,3.3569655418395996,0.23536446690559387,1.0928982496261597,0.226804718375206,0.03775571286678314,0.1727590262889862,-0.9842402338981628,0.18282534182071686,-0.0312948077917099,0.10498303174972534,0.9772862380202793,-0.08874963949550776,0.0018410527454611634,0.1924359536985087,-0.17363013591268955,0.038341463971904466,0.392179744441639
1784114892974817792,3.3668856620788574,0.28038182854652405,1.015917181968689,0.16682755947113037,0.04829729348421097,0.17021702229976654,-0.9842222929000854,0.12946759164333344,-0.008870601654052734,0.07121270895004272,0.9773992277248401,-0.0885159153030579,0.007333636996841377,0.19183844132965377,-0.17104990655156446,0.0490321970161881,0.39182598716419914
1784114892984737536,3.376805543899536,0.367620050907135,0.9583176374435425,0.25337281823158264,0.058457911014556885,0.16693511605262756,-0.9842333793640137,0.10359042882919312,0.0057943761348724365,-0.014408588409423828,0.9775086337669006,-0.08787433819666342,0.012704806642755358,0.19129473045207096,-0.16772035033234667,0.05932466635162752,0.3914959512155002
1784114892994657792,3.386725664138794,0.3359607756137848,0.8548593521118164,0.13912609219551086,0.06773985922336578,0.1632271558046341,-0.9842602610588074,0.13421019911766052,0.04999914765357971,-0.04831725358963013,0.9776230304943062,-0.08693195092700662,0.017683893176059673,0.19074401450693332,-0.16396080460373882,0.06871476581515293,0.3910265700795375
1784114893004577536,3.3966455459594727,0.4519536793231964,0.7590377330780029,0.004006882663816214,0.07576028257608414,0.1594935953617096,-0.984287679195404,0.12193257361650467,0.1460483819246292,-0.09492069482803345,0.9778429633893173,-0.08583815954087284,0.022090389700730798,0.18965004092298998,-0.16017765906297093,0.07681819958167158,0.38930650157987073
1784114893014497792,3.4065656661987305,0.521737813949585,0.6538272500038147,0.030674580484628677,0.08282231539487839,0.15456697344779968,-0.9845046997070312,0.09587336331605911,0.13150478899478912,-0.20578765869140625,0.9781850630214155,-0.0840408345234576,0.026168414705234285,0.18816574030269098,-0.1551891508794633,0.083928252702257,0.38661081690678945
1784114893024417536,3.416485548019409,0.4440547525882721,0.4866923391819,-0.003794714342802763,0.08850495517253876,0.14980244636535645,-0.9847466945648193,0.05613309144973755,0.05860207974910736,-0.2185460925102234,0.9785238966224741,-0.08218223679829606,0.029541835358531592,0.18672021845885833,-0.1503684644034217,0.08963502603555047,0.3838595394510042
1784114893034337792,3.426405668258667,0.3247147798538208,0.4446363151073456,-0.02804066613316536,0.09292791783809662,0.14578239619731903,-0.984942615032196,0.02294732630252838,0.01455695927143097,-0.24268800020217896,0.9788685453740743,-0.08056112181913627,0.03222750782239459,0.1851695134694856,-0.14630376769064746,0.0940700932637358,0.3808142693753222
1784114893044257536,3.4363255500793457,0.13523274660110474,0.3184349536895752,-0.009843286126852036,0.09665858745574951,0.14357803761959076,-0.984907329082489,-0.125024676322937,0.0028758198022842407,-0.2653825879096985,0.9791199681236064,-0.07977436989740685,0.03438576662404789,0.18378713322232398,-0.14407596905696535,0.09782651076826274,0.37815979149083406
1784114893054177792,3.4462456703186035,0.23799021542072296,0.13269692659378052,-0.04061974212527275,0.09898248314857483,0.1419418305158615,-0.98491370677948,-0.17269769310951233,0.03370209038257599,-0.32606041431427,0.9793662990806788,-0.07913454838499423,0.03578932096751466,0.18247889552739147,-0.14242283028876107,0.10016232371399303,0.37557295692375164
1784114893064097536,3.4561655521392822,0.43255436420440674,-0.051657192409038544,-0.037211429327726364,0.09912531822919846,0.1384856402873993,-0.9853912591934204,-0.06589167565107346,0.1388733685016632,-0.3970702886581421,0.9797278953918693,-0.07738449598356184,0.036276979925269605,0.18118733096466713,-0.1389321573737963,0.10025761317204154,0.3727220429686346
1784114893074017792,3.46608567237854,0.5608431696891785,-0.16581107676029205,-0.11505426466464996,0.09817712008953094,0.13341198861598969,-0.9861858487129211,-0.05259912461042404,0.21004809439182281,-0.37283819913864136,0.9801719528752949,-0.07472943048043237,0.036367510778074645,0.17987755604715036,-0.13381095080057462,0.09922542064834582,0.3696477322720579
1784114893083937536,3.4760055541992188,0.7651337385177612,-0.16669604182243347,-0.030505022034049034,0.09634769707918167,0.12701745331287384,-0.9872100353240967,-0.14892949163913727,0.15501071512699127,-0.38814085721969604,0.9806830945663993,-0.07133764029460418,0.03613744210126061,0.17850981534449345,-0.1273615010991182,0.0972878348928302,0.36631795896599306
1784114893093858816,3.485926628112793,0.5098317265510559,-0.21140222251415253,-0.09839269518852234,0.09465158730745316,0.12076214700937271,-0.9881587028503418,-0.17476022243499756,0.06719561666250229,-0.3853917121887207,0.9810013592900565,-0.06806511139726076,0.035885918645627665,0.17808913671158672,-0.12105761460904631,0.09549447367427832,0.36495640648592587
1784114893103778560,3.4958465099334717,0.49599844217300415,-0.3221292793750763,-0.06491835415363312,0.09179376810789108,0.11590249091386795,-0.9890098571777344,-0.14613032341003418,0.04124777019023895,-0.33259958028793335,0.9815041384178709,-0.06533952968153237,0.03501160943932004,0.1765063907503785,-0.11616356709227324,0.09254866163283008,0.36124673176888894
