time,seconds_elapsed,rotationRateX,rotationRateY,rotationRateZ,gravityX,gravityY,gravityZ,accelerationX,accelerationY,accelerationZ,quaternionW,quaternionX,quaternionY,quaternionZ,pitch,roll,yaw
1782477278631231744,0.41185569763183594,-0.07523616403341293,0.07179486751556396,-0.019277216866612434,-0.37433645129203796,0.5495157837867737,-0.7469301223754883,0.010154932737350464,-0.0015879273414611816,-0.008334159851074219,-0.4241342134333802,0.3118729342529362,-0.17108539617607899,0.8328115935512723,-0.5817845420626471,-0.4645804770471075,-2.3409138050887552
1782477278641151744,0.42177557945251465,-0.06830022484064102,0.028451688587665558,-0.02604910172522068,-0.3739842474460602,0.5499091148376465,-0.7468171119689941,0.02147570252418518,0.023149967193603516,-0.01055288314819336,-0.4239059714046536,0.3117664426703679,-0.17144427036613016,0.8328939248656616,-0.582255396101028,-0.46426412117751864,-2.34145024231882
1782477278651070720,0.43169474601745605,-0.03244262561202049,0.001608357299119234,-0.026816625148057938,-0.3738463521003723,0.5501896142959595,-0.7466795444488525,0.0047209858894348145,0.029308676719665527,-0.012353658676147461,-0.42373348897826907,0.31174890632034796,-0.17167654699645568,0.8329404864613835,-0.5825912719444696,-0.4641902211889165,-2.341887304308814
1782477278660989696,0.44161367416381836,-0.01958681270480156,-0.004920077510178089,-0.023470528423786163,-0.37383541464805603,0.5503129363059998,-0.7465941309928894,0.0027569234371185303,0.031046926975250244,-0.01709306240081787,-0.42363082671157914,0.31176223126559865,-0.17177676992411461,0.8329669597674244,-0.5827389780659922,-0.46422430578674917,-2.342157341100415
1782477278670908672,0.45153260231018066,0.012165790423750877,0.004225750453770161,-0.014777439646422863,-0.3737676441669464,0.550347089767456,-0.7466028332710266,0.005039036273956299,0.00722426176071167,-0.011774182319641113,-0.4235799201929794,0.31172670667317715,-0.1718285159721341,0.8329954790694758,-0.5827799026735148,-0.4641470645295862,-2.3422682808597033
1782477278680828928,0.4614527225494385,0.05280875787138939,0.02425161749124527,-0.0035003172233700752,-0.37354743480682373,0.5501307249069214,-0.7468724846839905,0.00787055492401123,0.0024358034133911133,-0.0040277838706970215,-0.42360932964928616,0.31154447860935197,-0.1717667044580468,0.83306144193219,-0.5825207808949882,-0.46376670229630274,-2.3420899619619924
1782477278690747648,0.4713716506958008,0.08640427142381668,0.03595008701086044,0.01743585616350174,-0.37308818101882935,0.5496906042098999,-0.74742591381073,0.010081589221954346,0.012260079383850098,-0.0013076066970825195,-0.42374814773152003,0.31118419603751407,-0.17161419152022062,0.8331569994456167,-0.5819937969249495,-0.46297866378205255,-2.3415350889740685
1782477278700666624,0.4812905788421631,0.07568284869194031,0.04287301376461983,0.04414959251880646,-0.37245869636535645,0.5492678284645081,-0.7480503916740417,0.032050371170043945,0.006609857082366943,0.011691749095916748,-0.4239960850372307,0.3107614881865743,-0.17147039209224607,0.8332182079511574,-0.5814877945550386,-0.46197092711661253,-2.340675650458137
1782477278710586880,0.4912106990814209,0.0991162657737732,0.04176140949130058,0.06130434200167656,-0.3716290295124054,0.5489334464073181,-0.748708188533783,0.023576050996780396,0.0033279061317443848,0.02499908208847046,-0.42435647143780175,0.3102843017091014,-0.17137550667442739,0.8332320257061745,-0.5810876894020084,-0.4607316218042975,-2.339510905984274
1782477278720505600,0.5011296272277832,0.104276143014431,0.027489259839057922,0.05949472635984421,-0.3708241879940033,0.5484556555747986,-0.7494569420814514,0.010121673345565796,0.035177767276763916,0.02486288547515869,-0.4247908950084565,0.30978918304404907,-0.1711787934538359,0.8332353188753031,-0.580516243024422,-0.4594713360623742,-2.3381458557977126
1782477278730424832,0.5110487937927246,0.02087046578526497,0.014298890717327595,0.059953853487968445,-0.37015366554260254,0.548366129398346,-0.7498538494110107,9.754300117492676e-05,0.029896140098571777,0.04866677522659302,-0.4251325282611493,0.3094732794033109,-0.17117054963886894,0.8331801925734518,-0.5804091605485656,-0.45854218804184554,-2.337123217010782
1782477278740343808,0.5209677219390869,-0.07431577146053314,0.01690833270549774,0.06348730623722076,-0.3695223927497864,0.549003541469574,-0.74969881772995,-0.018890053033828735,-0.00920867919921875,0.07591646909713745,-0.4253754685176113,0.30939517522682913,-0.17153782511626164,0.833009668394872,-0.5811716105120462,-0.4579470297649511,-2.336500924615766
1782477278750263808,0.5308876037597656,-0.11103171110153198,0.02514096163213253,0.045735206454992294,-0.3689853250980377,0.5501456260681152,-0.7491258978843689,-0.02725490927696228,0.020685672760009766,0.06901121139526367,-0.42545842280668333,0.3094993483404778,-0.17218359817800383,0.8327953739578274,-0.5825386054481936,-0.45767346842376755,-2.3363939526374886
1782477278760182784,0.540806770324707,-0.10207869112491608,0.03611059859395027,0.04093499109148979,-0.36848393082618713,0.5513543486595154,-0.7484838366508484,-0.028504014015197754,0.05385500192642212,0.04560291767120361,-0.4254524634921219,0.3096264371593478,-0.17288598028306854,0.8326056732696554,-0.5839867700048069,-0.45747440105555964,-2.3365238630756946
1782477278770101760,0.5507256984710693,-0.04261403530836105,0.04495122656226158,0.034829962998628616,-0.3679811358451843,0.5523227453231812,-0.7480170130729675,-0.02296432852745056,0.07060199975967407,0.030030012130737305,-0.42546190246114085,0.30967779052477795,-0.17346799454426412,0.8324606799731857,-0.5851480090283115,-0.45718058589649113,-2.3365652855462593
1782477278780020736,0.5606446266174316,0.04543386772274971,0.07545226067304611,0.013853739015758038,-0.3674319386482239,0.5527167916297913,-0.7479959726333618,-0.02857944369316101,0.07928699254989624,0.018931031227111816,-0.4255067814693162,0.30952393400636696,-0.17377272437183075,0.8324313821553606,-0.5856207517619706,-0.45660043199742345,-2.3363871800407687
1782477278789940736,0.5705647468566895,0.09466719627380371,0.0913233682513237,-0.002510054036974907,-0.3668130040168762,0.5525674819946289,-0.7484099268913269,-0.03374543786048889,0.08784395456314087,0.018551528453826904,-0.4255618744453271,0.30915723553118135,-0.17382993131397498,0.8325274953807817,-0.5854415571033516,-0.45571494296692816,-2.336050710050451
1782477278799859712,0.5804836750030518,0.12353286147117615,0.12264012545347214,-0.021546361967921257,-0.3661554157733917,0.5520956516265869,-0.7490798830986023,-0.02378290891647339,0.05442589521408081,0.041194140911102295,-0.4255833247933723,0.30865759142232607,-0.17375431033960215,0.8327177341732774,-0.5848755699007873,-0.4546531225854723,-2.3357174281082935
1782477278809778688,0.5904026031494141,0.12097623199224472,0.16797538101673126,-0.05238070711493492,-0.36534738540649414,0.5514753460884094,-0.7499307990074158,-0.03481435775756836,0.034919917583465576,0.05084937810897827,-0.4254800103364201,0.3080039492295187,-0.17368986719546411,0.8330258715573553,-0.5841318090313021,-0.45333490630012135,-2.3356116933476727
1782477278819697920,0.6003217697143555,0.08954200893640518,0.20495614409446716,-0.0978020504117012,-0.3644709587097168,0.5508443713188171,-0.750820517539978,-0.018814563751220703,0.04093724489212036,0.05718648433685303,-0.42514822152241033,0.30726351655515227,-0.17372070106339468,0.8334621966155501,-0.583375572370099,-0.45192399133620764,-2.336034360026736
1782477278829617664,0.6102416515350342,0.07148976624011993,0.24306198954582214,-0.12518547475337982,-0.3635222315788269,0.5502836108207703,-0.7516911029815674,-0.006228744983673096,0.025476276874542236,0.06499981880187988,-0.42458582458691924,0.30646027676760973,-0.17388658075865918,0.8340098484746556,-0.5827038740058538,-0.450446487197331,-2.337005055840659
1782477278839536640,0.6201605796813965,0.08462880551815033,0.264845073223114,-0.15123821794986725,-0.3625193238258362,0.5496559739112854,-0.7526341080665588,0.00821027159690857,0.022243380546569824,0.07470136880874634,-0.4238819011100531,0.30557781249308535,-0.1740837652410125,0.8346503156463552,-0.5819523359250395,-0.44887428081672126,-2.338286158753031
1782477278849455872,0.6300797462463379,0.10313192009925842,0.28719139099121094,-0.18112048506736755,-0.36148279905319214,0.5488147139549255,-0.7537457346916199,0.020418375730514526,0.03953361511230469,0.07587403059005737,-0.42307400951224544,0.3045877056583825,-0.17422248753696068,0.8353928934629804,-0.5809457064141608,-0.44718010900434174,-2.339763353797542
1782477278859375616,0.6399996280670166,0.13865214586257935,0.3000146746635437,-0.20541726052761078,-0.36046814918518066,0.5476516485214233,-0.7550764083862305,0.035898447036743164,0.05014193058013916,0.08559703826904297,-0.4221783516836907,0.3034887201106922,-0.17423084425290822,0.8362437987899292,-0.5795550056017016,-0.44539893557455545,-2.3413913232561536
1782477278869294848,0.649918794631958,0.16896238923072815,0.3285491466522217,-0.21084584295749664,-0.3593420088291168,0.5461729168891907,-0.7566825151443481,0.03979247808456421,0.03794872760772705,0.09236067533493042,-0.42125467704837566,0.3022260235523032,-0.17412113245593158,0.8371891647756624,-0.5777886692363327,-0.44335972324181006,-2.342992464548426
1782477278879213824,0.6598377227783203,0.22373802959918976,0.3624572157859802,-0.205270916223526,-0.357919305562973,0.5442954301834106,-0.7587069272994995,0.02254641056060791,0.040390849113464355,0.09346950054168701,-0.42037051457140606,0.30069089139348687,-0.17387212593157286,0.8382374754702794,-0.5755490095324826,-0.44079255357812264,-2.344340491471557
1782477278889132800,0.6697566509246826,0.2923506498336792,0.37718716263771057,-0.18942084908485413,-0.3562231957912445,0.5419362187385559,-0.7611899375915527,0.020163655281066895,0.06492108106613159,0.08858251571655273,-0.4196056381720172,0.2988883897476473,-0.17340923639501962,0.8393604592994011,-0.5727392751347136,-0.4377067438067119,-2.345239378009318
1782477278899052800,0.6796767711639404,0.4006964862346649,0.3914414346218109,-0.15092262625694275,-0.35424941778182983,0.5389947295188904,-0.7641937732696533,0.027879148721694946,0.06890016794204712,0.08943486213684082,-0.41909095519625406,0.29681460010260213,-0.17263894968040536,0.8405116499288336,-0.5692431784181645,-0.43407275908091236,-2.345364360337736
1782477278908971776,0.6895956993103027,0.4962509572505951,0.3710397481918335,-0.07805027812719345,-0.3519972860813141,0.5353886485099792,-0.7677609920501709,0.025840669870376587,0.07569533586502075,0.0839688777923584,-0.4189250994923232,0.2944672918542413,-0.17148909213585972,0.8416545447058896,-0.5649678078393119,-0.42987726837414164,-2.3444751757863025
1782477278918890752,0.699514627456665,0.3865951895713806,0.2909426987171173,0.0006031813099980354,-0.3496435582637787,0.5320578813552856,-0.771144449710846,0.07408508658409119,0.08091819286346436,0.09792673587799072,-0.4191488843577017,0.2922420021895044,-0.1703595418799359,0.8425475693548392,-0.5610291324655515,-0.42568491876041453,-2.3427070401634342
1782477278928809984,0.7094337940216064,0.23346689343452454,0.1703885942697525,0.0373540073633194,-0.34778445959091187,0.5300716161727905,-0.7733498811721802,0.08212894201278687,0.04199564456939697,0.15999233722686768,-0.41949008662100373,0.2907227993852425,-0.1697212780955197,0.8430319862508129,-0.5586849981798245,-0.4226141067147243,-2.341051910326416
1782477278938729728,0.7193536758422852,0.18750444054603577,0.11647985130548477,-0.10826151072978973,-0.346855491399765,0.5286157727241516,-0.7747623324394226,0.017921775579452515,0.011881053447723389,0.1862308382987976,-0.4196156495908112,0.28981304314946943,-0.16919582302391795,0.8433884230001757,-0.5569690492647489,-0.4209335752638025,-2.340253090036252
1782477278948648704,0.7292726039886475,0.07842910289764404,0.23741425573825836,-0.2659507393836975,-0.3465940058231354,0.5271303057670593,-0.775890588760376,-0.09760457277297974,0.012145817279815674,0.19797921180725098,-0.4188368951590883,0.28906339958328464,-0.16881072409576958,0.844109521811759,-0.5552200555563417,-0.42011022655066826,-2.3417675546446244
1782477278958567936,0.7391917705535889,0.006569090764969587,0.37411603331565857,-0.32869425415992737,-0.3457905948162079,0.5259454250335693,-0.7770523428916931,-0.10809734463691711,-0.013097524642944336,0.21566617488861084,-0.4173769374289632,0.28798893556815147,-0.16892665451949376,0.8451761750011446,-0.553826344669509,-0.41869063672348766,-2.344808215127598
1782477278968486912,0.7491106986999512,0.04102799668908119,0.4303593337535858,-0.3452354371547699,-0.3444671034812927,0.5248454213142395,-0.7783827781677246,-0.06634527444839478,0.067729651927948,0.2107100486755371,-0.4156284692781233,0.28661325223277356,-0.16929694325846262,0.8464304539594065,-0.5525335136764667,-0.4166346128972894,-2.3484086132445228
1782477278978406656,0.7590305805206299,0.2112417370080948,0.4961499571800232,-0.34760725498199463,-0.34276384115219116,0.5228826999664307,-0.7804527878761292,-0.04808998107910156,0.14462822675704956,0.19579708576202393,-0.41393979477761017,0.28479300406539737,-0.16931195824492928,0.847868033492628,-0.5502293122252804,-0.41382459825041495,-2.351615059443731
1782477278988325888,0.7689497470855713,0.46580612659454346,0.6190282106399536,-0.3306010961532593,-0.34028252959251404,0.5192864537239075,-0.7839320302009583,-0.07898318767547607,0.18957579135894775,0.19286757707595825,-0.41249885508265016,0.2821336324446206,-0.16862565972902144,0.8495944010065022,-0.5460157675622235,-0.40952911556313737,-2.353759057249747
1782477278998244864,0.7788686752319336,0.8089598417282104,0.782152533531189,-0.2958866059780121,-0.3364989757537842,0.513481616973877,-0.7893700003623962,-0.10399168729782104,0.22052711248397827,0.19963312149047852,-0.41144647872587997,0.2782360272270985,-0.16703206963829384,0.8517022458118031,-0.5392372734479609,-0.4029611162838634,-2.3543098364081847
1782477279008164864,0.7887887954711914,1.1539193391799927,0.9380806088447571,-0.2857285141944885,-0.3312189280986786,0.5049642324447632,-0.7970603108406067,-0.10800531506538391,0.2804971933364868,0.2140219807624817,-0.41085777089870434,0.2728951044229388,-0.16431101090817166,0.8542399987608318,-0.5293405162768847,-0.39383980388925666,-2.353026115976418
1782477279018083840,0.7987077236175537,1.5562306642532349,1.0438467264175415,-0.3242556154727936,-0.32490819692611694,0.49342983961105347,-0.8068219423294067,-0.11219507455825806,0.32329684495925903,0.25765812397003174,-0.41056348453119,0.2662721504505872,-0.16027532330759378,0.8572330566140933,-0.5160286954553587,-0.38283285959832963,-2.3504673277147554
1782477279028002816,0.808626651763916,1.6050390005111694,1.0886811017990112,-0.5088047385215759,-0.31833699345588684,0.4794278144836426,-0.8178083300590515,-0.10092872381210327,0.28520533442497253,0.2890303134918213,-0.4101008980127184,0.2588782773610954,-0.1551704303697494,0.8606516907777377,-0.5000025934355556,-0.37121032663502534,-2.3480652661163597
1782477279037921792,0.8185455799102783,1.4786616563796997,1.156030535697937,-0.7138186693191528,-0.31216540932655334,0.4651852548122406,-0.828345000743866,-0.11410412192344666,0.1560000479221344,0.39537686109542847,-0.4085535754069902,0.25153969355588324,-0.15018414209761896,0.8644400110916493,-0.48384386591884504,-0.36039540288440175,-2.3484236502518794
1782477279047841792,0.8284657001495361,1.1373932361602783,1.262274146080017,-0.84067302942276,-0.3058803379535675,0.45212244987487793,-0.8378678560256958,-0.09843176603317261,-0.01616358757019043,0.4388810396194458,-0.40593661187788566,0.24439460324737072,-0.14607314485712777,0.8684177558851013,-0.46914346478984775,-0.35003656413003803,-2.3515251934975363
1782477279057760768,0.8383846282958984,0.8104438185691833,1.4162787199020386,-0.9687649607658386,-0.29884734749794006,0.44157126545906067,-0.8459935784339905,-0.07485565543174744,-0.05093100666999817,0.4537816643714905,-0.38185478137615086,0.234060400378818,-0.1490602170086297,0.8815802759362918,-0.45734916264098247,-0.3395673356292994,-2.403847841989838
1782477279067680000,0.8483037948608398,0.7033986449241638,1.6184030771255493,-1.0337293148040771,-0.2905353903770447,0.4325791895389557,-0.8535012602806091,-0.04254871606826782,0.05617508292198181,0.39154142141342163,-0.372409453907858,0.22606573222465043,-0.14880741788601737,0.8877284612245633,-0.4473515163734501,-0.32810074929729627,-2.4224511054269104
1782477279077598720,0.8582227230072021,0.7918591499328613,1.862106442451477,-1.0788307189941406,-0.28036659955978394,0.42345964908599854,-0.8614386320114136,-0.026655495166778564,0.19421613216400146,0.3247717618942261,-0.36579984317733194,0.21767260117175274,-0.1479842124226179,0.8926980221349269,-0.4372608659738804,-0.31465081870491857,-2.434257048602218
1782477279087518720,0.8681426048278809,1.0217781066894531,2.121190071105957,-1.0536006689071655,-0.267789363861084,0.41299915313720703,-0.8704714775085449,-0.019564151763916016,0.25518321990966797,0.2753329277038574,-0.36068339641112696,0.20810191293581556,-0.14648499634898393,0.8972978027433971,-0.4257447245288613,-0.2984485449458819,-2.442161317970959
1782477279097437952,0.8780617713928223,1.3666713237762451,2.3387763500213623,-0.9517279863357544,-0.2525560259819031,0.4002377986907959,-0.8809229135513306,0.020485103130340576,0.2702333629131317,0.25042974948883057,-0.35617463853889475,0.19690315497312755,-0.1441099981766769,0.9019984430806137,-0.41177633064539526,-0.2792059449575257,-2.4481120076817757
1782477279107356672,0.8879806995391846,1.753638505935669,2.5121138095855713,-0.8453202843666077,-0.23478055000305176,0.3845018148422241,-0.8927689790725708,0.05826687812805176,0.2874189615249634,0.2355118989944458,-0.3516446146992564,0.18394453593023805,-0.14064110011719894,0.9070449310905345,-0.3946680781130925,-0.2571575035722201,-2.4535970772543343
1782477279117276672,0.8979005813598633,2.037674903869629,2.59072208404541,-0.8113695383071899,-0.21511560678482056,0.3658042252063751,-0.9054902195930481,0.07503992319107056,0.2926735579967499,0.2347596287727356,-0.34785577400544654,0.16973702775856858,-0.13580952952541753,0.9119986231487551,-0.3744967644495841,-0.233244285030956,-2.457202225330488
1782477279127195904,0.9078197479248047,1.982256293296814,2.4287898540496826,-0.9350181818008423,-0.1954491138458252,0.3459566533565521,-0.9176675081253052,0.0936729907989502,0.23494544625282288,0.2863961458206177,-0.3435204476637939,0.15543021542692959,-0.13041358394404035,0.9169664131209503,-0.35325822218459896,-0.2098490781313261,-2.4622946736250606
1782477279137114880,0.917738676071167,1.8668498992919922,2.252049207687378,-0.9541974663734436,-0.17725726962089539,0.32666853070259094,-0.9283682107925415,0.14649555087089539,0.030020922422409058,0.3414541482925415,-0.3394594653203504,0.14219951288791435,-0.12488072820812528,0.9213855683317768,-0.33277658477422245,-0.1886634704259777,-2.467384739072402
1782477279147033600,0.9276576042175293,1.3978602886199951,2.0823352336883545,-1.1423804759979248,-0.16055551171302795,0.3097940683364868,-0.937149703502655,0.15550486743450165,-0.18570959568023682,0.33885258436203003,-0.33439411355874826,0.13019398093592788,-0.12031074847869275,0.9256108800036368,-0.31497644721399626,-0.1696759426412822,-2.4752446946000424
1782477279156953856,0.9375777244567871,0.8560016751289368,1.9870977401733398,-1.3577301502227783,-0.14548452198505402,0.29759514331817627,-0.943541944026947,0.12802846729755402,-0.31021416187286377,0.319762647151947,-0.3288054736423541,0.11991217977017679,-0.1176864727849471,0.9293319325393502,-0.3021726889023922,-0.15298499270756574,-2.484801328693647
1782477279166872832,0.9474966526031494,0.28945624828338623,1.936724066734314,-1.455915093421936,-0.13124874234199524,0.2904348373413086,-0.9478509426116943,0.15758541226387024,-0.3760671615600586,0.23683714866638184,-0.3214781782638397,0.11080404039593716,-0.11746065211763995,0.9330472475919068,-0.29468123301047827,-0.13759485256014514,-2.4984289891151876
1782477279176791552,0.9574155807495117,0.015045865438878536,1.910366177558899,-1.472037672996521,-0.11742034554481506,0.28759080171585083,-0.9505282640457153,0.17631927132606506,-0.2556389272212982,0.1326877474784851,-0.3136920580821372,0.10262264441241314,-0.1191824361489877,0.9364088764341769,-0.29171041352605703,-0.12290899101003723,-2.513179975920821
1782477279186710784,0.9673347473144531,0.19251012802124023,1.9266822338104248,-1.4232368469238281,-0.10349050164222717,0.2853541970252991,-0.9528182744979858,0.18074575066566467,-0.03243979811668396,-0.030900537967681885,-0.3049310349838999,0.09436866483663706,-0.12118336475767766,0.9399075286149331,-0.28937595590750365,-0.10819102535422984,-2.5299453511641463
1782477279196629760,0.9772536754608154,0.6469271183013916,1.9549729824066162,-1.3469957113265991,-0.08907263725996017,0.28024473786354065,-0.9557870626449585,0.16887611150741577,0.15231141448020935,-0.156471848487854,-0.29697555997612807,0.08551166065996123,-0.12163147467612404,0.9432385498717141,-0.2840490543174158,-0.09292457810016709,-2.544846258469407
1782477279206548736,0.9871726036071777,0.9548327326774597,1.992477536201477,-1.322188377380371,-0.07399487495422363,0.27145901322364807,-0.9596013426780701,0.12526440620422363,0.19948822259902954,-0.20803165435791016,-0.2896872241326591,0.07587007866027473,-0.1201792383395066,0.9465105223307454,-0.2749086437558229,-0.07695772716756707,-2.5582324310163966
1782477279216467968,0.9970917701721191,1.0682874917984009,1.9857343435287476,-1.314423680305481,-0.058516789227724075,0.26104679703712463,-0.9635509252548218,0.08483819663524628,0.09428462386131287,-0.15986216068267822,-0.28229819892600316,0.06583538856833575,-0.11785688253718851,0.9497806714892588,-0.2641064458632287,-0.06065585706071856,-2.571834577708447
1782477279226387712,1.0070116519927979,1.1051459312438965,1.910459280014038,-1.2815378904342651,-0.04318176209926605,0.2500498294830322,-0.9672695398330688,0.09500060975551605,-0.07173565030097961,-0.09420806169509888,-0.27446608304222275,0.05580554186524441,-0.11511280286231133,0.9530494477908513,-0.25273173350445716,-0.04461332207126148,-2.5864618149403067
1782477279236306688,1.0169305801391602,1.1118160486221313,1.8250677585601807,-1.356636881828308,-0.028466463088989258,0.23911118507385254,-0.9705748558044434,0.08620572090148926,-0.13619065284729004,-0.02927255630493164,-0.2668604130255942,0.04619224702107053,-0.11215551428265962,0.9560716662529876,-0.24145037792714558,-0.029321082908671522,-2.6007617800761915
1782477279246225920,1.0268497467041016,1.1054893732070923,1.7025444507598877,-1.390479564666748,-0.014668644405901432,0.22803018987178802,-0.9735435843467712,0.08353155851364136,-0.14563272893428802,0.02452319860458374,-0.25921467375464224,0.0370780907785784,-0.10887348224404995,0.9589470693341146,-0.23005408491043353,-0.015066130916534139,-2.6153285719176935
1782477279256144640,1.0367686748504639,0.5510188341140747,1.4652504920959473,-1.5272502899169922,-0.0025390074588358402,0.21984271705150604,-0.9755319952964783,0.1068480908870697,-0.16593343019485474,0.11592817306518555,-0.2513378809494169,0.029205403519555646,-0.10668192146115525,0.9615587684963437,-0.22165324583837523,-0.002602684213711241,-2.6305507937299017
1782477279266064896,1.0466887950897217,0.0678899735212326,1.2438569068908691,-1.4870474338531494,0.007236137054860592,0.21694999933242798,-0.9761558771133423,0.12568317353725433,-0.3051915764808655,0.2756553888320923,-0.24291245115497145,0.023138386621052217,-0.1067083199226386,0.9638835840856671,-0.2186889649491574,0.007412754987992242,-2.647031738141177
1782477279275983872,1.056607723236084,-0.4638986885547638,1.0284180641174316,-1.4056957960128784,0.015043597668409348,0.21916556358337402,-0.9755716919898987,0.12747350335121155,-0.4243810176849365,0.2553568482398987,-0.23493052121625393,0.018708989306023258,-0.10892256054597643,0.9657087601558677,-0.22095916272972174,0.015419067519123308,-2.662607963154193
1782477279285902848,1.0665266513824463,-0.822558581829071,0.9156319499015808,-1.334091305732727,0.021325737237930298,0.2258661985397339,-0.9739248752593994,0.1075805127620697,-0.3284662961959839,0.15382599830627441,-0.22733551185570922,0.015564574735430825,-0.11311632438386622,0.9670992842056184,-0.22783211614525511,0.021893197190875957,-2.677332153845295
1782477279295821568,1.0764455795288086,-0.7510040998458862,0.8952913284301758,-1.218734860420227,0.02705365978181362,0.23410990834236145,-0.9718336462974548,0.12582415342330933,-0.16407206654548645,-0.027922213077545166,-0.22032472186090346,0.012875008348001342,-0.11797207014080009,0.9681806388790672,-0.23630293835170446,0.02783055968585992,-2.6907784263108967
1782477279305741824,1.0863656997680664,-0.4781310260295868,0.9496245980262756,-1.1657499074935913,0.03312980383634567,0.24038191139698029,-0.9701128602027893,0.13789071142673492,-0.034617140889167786,-0.2395123839378357,-0.21365798711384645,0.009770566067376953,-0.121852814039394,0.9692299216143487,-0.2427592739971032,0.03413719706530514,-2.7034864392541693
1782477279315660800,1.0962846279144287,-0.15166069567203522,0.9437620043754578,-1.1656413078308105,0.0394127294421196,0.2438778430223465,-0.96900475025177,0.1189582422375679,0.044192835688591,-0.3512314558029175,-0.20728923568513172,0.006251906950408036,-0.12433234208427074,0.9703265050869639,-0.24636242638845993,0.04065100546491873,-2.7156295768722654
1782477279325579776,1.1062037944793701,-0.08508992195129395,0.8606489896774292,-1.1456416845321655,0.04527481645345688,0.24541933834552765,-0.9683591723442078,0.13938704133033752,-0.03971560299396515,-0.32903456687927246,-0.20079025019270147,0.002688608462798302,-0.12575043209700948,0.9715260971025018,-0.24795224404529778,0.04672013086237663,-2.7281583942262273
1782477279335498752,1.1161227226257324,-0.156106099486351,0.7661106586456299,-1.1391571760177612,0.05028035119175911,0.24714401364326477,-0.9676733613014221,0.1419346034526825,-0.20405319333076477,-0.22457212209701538,-0.1944534848208631,-0.00043023668889268277,-0.12713431910381157,0.972637969254673,-0.2497317193134102,0.05191335979066701,-2.7404305556061983
1782477279345418752,1.1260426044464111,-0.18405836820602417,0.674568772315979,-1.1476798057556152,0.05433538183569908,0.24954213201999664,-0.9668383598327637,0.12617608904838562,-0.26535022258758545,-0.18135499954223633,-0.18818186536180825,-0.0030224580304540538,-0.12873107842097178,0.9736563870657466,-0.25220739773962053,0.05613997962424178,-2.7526348416383386
1782477279355337984,1.1359617710113525,0.024123849347233772,0.5939816236495972,-1.1299716234207153,0.0575408972799778,0.2510972321033478,-0.9662500619888306,0.0990905612707138,-0.18765121698379517,-0.16393786668777466,-0.18191417486976183,-0.00529268361623332,-0.12979577802828246,0.9746959979734104,-0.2538136276910707,0.05948048547854776,-2.764973254061045
1782477279365256704,1.1458806991577148,0.36151599884033203,0.5194067358970642,-1.0660066604614258,0.06010768190026283,0.2499862015247345,-0.9663819074630737,0.059582263231277466,-0.0931868851184845,-0.13576042652130127,-0.17587525913180677,-0.007470035319203075,-0.1294343550249278,0.9758374701230514,-0.2526660008483965,0.0621186610512615,-2.77706890947887
1782477279375176704,1.1558005809783936,0.7067593932151794,0.5390344858169556,-0.9236444234848022,0.06262612342834473,0.2455105185508728,-0.9673689007759094,0.024715185165405273,-0.0868648886680603,-0.09485644102096558,-0.1703695192394308,-0.009841758592070066,-0.12735266028066858,0.9770663180207778,-0.24804629410400203,0.06464840332100467,-2.788265003255893
1782477279385095936,1.165719747543335,1.032935380935669,0.641590416431427,-0.7408120632171631,0.06623640656471252,0.2376864105463028,-0.9690809845924377,-0.026441484689712524,-0.1195986419916153,-0.11392682790756226,-0.16547298410015154,-0.012935671591216315,-0.12366158999927858,0.9783450874589442,-0.2399833048977886,0.06824357500897928,-2.79826146089138
1782477279395014656,1.1756386756896973,1.271837592124939,0.826698362827301,-0.6397178769111633,0.07165739685297012,0.22705306112766266,-0.9712425470352173,-0.08215544372797012,-0.08624495565891266,-0.19950330257415771,-0.161637671820121,-0.016989695220367043,-0.1187015934615838,0.9795378643394065,-0.22905064014004722,0.07364566250745816,-2.806036555028817
1782477279404933632,1.1855576038360596,1.3481764793395996,1.136680006980896,-0.6225077509880066,0.07930543273687363,0.21495914459228516,-0.9733977913856506,-0.11556031554937363,-0.029656410217285156,-0.30505985021591187,-0.15780736452389554,-0.022222402518508107,-0.11316925422229628,0.9807118857275803,-0.21664999967146129,0.0812932374548888,-2.813660310502631
1782477279414853888,1.1954777240753174,0.8935256600379944,1.2481340169906616,-0.9698919653892517,0.0887589380145073,0.20485065877437592,-0.9747605323791504,-0.0502610057592392,-0.10777424275875092,-0.3890547752380371,-0.153421484825583,-0.02821152300116991,-0.10873754886486754,0.9817545648563278,-0.20631113168503884,0.0908067524330216,-2.82214774414028
1782477279424772864,1.2053966522216797,0.6705133318901062,1.368847131729126,-0.7875194549560547,0.09854192286729813,0.19822576642036438,-0.975190281867981,-0.09146184474229813,-0.4361408054828644,-0.33860671520233154,-0.1482603750671571,-0.034145492665461206,-0.1060139485217841,0.9826565800283009,-0.1995474293339582,0.10070707837810387,-2.832007531249486
1782477279434691584,1.215315580368042,0.38075780868530273,0.988105833530426,-0.632844865322113,0.10854949802160263,0.19360679388046265,-0.9750555753707886,-0.049955762922763824,-0.6101259589195251,-0.06812673807144165,-0.1436021669481285,-0.039966407906844095,-0.10428272630648516,0.9833139187045721,-0.19483716852384123,0.11086995221418677,-2.840718846922216
1782477279444610816,1.2252347469329834,0.09275051206350327,0.7290226221084595,-0.3949577212333679,0.11570042371749878,0.19203084707260132,-0.9745448231697083,-0.011391349136829376,-0.4420308470726013,0.08021193742752075,-0.14032334128506382,-0.04399148699952761,-0.10388622919019311,0.9836573660360762,-0.1932310865100921,0.11816940248084175,-2.846729492483164
1782477279454530816,1.235154628753662,0.13808904588222504,0.49333176016807556,-0.33404451608657837,0.1209334209561348,0.19155794382095337,-0.9740023612976074,-0.05448140203952789,-0.24717625975608826,-0.0569424033164978,-0.1378117094477408,-0.04690186512874264,-0.10391833983612736,0.983874469079133,-0.1927492474143339,0.12352913358632052,-2.851305455413626
1782477279464449792,1.2450737953186035,0.5543051362037659,0.2027374804019928,-0.15879124402999878,0.12370991706848145,0.18869085609912872,-0.9742133617401123,0.04093242436647415,-0.07266302406787872,-0.1928856372833252,-0.13592300433621995,-0.04868102818630482,-0.1025840703869365,0.9841908387822161,-0.1898288898790511,0.12630840451531114,-2.855075740469165
1782477279474368768,1.2549927234649658,1.2429630756378174,0.13746750354766846,-0.02494785189628601,0.1249118372797966,0.18014749884605408,-0.9756761193275452,0.0643581748008728,0.07529987394809723,-0.24218881130218506,-0.13497259435367012,-0.049949908043562107,-0.0983206048254798,0.9846931005712585,-0.1811364076457998,0.1273332435738302,-2.8575695147481612
1782477279484288768,1.2649126052856445,2.040644884109497,0.17807884514331818,0.02650388702750206,0.126360222697258,0.16418670117855072,-0.978302538394928,-0.046907708048820496,0.18067719042301178,-0.2879480719566345,-0.13425824597745117,-0.05180157371416235,-0.09036225451159978,0.985457245683802,-0.16493346576680398,0.12845156448731193,-2.8601493011010537
1782477279494207744,1.274831771850586,2.4210801124572754,0.38355639576911926,-0.02727828361093998,0.1289413422346115,0.14179590344429016,-0.9814621806144714,-0.08922271430492401,0.20750829577445984,-0.28809958696365356,-0.13319644327398997,-0.05465728823870992,-0.07925579264395825,0.9864024657239711,-0.14227541702149407,0.1306286676598898,-2.863829739467833
1782477279504126720,1.2847506999969482,2.0845444202423096,0.5401976704597473,-0.18017728626728058,0.1332261860370636,0.11993633210659027,-0.9838018417358398,-0.0905778706073761,0.06251300871372223,-0.17307376861572266,-0.13137268608703936,-0.058357551249098916,-0.06850895175400072,0.9872396515455375,-0.12022575000656512,0.13460092998553153,-2.8688924497232704
1782477279514045696,1.2946696281433105,1.717328667640686,0.6628559827804565,-0.12425044178962708,0.13896791636943817,0.10144321620464325,-0.9850873947143555,-0.03012697398662567,-0.23118868470191956,-0.05725574493408203,-0.12950380546964,-0.06253471682463112,-0.05954583651601612,0.9878119881565531,-0.1016180127653139,0.14014684100417799,-2.873737723548841
1782477279523965952,1.3045897483825684,1.5133792161941528,0.7069398164749146,-0.1663755178451538,0.14549699425697327,0.08602520823478699,-0.985611617565155,0.0041459351778030396,-0.330928772687912,-0.038649797439575195,-0.12766451967421924,-0.06687885268552655,-0.052167063931007444,0.9881840447719381,-0.0861316647486172,0.14656251076923982,-2.878306833269349
1782477279533884672,1.3145086765289307,1.6932885646820068,0.71202552318573,-0.1851518452167511,0.15217262506484985,0.07081598788499832,-0.9858136773109436,0.025241315364837646,-0.20901483297348022,-0.037547528743743896,-0.1256303292188157,-0.07126819347406801,-0.04487772184097084,0.9884958106545887,-0.07087531004711072,0.153153661818184,-2.8833229899705026
1782477279543803648,1.324427604675293,2.202995777130127,0.747746467590332,-0.14916694164276123,0.15911780297756195,0.052114084362983704,-0.9858831763267517,0.07885827124118805,-0.0149741992354393,-0.044863224029541016,-0.12351442519688167,-0.07598415304941813,-0.035844358952362904,0.9887798918297449,-0.05213770288338754,0.16001631139565653,-2.8888667562003825
1782477279553722880,1.3343467712402344,2.8889732360839844,0.8331909775733948,-0.0836770087480545,0.16664637625217438,0.027365634217858315,-0.9856368899345398,0.08243808150291443,0.09966378659009933,-0.01984095573425293,-0.12127991079917498,-0.08133078242929119,-0.02380863848992296,0.9889942689967163,-0.02736905069985946,0.1674908189248678,-2.8952544629512853
1782477279563642624,1.344266653060913,3.5345821380615234,0.9683097004890442,0.0266439039260149,0.175347700715065,-0.004120273049920797,-0.9844979643821716,0.09122334420681,0.13324014842510223,0.006211221218109131,-0.11921888454349297,-0.08763049581451454,-0.008480726852705432,0.9889569222397212,0.0041202845309444725,0.17626043726631585,-2.9020142894406518
1782477279573561600,1.3541855812072754,4.142293930053711,1.0648365020751953,0.13320961594581604,0.185231015086174,-0.041739288717508316,-0.9818081855773926,0.12456817924976349,0.11344033479690552,0.04969453811645508,-0.11734171550899326,-0.09486229779288706,0.009851619404999453,0.9885014134021823,0.041751417921070365,0.18647135480832286,-2.9091897326138016
1782477279583480832,1.3641047477722168,4.734076976776123,1.1167668104171753,0.2633567154407501,0.1956716924905777,-0.08534024655818939,-0.976949155330658,0.1473611444234848,0.11318754404783249,0.12926238775253296,-0.11557621510709352,-0.1027265531646398,0.031187850234128536,0.9874800114731155,0.08544417904358002,0.19767295743435093,-2.9170474140670075
1782477279593400832,1.3740246295928955,5.122660160064697,1.1647729873657227,0.3280317485332489,0.2062799334526062,-0.13390561938285828,-0.9692872762680054,0.1335027664899826,0.19433045387268066,0.21727317571640015,-0.11396752358532684,-0.11100275353568355,0.055088456504351194,0.9857256417243476,0.13430906057767758,0.20968780422665484,-2.9255333809929853
1782477279603319808,1.383943796157837,4.608718395233154,1.100120186805725,0.17394843697547913,0.21673382818698883,-0.18133506178855896,-0.9592413902282715,0.08893023431301117,0.20420798659324646,0.3234992027282715,-0.11209521057660067,-0.11915867400348197,0.07861624906541854,0.9833897822001733,0.18234385387211383,0.22221177942863354,-2.9349943731540566
1782477279613238784,1.3938627243041992,4.006899356842041,1.0728706121444702,0.10199061781167984,0.2266262173652649,-0.22250254452228546,-0.9482263326644897,0.08718603849411011,-0.03849904239177704,0.5366204977035522,-0.10981691946488215,-0.12663791641955782,0.09924551002526442,0.9808432231838097,0.22438061201555284,0.23459934714953193,-2.9451489397384103
1782477279623157760,1.4037816524505615,3.3361871242523193,1.104349136352539,0.010193590074777603,0.2365603893995285,-0.2569798231124878,-0.9370168447494507,0.06901213526725769,-0.2718135118484497,0.5360616445541382,-0.10772747110400481,-0.13375749347581362,0.11662121921083018,0.9782143573334707,0.2598957610616069,0.247293726834383,-2.954703606630888
1782477279633077760,1.4137017726898193,2.8553457260131836,1.150114893913269,-0.052641965448856354,0.2470203936100006,-0.2853713929653168,-0.9260367751121521,0.00871691107749939,-0.2516159117221832,0.4732016921043396,-0.10532000245780326,-0.14073717315011297,0.13105216268102038,0.9756669514989453,0.2893939270661678,0.26068027577269054,-2.9647290946345546
1782477279642996736,1.4236207008361816,2.831488609313965,1.1724992990493774,-0.09017815440893173,0.2578568756580353,-0.3111310601234436,-0.9147170782089233,0.0004286766052246094,-0.10070362687110901,0.37069547176361084,-0.10299410842221762,-0.1477723598113285,0.14423867970447946,0.9730112265260386,0.3163829455901837,0.27476779881534397,-2.974779141304422
1782477279652915712,1.433539628982544,2.937466859817505,1.214086890220642,-0.06681960076093674,0.26882413029670715,-0.3368852138519287,-0.9023535251617432,-0.001398622989654541,0.0868852436542511,0.28522711992263794,-0.10058477548531512,-0.15489604478300975,0.1575767792474307,0.9700822097264064,0.3436067841467851,0.2895423329519615,-2.985540132243221
1782477279662834944,1.4434587955474854,3.2383487224578857,1.3358008861541748,-0.04108680784702301,0.28024137020111084,-0.36423155665397644,-0.8881441950798035,-0.02909696102142334,0.18152281641960144,0.22280001640319824,-0.09797049957938532,-0.1623754098513656,0.1719363665113854,0.9666819188136485,0.37280754404308397,0.30564824935841,-2.9976678218851474
1782477279672754688,1.453378677368164,3.364253520965576,1.497057557106018,-0.07230521738529205,0.2928597927093506,-0.39313259720802307,-0.8715961575508118,-0.08825471997261047,0.17183440923690796,0.20030105113983154,-0.09520525027003748,-0.17063281476988315,0.18731353466265124,0.9626701996436048,0.40403603542327515,0.3241522154191154,-3.0113923219247107
1782477279682673664,1.4632976055145264,3.231966972351074,1.6009207963943481,-0.17659780383110046,0.3066087067127228,-0.4211560785770416,-0.8535916209220886,-0.12516644597053528,0.15725532174110413,0.20176666975021362,-0.09222627151824418,-0.17946615711785086,0.20247489052919793,0.9582745751931258,0.43471956697206887,0.3448457190678016,-3.026584325400912
1782477279692592896,1.4732167720794678,3.029315710067749,1.7051860094070435,-0.3335627019405365,0.3214230537414551,-0.44652923941612244,-0.8350442051887512,-0.11240816116333008,0.11567291617393494,0.20413905382156372,-0.08886363381410631,-0.18867946188922302,0.2165131682982342,0.9537428020954644,0.46288261901510275,0.3674369182670561,-3.0433053233060714
1782477279702512640,1.4831366539001465,2.6927683353424072,1.6975189447402954,-0.5417110919952393,0.33713412284851074,-0.4687759578227997,-0.8164494633674622,-0.16605257987976074,0.04629060626029968,0.18694812059402466,-0.08488893480354347,-0.19808331210414568,0.22921229126384846,0.9492200052952082,0.48790452225262293,0.3916005236964579,-3.0618649182704023
1782477279712431616,1.4930555820465088,1.9054423570632935,1.5707719326019287,-0.7591181397438049,0.3533986806869507,-0.4851272404193878,-0.799850583076477,-0.19629418849945068,-0.03553315997123718,0.19766247272491455,-0.08037355729120985,-0.2072591523676239,0.23899449010199078,0.9452329494702361,0.5065086763838507,0.41603976406467447,-3.081087709750738
1782477279722350848,1.5029747486114502,1.4683305025100708,1.5218366384506226,-0.9138158559799194,0.36954012513160706,-0.4952234625816345,-0.786253035068512,-0.25586214661598206,-0.06472828984260559,0.22588926553726196,-0.07553657228122723,-0.2158291040001964,0.2455428184848155,0.942030188635107,0.5180920474733267,0.43936214420853825,-3.099768403331916
1782477279732269824,1.5128936767578125,0.9412880539894104,1.4726486206054688,-0.9821988344192505,0.3858737349510193,-0.5009997487068176,-0.774661660194397,-0.3254336714744568,-0.10706299543380737,0.17457926273345947,-0.07075797723304163,-0.22421685736341904,0.24979182619731197,0.9393211212367438,0.5247535600834894,0.46214170315215786,-3.1174249423312466
1782477279742189824,1.5228137969970703,0.7088287472724915,1.3468103408813477,-0.9782828688621521,0.40165144205093384,-0.5031461715698242,-0.7651928663253784,-0.34580427408218384,-0.04575824737548828,0.13677489757537842,-0.06623654270878156,-0.23211373883965994,0.25204521182672224,0.9371281753143061,0.5272354765391329,0.483370364468028,-3.1333329721064302
1782477279752108800,1.5327327251434326,0.8132817149162292,1.2266732454299927,-0.9311173558235168,0.416154146194458,-0.5048166513442993,-0.756290853023529,-0.3621533215045929,0.04923504590988159,0.007862567901611328,-0.06189571473233115,-0.23935101567058392,0.2540977255025277,0.9350477731174613,0.5291695271887278,0.5030402994510802,3.1347737687467623
1782477279762027776,1.542651653289795,1.2273480892181396,1.0663403272628784,-0.8435054421424866,0.42921316623687744,-0.508622407913208,-0.7463774681091309,-0.36321890354156494,0.166215181350708,-0.11430978775024414,-0.05729742449260246,-0.24591732231198477,0.2575576633310796,0.9326873448158011,0.5335840190301433,0.521880735378078,3.1186000871333497
1782477279771946752,1.5525705814361572,1.6751099824905396,0.9142817854881287,-0.7712946534156799,0.4405062794685364,-0.5157961249351501,-0.734784722328186,-0.3474581837654114,0.24516624212265015,-0.21583783626556396,-0.052436612778607165,-0.2517064551016617,0.2631567814653825,0.9298617154266018,0.541936641069295,0.5400546168554741,3.100775372110036
1782477279781866752,1.562490701675415,2.142990827560425,0.7729731202125549,-0.7215369939804077,0.4504788815975189,-0.5262761116027832,-0.7211811542510986,-0.36330538988113403,0.2637944221496582,-0.26227831840515137,-0.047104631692143094,-0.25688828428570915,0.2709572451558008,0.9264835735102018,0.5542151922667427,0.5583406644769222,3.0804852430563603
1782477279791785728,1.5724096298217773,2.397428035736084,0.5957338213920593,-0.7297592163085938,0.459110289812088,-0.5392044186592102,-0.7060285806655884,-0.3654671013355255,0.2407730221748352,-0.2669938802719116,-0.041106028912708245,-0.26129279910258507,0.28055618167284263,0.9226725523180547,0.5694921207675232,0.5765660652633103,3.057473167830713
1782477279801704960,1.5823287963867188,2.511932849884033,0.47378501296043396,-0.8946411609649658,0.4671120047569275,-0.5525993704795837,-0.69024658203125,-0.3990272879600525,0.20163196325302124,-0.2120208740234375,-0.03420534109413555,-0.26506386775597596,0.29089149057231445,0.9186693100204261,0.5854798432818025,0.5949386293854712,3.0317514499032785
1782477279811624704,1.5922486782073975,2.550615072250366,0.4096660017967224,-0.9850926399230957,0.4753279387950897,-0.5652860999107361,-0.6741772890090942,-0.4123549163341522,0.14283126592636108,-0.15986812114715576,-0.026342627876658815,-0.268550098086466,0.30131745749656585,0.9145461915722237,0.6007800408179592,0.6141064659708374,3.003372314750289
1782477279821543680,1.6021676063537598,2.30633807182312,0.32945773005485535,-0.9962683320045471,0.48330965638160706,-0.576900064945221,-0.6584817171096802,-0.37433135509490967,0.07654911279678345,-0.15095126628875732,-0.018279766603713762,-0.27167712720816656,0.31136906395413116,0.9104431351431884,0.6149284032713921,0.6331665144763768,2.9744394122288527
1782477279831462912,1.6120867729187012,1.975982904434204,0.24117612838745117,-1.091583013534546,0.4911917448043823,-0.5855412483215332,-0.6448814868927002,-0.3290976285934448,0.0315556526184082,-0.052765607833862305,-0.010341590169318082,-0.27447630494567615,0.3197217924681712,0.9068262038902499,0.6255475667504251,0.6509329579704909,2.9469941819615997
1782477279841381888,1.6220057010650635,1.8441412448883057,0.11171135306358337,-1.0504769086837769,0.49852997064590454,-0.592414915561676,-0.6328604221343994,-0.28644809126853943,0.0509263277053833,-0.04455345869064331,-0.0024052020503633853,-0.27673993536902664,0.32708530715128425,0.9035619880625277,0.6340531068991497,0.6672209777657057,2.920478666840306
1782477279851301632,1.6319255828857422,1.8473252058029175,-0.007406976073980331,-1.0820585489273071,0.5051364302635193,-0.5984666347503662,-0.6218318343162537,-0.28931617736816406,0.12207204103469849,-0.024164259433746338,0.005706658930513341,-0.278361416017142,0.3340643874181704,0.9004905507383691,0.6415857597016704,0.6822178230635852,2.8941016459883624
1782477279861220864,1.6418447494506836,2.1301116943359375,-0.0801783874630928,-1.0913503170013428,0.5113096237182617,-0.6050690412521362,-0.6102901101112366,-0.2789640426635742,0.19524848461151123,-0.011032581329345703,0.014348405853557346,-0.27948815449744674,0.34167430122355935,0.8971840635633633,0.649852600778324,0.6973768036067848,2.865893370708077
1782477279871139840,1.651763677597046,2.477072238922119,-0.1345548927783966,-0.9916229844093323,0.516954243183136,-0.6135174632072449,-0.5969545841217041,-0.2771775722503662,0.2466350793838501,-0.031585514545440674,0.023369166454413667,-0.28018470472505197,0.350740980875339,0.8932700144741287,0.6605071733659786,0.7137017860990105,2.8350542396069347
1782477279881059840,1.6616837978363037,2.865349292755127,-0.15236636996269226,-0.9454187750816345,0.521892249584198,-0.6242753863334656,-0.5812991857528687,-0.2554890513420105,0.2648240923881531,-0.06764185428619385,0.03259143757079362,-0.2804028324323508,0.36155863195267557,0.8885873434784152,0.6742036283346904,0.731600028004545,2.801371061310596
1782477279890978816,1.671602725982666,3.0377213954925537,-0.008181042969226837,-0.9621318578720093,0.5273690223693848,-0.6361500024795532,-0.5632007718086243,-0.29755640029907227,0.2761646509170532,-0.11995041370391846,0.042061525154881874,-0.2808032564187668,0.3735627661582827,0.8830805644922918,0.6894980956809469,0.75255399311071,2.764531148921744
1782477279900897792,1.6815216541290283,2.8470680713653564,0.0817112922668457,-1.0158227682113647,0.5338282585144043,-0.6472511291503906,-0.5441446900367737,-0.3044581413269043,0.22528457641601562,-0.11915481090545654,0.05139638792794215,-0.28170469677811416,0.3854479299397053,0.8771720937575356,0.7039727571309106,0.7758282210278363,2.726607717765361
1782477279910816768,1.6914405822753906,2.7264366149902344,0.20554706454277039,-1.0151551961898804,0.5412488579750061,-0.6564209461212158,-0.5255104899406433,-0.2480817437171936,0.12353825569152832,-0.021257638931274414,0.060491844856623275,-0.2830927485471234,0.39636252005284545,0.8712611967719118,0.7160646591506193,0.800150520943627,2.6891072806834875
1782477279920736768,1.7013607025146484,2.4337074756622314,0.18682557344436646,-0.9749805927276611,0.5486445426940918,-0.664451539516449,-0.507438063621521,-0.2181391716003418,-0.036430418491363525,0.011908888816833496,0.06894040731423672,-0.2845921069432811,0.4065566243426132,0.8654284052217358,0.7267596475862048,0.8243965939472488,2.653081262903156
1782477279930655744,1.7112796306610107,2.088233709335327,-0.06726308166980743,-0.9034584760665894,0.5553438663482666,-0.6703278422355652,-0.4921928346157074,-0.1787722110748291,-0.11604911088943481,0.12532579898834229,0.07700898869626839,-0.2855912223862297,0.41514002276409057,0.8603290500248323,0.7346505209579617,0.8456105728616217,2.620179931776251
1782477279940574976,1.7211987972259521,2.024627447128296,-0.16259519755840302,-0.7944302558898926,0.5601465702056885,-0.6757808327674866,-0.4791201055049896,-0.12215834856033325,-0.09094280004501343,0.14834004640579224,0.08465453431221642,-0.2854166853838778,0.4230570515422726,0.855800007816709,0.7420235021400599,0.8632058397151712,2.5898162813318484
1782477279950493696,1.7311177253723145,1.9057949781417847,-0.3199250102043152,-0.9659678936004639,0.5649701356887817,-0.6800079941749573,-0.4673306345939636,-0.22071659564971924,0.11654669046401978,0.14887970685958862,0.09271345182114951,-0.2848927862825233,0.4303147495054987,0.8515102013336213,0.747773560265998,0.8797019862959639,2.559526662456385
1782477279960413696,1.7410376071929932,1.8813197612762451,-0.38842976093292236,-0.9219650030136108,0.5696591734886169,-0.6834298372268677,-0.4565219283103943,-0.27020537853240967,0.2691231369972229,0.1483553647994995,0.101058562142235,-0.28399828742455885,0.43713157448946954,0.8473772959277733,0.7524506517164512,0.8952054589324426,2.5293246969752796
1782477279970332928,1.7509567737579346,1.670947551727295,-0.5473409295082092,-0.8698977828025818,0.5735412836074829,-0.6864104866981506,-0.44709160923957825,-0.19021004438400269,0.2136627435684204,0.07607415318489075,0.1092866081941987,-0.28250043978883893,0.4434497742429056,0.8435651370048363,0.7565415340675914,0.9086634451167303,2.5004927113636914
1782477279980251904,1.7608757019042969,1.5159093141555786,-0.5814648270606995,-0.8912363648414612,0.5770589113235474,-0.6883023381233215,-0.4395937919616699,-0.21995759010314941,0.12181985378265381,-0.01821562647819519,0.11733680140851865,-0.280713681172644,0.4487793880572343,0.8402552056328971,0.7591462192634028,0.9197965514813204,2.4739385927580293
1782477279990171648,1.7707955837249756,1.474314570426941,-0.533886730670929,-0.8578078150749207,0.5805273056030273,-0.6898252964019775,-0.43258437514305115,-0.20044612884521484,0.14504075050354004,-0.12066876888275146,0.12510613187674902,-0.27895374911432597,0.45375391542633775,0.8370428630104212,0.7612477239888638,0.9304014950330649,2.4484483268560893
1782477280000090880,1.780714750289917,1.3377442359924316,-0.4453422427177429,-0.8511152863502502,0.5842861533164978,-0.6908478140830994,-0.42583906650543213,-0.17506074905395508,0.14455264806747437,-0.07840287685394287,0.13262010887807602,-0.2774476547172698,0.4583702244045583,0.8338653366682983,0.7626610197363375,0.9409892128122448,2.42382223661841
1782477280010009856,1.7906336784362793,1.4431076049804688,-0.30182740092277527,-0.9278935790061951,0.5886563658714294,-0.6915608048439026,-0.41860148310661316,-0.14522075653076172,0.11902058124542236,-0.010048359632492065,0.13976034346618146,-0.2764974186327842,0.46286978721705907,0.8305225276560585,0.7636476759754688,0.9526505174918535,2.399598853296506
1782477280019928576,1.8005526065826416,1.4760931730270386,-0.1699085384607315,-1.031301498413086,0.5944691896438599,-0.6916425824165344,-0.41016682982444763,-0.14819544553756714,0.1066206693649292,0.023966878652572632,0.14727725294958055,-0.27625814176410224,0.46754468349837497,0.8266757148425631,0.7637608836515841,0.9668326342037755,2.3734221557883197
1782477280029848832,1.8104727268218994,1.6020010709762573,-0.06467235833406448,-0.9690074920654297,0.6008089780807495,-0.6921089291572571,-0.4000172019004822,-0.08394801616668701,0.05329972505569458,0.07279247045516968,0.15377010021494045,-0.2769162643718828,0.4725555927121384,0.8224130863048803,0.7644067594508024,0.9833955980234608,2.347818415607043
1782477280039767808,1.8203916549682617,1.470015048980713,-0.14580821990966797,-0.883875846862793,0.6067418456077576,-0.6926155686378479,-0.39006131887435913,0.046105384826660156,0.09386074542999268,0.1051797866821289,0.1605910323272926,-0.27706005460057137,0.4777102327585852,0.8180715418511596,0.7651089276946745,0.999443702207349,2.3214333007618517
1782477280049686784,1.830310583114624,1.2525358200073242,-0.16263940930366516,-0.8709932565689087,0.6121336817741394,-0.6926367282867432,-0.3815056085586548,0.09048771858215332,0.20943671464920044,0.06117790937423706,0.16716263527299868,-0.2769254915443995,0.4822442022584053,0.8141310298277695,0.7651382847834011,1.0134643375595034,2.2970632218129405
1782477280059606784,1.8402307033538818,1.0589396953582764,-0.3363603353500366,-0.8975169658660889,0.6173738837242126,-0.6912846565246582,-0.3754661977291107,0.11916780471801758,0.14498955011367798,0.014168649911880493,0.1738006977527087,-0.2766119624231451,0.4855437346210317,0.8108799658497801,0.7632654308005693,1.0243935593303781,2.275475121046648
1782477280069525760,1.8501496315002441,1.5442813634872437,-0.3384861648082733,-0.5935896039009094,0.621209979057312,-0.6915007829666138,-0.36867982149124146,0.1950284242630005,0.00833427906036377,-0.13540953397750854,0.18017377205011634,-0.2754244880461771,0.4896952531172586,0.8073892139386338,0.7635645721394695,1.0351798466896667,2.2530186499106746
1782477280079444992,1.8600687980651855,2.1338284015655518,-0.4042747914791107,-0.648310661315918,0.6240601539611816,-0.694456934928894,-0.35815975069999695,0.23711532354354858,0.09745687246322632,-0.24708011746406555,0.1868739909905261,-0.2732309993745391,0.49625089492144825,0.8025944901624026,0.7676648782244867,1.0497751187487878,2.2245969973372266
1782477280089363712,1.8699877262115479,2.675062417984009,-0.5246144533157349,-0.7036492824554443,0.6268903017044067,-0.6987517476081848,-0.3446078598499298,0.22079646587371826,0.12108451128005981,-0.2377437949180603,0.19477931578303748,-0.27011377881723114,0.5047124108892559,0.7964702963245253,0.7736510669365572,1.068175789081076,2.1890815362600566
1782477280099283712,1.8799076080322266,2.891263961791992,-0.6458375453948975,-0.7376232743263245,0.630176842212677,-0.703418493270874,-0.32875436544418335,0.24822580814361572,0.0401495099067688,-0.18037036061286926,0.20386435687866733,-0.2663589267101106,0.5144664678417303,0.7891871881541059,0.7801956665355019,1.0899509245957537,2.147444221154699
1782477280109202944,1.889826774597168,2.5901999473571777,-0.7491986751556396,-0.5770509839057922,0.6323418617248535,-0.708294689655304,-0.3137873113155365,0.334653377532959,-0.054934680461883545,-0.08176630735397339,0.21279626766191337,-0.26168938882664644,0.5240467637963984,0.7820559311012656,0.7870795615688363,1.1101688815889585,2.106257746962778
1782477280119121664,1.8997457027435303,2.2733142375946045,-0.7807161211967468,-0.5136557817459106,0.6337199211120605,-0.7122573256492615,-0.30180928111076355,0.30814415216445923,-0.1059800386428833,0.04446980357170105,0.22096584454520746,-0.2568290173954379,0.5321035742287732,0.7759374468083495,0.7927088798510019,1.1263283845153287,2.070085937202057
1782477280129040640,1.9096646308898926,1.7409827709197998,-0.7805671095848083,-0.45243340730667114,0.6349144577980042,-0.7150458097457886,-0.29256299138069153,0.2594641447067261,-0.11294186115264893,0.02965402603149414,0.22844237558457717,-0.2522353317492193,0.5386054599446937,0.7707759597688282,0.7966896247558701,1.1390047795319624,2.0389261677909465
1782477280138960896,1.9195847511291504,1.2776271104812622,-0.659259557723999,-0.35375502705574036,0.635670006275177,-0.7168802618980408,-0.28636735677719116,0.22294199466705322,-0.08989763259887695,0.00330159068107605,0.23468531831825737,-0.24817325708930338,0.5433473662559701,0.7668809783539685,0.7993172969464841,1.1475292761775437,2.014651229013929
1782477280148879872,1.9295036792755127,0.8367615938186646,-0.5714576840400696,-0.15908724069595337,0.6357917785644531,-0.7182433009147644,-0.2826575040817261,0.2485923171043396,-0.20267033576965332,-0.08286675810813904,0.23958017398511616,-0.24462139968562818,0.5466549365113552,0.7641531590967097,0.8012742953498806,1.1524625054395736,1.9968217860220052
1782477280158798592,1.939422607421875,0.3368023931980133,-0.56723952293396,-0.05914786458015442,0.6349284648895264,-0.7191573977470398,-0.28227388858795166,0.28036999702453613,-0.2402542233467102,-0.09846341609954834,0.2431915233457649,-0.24135636119867968,0.5482792759877988,0.7628858970543548,0.8025889337014809,1.1524622467523402,1.9863312992702373
1782477280168718848,1.9493427276611328,0.06895817071199417,-0.5174658298492432,0.14898669719696045,0.6331213712692261,-0.7199345827102661,-0.2843441665172577,0.2671929597854614,-0.1643732786178589,-0.1419711709022522,0.24583784433646155,-0.23817969957687973,0.5487242886202327,0.7627161379815487,0.803708044297712,1.1486787992535776,1.98123518152427
1782477280178637824,1.9592616558074951,0.009600833058357239,-0.49229735136032104,0.21044659614562988,0.6302852034568787,-0.7212927937507629,-0.28718847036361694,0.24263960123062134,-0.10823601484298706,-0.16717249155044556,0.24750395186163388,-0.23497241313782755,0.5488111911751029,0.7631094263448135,0.8056669957619043,1.1432550784029496,1.9792339426886156
1782477280188556544,1.9691805839538574,-0.04636562988162041,-0.4802805185317993,0.23774884641170502,0.6272955536842346,-0.7226341366767883,-0.2903446853160858,0.1944206953048706,-0.061255574226379395,-0.20844987034797668,0.24902357425449193,-0.23178349134979,0.548729507538487,0.7636488110192516,0.8076056005654921,1.1373066374209109,1.9780142418290063
1782477280198476032,1.979099988937378,-0.2257324606180191,-0.3848157823085785,0.3368717133998871,0.6239432096481323,-0.7241275906562805,-0.2938264012336731,0.2504158616065979,-0.06153213977813721,-0.19918504357337952,0.24892636384311945,-0.2295126100360269,0.5480973954582545,0.7648194296215807,0.8097685865952985,1.130683362104249,1.9813376787829764
1782477280208396032,1.9890198707580566,-0.6785504817962646,-0.36836203932762146,0.35642096400260925,0.6203514337539673,-0.7249336838722229,-0.29939141869544983,0.2990974187850952,-0.1447104811668396,-0.19221621751785278,0.24814324893974693,-0.22768664540766895,0.5463177534085366,0.7668902351022461,0.8109381272688039,1.121152554564548,1.9892874594378611
1782477280218315008,1.998939037322998,-1.1856640577316284,-0.3273072838783264,0.417227566242218,0.6165498495101929,-0.7244845628738403,-0.3082018494606018,0.35381758213043213,-0.15942656993865967,-0.2136334776878357,0.24654860040876467,-0.22648547351855616,0.5427738065164758,0.7702692416981562,0.8102863516698674,1.1072435283001738,2.0037917421794793
1782477280228233984,2.0088579654693604,-1.6724579334259033,-0.40605515241622925,0.5025840997695923,0.6121153235435486,-0.7228532433509827,-0.3206213414669037,0.3885408043861389,-0.21821731328964233,-0.2171289324760437,0.24414734167950453,-0.22560394486581248,0.5373938836273683,0.7750501709778861,0.807922581852585,1.0882964805434412,2.0250402906848435
1782477280238154240,2.018778085708618,-2.2473196983337402,-0.5184440016746521,0.578589916229248,0.6067603230476379,-0.7196817994117737,-0.3374907970428467,0.37677544355392456,-0.23445028066635132,-0.19012761116027832,0.2410554352754418,-0.22479360066215334,0.5298324651747106,0.7814330858430193,0.8033439064304062,1.0631920234242285,2.053598621153114
1782477280248073216,2.0286970138549805,-2.376455068588257,-0.6290671229362488,0.5805562138557434,0.60054612159729,-0.7151738405227661,-0.3575900197029114,0.3418213725090027,-0.2617853283882141,-0.17794767022132874,0.2376767929019008,-0.22375558976131438,0.5207095434694797,0.7888629009577158,0.7968728207677275,1.0337354868969721,2.086597102617653
1782477280257991936,2.0386159420013428,-2.2937698364257812,-0.6752769947052002,0.6261127591133118,0.5939668416976929,-0.7101793885231018,-0.3779531717300415,0.29243147373199463,-0.3225049376487732,-0.216544508934021,0.23436694201209893,-0.22244331467237788,0.5114121448726309,0.7962717815422314,0.7897529994049727,1.004097951814366,2.1192590115858647
1782477280267910912,2.048534870147705,-2.120293378829956,-0.8658416271209717,0.7068052291870117,0.5863005518913269,-0.7056280970573425,-0.39792051911354065,0.3408539891242981,-0.31219416856765747,-0.20052915811538696,0.23121636149138503,-0.22025465535600022,0.5025212669539754,0.8034297301572116,0.7833091612407145,0.9745110944877086,2.1502948111294224
1782477280277831168,2.058454990386963,-1.961235523223877,-1.067999243736267,0.760351836681366,0.5771996378898621,-0.7016391754150391,-0.41778331995010376,0.4156591296195984,-0.24730485677719116,-0.18751758337020874,0.22838795122796066,-0.2168952255888912,0.49402915149422993,0.8103890981412846,0.7776953761041978,0.9442680969029413,2.1797035285820248
1782477280287749888,2.068373918533325,-1.895185947418213,-1.2999354600906372,0.788009762763977,0.5667422413825989,-0.6979166865348816,-0.43785321712493896,0.4501033425331116,-0.25139355659484863,-0.22698745131492615,0.22614872768958522,-0.2123287372674392,0.48578791607233074,0.8171800780481542,0.7724844014919829,0.9130005197552349,2.207379656262012
1782477280297669120,2.0782930850982666,-2.0575032234191895,-1.419588327407837,0.9695848822593689,0.5546548366546631,-0.6940482258796692,-0.45897194743156433,0.5145285725593567,-0.2750527262687683,-0.18925195932388306,0.2237894711971274,-0.20689841797568867,0.4771866196121102,0.8242598851392139,0.7670969831478991,0.8795158190394974,2.236121178801349
1782477280307589120,2.0882129669189453,-2.1772074699401855,-1.496184229850769,1.0887380838394165,0.5406019687652588,-0.6897895932197571,-0.48160138726234436,0.5032823085784912,-0.2541496157646179,-0.13496053218841553,0.22078293641539537,-0.20075057641301958,0.46786590755213797,0.8318988203189205,0.7611983944043024,0.8430531953761794,2.2677174166980643
1782477280317508096,2.0981318950653076,-1.9709769487380981,-1.5226507186889648,1.1158069372177124,0.5256916284561157,-0.6853746175765991,-0.5038948655128479,0.4102214574813843,-0.2736097574234009,-0.15278232097625732,0.21762540102679423,-0.1942348720014789,0.45861244745409313,0.8393966356239916,0.7551180098088454,0.8065654000166036,2.2989907099460876
1782477280327427072,2.108051061630249,-1.8286722898483276,-1.5604019165039062,1.1770206689834595,0.5100171566009521,-0.6816335320472717,-0.5246506333351135,0.34491753578186035,-0.30701392889022827,-0.16800683736801147,0.2145143923555717,-0.18721207275908144,0.4501403519509007,0.8463503363757502,0.7499928227895799,0.7712559799679597,2.328225660299214
1782477280337346048,2.1179699897766113,-1.734573483467102,-1.4757027626037598,1.177504301071167,0.49392935633659363,-0.6781001687049866,-0.5442554950714111,0.29307323694229126,-0.32574498653411865,-0.13010668754577637,0.21122742936232092,-0.18006081544511787,0.44209767396578004,0.8529424675694578,0.7451746667492875,0.7369609391556418,2.3565089737190537
1782477280347266048,2.12788987159729,-1.710172176361084,-1.4619852304458618,1.1512800455093384,0.47805318236351013,-0.6742449402809143,-0.5629023909568787,0.27212995290756226,-0.3826550841331482,-0.10138899087905884,0.20803851107832683,-0.17304951027857643,0.43428410493492786,0.8591689566735572,0.7399417812260104,0.704067094012597,2.383437300211793
1782477280357185024,2.1378090381622314,-1.7734136581420898,-1.5571948289871216,1.1611627340316772,0.4616602957248688,-0.6698648929595947,-0.5815074443817139,0.3472844362258911,-0.3986470699310303,-0.05162549018859863,0.20478956765974854,-0.16586213161009336,0.42630507680898455,0.8653410411859911,0.7340268014955147,0.6710119329225361,2.410323521584079
1782477280367104000,2.1477279663085938,-1.9277294874191284,-1.6490516662597656,1.1936118602752686,0.4444008767604828,-0.6643462777137756,-0.6009591817855835,0.3449820578098297,-0.40599673986434937,-0.030907273292541504,0.2016470053644692,-0.15828628156735797,0.41769111898736627,0.8716754728428587,0.7266188720253366,0.6367380953627578,2.437621046804269
1782477280377024256,2.1576480865478516,-2.118723154067993,-1.6546272039413452,1.3241647481918335,0.4259311258792877,-0.6575223207473755,-0.6214878559112549,0.2861965596675873,-0.411340594291687,-0.020342588424682617,0.19801450227684758,-0.15043360109409484,0.4081982475593327,0.8783702176589725,0.7175254813947095,0.600819847492083,2.466840999602028
1782477280386942976,2.167567014694214,-2.235328435897827,-1.6273651123046875,1.4455714225769043,0.40601515769958496,-0.6498090028762817,-0.6425729990005493,0.21904590725898743,-0.36363399028778076,0.019648194313049316,0.19356220485450612,-0.14226548866519326,0.39808797475859864,0.885336247018072,0.7073331048594546,0.5635160238987335,2.4981820350311676
1782477280396861952,2.177485942840576,-2.3602938652038574,-1.6072241067886353,1.5100820064544678,0.38557174801826477,-0.6409415602684021,-0.6637230515480042,0.20411941409111023,-0.3445931077003479,0.044460415840148926,0.18848351398880356,-0.13419791760930758,0.38746534019273926,0.892376280603208,0.6957242939075259,0.5262738908914014,2.530537745638957
1782477280406780928,2.1874048709869385,-2.3342878818511963,-1.5652858018875122,1.6150736808776855,0.36491844058036804,-0.6311551928520203,-0.6844542622566223,0.16413429379463196,-0.39797383546829224,0.023367226123809814,0.18298984177734323,-0.12625835713453748,0.37660549202820953,0.8993007469989813,0.6830416387416346,0.4898164466266263,2.562907364967453
1782477280416701184,2.1973249912261963,-2.227116107940674,-1.4304735660552979,1.6913071870803833,0.3442124128341675,-0.6213283538818359,-0.7038955688476562,0.13743126392364502,-0.48560523986816406,0.02860260009765625,0.17689529351224414,-0.11850031613467958,0.36607362076054,0.9059006206427144,0.6704368548769682,0.4548175387422105,2.5950218004080345
1782477280426619904,2.2072439193725586,-2.116629123687744,-1.2379082441329956,1.6893478631973267,0.32434386014938354,-0.6116772294044495,-0.7215622663497925,0.10813599824905396,-0.558259904384613,0.01166236400604248,0.17042753109252018,-0.11126723062202014,0.3561439074797163,0.9119954328632347,0.6581789683474063,0.42243993718902445,2.6259178958386338
1782477280436539136,2.2171630859375,-2.2765004634857178,-1.0291084051132202,1.7056528329849243,0.3057766556739807,-0.6013458967208862,-0.7381623983383179,0.12253755331039429,-0.6177550554275513,0.04878556728363037,0.16353113852990891,-0.1048808953041377,0.3462929435834199,0.9177901143405385,0.6451845424881046,0.3927219572917675,2.6561422055012485
1782477280446459136,2.2270829677581787,-2.974330425262451,-0.9454308152198792,1.70042085647583,0.28855100274086,-0.5872096419334412,-0.7562559843063354,0.08213075995445251,-0.6239262223243713,0.10800158977508545,0.15608954904336972,-0.09962214179214128,0.33458544907396665,0.9239935186212305,0.6276071967509128,0.36450249866871887,2.687418250289905
1782477280456377856,2.237001895904541,-4.018858909606934,-0.8533347249031067,1.8161288499832153,0.2715403437614441,-0.5654838681221008,-0.7787771224975586,-0.05730694532394409,-0.5967780947685242,0.2243032455444336,0.1477824412990884,-0.09520604872720227,0.3186648029859053,0.9314230138575578,0.6010198495936234,0.3354941925403288,2.7220316239530695
1782477280466297088,2.2469210624694824,-4.741550445556641,-0.7399289011955261,1.812984585762024,0.25533947348594666,-0.5356898307800293,-0.8048839569091797,-0.26075634360313416,-0.5155491828918457,0.2637462615966797,0.13847459981239227,-0.09185875865498246,0.29852972891851487,0.9398227331935105,0.5653244822811113,0.3071951556236351,2.7591461699390214
1782477280476216064,2.2568399906158447,-4.935127258300781,-0.7206153869628906,1.8201011419296265,0.2399832010269165,-0.5006547570228577,-0.8317168354988098,-0.3319936990737915,-0.39015334844589233,0.18059378862380981,0.12885971497686013,-0.08901997626668108,0.27607430487194556,0.9482898908502898,0.5243550009445499,0.28090973722882134,2.7956277077233387
1782477280486136064,2.2667598724365234,-4.622865676879883,-0.5628018975257874,1.845976710319519,0.22562715411186218,-0.46472957730293274,-0.8562235832214355,-0.2625076174736023,-0.34242984652519226,0.11434125900268555,0.11897852812745967,-0.08641688584520284,0.25381159326104935,0.9560104615680926,0.48332917129027964,0.2576569994717242,2.830119894293907
1782477280496055040,2.276679039001465,-4.118557929992676,-0.3347489833831787,1.859334111213684,0.2136184126138687,-0.43130338191986084,-0.8765527009963989,-0.2028914839029312,-0.38623201847076416,0.043163418769836426,0.10882334137915149,-0.084556595021028,0.23361044855572036,0.9625143801476641,0.4459369250252779,0.23904324106331223,2.861979432717172
1782477280505974016,2.286597967147827,-3.6638126373291016,-0.2649906575679779,1.8682665824890137,0.2031809687614441,-0.4010477662086487,-0.8932402729988098,-0.2420603632926941,-0.3917531371116638,0.042669594287872314,0.09859741065047171,-0.08299198134880276,0.2156204904519134,0.9679352572319344,0.4126603324591605,0.2236595031324706,2.891564249403391
1782477280515894272,2.296518087387085,-3.1475670337677,-0.21418499946594238,1.8650656938552856,0.193884938955307,-0.37443238496780396,-0.9067574143409729,-0.3442297875881195,-0.31628721952438354,0.0611000657081604,0.08844459793313332,-0.08150834864396253,0.19994419523470405,0.9723971815419687,0.3837845663020596,0.21065021001133277,2.9191094336918346
1782477280525812992,2.3064370155334473,-2.7035324573516846,-0.15316817164421082,1.8573765754699707,0.18542398512363434,-0.35153958201408386,-0.9176262021064758,-0.45823585987091064,-0.29235079884529114,0.05660325288772583,0.07839520926852471,-0.08000696846703709,0.1865094506241609,0.9760468194914926,0.35921514986325553,0.19938437382114144,2.944981101847706
1782477280535731968,2.3163559436798096,-2.176809787750244,-0.11889622360467911,1.7362093925476074,0.1780581921339035,-0.33252131938934326,-0.9261343479156494,-0.5500827431678772,-0.30810368061065674,0.026857614517211914,0.06879904333011781,-0.07861968559582785,0.17536179285172937,0.978945356919736,0.3389757569558072,0.18994188468105588,2.9686660578165873
1782477280545652224,2.3262760639190674,-1.7082624435424805,-0.13996148109436035,1.630726933479309,0.17148274183273315,-0.3177955150604248,-0.9325233101844788,-0.5468184351921082,-0.2940666675567627,0.0006080269813537598,0.06001886636847398,-0.07719281257643726,0.16667219794482713,0.9811521408236407,0.32340356567192646,0.18185935493554692,2.989655460648253
1782477280555571200,2.3361949920654297,-1.511959195137024,-0.1336042433977127,1.6356135606765747,0.1649496853351593,-0.3059048354625702,-0.9376640319824219,-0.5902273654937744,-0.1959109604358673,0.059200286865234375,0.05156023732210635,-0.0755359648317967,0.15956910027308477,0.982941335720498,0.3108886683511171,0.17413387288976995,3.0094229114053674
1782477280565489920,2.346113920211792,-1.3192609548568726,0.05806269124150276,1.4890296459197998,0.15975040197372437,-0.2953697741031647,-0.9419323205947876,-0.7646088004112244,0.018849998712539673,0.1109539270401001,0.04338787895750312,-0.0743826627309013,0.15330055253393166,0.9844204513138628,0.29984255106902025,0.1680000035136999,3.0280649059632734
1782477280575409152,2.3560330867767334,-1.025763750076294,0.09017615020275116,1.1411869525909424,0.15669848024845123,-0.2865009903907776,-0.9451786875724792,-0.921499490737915,0.1423512101173401,0.09163254499435425,0.0364054890297658,-0.07402939920307507,0.14808881860193698,0.9855273198523699,0.29057273714128856,0.16429280922804743,3.043654089162532
1782477280585329152,2.365952968597412,-0.5623998045921326,-0.19302359223365784,0.822873592376709,0.15313094854354858,-0.2805584669113159,-0.9475430846214294,-0.9282621741294861,0.15520751476287842,-0.010220587253570557,0.031337253612405726,-0.07303626200130088,0.14454816969047996,0.9863009282129085,0.28437590458692075,0.16022315427910372,3.0550842442220874
1782477280595247872,2.3758718967437744,-0.0842585563659668,-0.261819452047348,0.6866784691810608,0.14868663251399994,-0.27875375747680664,-0.948782742023468,-0.8547871112823486,0.15059521794319153,0.05060464143753052,0.02773704263589263,-0.07131666893434405,0.14325702990531666,0.9867228711575383,0.28249617613327127,0.15544872110368907,3.063239180783267
1782477280605167104,2.385791063308716,0.584642767906189,-0.5039137005805969,0.5112091898918152,0.1431276649236679,-0.2818281948566437,-0.9487293362617493,-0.8770449161529541,0.24490192532539368,0.25205880403518677,0.025052486297339346,-0.06885265733606744,0.14454981209109846,0.9867811003634424,0.2856989986526854,0.14973334936324809,3.069251857787337
1782477280615087104,2.3957109451293945,1.4987770318984985,-0.5772230625152588,0.40162330865859985,0.13624054193496704,-0.292449414730072,-0.9465262293815613,-0.9516244530677795,0.3628076910972595,0.3347708582878113,0.02358754179198526,-0.0654860408544402,0.14982815912579417,0.9862589631626248,0.29678724037993814,0.14295557183544755,3.0723629781243877
1782477280625006080,2.405629873275757,1.6933281421661377,-0.19551776349544525,0.3689766824245453,0.13088881969451904,-0.30876800417900085,-0.9420883655548096,-1.0117329359054565,0.36940643191337585,0.40214085578918457,0.02271755375581321,-0.0627835342915703,0.15815833770598423,0.9851537840553691,0.3138974610688384,0.1380510232227533,3.0736005022139734
1782477280634925056,2.4155490398406982,2.982687473297119,-0.23730462789535522,0.553508996963501,0.12481661140918732,-0.3320315480232239,-0.9349737167358398,-0.9916684031486511,0.2558901906013489,0.31273555755615234,0.02074032147444836,-0.05987524309780731,0.17008260543157414,0.9833904052213117,0.33845648656647404,0.13271278601986908,3.0767096546635275
1782477280644845056,2.425468921661377,2.909846782684326,-0.29319098591804504,0.3504301607608795,0.11926441639661789,-0.36045628786087036,-0.9251201152801514,-1.0012071132659912,0.5356577038764954,-0.43297314643859863,0.019802247741208173,-0.05706076015411602,0.18488917623236964,0.9809015492003588,0.36875702804490945,0.12821060781642205,3.0772800055074296
1782477280654764288,2.4353880882263184,3.7239630222320557,0.06469845026731491,0.7000440955162048,0.11271844804286957,-0.39129364490509033,-0.9133366346359253,-0.8972338438034058,0.49461090564727783,-0.03246414661407471,0.01804438582522342,-0.05392143228478115,0.2010576016541252,0.9779277242422184,0.4020369055290792,0.12279300564892051,3.0796417423106153
1782477280664683008,2.4453070163726807,4.342145919799805,0.3391404151916504,0.7942761778831482,0.11024350672960281,-0.43073466420173645,-0.8957198262214661,-0.9343554377555847,0.13334089517593384,-0.49865877628326416,0.015132061221812518,-0.05317247323443755,0.22206478781251235,0.9734633843468583,0.44530666763769683,0.12246222981465926,3.082746799174845
1782477280674601984,2.455225944519043,3.5625882148742676,0.733373761177063,0.6600134372711182,0.10930647701025009,-0.46630415320396423,-0.8778454065322876,-0.9903489947319031,0.21323713660240173,0.0447002649307251,0.011553669371248519,-0.05352984284993598,0.2412713551827769,0.968911308824603,0.4851082885161137,0.1238791796501041,3.087057290386573
1782477280684522240,2.465146064758301,2.959261417388916,0.9621903896331787,0.7257480025291443,0.11077607423067093,-0.4957655966281891,-0.8613623976707458,-0.9164248704910278,0.12314599752426147,0.21661752462387085,0.008214376206015707,-0.055223751565307504,0.25742795004122115,0.9646832092495514,0.5187161565073501,0.1279035874856115,3.0905825764114985
1782477280694440960,2.475064992904663,1.9042636156082153,1.3204630613327026,0.8698940277099609,0.1154714822769165,-0.5177768468856812,-0.8476871252059937,-0.6237722635269165,0.03802525997161865,0.44030797481536865,0.0031269586479169436,-0.05919174021932712,0.2695417810340045,0.9611627610061703,0.5442503102116046,0.1353861686588303,3.0972536099354597
1782477280704359936,2.4849839210510254,0.9052490592002869,1.391434669494629,0.6168558597564697,0.12128869444131851,-0.5307759642601013,-0.8387883305549622,-0.2866329550743103,-0.1560983657836914,0.5645116567611694,-0.0017681592411311678,-0.0637572152642604,0.27666015719024684,0.9588487734001374,0.559515889456974,0.14360452125340484,3.1039590906902665
1782477280714280192,2.494904041290283,0.06748516857624054,1.2638511657714844,-0.2650325894355774,0.13016444444656372,-0.537462055683136,-0.8331816792488098,-0.03276759386062622,-0.2142011523246765,0.2650207281112671,-0.004860846593210062,-0.06940322976031879,0.2803432493117826,0.957375162757039,0.5674246178179189,0.15497307962987855,3.1064774431730697
1782477280724199168,2.5048229694366455,-2.506561279296875,1.3662766218185425,-1.1595746278762817,0.14610566198825836,-0.5251073241233826,-0.8384005427360535,0.16100797057151794,-0.014595985412597656,0.26318997144699097,-0.003223603270415984,-0.07711630365473342,0.2735924276381265,0.9587439041125664,0.5528412240713351,0.17253450037763196,3.0992602357265553
1782477280734117888,2.514741897583008,-2.566495418548584,1.2359956502914429,-1.669726848602295,0.16417212784290314,-0.5011262893676758,-0.849658727645874,0.5245333313941956,-0.09407329559326172,0.11587882041931152,0.00010260807529764601,-0.08532910346849637,0.2605562897777387,0.9616804603317138,0.524899774326155,0.19086912912084986,3.0899580188251785
1782477280744037120,2.524661064147949,-2.6226677894592285,1.881648302078247,-1.0457179546356201,0.18439871072769165,-0.4763179123401642,-0.8597199320793152,0.6677131056785583,0.4204249680042267,-0.15802603960037231,0.004204220235856549,-0.09453577534159854,0.24739245146903693,0.9642832663565195,0.4964622803677784,0.21128574045043155,3.0791334468812126
1782477280753957120,2.534580945968628,-2.0565881729125977,1.1638855934143066,-0.8774756193161011,0.2001766562461853,-0.45344623923301697,-0.8685135245323181,0.9700198769569397,0.26625141501426697,-0.01962423324584961,0.005993437330250957,-0.10209359004301194,0.23520230944189555,0.9665509581431314,0.47062816953962083,0.22652603149416317,3.0746602359647506
1782477280763875840,2.5444998741149902,0.2551610469818115,-0.460227370262146,-1.2951656579971313,0.20663286745548248,-0.4440728425979614,-0.871838390827179,0.7998521327972412,0.09815609455108643,-0.18132323026657104,0.009713897602603171,-0.10448493785700448,0.23057257015848842,0.9673803560659667,0.46013920545937753,0.23271423621475604,3.0667711912895483
1782477280773795072,2.5544190406799316,2.092871904373169,-0.5221655964851379,-1.129395604133606,0.2071547657251358,-0.452777624130249,-0.8672251105308533,0.1921372413635254,0.7252538204193115,-0.5969319939613342,0.01716412593157032,-0.1030177420135672,0.23616687596897676,0.9660839034193996,0.46987811789385925,0.23447701410378655,3.0496951439690725
1782477280783715072,2.5643389225006104,2.2971017360687256,-0.25258177518844604,-1.7040512561798096,0.20959074795246124,-0.4694576561450958,-0.8577186465263367,0.10171908140182495,0.7701930999755859,-0.46607285737991333,0.02677369911497085,-0.10192658284994181,0.24647850437269672,0.9634015607201123,0.48867643146176787,0.23966189980850727,3.026003332180075
1782477280793634304,2.5742580890655518,1.336195707321167,-0.14528034627437592,-1.6246798038482666,0.21497072279453278,-0.48113131523132324,-0.8498825430870056,0.11136901378631592,0.45862460136413574,0.16107022762298584,0.035468489578320064,-0.10246055873235559,0.25408772990188044,0.961084504838499,0.5019447591573287,0.24774539718880384,3.0039952158440717
1782477280803553024,2.584177017211914,-0.4325762987136841,-0.04946616291999817,-1.7871034145355225,0.22230851650238037,-0.48047736287117004,-0.8483633399009705,-0.07118549942970276,0.12929636240005493,0.38538122177124023,0.04456336934366637,-0.10391543175900203,0.25499001327197146,0.9603101826160351,0.5011989471571637,0.2562816744970397,2.9829081073879267
1782477280813472000,2.5940959453582764,-0.731002688407898,0.5473607778549194,-1.6282824277877808,0.2321377396583557,-0.4712311029434204,-0.8509132266044617,-0.1555538773536682,0.1706482172012329,0.5007545351982117,0.051991140119795554,-0.1072399328113976,0.2510836068460765,0.9606006541146104,0.49068604928942894,0.2663291619708741,2.966393791089113
1782477280823392256,2.604016065597534,-1.333776831626892,0.8559828400611877,-1.6333370208740234,0.2456558495759964,-0.459222674369812,-0.8536789417266846,-0.2002304345369339,0.5369356870651245,0.32914280891418457,0.05803356477191492,-0.11297459274502247,0.24575856453452155,0.9609742781112568,0.4771199583361679,0.28019124898151965,2.9523960435856442
1782477280833310976,2.6139349937438965,-2.2462375164031982,0.8245199918746948,-1.9873557090759277,0.2612600028514862,-0.4393445551395416,-0.8594879508018494,-0.016921013593673706,0.24777045845985413,0.5909790992736816,0.0650201219952229,-0.11980487094395126,0.23643774206503115,0.9620376211008524,0.4548689035307883,0.2950965474293726,2.937856585763202
1782477280843229952,2.623853921890259,-2.328906297683716,0.40952494740486145,-1.486493468284607,0.2746090292930603,-0.41459959745407104,-0.8675811886787415,0.3539767861366272,0.17889708280563354,0.5754669308662415,0.07058463950158514,-0.1260396467881621,0.2243288222736794,0.9637471187633411,0.4275027455679388,0.3065453586084913,2.9283322829862315
1782477280853150208,2.6337740421295166,-2.757176160812378,-0.5006449818611145,-1.798303246498108,0.2794041633605957,-0.38889092206954956,-0.8778936266899109,0.5067896842956543,0.33395931124687195,0.2505895495414734,0.07690179522873439,-0.12779222837628515,0.21147658567096678,0.9659363350781615,0.39942745829475856,0.30812972574216463,2.919853703923614
1782477280863069184,2.643692970275879,-3.2700366973876953,-0.9281170964241028,-1.8380794525146484,0.2798464298248291,-0.357711523771286,-0.8909143805503845,0.4904630184173584,0.130691260099411,0.3954614996910095,0.08428221380145806,-0.12741706273531797,0.19572351897670415,0.9686866108684339,0.3658161068069103,0.3043522936626894,2.911295279040872
1782477280872987904,2.653611898422241,-3.4625818729400635,-1.1997231245040894,-1.7614450454711914,0.27634087204933167,-0.3218405544757843,-0.905568540096283,0.40374335646629333,0.0786001980304718,0.42964690923690796,0.09162952274220657,-0.1254517858982776,0.17741920977669692,0.9717964528898776,0.3276728208895793,0.2961815443393066,2.9042556193991813
1782477280882908160,2.663532018661499,-3.864377021789551,-1.3702999353408813,-1.7776837348937988,0.2693653404712677,-0.28360715508461,-0.9203310608863831,0.2279643416404724,0.3318096995353699,0.15226471424102783,0.09927112348060912,-0.12207988631774107,0.15789541672920934,0.9748387996143028,0.2875536189238379,0.2847305757245756,2.8971286301691928
1782477280892827136,2.6734509468078613,-3.1505894660949707,-1.271756887435913,-1.206539273262024,0.2612527310848236,-0.24722184240818024,-0.9330746531486511,0.3177877962589264,0.18583573400974274,0.014312505722045898,0.10532490466800482,-0.11863360528807478,0.13924340808406627,0.9774681264696128,0.24981204206925964,0.2730005758801188,2.8924264345373856
1782477280902745856,2.6833698749542236,0.14813826978206635,-1.176501750946045,-0.9505661725997925,0.2535894513130188,-0.22917231917381287,-0.9397725462913513,0.4094812273979187,0.43019160628318787,-0.2850351929664612,0.11042242918816844,-0.11489050046682381,0.1300534572734851,0.9786179720368196,0.23122729241599466,0.2635639215923141,2.886088902434102
1782477280912665088,2.693289041519165,1.9104539155960083,-1.0695934295654297,-0.5054193735122681,0.243702694773674,-0.23902474343776703,-0.9399341344833374,0.4199478030204773,0.9547230005264282,-1.0821300745010376,0.11540836658261543,-0.10865122006308543,0.13501054207088373,0.9780838287046834,0.24136134941527662,0.25369011434267863,2.8757614964796123
1782477280922585088,2.7032089233398438,1.8541144132614136,-0.1417091190814972,-0.06322214007377625,0.2391665130853653,-0.256609708070755,-0.936456561088562,0.2537839412689209,0.10594442486763,-0.5403653383255005,0.11846795042062504,-0.10494663851298769,0.14407614631933408,0.9768283275893334,0.25951279955541867,0.2500500234607146,2.8674180672695293
1782477280932504064,2.713128089904785,1.511965274810791,0.020792704075574875,0.1563190072774887,0.23843219876289368,-0.27254003286361694,-0.9321330189704895,0.23654338717460632,-0.48809534311294556,-0.0541035532951355,0.11884173004015837,-0.10363850894589612,0.15229096434580028,0.9756757034420901,0.27603201366356783,0.25042250272835936,2.8642148738152544
1782477280942423040,2.7230470180511475,1.22607421875,0.1430281400680542,-0.23876912891864777,0.23925891518592834,-0.28507542610168457,-0.9281633496284485,0.14286690950393677,-0.10055992007255554,0.184587299823761,0.11962308819374182,-0.1032439327702039,0.15893089546090955,0.9745624148164505,0.2890851314653958,0.25228445608081373,2.860409853857423
1782477280952343040,2.732966899871826,0.5507530570030212,-0.0023551490157842636,-0.45267796516418457,0.2416020631790161,-0.2921641767024994,-0.9253478050231934,0.01057995855808258,-0.2700611650943756,0.16587209701538086,0.12182351487888256,-0.10368170622563264,0.1630220990875185,0.9735671575280206,0.29648897678637043,0.255391805711502,2.854280358357095
1782477280962262272,2.7428860664367676,0.27547991275787354,0.005972289014607668,-0.4624156951904297,0.2433759719133377,-0.29426807165145874,-0.92421555519104,0.2293718159198761,-0.3831305503845215,0.07713919878005981,0.12405478503459999,-0.10409337801662945,0.16448944863953244,0.9729944747500764,0.2986896060026133,0.2574869747669824,2.84901183266759
1782477280972180992,2.75280499458313,0.09001338481903076,0.36050453782081604,-0.29939934611320496,0.24527551233768463,-0.2951545715332031,-0.9234303832054138,0.09771153330802917,-0.1547050178050995,-0.013871192932128906,0.125905960229697,-0.10469947984805246,0.16529615153162475,0.9725548475321233,0.29961729168380796,0.25961882002398784,2.844703554546611
1782477280982100992,2.7627248764038086,0.19442693889141083,0.09152679145336151,-0.12368807941675186,0.2472582906484604,-0.29723429679870605,-0.9222337603569031,0.1682080179452896,-0.19307637214660645,0.008430659770965576,0.12656312349322063,-0.10547945548531394,0.1666049252164573,0.9721618797710022,0.3017947247625918,0.2619475920239648,2.8426203799492415
1782477280992020224,2.77264404296875,0.18979543447494507,-0.06127207353711128,-0.2347802370786667,0.24835419654846191,-0.29847684502601624,-0.9215376973152161,0.2749612331390381,-0.24626189470291138,0.01167142391204834,0.1278825964563111,-0.10573985769879606,0.16748201044598568,0.9718101175432226,0.3030963583524652,0.2632455276040659,2.8394809751024077
1782477281001938944,2.7825629711151123,-0.38692447543144226,-0.030106354504823685,-0.08917650580406189,0.2491079419851303,-0.29645878076553345,-0.9219855666160583,0.2772287130355835,-0.44754448533058167,0.047397613525390625,0.1280851873348662,-0.10621083976645096,0.1665126583565202,0.9718986124683426,0.3009825949023929,0.2638855406456785,2.8392821992741015
1782477281011857920,2.7924818992614746,-0.48714160919189453,-0.04723607376217842,-0.015682315453886986,0.2488088458776474,-0.29228416085243225,-0.9233981370925903,0.2380533367395401,-0.36636146903038025,-0.10058867931365967,0.12831552076000619,-0.10626775963921259,0.1643413747304087,0.9722316243025915,0.2966144267656185,0.2631983460229031,2.839602336067074
1782477281021778176,2.8024020195007324,-0.35137879848480225,-0.32228779792785645,-0.011532343924045563,0.24794434010982513,-0.28812605142593384,-0.9249361753463745,0.32499265670776367,-0.19098466634750366,-0.155431866645813,0.12855167366297626,-0.10603496220228138,0.16213724557134504,0.9725957905360646,0.2922693329677279,0.2619087677425036,2.8400027366545952
1782477281031697152,2.8123209476470947,-0.6026912331581116,-0.11198703199625015,0.09701357781887054,0.24565036594867706,-0.2838667929172516,-0.9268633127212524,0.27362149953842163,-0.1867447793483734,-0.17360055446624756,0.12789640917455394,-0.1052258426311082,0.1596742719022438,0.9731774229673948,0.28782438269172106,0.2590775732995984,2.84249661052921
1782477281041615872,2.822239875793457,-0.7782819867134094,-0.0042028119787573814,0.06607386469841003,0.24504117667675018,-0.2777002155780792,-0.9288904070854187,0.05897493660449982,-0.17766782641410828,-0.0237920880317688,0.1271829543705102,-0.10539751670950644,0.15635265717771407,0.973791401874337,0.2813993300629622,0.2579240213910297,2.8451200180301366
1782477281051536128,2.832159996032715,-0.8637473583221436,-0.024825800210237503,0.18418879806995392,0.24458014965057373,-0.2701228857040405,-0.931243360042572,0.11369620263576508,-0.10763895511627197,0.03608649969100952,0.1262849531899203,-0.10575252591780994,0.1522981553692019,0.9745120713223496,0.2735206494827743,0.2568376971731743,2.8483155321106497
1782477281061455104,2.842078924179077,-0.6480502486228943,-0.1909886598587036,0.11397560685873032,0.24264761805534363,-0.26447585225105286,-0.9333673715591431,0.21799996495246887,-0.11371323466300964,-0.028027892112731934,0.12482299202797927,-0.10532308782582452,0.1490750017832066,0.9752450937314304,0.267660370883906,0.2543400648454834,2.8525686512803454
1782477281071374080,2.8519980907440186,-0.4661291539669037,-0.28616687655448914,0.362212598323822,0.2398853600025177,-0.25905200839042664,-0.9355998635292053,0.1542186439037323,-0.028652459383010864,0.005225718021392822,0.12401228477303648,-0.10435184042937634,0.14598206853686302,0.975920622860815,0.26204057053099966,0.2509906181591191,2.855557326298021
1782477281081294080,2.8619179725646973,-0.0041412771679461,-0.3482014834880829,0.20214302837848663,0.2370748221874237,-0.2571309208869934,-0.9368453621864319,0.2525644600391388,-0.08338421583175659,-0.09307712316513062,0.12275863539278076,-0.10321646318493508,0.14465021733011327,0.9763979735695638,0.260052134513102,0.24785330532080066,2.8588787766693473
1782477281091213056,2.8718369007110596,0.058595072478055954,-0.35172003507614136,0.1769130378961563,0.23315057158470154,-0.25842732191085815,-0.9374732971191406,0.20909491181373596,0.0029188990592956543,-0.18627548217773438,0.12191064745679134,-0.10126846804663647,0.14494157798298743,0.9766649557897578,0.2613938565173319,0.24375573241756754,2.8610328423230396
1782477281101132032,2.881756067276001,0.4321795701980591,-0.44479432702064514,0.13365638256072998,0.22909857332706451,-0.26096558570861816,-0.9377690553665161,0.17059014737606049,-0.001439809799194336,-0.1299036741256714,0.12155578053548309,-0.09911302778257458,0.145918060295678,0.9767848724940394,0.26402231320945463,0.23960841406561223,2.862009686761299
1782477281111051008,2.8916749954223633,0.2947450280189514,-0.5413240790367126,0.1880495846271515,0.22416485846042633,-0.26530352234840393,-0.9377442002296448,0.17358599603176117,-0.00013837218284606934,-0.18966668844223022,0.12132855412886365,-0.09638881155350149,0.14777383839126557,0.9768067467263536,0.26851872451447273,0.2346436108648651,2.8626024290871728
1782477281120971008,2.901594877243042,0.13746598362922668,-0.4937008023262024,0.24944332242012024,0.21833756566047668,-0.26816293597221375,-0.9383055567741394,0.14447066187858582,-0.13325002789497375,-0.025134384632110596,0.12085737254555977,-0.0933332025634732,0.14878214700477782,0.9770088380421705,0.27148561453247244,0.2286250090215171,2.864079899518606
1782477281130890240,2.9115140438079834,-0.034003835171461105,-0.398729532957077,0.0682922825217247,0.21445894241333008,-0.26858949661254883,-0.9390777349472046,0.06790493428707123,-0.21789118647575378,-0.034020960330963135,0.12035156233608628,-0.09141401618953658,0.14867615694032577,0.9772687693491225,0.2719284157077909,0.22452150839897628,2.865681037492465
1782477281140808960,2.9214329719543457,-0.3097745478153229,-0.28860580921173096,0.16890856623649597,0.2108294814825058,-0.2674131691455841,-0.9402346014976501,0.1524670422077179,-0.1529969871044159,-0.047955095767974854,0.11974569469106289,-0.08972809811574127,0.14775506159140311,0.9776391889346896,0.27070742993018504,0.22058209914208982,2.8676773319474385
1782477281150729216,2.9313530921936035,-0.3698834180831909,-0.37245598435401917,0.1917148232460022,0.2065580189228058,-0.2650613784790039,-0.9418472647666931,0.1994325816631317,-0.046492576599121094,-0.044953882694244385,0.11884392231184349,-0.08782675694284013,0.14616030768798063,0.9781613949936913,0.26826758734619915,0.21589357765848557,2.870538156494619
1782477281160648192,2.941272020339966,-0.30184486508369446,-0.47688567638397217,0.2545718848705292,0.20198294520378113,-0.26263317465782166,-0.9435182213783264,0.14596319198608398,0.002013087272644043,-0.05913674831390381,0.11787259589857031,-0.08578497060090563,0.1445054196714425,0.9787057818611463,0.2657501775761251,0.21089113451496508,2.873581457759751
1782477281170566912,2.951190948486328,-0.3529341518878937,-0.6605508327484131,0.23408444225788116,0.19577687978744507,-0.26007094979286194,-0.9455339908599854,0.24581247568130493,-0.05511459708213806,-0.13918280601501465,0.11671239047582697,-0.08295021333075138,0.14266136966491802,0.9793596461923817,0.2630956719772497,0.2041692511685694,2.877260598723879
1782477281180487168,2.961111068725586,-0.5850327610969543,-0.601885199546814,0.1058511734008789,0.18948769569396973,-0.25575584173202515,-0.9479891061782837,0.14138388633728027,-0.16735512018203735,-0.1359189748764038,0.11626748710632213,-0.08006679392578224,0.1399812460291647,0.9800390200030843,0.2586294618152836,0.19728385962192246,2.8796883884570827
1782477281190406144,2.9710299968719482,-0.4552398920059204,-0.7107722759246826,0.10929517447948456,0.18219077587127686,-0.25176599621772766,-0.9504842758178711,0.22158728539943695,-0.08131808042526245,-0.15684598684310913,0.11578187535048509,-0.07666327788242017,0.1374066734715385,0.980732728179932,0.2545046103495127,0.1893848858365168,2.8822654074192684
1782477281200325376,2.9809491634368896,-0.3625866174697876,-0.6625805497169495,0.20696261525154114,0.17484349012374878,-0.24864181876182556,-0.9526841044425964,0.19345790147781372,0.02064499258995056,-0.21699362993240356,0.11539893136052733,-0.07317499106517569,0.13528995787583287,0.9813383817194165,0.2512777916107161,0.18150737423768584,2.8844936794803475
1782477281210244096,2.990868091583252,-0.3182287812232971,-0.6078342199325562,0.08921387046575546,0.16855454444885254,-0.24575340747833252,-0.954565167427063,0.20092177391052246,-0.02312171459197998,-0.1981295347213745,0.11448510816048148,-0.07028301476843005,0.1333331253681506,0.9819245018854135,0.24829686061772427,0.1747756921908699,2.887590473982294
1782477281220164096,3.0007879734039307,-0.26830774545669556,-0.5052505731582642,0.39474865794181824,0.1625087559223175,-0.2433416098356247,-0.9562299847602844,0.1465275138616562,-0.040380313992500305,-0.16617602109909058,0.11350101412711792,-0.06749677817197913,0.13164039262777097,0.9824625486139826,0.24580953540691877,0.16833898329163255,2.8907153720420125
1782477281230083328,3.010707139968872,-0.15362803637981415,-0.4297054409980774,0.12216559797525406,0.15719105303287506,-0.24149338901042938,-0.9575865268707275,0.20010875165462494,-0.015495136380195618,-0.11686110496520996,0.11252127400123496,-0.065045974312242,0.13029108622548907,0.9829202596653538,0.24390449051926194,0.1627023130477474,2.893647687905676
1782477281240002048,3.0206260681152344,-0.08681132644414902,-0.7081320881843567,0.3551649749279022,0.15079355239868164,-0.2416938692331314,-0.9585642218589783,0.21582937240600586,0.07206191122531891,-0.12879234552383423,0.11152275143998898,-0.06194247964690624,0.12992696805179982,0.9832826514834629,0.2441111018148323,0.15603316398128259,2.896542057160174
1782477281249922048,3.030545949935913,-0.1890934854745865,-0.7387470006942749,0.2610994577407837,0.1434691995382309,-0.24076035618782043,-0.9599224328994751,0.1401611715555191,0.005576640367507935,-0.0027240514755249023,0.11065226035348864,-0.058417483745221106,0.12894258031536637,0.9837262552715028,0.2431491689847448,0.14836096972530455,2.8994096240435563
1782477281259841280,3.0404651165008545,-0.29309698939323425,-0.7849486470222473,0.18316809833049774,0.1354217827320099,-0.23878231644630432,-0.9615840911865234,0.1802825629711151,-0.10504396259784698,-0.0042057037353515625,0.10988779340317774,-0.05457195040495524,0.12739646624009796,0.9842341534583635,0.2411117082770554,0.13991183198606644,2.902240918116717
1782477281269760256,3.050384044647217,-0.39012792706489563,-0.8293805718421936,0.2371082901954651,0.12720271944999695,-0.23576515913009644,-0.9634491205215454,0.13321901857852936,-0.12188558280467987,0.019036948680877686,0.10913854278438731,-0.050694985269583555,0.12532136709971387,0.9847910356866694,0.23800585278003938,0.13126924292854814,2.9051274951066888
1782477281279680256,3.0603041648864746,-0.5666868686676025,-0.7798265218734741,0.32991448044776917,0.11867353320121765,-0.23146557807922363,-0.9655777215957642,0.18061235547065735,-0.06182360649108887,-0.00964200496673584,0.10832780688940334,-0.04673902746968515,0.12258310035795222,0.9854207259047426,0.2335839080624618,0.12229088326835622,2.908245383162284
1782477281289599232,3.070223093032837,-0.5293293595314026,-0.8906635642051697,0.1140356957912445,0.11019892245531082,-0.226654514670372,-0.9677209854125977,0.19116216897964478,-0.0677638053894043,-0.052985191345214844,0.1073807447588767,-0.04285428953038443,0.11959518842057977,0.9860679789534211,0.22864143084981695,0.11338626035296175,2.9116187840154306
1782477281299518208,3.080142021179199,-0.5731214880943298,-1.0185070037841797,0.2558208107948303,0.10071670264005661,-0.2213980257511139,-0.9699685573577881,0.2045048475265503,-0.07663662731647491,-0.10545557737350464,0.1067292664711072,-0.038451553016961036,0.11634940857045653,0.9867082303747111,0.22324784070488723,0.1034642366009245,2.914488971415358
1782477281309438208,3.090062141418457,-0.47975534200668335,-0.9408402442932129,0.388014554977417,0.09098894149065018,-0.21674101054668427,-0.9719796180725098,0.20497052371501923,-0.13616426289081573,-0.12561559677124023,0.10546724719010192,-0.03396543858678431,0.11338671901731925,0.9873532864669132,0.21847488775666893,0.09333997212663132,2.9185190752919326
1782477281319357184,3.0999810695648193,-0.549429714679718,-0.9626965522766113,0.21089746057987213,0.080985888838768,-0.21216191351413727,-0.9738730192184448,0.1821519285440445,-0.05054865777492523,-0.14726650714874268,0.10442389091237148,-0.02931024455967371,0.11047358275777544,0.9879433935773432,0.21378670700057478,0.08296767346020162,2.922070483300094
1782477281329276160,3.1098999977111816,-0.3630552887916565,-0.957865834236145,0.3539465069770813,0.07099909335374832,-0.20762568712234497,-0.9756283760070801,0.12693792581558228,-0.02099674940109253,-0.12358427047729492,0.10366699467058468,-0.0246282859552933,0.10760700192834155,0.9884671039408977,0.20914712124577456,0.072644621375865,2.9249757331849935
1782477281339195136,3.119819164276123,-0.2877776324748993,-0.8168075680732727,0.28107985854148865,0.061763398349285126,-0.20481880009174347,-0.9768493175506592,0.14958608150482178,-0.0027922838926315308,-0.17602849006652832,0.10238006731007152,-0.02028939675273786,0.10565838153303458,0.9889100216699903,0.20627858425781292,0.0631431009442691,2.9287334354130907
1782477281349115136,3.1297390460968018,-0.11084255576133728,-0.9224186539649963,0.2146614044904709,0.052765823900699615,-0.20294778048992157,-0.9777668118476868,0.14654448628425598,0.007787883281707764,-0.15063583850860596,0.10167901240206456,-0.01595798495730908,0.10422057552798229,0.989214295577271,0.20436741723376384,0.05391335510478246,2.931207169985721
1782477281359034112,3.139657974243164,-0.2007555365562439,-0.8496923446655273,0.30643919110298157,0.04329896718263626,-0.20193445682525635,-0.9784414768218994,0.21692442893981934,-0.08721959590911865,-0.15751433372497559,0.1009603972193945,-0.01134991419611668,0.10320102582332656,0.9894583680552353,0.20333266340580197,0.04422414511951872,2.9337120776748318
1782477281368953344,3.1495771408081055,-0.09701449424028397,-0.8129468560218811,0.3463948667049408,0.03459293395280838,-0.20032088458538055,-0.9791194200515747,0.17346064746379852,-0.12424881756305695,-0.08870589733123779,0.09954476700812775,-0.00722455344957729,0.10192197295371827,0.9897729204919357,0.20168543330470093,0.03531596737126358,2.9375462159425867
1782477281378873088,3.159497022628784,-0.23941278457641602,-0.8059211373329163,0.3111937940120697,0.026237769052386284,-0.19914866983890533,-0.9796179533004761,0.12343569844961166,-0.11838671565055847,-0.14397817850112915,0.09864666658785881,-0.0031974580325740817,0.10089987620437021,0.9899888935181032,0.20048911925567311,0.02677727228381169,2.9402664727274113
1782477281388792064,3.1694159507751465,-0.4334906339645386,-0.9194583296775818,0.2914416790008545,0.01742781326174736,-0.19582849740982056,-0.9804832935333252,0.21659624576568604,-0.16816991567611694,-0.054062604904174805,0.09756945070755604,0.0009330401779047927,0.09877998858304032,0.9903140744727059,0.19710223535631577,0.017772845305397512,2.943421804814521
1782477281398711296,3.179335117340088,-0.6421467065811157,-0.851607084274292,0.3592064380645752,0.008272944949567318,-0.19059839844703674,-0.9816332459449768,0.2019626498222351,-0.24787816405296326,-0.1000317931175232,0.09636420587853071,0.005132469312233334,0.09569242052816851,0.9907223035515555,0.19177168848077283,0.008427535271885795,2.9468588951602963
1782477281408631040,3.1892549991607666,-0.41961991786956787,-0.9488382935523987,0.34150227904319763,-0.001021735486574471,-0.1851647049188614,-0.9827069640159607,0.19726501405239105,-0.1767127364873886,-0.1207781434059143,0.09507798892177993,0.009390065501466904,0.09251130827095234,0.9911173523867676,0.1862394608545344,-0.00103971488479594,2.950414845618546
1782477281418550272,3.199174165725708,-0.2691952586174011,-1.0256224870681763,0.3320866823196411,-0.011310562491416931,-0.18228977918624878,-0.9831798076629639,0.26185986399650574,-0.05956202745437622,-0.24028515815734863,0.09362365074992406,0.014259748953051432,0.09059118925974224,0.9913750294828245,0.18331475566747688,-0.011503555627550208,2.9543321646087355
1782477281428469248,3.2090930938720703,-0.5377781987190247,-0.9395454525947571,0.35420769453048706,-0.021533247083425522,-0.17841196060180664,-0.9837202429771423,0.16350102424621582,-0.08573293685913086,-0.14816147089004517,0.0925771410082476,0.019090112809651304,0.08817852312277452,0.9916095886129082,0.17937227428389155,-0.021886109212768276,2.9573796202580556
1782477281438388992,3.219012975692749,-0.5837101340293884,-0.9258154630661011,0.13173836469650269,-0.031060906127095222,-0.17262151837348938,-0.9844983816146851,0.18251964449882507,-0.17002984881401062,-0.08779776096343994,0.09172744644125971,0.0235036574265011,0.08484336029060918,0.9918846769440091,0.17349052425796738,-0.03153952000079899,2.959904357429837
1782477281448308224,3.2289321422576904,-0.6030571460723877,-1.008025884628296,0.3391442894935608,-0.04071563109755516,-0.1668023318052292,-0.9851493239402771,0.17221587896347046,-0.10045534372329712,-0.15289688110351562,0.09102018528541793,0.027996346243607004,0.08149561856042221,0.9921138394976785,0.16758566582314402,-0.04130589375421702,2.9620872158366804
1782477281458227200,3.2388510704040527,-0.5260825753211975,-0.9484615325927734,0.41342008113861084,-0.05082034319639206,-0.16127952933311462,-0.9855993986129761,0.21399784088134766,-0.04239477217197418,-0.17661672830581665,0.08962942945666635,0.03267888004442407,0.0783095447567128,0.992353829194019,0.16198702079507785,-0.05151725513450069,2.9656240076487577
1782477281468146944,3.2487709522247314,-0.5034244060516357,-0.8996452689170837,0.12240954488515854,-0.06026614457368851,-0.1561475396156311,-0.9858934879302979,0.0870911031961441,-0.015147626399993896,-0.18810248374938965,0.08883839031664159,0.037104704111424996,0.07534258320127259,0.992499132760674,0.15678913912529624,-0.06105248686635285,2.967846389470213
1782477281478066176,3.258690118789673,-0.23952743411064148,-0.916926920413971,0.3512861728668213,-0.06945694983005524,-0.1524135172367096,-0.9858731627464294,0.11770524084568024,0.0629817545413971,-0.21723657846450806,0.08790926485229801,0.041462827750261964,0.07310447001406152,0.9925766928594006,0.15300986604463682,-0.07033600341788046,2.9703139675513266
1782477281487985152,3.268609046936035,-0.18312540650367737,-0.7764220237731934,0.24648678302764893,-0.07795650511980057,-0.15024280548095703,-0.9855708479881287,0.13162165880203247,0.08723926544189453,-0.24297529458999634,0.08695571961398067,0.045550067287009485,0.07169218751484567,0.992584643116881,0.15081386238049002,-0.07893347677139353,2.972794684132345
1782477281497904128,3.2785279750823975,-0.12330921739339828,-0.7158373594284058,0.1581561267375946,-0.0855490043759346,-0.14853917062282562,-0.9851992130279541,0.1329885721206665,0.05782566964626312,-0.1889646053314209,0.08617018377653109,0.04922031040938017,0.07055321639588592,0.992559473391671,0.1490908938852335,-0.08661695210440938,2.9748675447979585
1782477281507824128,3.2884480953216553,-0.060003478080034256,-0.5576530694961548,0.12754148244857788,-0.09208396077156067,-0.14747808873653412,-0.9847694039344788,0.13958457112312317,0.03494451940059662,-0.14268726110458374,0.08552760029982298,0.05240276660358878,0.0697800412091083,0.9925067359978391,0.14801799157814688,-0.09323702758172069,2.976588703501922
1782477281517743104,3.2983670234680176,-0.10866668820381165,-0.44867247343063354,-0.03302105516195297,-0.09720823913812637,-0.1467505544424057,-0.9843854904174805,0.07787535339593887,0.014365315437316895,-0.10667896270751953,0.08563475294834007,0.05494723621485745,0.06919572165245924,0.9924007676150677,0.14728246155689836,-0.0984310501715395,2.9767056378946553
1782477281527662080,3.30828595161438,-0.09824760258197784,-0.32939112186431885,0.03437795862555504,-0.1010347232222557,-0.1458824723958969,-0.9841291904449463,0.1323610246181488,-0.007987156510353088,-0.04077315330505371,0.0854600228199099,0.056815376941873656,0.06861056476626819,0.9923514301380274,0.14640492774870018,-0.10230565444540754,2.9772881217938796
1782477281537582080,3.3182060718536377,-0.2572844624519348,-0.2229582518339157,0.022728988900780678,-0.10378559678792953,-0.14397387206554413,-0.9841240048408508,0.05822284519672394,0.02536730468273163,0.05681687593460083,0.08564318156812079,0.058121561127249304,0.06752686913961334,0.9923341973137928,0.1444759646237619,-0.10507149431671574,2.9770200913525526
1782477281547501056,3.328125,-0.3273003101348877,-0.09199677407741547,-0.11559825390577316,-0.10598945617675781,-0.14123520255088806,-0.9842859506607056,0.11540412902832031,0.05422958731651306,0.12570440769195557,0.0858329876635506,0.059115567005137384,0.06604823398697415,0.9923586647883836,0.14170901704208513,-0.10726823920217556,2.9766547402438785
1782477281557420288,3.3380441665649414,-0.2892940044403076,-0.11099888384342194,-0.21149985492229462,-0.10665574669837952,-0.13815967738628387,-0.9846504330635071,0.10230699181556702,-0.0014735013246536255,0.19729691743850708,0.08688674999221066,0.05937821731585216,0.06441284949870238,0.992358783102173,0.13860302761932872,-0.10789771477379068,2.9744232260952606
1782477281567340032,3.34796404838562,-0.4585171043872833,0.12059120088815689,0.013371074572205544,-0.10643122345209122,-0.1347401738166809,-0.9851484298706055,0.10180781036615372,-0.04233807325363159,0.20814037322998047,0.08746090890556135,0.059144414960951866,0.06267145130857021,0.9924337431599053,0.13515124122756533,-0.10761831787298094,2.9730818802329995
1782477281577259008,3.3578829765319824,-0.46912509202957153,0.23198798298835754,-0.16500921547412872,-0.10452398657798767,-0.13027606904506683,-0.9859527945518494,0.08055242151021957,-0.011783257126808167,0.26010745763778687,0.08797725539522666,0.05801289950415313,0.06048235075929957,0.9925906936906813,0.13064741590146212,-0.10561867996464722,2.971702359123427
1782477281587178240,3.367802143096924,-0.5925023555755615,0.34745439887046814,-0.2866656184196472,-0.1011677011847496,-0.12534086406230927,-0.9869421124458313,0.0562916025519371,-0.014597490429878235,0.2547796368598938,0.08904137156111366,0.056163818054938204,0.058090977471023444,0.992745039834613,0.1256713995179984,-0.10214943383797516,2.9691198727008032
1782477281597098240,3.3777220249176025,-0.5008006691932678,0.5631989240646362,-0.06369122117757797,-0.0959845781326294,-0.12001847475767136,-0.9881207346916199,0.0862494707107544,0.06702469289302826,0.2978131175041199,0.09013716382700884,0.05337971569036682,0.055590038088891465,0.9929430133332989,0.12030848908858353,-0.09683470031509393,2.966369977907808
1782477281607016960,3.387640953063965,-0.34318944811820984,0.7231054902076721,-0.28287869691848755,-0.08896434307098389,-0.11613662540912628,-0.9892409443855286,0.024419665336608887,0.06669814884662628,0.29907065629959106,0.09091904860971142,0.04972463761742035,0.05391652349265536,0.9931537197157726,0.11639929223607687,-0.08969064350570526,2.964239356733088
1782477281616936192,3.3975601196289062,-0.46901774406433105,0.9669588208198547,-0.23402437567710876,-0.08000118285417557,-0.11242491006851196,-0.990434467792511,-0.05400150269269943,0.04752928018569946,0.3698442578315735,0.09215274470889305,0.0451301783654289,0.05240256538097593,0.9933404303196495,0.11266310039077589,-0.0805988423563023,2.961128625042555
1782477281626856192,3.407480001449585,-0.7235727906227112,1.066393256187439,-0.3158843517303467,-0.06973625719547272,-0.10668282955884933,-0.9918445348739624,0.002536565065383911,-0.05541127920150757,0.4997333884239197,0.09334427132977105,0.03978576516684898,0.049948107704970816,0.9935840108331127,0.10688623594715864,-0.07019415218117743,2.9580049814861917
1782477281636775168,3.4173991680145264,-0.9091296792030334,1.0727506875991821,-0.3322603106498718,-0.058736804872751236,-0.09898097813129425,-0.993354320526123,0.05095481872558594,-0.03273288905620575,0.559394359588623,0.09480112516276684,0.03399178260232286,0.04655547050480507,0.9938258602004104,0.099143319565911,-0.05906099406688443,2.9543190066401577
1782477281646694144,3.4273180961608887,-1.2141362428665161,1.215236783027649,-0.3260338306427002,-0.04675877094268799,-0.08848243206739426,-0.9949796199798584,0.04672825336456299,-0.04590172320604324,0.5900418758392334,0.09635629682288349,0.02757323500806999,0.041831790409903424,0.9940851215253432,0.08859829611056996,-0.04696015283813607,2.9504191602280896
1782477281656613120,3.437237024307251,-1.0602190494537354,1.2765973806381226,-0.23031066358089447,-0.03423534706234932,-0.07746127247810364,-0.9964073896408081,0.10862194001674652,-0.04088589549064636,0.5965965986251831,0.09749663968847423,0.02083419991525679,0.036908532443313324,0.9943329504619144,0.07753894327357633,-0.03434527387571359,2.947445235773435
1782477281666533120,3.447157144546509,-0.7213255167007446,1.233749508857727,-0.1210683211684227,-0.021660638973116875,-0.06868742406368256,-0.9974030256271362,0.06731493771076202,-0.024772651493549347,0.5614747405052185,0.09826783954866795,0.014164107879905687,0.033133828186679454,0.9945073419305968,0.06874154912625384,-0.0217136239175779,2.9453575442612565
1782477281676452096,3.457076072692871,-0.41647103428840637,1.3011773824691772,-0.09369728714227676,-0.008360851556062698,-0.06360574066638947,-0.9979400634765625,0.005156507715582848,-0.0025258436799049377,0.4903259873390198,0.09866697415597955,0.007303278534025744,0.0312509431081946,0.9946028919057859,0.06364870802748453,-0.00837791411471602,2.9441016401972355
1782477281686371072,3.4669950008392334,-0.1391369253396988,1.234492301940918,-0.015961214900016785,0.004445367958396673,-0.060919348150491714,-0.9981327652931213,0.014582343399524689,-0.03260176628828049,0.4996739625930786,0.09867947144471897,0.0007956943964227159,0.03054456436440593,0.9946501385909201,0.060957091139364,0.004453654354195432,2.943683611150666
1782477281696291328,3.476915121078491,-0.018435660749673843,1.3386799097061157,0.0404181033372879,0.01709820330142975,-0.060693468898534775,-0.998009979724884,0.05689166486263275,-0.07750537991523743,0.4829801321029663,0.09840457921116147,-0.005522571162664125,0.031056442336687348,0.9946464736988722,0.06073079376063322,0.017130621561471004,2.943845676855749
1782477281706210048,3.4868340492248535,-0.4318184554576874,1.632826805114746,-0.09518419206142426,0.03200928866863251,-0.05832669511437416,-0.9977842569351196,-0.04778687283396721,-0.16199496388435364,0.5961424112319946,0.09838053658448831,-0.013063458282654039,0.03061409500026526,0.9945920977891741,0.0583598158637774,0.03206937075137484,2.943467061316585
1782477281716129024,3.496752977371216,-0.6951002478599548,1.6552810668945312,-0.14817874133586884,0.04826086759567261,-0.052982889115810394,-0.9974285364151001,-0.03831213712692261,-0.192561537027359,0.5916973352432251,0.09858925986348294,-0.021413041175286536,0.02876124600862577,0.994481991381002,0.05300771082621801,0.04834758227598386,2.942683854990322
1782477281726049280,3.5066730976104736,-1.0227934122085571,1.5942054986953735,-0.1329670250415802,0.06453177332878113,-0.044347621500492096,-0.9969297647476196,0.05753853917121887,-0.2267705500125885,0.5575987100601196,0.09892459503168706,-0.02993514212066282,0.025278632006908264,0.9943232981756357,0.04436217125493723,0.06464033263359838,2.941832031643106
1782477281735968000,3.516592025756836,-1.111677885055542,1.3513059616088867,-0.2805600166320801,0.0790882334113121,-0.03367188200354576,-0.9962987899780273,0.0798930898308754,-0.17683836817741394,0.46869564056396484,0.09957976165392085,-0.03770403049949915,0.020712720691855625,0.9940992592332492,0.03367824994032722,0.07921592907541132,2.9405823143850043
1782477281745886976,3.5265109539031982,-1.1659621000289917,1.3743406534194946,0.009735992178320885,0.09230588376522064,-0.021974829956889153,-0.995488166809082,0.11579348146915436,-0.1556832492351532,0.41025257110595703,0.1000807569278371,-0.04487046507881527,0.01557394150511199,0.9938450624722724,0.021976598485394676,0.0924598599366753,2.9398514651854817
1782477281755807232,3.536431074142456,-1.4091233015060425,1.5019290447235107,-0.09921399503946304,0.10660550743341446,-0.009858685545623302,-0.9942525029182434,0.012763991951942444,-0.14858858287334442,0.3553518056869507,0.09971832797969199,-0.05261971537077995,0.01024234471386461,0.9935706232742632,0.009858845278514652,0.10681368006764225,2.9410083463367878
1782477281765726208,3.5463500022888184,-1.1479518413543701,1.4646352529525757,0.03786716237664223,0.1212630495429039,0.003493177704513073,-0.9926142692565918,-0.0483412966132164,-0.002531876787543297,0.3640131950378418,0.09955561858918402,-0.06061542150087809,0.004317485602534298,0.9931745672193766,-0.003493184881749933,0.12156296930579517,2.941993076837884
1782477281775645184,3.5562691688537598,-0.7523807287216187,1.2642040252685547,0.05784253403544426,0.13483326137065887,0.012753256596624851,-0.9907862544059753,0.036385610699653625,0.09038089960813522,0.15654247999191284,0.09898634403155197,-0.06787318152008964,0.0003443791174738697,0.9927712823709587,-0.012753602532176295,0.1352562599618171,2.943699200195922
1782477281785565184,3.5661890506744385,-0.18696282804012299,1.4058613777160645,0.06363464891910553,0.14806747436523438,0.017202163115143776,-0.988827645778656,0.022891998291015625,0.2616674602031708,0.1052979826927185,0.09850728208735617,-0.07473030655601177,-0.001249189379565594,0.9923255688283599,-0.017203012407863316,0.1486360828939654,2.9449836129740774
1782477281795484160,3.576107978820801,0.01526963897049427,1.3769716024398804,-0.13634251058101654,0.16182012856006622,0.01770474947988987,-0.986661434173584,-0.07215948402881622,0.2642929255962372,0.07380437850952148,0.09851862905651014,-0.0816616191452184,-0.0008138752035826307,0.9917785664961848,-0.017705674575053988,0.162560514586103,2.945013980322311
1782477281805403136,3.586027145385742,0.4937717616558075,1.3175671100616455,0.11460288614034653,0.17474818229675293,0.014777611941099167,-0.9845022559165955,0.04226231575012207,0.16774801909923553,0.12886565923690796,0.09874731108163035,-0.08801786267125225,0.0013142721586068232,0.9912113845521465,-0.01477814938309944,0.17566938595973636,2.9443035812266443
1782477281815323136,3.595947027206421,0.3849858343601227,1.2671607732772827,-0.1379813253879547,0.18718138337135315,0.010525783523917198,-0.9822689890861511,0.05491456389427185,0.016039766371250153,0.13340729475021362,0.09890873490152638,-0.09406843338669012,0.004079515217279247,0.9906318828216145,-0.0105259781715224,0.18830257787270235,2.9435580718841874
1782477281825242112,3.605865955352783,0.4980740249156952,1.272264003753662,-0.04207397252321243,0.1995563507080078,0.006363070569932461,-0.9798656702041626,0.043073639273643494,0.017745815217494965,0.13535279035568237,0.0995637301258276,-0.10010085858469989,0.0068536940300982065,0.9899595098044599,-0.0063631135136999325,0.20090926909578158,2.941761044807512
1782477281835161088,3.6157851219177246,0.5154962539672852,1.2004704475402832,-0.1367463916540146,0.2116532176733017,0.0019218695815652609,-0.977342963218689,0.0928054004907608,0.004853034391999245,0.11604535579681396,0.10012441578859764,-0.10598752318041754,0.00975572481967336,0.9892657123957699,-0.001921870734396273,0.21326659028550826,2.9400636613613877
1782477281845081088,3.6257050037384033,0.7045186161994934,1.0176196098327637,0.09768262505531311,0.2219659835100174,-0.00432088878005743,-0.975044846534729,0.1574438065290451,0.0793941393494606,0.069832444190979,0.10034807684250673,-0.1108915304921915,0.013440583840232867,0.9886621203516297,0.004320902035804013,0.2238324160038516,2.9388021666798987
1782477281855000320,3.6356241703033447,0.8359026312828064,0.9583186507225037,-0.003571090754121542,0.23125948011875153,-0.011775298044085503,-0.9728208184242249,0.14129911363124847,0.17045144736766815,0.04227888584136963,0.10063375641077332,-0.11522366998490242,0.017694120658998447,0.9880705617569033,0.01177557014212199,0.23338854204914017,2.9372147267866744
1782477281864919296,3.645543098449707,0.8899325728416443,0.9196599125862122,0.047834042459726334,0.239919975399971,-0.02014060504734516,-0.9705837368965149,0.10758368670940399,0.2080068141222,0.015429317951202393,0.10056178740763254,-0.11920244264797873,0.022336459953465424,0.9875116086116223,0.020141967507831492,0.24233356388735514,2.9361726351545223
1782477281874839040,3.6554629802703857,1.1167821884155273,0.5803446769714355,0.06206471100449562,0.24769572913646698,-0.029819495975971222,-0.9683788418769836,0.012207210063934326,0.09648515284061432,-0.07481873035430908,0.10121266081057359,-0.12265398324941112,0.027686948356639585,0.9868868006149115,0.029823916787673415,0.2504148920029353,2.933438189678817
1782477281884758272,3.665382146835327,0.660320520401001,0.5223141312599182,0.06801340728998184,0.2523849308490753,-0.03923822194337845,-0.9668310284614563,0.24277803301811218,-0.04891180619597435,-0.0749322772026062,0.1006910996910299,-0.12458563858736074,0.03260234533997581,0.986547895313936,0.0392482962026887,0.25534521648491454,2.9331299230555024
1782477281894677248,3.6753010749816895,0.3731224536895752,0.5568894743919373,0.13037845492362976,0.2570292055606842,-0.04438095539808273,-0.9653840065002441,-0.1615702211856842,-0.15683670341968536,0.0024781227111816406,0.10065782571473901,-0.12669838001269937,0.035433188003737695,0.986184523859593,0.044395538603076434,0.2602092104573369,2.932351419789584
1782477281904595968,3.6852200031280518,0.127001091837883,0.5809409618377686,-0.054759442806243896,0.2628430724143982,-0.04655470699071884,-0.9637147784233093,-0.1873273253440857,-0.17797836661338806,-0.09927350282669067,0.10049029221747638,-0.1295639843531977,0.03682092665531962,0.9857784643810547,0.04657154084929382,0.26626340417315536,2.9321763065965945
1782477281914516224,3.6951401233673096,0.013370471075177193,0.29960957169532776,0.0898306593298912,0.2668343186378479,-0.047742024064064026,-0.962559163570404,-0.1019936203956604,-0.051852088421583176,-0.21445804834365845,0.10037287419976698,-0.13154889441086096,0.03762055155847667,0.9854973154286524,0.04776017890541157,0.27042285497448926,2.9320941541700534
1782477281924435200,3.705059051513672,-0.13096700608730316,0.39745572209358215,-0.23582333326339722,0.2698375880718231,-0.04630593582987785,-0.9617918133735657,-0.07771417498588562,0.07696084678173065,-0.23603838682174683,0.10059524077678572,-0.1331473566603516,0.0370929701436815,0.9852799335845817,0.046322502009435045,0.2735252999624268,2.9317254108420547
1782477281934354176,3.714977979660034,0.13431739807128906,0.46215081214904785,0.10097052901983261,0.27403709292411804,-0.04615994542837143,-0.9606106877326965,-0.07700037956237793,0.058199137449264526,-0.3663393259048462,0.1009305948850333,-0.1352908782371098,0.037296427326355096,0.9849458508373512,0.04617635326153954,0.2778923817880558,2.9309002743290473
1782477281944274176,3.724898099899292,0.12022262066602707,0.331868976354599,0.09184201806783676,0.27801015973091125,-0.04761883616447449,-0.9593970775604248,0.06927984952926636,0.07508466392755508,-0.4211265444755554,0.10048024627888842,-0.13727046210276467,0.03818726830376726,0.9846838836132137,0.047636850402667234,0.282050690486025,2.9314461959529097
