time,seconds_elapsed,rotationRateX,rotationRateY,rotationRateZ,gravityX,gravityY,gravityZ,accelerationX,accelerationY,accelerationZ,quaternionW,quaternionX,quaternionY,quaternionZ,pitch,roll,yaw
1784719747234566144,0.3533782958984375,-0.0424116775393486,0.14128243923187256,-0.017667435109615326,-0.03054988570511341,0.8554960489273071,-0.516907274723053,0.01948728784918785,-0.0022093653678894043,-0.030013442039489746,0.7872170522793497,-0.43646825018729046,-0.22592437676410962,0.37248202791033513,-1.0265080390362369,-0.0590326182396163,0.8506171713428837
1784719747244486144,0.3632981777191162,-0.05826307833194733,0.11698009818792343,-0.0836656242609024,-0.030031718313694,0.8555701375007629,-0.5168151259422302,0.0339684784412384,-0.00991278886795044,-0.0455474853515625,0.7873927688613008,-0.43676808779677545,-0.22544637182574143,0.3720486652355763,-1.0266511062114454,-0.058043933142566936,0.8500972337431257
1784719747254406144,0.373218297958374,-0.04956252872943878,0.09383536130189896,-0.08204935491085052,-0.029873812571167946,0.8555896282196045,-0.5167919397354126,0.028820984065532684,-0.014662504196166992,-0.0559772253036499,0.7876216690188846,-0.4369626589109754,-0.22509481428448086,0.37154810292026136,-1.0266887912181897,-0.05774201005549118,0.8490019920825305
1784719747264326144,0.38313817977905273,0.029516641050577164,0.0962361991405487,-0.031394265592098236,-0.02942821942269802,0.8553512692451477,-0.5172117948532104,0.008447403088212013,0.0012312531471252441,-0.040969908237457275,0.787885746682822,-0.4369814090981502,-0.22459150620410423,0.3712705707679139,-1.0262285456713696,-0.056836528770568766,0.848694826409339
1784719747274245120,0.39305710792541504,0.13403479754924774,0.11840994656085968,0.01618630439043045,-0.028514059260487556,0.8545696139335632,-0.5185534358024597,-0.040974460542201996,0.012434720993041992,-0.025971651077270508,0.7883145644585561,-0.43665470974417764,-0.22373186529013445,0.3712637347348253,-1.0247215060575785,-0.05493237644796789,0.8493890898375921
1784719747284165120,0.40297722816467285,0.19699011743068695,0.11871450394392014,0.06618106365203857,-0.027209753170609474,0.8533262014389038,-0.5206669569015503,-0.06399206817150116,0.04424154758453369,-0.016579747200012207,0.7888700117184481,-0.43602889052499194,-0.22258776764382132,0.37150735167428645,-1.0223320437985828,-0.05221192036007509,0.8509650949568294
1784719747294085120,0.41289710998535156,0.20975704491138458,0.0891515463590622,0.05504105985164642,-0.026014970615506172,0.8519366979598999,-0.5229983329772949,-0.03810250014066696,0.03864264488220215,-0.041348040103912354,0.7894504838472238,-0.435252086679558,-0.22148692567072858,0.371843078002269,-1.0196727431042019,-0.049701011633391474,0.8525902783327471
1784719747304005120,0.4228172302246094,0.14135149121284485,0.038070403039455414,-0.003235631389543414,-0.025468813255429268,0.8506845831871033,-0.5250592231750488,0.012849772348999977,0.013222277164459229,-0.06101560592651367,0.7899980537356203,-0.4344506666857164,-0.22073287094567767,0.3720655633400852,-1.017286174874569,-0.04846856153979031,0.8532820057527389
1784719747313925120,0.4327371120452881,0.026110658422112465,-0.011892094276845455,-0.056085262447595596,-0.025642815977334976,0.8498783111572266,-0.5263548493385315,0.05240670591592789,-0.008295059204101562,-0.061993539333343506,0.7903953347815585,-0.4338429184833556,-0.22046065337535245,0.37209242506766815,-1.0157543419487802,-0.04867924869080365,0.8528815121042486
1784719747323845120,0.4426572322845459,-0.10354773700237274,-0.03550676256418228,-0.10283998399972916,-0.02631036937236786,0.84970623254776,-0.526599645614624,0.07077445089817047,-0.04492717981338501,-0.04150032997131348,0.7905662368850775,-0.43362010054862515,-0.22062134586138124,0.37189374301311945,-1.0154278542876245,-0.049921243647082544,0.8516224402370088
1784719747333764096,0.4525761604309082,-0.18070003390312195,-0.02448899857699871,-0.09933126717805862,-0.027053724974393845,0.8500531315803528,-0.5260018110275269,0.06143174320459366,-0.05334597826004028,0.008896708488464355,0.7905460900438882,-0.43378366779088384,-0.22097698054859483,0.37153456238491495,-1.0160861719393144,-0.051387481268047444,0.8500597065296198
1784719747343684096,0.462496280670166,-0.19740132987499237,0.029219048097729683,-0.07983643561601639,-0.027415936812758446,0.8506770133972168,-0.5249733328819275,0.022350028157234192,-0.023284435272216797,0.057749152183532715,0.7904126235509116,-0.43424438121727765,-0.2212355378904562,0.3711260297989456,-1.0172718177167455,-0.05217608978439521,0.8488628136587936
1784719747353604096,0.4724161624908447,-0.12606802582740784,0.07119578868150711,-0.048153072595596313,-0.02727992832660675,0.8512686491012573,-0.5240206122398376,-0.026110580191016197,0.017856717109680176,0.07490861415863037,0.7902967604604242,-0.43479812312443694,-0.2212245459256205,0.37073084911614873,-1.0183982424180986,-0.05201193608028871,0.8482093039497246
1784719747363524096,0.48233628273010254,0.0281527042388916,0.09961187094449997,-0.08721565455198288,-0.027076246216893196,0.8513573408126831,-0.5238869786262512,-0.03765155002474785,0.044348835945129395,0.05704432725906372,0.7904384331687259,-0.43501792575752135,-0.22094323184881995,0.3703385288778887,-1.0185673703264282,-0.05163742865513168,0.8474611177336405
1784719747373444096,0.49225616455078125,0.19161327183246613,0.10551556944847107,-0.14567843079566956,-0.027338849380612373,0.8506832122802734,-0.5249672532081604,-0.027867458760738373,0.07543373107910156,0.040546536445617676,0.791020203626653,-0.43463031928541673,-0.2204832120066131,0.3698252143521736,-1.0172836398717322,-0.0520302410404722,0.8456554229274255
1784719747383364096,0.5021762847900391,0.31489303708076477,0.07850122451782227,-0.18073365092277527,-0.028131527826189995,0.8493079543113708,-0.5271477103233337,0.0017948318272829056,0.0587427020072937,-0.01084667444229126,0.7919633149732415,-0.43363990098961736,-0.2199603859686058,0.3692805766544046,-1.014673016463731,-0.05331497479533641,0.8429866972365753
1784719747393283072,0.5120952129364014,0.31636232137680054,0.04326387494802475,-0.18924352526664734,-0.029277276247739792,0.8475694060325623,-0.5298763513565063,0.03881403058767319,-0.0006608366966247559,-0.04330480098724365,0.7930482805391299,-0.4323003291920048,-0.21949546208778936,0.3687988419879462,-1.0113882989169338,-0.055196911065386885,0.8400114568830096
1784719747403203072,0.5220150947570801,0.21973983943462372,0.03690793365240097,-0.15558665990829468,-0.03040044941008091,0.8460882902145386,-0.5321751236915588,0.05128975212574005,-0.06187814474105835,-0.025838792324066162,0.7939794844548275,-0.43113786364639994,-0.21916338958594592,0.3683531979025053,-1.0086035612274888,-0.057062881856275956,0.8372607414162656
1784719747413123072,0.5319352149963379,0.10289818048477173,0.040725044906139374,-0.06134697049856186,-0.030903363600373268,0.8451322913169861,-0.5336631536483765,0.028584038838744164,-0.08661788702011108,-0.004117608070373535,0.7945779885563796,-0.4304392899757968,-0.21883885233799721,0.36807247122799686,-1.0068125848170921,-0.0578433983222304,0.8357403876159635
1784719747423043072,0.5418550968170166,-0.0079042324796319,0.057091616094112396,-0.01541250292211771,-0.030716726556420326,0.8448172807693481,-0.5341725945472717,0.009873205795884132,-0.07542335987091064,0.012413561344146729,0.794798926878421,-0.4303021682484663,-0.21852630425874633,0.3679416944307028,-1.0062235781234716,-0.05744011817764284,0.8355018920460252
1784719747432963072,0.5517752170562744,-0.04830491542816162,0.0702042207121849,-0.022570813074707985,-0.030329979956150055,0.8449127078056335,-0.5340436697006226,-0.002949446439743042,-0.042025744915008545,0.03808724880218506,0.7948470207168766,-0.4305108988001951,-0.2182625601311406,0.36774993644642895,-1.0064019314386767,-0.056732130574079546,0.8354414166330645
1784719747442883072,0.5616950988769531,-0.01791299134492874,0.06493078172206879,-0.07440595328807831,-0.030238401144742966,0.8450444936752319,-0.5338402986526489,0.004893556237220764,-0.0026067495346069336,0.025585293769836426,0.7949349672671452,-0.4307131379678696,-0.21809640612475364,0.36742148062799995,-1.0066483441538043,-0.05658269672947393,0.8347495334377943
1784719747452802304,0.5716142654418945,0.005057572387158871,0.059685416519641876,-0.13295075297355652,-0.03065609186887741,0.8449955582618713,-0.5338940024375916,0.025742748752236366,0.0059566497802734375,0.015812397003173828,0.7951889303989992,-0.43072274836033186,-0.21801582719386509,0.366908241765071,-1.0065568098264028,-0.05735682716753764,0.8330192900752725
1784719747462722048,0.5815341472625732,0.011812480166554451,0.05357901751995087,-0.15347518026828766,-0.031477805227041245,0.8448874950408936,-0.5340172052383423,0.044874999672174454,-0.007469832897186279,0.00868755578994751,0.795528827267992,-0.4306362134829513,-0.21804553789233863,0.3662548666410934,-1.0063548719758206,-0.0588771739311966,0.8305095762092567
1784719747472642304,0.591454267501831,0.024528276175260544,0.07803429663181305,-0.0914544090628624,-0.032055649906396866,0.844748854637146,-0.5342021584510803,0.03780818358063698,-0.022223711013793945,0.015494823455810547,0.795855197716584,-0.4305663534775405,-0.21797142800077024,0.3656715592653144,-1.0060956868013793,-0.05993471990934843,0.8284155830804013
1784719747482562048,0.6013741493225098,0.1029476523399353,0.0882636085152626,-0.0020140395499765873,-0.031874217092990875,0.8443914651870728,-0.5347776412963867,-0.00044389069080352783,-0.038040757179260254,0.006823539733886719,0.7961615307864729,-0.43043707252006447,-0.2175663257880139,0.36539796306399575,-1.00542823618793,-0.059532322353975514,0.8278033113490216
1784719747492482304,0.6112942695617676,0.15237165987491608,0.0771435797214508,0.1310388147830963,-0.03075450286269188,0.8436959385871887,-0.535939633846283,-0.05440480262041092,-0.01050502061843872,-0.031305789947509766,0.7964093644444241,-0.4301483281437473,-0.2168007984983049,0.3656527864332399,-1.0041312943898129,-0.05732140000268595,0.8293606514929507
1784719747502402048,0.6212141513824463,0.18992595374584198,0.07203225046396255,0.1773047149181366,-0.02891448512673378,0.8427860736846924,-0.537471354007721,-0.06285184621810913,0.0011317133903503418,-0.04887807369232178,0.7965706983403577,-0.42976153157413965,-0.21579930941273134,0.36634773672765225,-1.0024386021254295,-0.05374544612312463,0.8326709122820127
1784719747512321280,0.6311333179473877,0.2034311145544052,0.04576602578163147,0.16936637461185455,-0.027087673544883728,0.8417308926582336,-0.5392173528671265,-0.04964878410100937,0.023076176643371582,-0.041150689125061035,0.79675477640723,-0.4292494509946863,-0.2147934858548095,0.36713826623272117,-1.000481266392871,-0.05019297407812703,0.8361442798563178
1784719747522241024,0.6410531997680664,0.210116446018219,0.010230708867311478,0.14645253121852875,-0.025539344176650047,0.8406145572662354,-0.5410312414169312,-0.007556958124041557,0.03665894269943237,-0.04402118921279907,0.7969426861776115,-0.4286247649598449,-0.21392800165783135,0.3679644703001356,-0.9984168493904284,-0.04716991720651504,0.8393909239385513
1784719747532161280,0.6509733200073242,0.18254314363002777,-0.01526852510869503,0.06763894110918045,-0.024607691913843155,0.8394849896430969,-0.5428255200386047,0.026347162202000618,0.001335442066192627,-0.042196452617645264,0.7971954655630084,-0.42789168209025136,-0.21329776628502978,0.36863573774631664,-0.9963347173533676,-0.04530158325121085,0.8416180913459324
1784719747542081024,0.6608932018280029,0.1365075409412384,-0.03498196601867676,-0.010661955922842026,-0.024462813511490822,0.8385480642318726,-0.5442780256271362,0.05127253010869026,-0.008744657039642334,-0.012637197971343994,0.7974836322614737,-0.42719105261735035,-0.21299948397887428,0.3689969508566113,-0.994612787308518,-0.044915205055881875,0.8423489484393287
1784719747552001280,0.6708133220672607,0.10232266783714294,-0.0397503562271595,-0.05568908527493477,-0.024863630533218384,0.8377941846847534,-0.5454198122024536,0.06308687478303909,-0.010691523551940918,0.022287487983703613,0.7977931438140119,-0.4265566981434168,-0.21293069121345296,0.3691017649611587,-0.9932305927830267,-0.04555468804235633,0.8419635136955854
1784719747561921024,0.6807332038879395,0.04682266339659691,-0.02888374775648117,-0.07045377790927887,-0.025502143427729607,0.837300181388855,-0.546148419380188,0.048619210720062256,-0.0058945417404174805,0.040441691875457764,0.7980543325589722,-0.4260910163516503,-0.21300761199293752,0.3690304874952215,-0.9923263669267779,-0.04666063916058402,0.8409944907835298
1784719747571840000,0.6906521320343018,-0.016337664797902107,0.0027367635630071163,-0.05618856102228165,-0.025991855189204216,0.83717280626297,-0.5463204979896545,0.026785308495163918,-0.019927382469177246,0.049311280250549316,0.7981919596118056,-0.4259385585713677,-0.21311051186802857,0.3688493715949543,-0.9920934895859456,-0.04754035446832951,0.8400199331372383
1784719747581760256,0.7005722522735596,-0.0388106144964695,0.04889927804470062,-0.04629325121641159,-0.02617308311164379,0.8372884392738342,-0.5461345911026001,0.007404765114188194,-0.02828270196914673,0.0435253381729126,0.7982545817386566,-0.4260445873904191,-0.21311665473920563,0.3685877225914609,-0.9923049377337629,-0.04788759721274253,0.839225329486723
1784719747591680000,0.7104921340942383,-0.04215741157531738,0.06611261516809464,-0.046992864459753036,-0.026120882481336594,0.8374959826469421,-0.5458188652992249,-0.009798310697078705,0.006894886493682861,0.02570784091949463,0.7983038540769684,-0.4262832742024562,-0.2130096814089141,0.36826687246371964,-0.9926846051639754,-0.047819835010311354,0.8385407690430154
1784719747601600256,0.7204122543334961,-0.025086814537644386,0.06158886104822159,-0.06638400256633759,-0.0261772982776165,0.8376398086547852,-0.5455955266952515,-0.014670498669147491,0.028205037117004395,-0.01164025068283081,0.7984108266672983,-0.42647016450768094,-0.21289774025062705,0.3678832060401118,-0.9929478508469054,-0.04794255000496,0.8375716680047992
1784719747611520000,0.7303321361541748,-0.016467226669192314,0.05447448790073395,-0.05330069363117218,-0.0262837503105402,0.8377222418785095,-0.5454638004302979,0.006645673885941505,0.0076909661293029785,-0.03382086753845215,0.7985359788909062,-0.42659773571135967,-0.21279678766701088,0.36752191283625313,-0.9930988070102834,-0.04814881625468033,0.8365894770021227
1784719747621439232,0.7402513027191162,0.01622573845088482,0.05848551169037819,-0.06934278458356857,-0.02639414370059967,0.8376942276954651,-0.5455014705657959,0.02669929899275303,-0.019655227661132812,-0.0248720645904541,0.7987030055548807,-0.42664293564752054,-0.21266186745674157,0.3671843299365496,-0.9930474531979228,-0.04834739688275838,0.8356267445022949
1784719747631358976,0.7501711845397949,0.08592439442873001,0.052031610161066055,-0.051890019327402115,-0.026514077559113503,0.8374002575874329,-0.5459466576576233,0.014139227569103241,0.010637342929840088,0.00012451410293579102,0.7989773597404692,-0.42649350098900823,-0.21243817475345386,0.3668901232454413,-0.9925094214781354,-0.048527200858506286,0.8346770759879035
1784719747641279232,0.7600913047790527,0.1425577849149704,0.040876083076000214,-0.03237507492303848,-0.02651321142911911,0.8367129564285278,-0.5469995737075806,0.008401013910770416,0.024081110954284668,0.023485779762268066,0.7993601694671129,-0.42605742105472927,-0.2120738116422722,0.3667739252501106,-0.9912532241241935,-0.04843235614378366,0.8341645892702175
1784719747651198976,0.7700111865997314,0.14096415042877197,0.05492425709962845,-0.011666067875921726,-0.02634459175169468,0.835914671421051,-0.5482268929481506,-0.011527733877301216,0.014686524868011475,0.048303186893463135,0.7997496920299746,-0.42555792832848477,-0.21162941433026217,0.3667614973837082,-0.9897971980287512,-0.048017239650792076,0.8340394850457463
1784719747661119232,0.7799313068389893,0.10480007529258728,0.0804346352815628,0.007101261988282204,-0.025888506323099136,0.835220456123352,-0.5493054986000061,-0.03296464681625366,0.005050480365753174,0.05626356601715088,0.8000760880855942,-0.42518690176961915,-0.21110031240555777,0.36678471979744975,-0.9885336050985092,-0.047094675235328266,0.8343146398716627
1784719747671039232,0.789851188659668,0.07782917469739914,0.11501738429069519,-0.0357455350458622,-0.02538524754345417,0.8347365260124207,-0.5500640273094177,-0.029988879337906837,0.00399327278137207,0.0586700439453125,0.8003786815621645,-0.42501347520557364,-0.21055054660618636,0.3666414222875935,-0.9876541831654829,-0.046116902312698195,0.8342854068916513
1784719747680957952,0.7997701168060303,0.08669371157884598,0.10837123543024063,-0.09564432501792908,-0.025240162387490273,0.83429354429245,-0.5507423281669617,0.000704033300280571,0.0050160884857177734,0.03026515245437622,0.8007735447495951,-0.4248521655551746,-0.2100701279729542,0.36624155956710974,-0.9868502015512542,-0.045797301874627855,0.8332820728748829
1784719747690878208,0.8096902370452881,0.06349944323301315,0.06338618695735931,-0.16884903609752655,-0.02581043727695942,0.8338364362716675,-0.5514077544212341,0.028129786252975464,0.0030469894409179688,-0.01896578073501587,0.8012639340679953,-0.42457330414084815,-0.20984194840235756,0.3656225321511734,-0.9860215647634504,-0.04677412018346978,0.8310398607796925
1784719747700797952,0.8196101188659668,0.022167250514030457,0.0403141975402832,-0.2290613353252411,-0.02713375724852085,0.8335753083229065,-0.5517389178276062,0.04602416604757309,-0.02453911304473877,-0.04170584678649902,0.8017554601416249,-0.4243149834774557,-0.2099698392706399,0.3647704941956799,-0.9855486868859957,-0.04913902875541607,0.8275604032049323
1784719747710718208,0.8295302391052246,0.0015253550373017788,0.03126690536737442,-0.3002590835094452,-0.02906382828950882,0.8334655165672302,-0.5518065094947815,0.06948435306549072,-0.06686395406723022,-0.02532660961151123,0.8022724923609011,-0.42408419671502134,-0.21035524643344677,0.36367852242326715,-0.9853499997806451,-0.05262169761949815,0.8229534451096858
1784719747720637440,0.839449405670166,0.06065891310572624,0.04785839840769768,-0.39402714371681213,-0.03166450560092926,0.8332204818725586,-0.552033543586731,0.07832588255405426,-0.049483299255371094,0.025117039680480957,0.8029850708037418,-0.423697550034984,-0.21086398991208027,0.3622593137769454,-0.9849066969791762,-0.05729696513621197,0.816856184236165
1784719747730557440,0.8493695259094238,0.19219855964183807,0.08033271878957748,-0.4591209292411804,-0.034792460501194,0.8324055671691895,-0.5530736446380615,0.0845971405506134,-0.020241260528564453,0.07394766807556152,0.8040707909835411,-0.42288274690224154,-0.21126607679074996,0.36056484138365863,-0.9834345108981198,-0.06282467970085817,0.8094289972789223
1784719747740476416,0.8592884540557861,0.3335762917995453,0.14339371025562286,-0.4400119185447693,-0.037857215851545334,0.8307898640632629,-0.555297315120697,0.10330213606357574,-0.02500373125076294,0.1118464469909668,0.8055467666223919,-0.4215634783717229,-0.21127131529369958,0.35880792457173477,-0.9805252610885681,-0.06806935049931384,0.8017396995994728
1784719747750396416,0.869208574295044,0.467456579208374,0.25577378273010254,-0.28955078125,-0.03979995846748352,0.8284364938735962,-0.5586672425270081,0.13766981661319733,-0.032888948917388916,0.13338953256607056,0.8072502480860476,-0.4199318001243947,-0.21053186023042347,0.35732449167057967,-0.9763103064477576,-0.07112074694302797,0.7956619150653771
1784719747760316416,0.8791284561157227,0.6662502884864807,0.3229239284992218,0.031244516372680664,-0.0388769768178463,0.825322687625885,-0.5633214116096497,0.2054114043712616,-0.04172283411026001,0.15246331691741943,0.8089036578741828,-0.4181696992572201,-0.2085027194007483,0.35684107203464255,-0.9707733951444157,-0.06890458617490901,0.7945698379898425
1784719747770236160,0.8890483379364014,0.8902626037597656,0.46579107642173767,0.164836123585701,-0.036262620240449905,0.8209372162818909,-0.5698659420013428,0.2068558633327484,-0.08471590280532837,0.11355185508728027,0.8108088245257011,-0.41575117028335884,-0.2054702021030122,0.35710240555578493,-0.963050439464943,-0.06354791889634069,0.79651476117014
1784719747780156416,0.8989684581756592,0.8383569121360779,0.4776976406574249,0.587039053440094,-0.03026675619184971,0.8161386847496033,-0.5770628452301025,0.23557378351688385,-0.17594093084335327,0.09818100929260254,0.8123491564185905,-0.41351229093270686,-0.20118691533063213,0.3586366010990579,-0.9546970292341224,-0.05240165745775634,0.8043846015329735
1784719747790076160,0.9088883399963379,0.7922298908233643,0.6032236218452454,0.761879563331604,-0.021441468968987465,0.8116238713264465,-0.5837866067886353,0.2756986916065216,-0.3054288625717163,0.16174381971359253,0.8133183259614143,-0.4119025650367201,-0.19606876603295453,0.36111837773349714,-0.9469265274421994,-0.03671176136658314,0.8169063354648025
1784719747799995392,0.9188075065612793,0.7041090726852417,0.7205848693847656,0.7107074856758118,-0.01147196814417839,0.8074356317520142,-0.5898441672325134,0.1676151603460312,-0.40475618839263916,0.19992107152938843,0.8141132587102107,-0.41084139282681764,-0.19049217411959843,0.3635130812354109,-0.9397924026704295,-0.019446698974666613,0.8300267537728597
1784719747809915392,0.928727388381958,0.7003369927406311,0.8205873370170593,0.6202402114868164,-0.0016179591184481978,0.8033500909805298,-0.595504879951477,-0.009200530126690865,-0.3150230646133423,0.24841320514678955,0.8150675184539743,-0.41002290558232024,-0.18473977728019192,0.36526352604801665,-0.9328997028297865,-0.002716947025966777,0.841242530829429
1784719747819835392,0.9386475086212158,0.7165665626525879,0.8957885503768921,0.64582759141922,0.008580362424254417,0.7991598844528198,-0.6010572910308838,-0.12796513736248016,-0.11375033855438232,0.2909224033355713,0.8161130446874677,-0.40932415497913255,-0.17867590352561433,0.3667262612210116,-0.9258962837377577,0.014274478792736685,0.8517633132772768
1784719747829755392,0.9485673904418945,0.7636163830757141,0.9608271718025208,0.6170633435249329,0.019229209050536156,0.7946423292160034,-0.6067732572555542,-0.1746247261762619,0.04156982898712158,0.3433608412742615,0.8172586137586204,-0.40858658096985156,-0.17225090107215546,0.36806920252770264,-0.9184181511326479,0.03168032665221918,0.8619897578034308
1784719747839675392,0.9584875106811523,0.807836651802063,1.01210618019104,0.6066753268241882,0.030002698302268982,0.7897547483444214,-0.6126884818077087,-0.1920205056667328,0.16018110513687134,0.33842700719833374,0.8185570948759838,-0.4077268660276308,-0.1655734295927525,0.3691997438444205,-0.9104091268996002,0.04892984193382274,0.8713865754613129
1784719747849595392,0.968407392501831,0.9413851499557495,1.0972652435302734,0.6947388648986816,0.041530679911375046,0.7842289209365845,-0.6190800666809082,-0.15943533182144165,0.18963271379470825,0.3275914788246155,0.8199633967830526,-0.406664417353857,-0.15837933299438695,0.37040515135232316,-0.901452409990444,0.06698413827910746,0.8810158045954523
1784719747859514368,0.9783265590667725,1.061015248298645,1.1587183475494385,0.7531829476356506,0.054197389632463455,0.7777184247970581,-0.6262720227241516,-0.13120849430561066,0.09232240915298462,0.2361810803413391,0.821493474648617,-0.4052488207315099,-0.1504572335619011,0.3718661788024584,-0.8910281023490912,0.08632462423643908,0.8913883362341216
1784719747869434368,0.9882464408874512,1.143645167350769,1.1662049293518066,0.719675600528717,0.06723367422819138,0.7703927755355835,-0.6340146660804749,-0.12272989749908447,0.0055318474769592285,0.09191566705703735,0.823172482381202,-0.4034652959838101,-0.14215634753749648,0.37335560872893175,-0.8794570088139808,0.10564951205999432,0.90135465555274
1784719747879354368,0.998166561126709,1.4554615020751953,1.2616854906082153,0.793339192867279,0.08031433075666428,0.7616636753082275,-0.6429759860038757,-0.07622499018907547,-0.002554178237915039,-0.08883553743362427,0.8252009636522271,-0.40087828465409125,-0.13344890972644682,0.37487522056135036,-0.8658767597006902,0.12426668972119559,0.9103129377812231
1784719747889274368,1.0080864429473877,1.4186151027679443,0.8954830765724182,0.6145989894866943,0.0902818813920021,0.7522168159484863,-0.6527013778686523,0.0347333624958992,0.10261106491088867,-0.23700809478759766,0.8274671756032292,-0.39717605174740056,-0.12609718870891765,0.3763626362211794,-0.8514200133351576,0.13744820305651403,0.9161405600341397
1784719747899194368,1.0180065631866455,1.3744595050811768,0.9030165076255798,0.707212507724762,0.1021832674741745,0.7423222661018372,-0.6622056365013123,-0.06934637576341629,0.15919750928878784,-0.15087413787841797,0.8294352375394621,-0.3936745168169933,-0.11797264268122426,0.37833868807284987,-0.8365295775325254,0.1530999270887315,0.9240554221288753
1784719747909113344,1.0279254913330078,1.2767454385757446,0.8477540016174316,0.40680477023124695,0.11184600740671158,0.7329724431037903,-0.671000599861145,-0.041564032435417175,0.11036550998687744,-0.036854565143585205,0.8315049789057195,-0.39014201919440067,-0.11085531409667591,0.3796047156851026,-0.8226813350451597,0.16516691093638747,0.9287204573379277
1784719747919033344,1.0378453731536865,0.9573918581008911,0.8545295000076294,0.3386320173740387,0.12019790709018707,0.7250975370407104,-0.6780751943588257,-0.10391677916049957,0.020111143589019775,-0.07578527927398682,0.8334322841420111,-0.38734817884683914,-0.10451688141387866,0.3800371495857193,-0.8111760389123087,0.1754409484055456,0.9311403398835928
1784719747928953344,1.0477654933929443,0.6838425993919373,0.7798877954483032,0.2748605012893677,0.12803435325622559,0.7192351818084717,-0.6828674077987671,-0.13293242454528809,0.07533568143844604,-0.12929683923721313,0.8348120634208618,-0.3857106771919732,-0.09896239815623652,0.38016105710719145,-0.8027008210611458,0.18534329000831742,0.9334885153677406
1784719747938873344,1.057685375213623,0.5890231728553772,0.6450639367103577,0.1311211735010147,0.13435429334640503,0.7147930860519409,-0.6863088011741638,-0.08305424451828003,0.1422167420387268,-0.23326212167739868,0.8359419772952437,-0.3846106589927742,-0.09444709138409614,0.37994118972854857,-0.7963281668959723,0.19331881277509064,0.9347154456379718
1784719747948793344,1.0676054954528809,0.6834479570388794,0.4835807681083679,0.01135589461773634,0.1386680006980896,0.7104712724685669,-0.6899287700653076,0.0489845871925354,0.1700371503829956,-0.2883579730987549,0.8372648353638042,-0.3831313429331861,-0.09080739349050047,0.37940993990874,-0.7901676426688687,0.1983462131761719,0.9338844427477513
1784719747958713344,1.0775253772735596,0.8860301971435547,0.3618914783000946,0.006203011143952608,0.14158663153648376,0.7051228284835815,-0.6948057413101196,0.22067227959632874,0.15973007678985596,-0.26195085048675537,0.8389215230369877,-0.3806919701332798,-0.08758283091447916,0.37896370563583553,-0.7825963161729852,0.20102630479320366,0.9317492259421082
1784719747968632576,1.087444543838501,1.0557518005371094,0.2817164659500122,0.0630766823887825,0.1440374255180359,0.6983670592308044,-0.701096773147583,0.3284814953804016,0.11399561166763306,-0.1925952434539795,0.8408293762474438,-0.3772749888645859,-0.08435168034531354,0.3788856577982226,-0.773113493220299,0.20262643449029652,0.9294335787779211
1784719747978552320,1.0973644256591797,1.1501424312591553,0.22352665662765503,0.17332574725151062,0.14664088189601898,0.6904964447021484,-0.7083156704902649,0.3280600309371948,0.06037324666976929,-0.1327487826347351,0.8427546738577774,-0.37320412848381623,-0.08099910789818775,0.3793709918368267,-0.7621751911849344,0.20414364385164088,0.9280014510708163
1784719747988472576,1.1072845458984375,1.1145066022872925,0.21465513110160828,0.2090430110692978,0.14962130784988403,0.6821731328964233,-0.7157187461853027,0.20870083570480347,-0.01026761531829834,-0.06415796279907227,0.8445495115478038,-0.3689553117474606,-0.07754104723305827,0.38025717872047304,-0.7507305814114997,0.20608255388308402,0.9275713024915457
1784719747998392320,1.1172044277191162,1.0072449445724487,0.21524766087532043,0.11128918081521988,0.15241405367851257,0.6744208931922913,-0.7224447131156921,0.04440908133983612,-0.03051525354385376,0.020296335220336914,0.8462189232351595,-0.36504653785298735,-0.07428767772702073,0.3809669426583529,-0.7401800680743811,0.2079208893665067,0.926952871741075
1784719748008312576,1.127124547958374,0.9314412474632263,0.21609321236610413,-0.05424331873655319,0.15421123802661896,0.6675167083740234,-0.7284506559371948,-0.04979534447193146,-0.008794784545898438,0.09394443035125732,0.8479635209175205,-0.36147331863168064,-0.07149628781664545,0.38102913638524627,-0.7308686963334555,0.2086175257872052,0.9246892739388592
1784719748018231296,1.1370434761047363,0.9822492599487305,0.24827983975410461,-0.061999812722206116,0.15549437701702118,0.6607686877250671,-0.7343066930770874,-0.003165900707244873,0.007322132587432861,0.1675800085067749,0.8498502997628578,-0.35792174697457135,-0.06883806627064598,0.3806676716955377,-0.7218423757458496,0.20867411663960955,0.9212621086378491
1784719748028151296,1.146963357925415,1.1201086044311523,0.3212467133998871,0.06297062337398529,0.1576383113861084,0.6531538963317871,-0.7406349778175354,0.0970613956451416,-0.03987264633178711,0.2315712571144104,0.8517819564679016,-0.3540817333078884,-0.06564022329393904,0.3805062566701803,-0.7117420616358898,0.20971270368024392,0.918438883638034
1784719748038071296,1.1568834781646729,1.2488925457000732,0.39026308059692383,0.18019543588161469,0.16112956404685974,0.6442676782608032,-0.7476338744163513,0.10927143692970276,-0.07230722904205322,0.24876302480697632,0.8537079793444365,-0.34982881510753366,-0.061667308459759616,0.3807881107511289,-0.7000653358679813,0.212272499697759,0.916858670682094
1784719748047991296,1.1668033599853516,1.4877264499664307,0.46650245785713196,0.23626776039600372,0.16577114164829254,0.633816123008728,-0.7555111050605774,0.04715001583099365,-0.03959310054779053,0.1785305142402649,0.8557611050820032,-0.34497769210831003,-0.05687561942521657,0.38135077541716866,-0.6864769576705293,0.21599308232091996,0.9158791440379395
1784719748057911296,1.1767234802246094,1.7393264770507812,0.4807920753955841,0.18004247546195984,0.17078642547130585,0.6213328242301941,-0.7647074460983276,-0.04334501922130585,0.06250506639480591,0.05756938457489014,0.8581969701117048,-0.33912148111427726,-0.05140903158785778,0.3819052868597564,-0.6704425635312338,0.2197297066034211,0.9142098651064038
1784719748067831296,1.186643362045288,1.974711298942566,0.42812249064445496,-0.04853104054927826,0.17481712996959686,0.6070427298545837,-0.7752019762992859,-0.16250328719615936,0.21702337265014648,-0.05313670635223389,0.8612461790728889,-0.33211873799115893,-0.045783925887838146,0.3819109948053778,-0.6523339274017715,0.2218014602720305,0.9100678325811976
1784719748077750528,1.1965625286102295,2.1482999324798584,0.28297141194343567,-0.29974886775016785,0.17661631107330322,0.5913839340209961,-0.7868110537528992,-0.2631946802139282,0.33555692434310913,-0.23873215913772583,0.8650139546888287,-0.32395431830828336,-0.04059639044774248,0.38099384946714654,-0.632774006893475,0.22081093650568256,0.902317966036314
1784719748087670272,1.2064824104309082,2.1307101249694824,0.0783759355545044,-0.35159340500831604,0.1761198490858078,0.5750831365585327,-0.7989124655723572,-0.2705870270729065,0.295903742313385,-0.47739362716674805,0.8690884021476737,-0.3150035031105765,-0.036284293779765504,0.3796598513822579,-0.6127057970991853,0.21697900166684686,0.8926028585153865
1784719748097590528,1.216402530670166,1.7877135276794434,-0.06575749814510345,-0.29498448967933655,0.17434871196746826,0.560013473033905,-0.8099305033683777,-0.23277460038661957,0.11613398790359497,-0.5091918110847473,0.8727233098614031,-0.3064984829381803,-0.03306705544867497,0.378575262322733,-0.5944020698507427,0.21202827907022392,0.8837375755723044
1784719748107510272,1.2263224124908447,1.2859872579574585,-0.06722889095544815,-0.3207916021347046,0.1721327006816864,0.5485153794288635,-0.8182305097579956,-0.2183210551738739,-0.0160905122756958,-0.2718268632888794,0.8755155442646205,-0.2998698079903411,-0.03102959826329743,0.37760803361604334,-0.5805876715944784,0.20734835453176872,0.8765305099484246
1784719748117430528,1.2362425327301025,0.9668375253677368,0.030900340527296066,-0.520919919013977,0.16962338984012604,0.5406463146209717,-0.8239717483520508,-0.22009946405887604,-0.0014159679412841797,0.02102375030517578,0.8778672595199609,-0.29517168559032303,-0.029795829040462782,0.3759455284044588,-0.5712052228064027,0.2030244212700641,0.8690401610926711
1784719748127350272,1.2461624145507812,0.9814968705177307,0.17243856191635132,-0.6847362518310547,0.16710399091243744,0.5342527031898499,-0.8286436200141907,-0.18727611005306244,0.09538590908050537,0.20021045207977295,0.8803648233667404,-0.2913092548012164,-0.02858490625040888,0.37320181751693154,-0.5636234837920228,0.1989908758204996,0.8596923433185396
1784719748137269248,1.2560813426971436,1.0483264923095703,0.3144795298576355,-0.786967933177948,0.16507501900196075,0.5273265242576599,-0.8334728479385376,-0.07896967232227325,0.1336994767189026,0.2742382287979126,0.883180259065167,-0.2873039193871902,-0.026833244836428835,0.3697690544344268,-0.555450947452452,0.1955264522092778,0.8489162019015504
1784719748147189504,1.2660014629364014,1.079573631286621,0.4475100040435791,-0.915174663066864,0.1637500375509262,0.5200624465942383,-0.8382845520973206,0.015571236610412598,0.15797710418701172,0.30450159311294556,0.8862719826084415,-0.28329887497786554,-0.0244839510278414,0.3656013856846215,-0.5469240575756494,0.19291026791044738,0.8367629206261716
1784719748157109248,1.27592134475708,1.2316274642944336,0.5109429359436035,-1.0453975200653076,0.16270431876182556,0.5122950673103333,-0.8432562351226807,0.07968153059482574,0.21106308698654175,0.19948792457580566,0.8896705497157094,-0.2791057914890261,-0.021721718177625082,0.36071388396476695,-0.5378550365385526,0.19060536164538866,0.8230647984603945
1784719748167029504,1.285841464996338,1.433106780052185,0.5268617272377014,-1.1049681901931763,0.1615903079509735,0.5029506087303162,-0.8490755558013916,0.07788112759590149,0.29545027017593384,-0.0072934627532958984,0.8934737028871359,-0.2740759624905215,-0.018563234349497523,0.35530630208898545,-0.5270091974109441,0.18806424582268363,0.8078642726004736
1784719748176949248,1.2957613468170166,1.5288522243499756,0.5567648410797119,-1.0822868347167969,0.16073274612426758,0.49240708351135254,-0.8553948402404785,-0.008480563759803772,0.33323076367378235,-0.012967586517333984,0.8973795235772423,-0.2684664009309307,-0.015112234475069576,0.34986792699317415,-0.5148531878970707,0.1857389208429246,0.7925296316793754
1784719748186868480,1.305680513381958,1.6281412839889526,0.6916059851646423,-1.3008368015289307,0.160190612077713,0.4812546372413635,-0.8618195652961731,-0.174411803483963,0.24900048971176147,0.050082504749298096,0.9014683862265516,-0.26260586653781226,-0.011330246115650448,0.34389621853200114,-0.5020854291632196,0.1837775647453867,0.776141764939272
1784719748196788224,1.3156003952026367,1.5992685556411743,0.8760852217674255,-1.595412254333496,0.15989603102207184,0.4702569544315338,-0.8679237365722656,-0.3100578188896179,0.1262395977973938,0.1746864914894104,0.9059916360072707,-0.25687997098872317,-0.007127316891036046,0.33636452218299495,-0.4895819223776294,0.1821854103990296,0.7566156913079696
1784719748206708480,1.3255205154418945,1.5276076793670654,1.0634468793869019,-1.7283413410186768,0.1603783369064331,0.45974990725517273,-0.873446524143219,-0.2621239423751831,0.02973678708076477,0.2183714509010315,0.9107121406644086,-0.25153691990177457,-0.0024334794362491337,0.32760743233118406,-0.4777135553468966,0.1815927655260477,0.7349605998801727
1784719748216628224,1.3354403972625732,1.3725848197937012,1.2337534427642822,-1.8473788499832153,0.16227079927921295,0.45020976662635803,-0.8780543208122253,-0.18715788424015045,-0.025756001472473145,0.16701000928878784,0.9153557052884774,-0.24691037142851271,0.0028484734705036723,0.31804265697576434,-0.4670002415465294,0.18274537928762286,0.7123854851055186
1784719748226548480,1.345360517501831,1.2001128196716309,1.2334357500076294,-1.9031517505645752,0.1648157387971878,0.4422984719276428,-0.8815939426422119,-0.1392267644405365,0.023674428462982178,0.09434723854064941,0.919784637833558,-0.2431787351143936,0.008194063949089773,0.30788505747422157,-0.4581598328928321,0.18481850814177092,0.6892359742680918
1784719748236468224,1.3552803993225098,1.430331826210022,1.2237833738327026,-2.0185129642486572,0.1670459806919098,0.434347003698349,-0.8851205110549927,-0.05355110764503479,0.05089777708053589,-0.07546603679656982,0.9241896147237095,-0.23929230364722964,0.013376792997321713,0.2973781386671748,-0.44931318636442663,0.18653284812733006,0.6653614945843954
1784719748246387456,1.3651995658874512,1.4734833240509033,1.1475602388381958,-2.1993443965911865,0.16838154196739197,0.425234317779541,-0.8892825245857239,0.03701701760292053,0.0666327178478241,-0.04487574100494385,0.9288708794420847,-0.2345641250188415,0.018395836851424124,0.2860770449775318,-0.4392207597326694,0.18713005853020293,0.6394156267925478
1784719748256307456,1.3751194477081299,1.5288006067276,1.1583549976348877,-2.3140175342559814,0.1690598726272583,0.41598039865493774,-0.8935205936431885,0.1905287504196167,0.047688424587249756,-0.030536413192749023,0.9336012338606321,-0.22957487702495408,0.02313176602092659,0.2741331800486771,-0.42902065076997986,0.1869959483827087,0.6120576106019997
1784719748266227456,1.3850395679473877,1.5093339681625366,1.2775452136993408,-2.2826545238494873,0.17021803557872772,0.40641912817955017,-0.8976910710334778,0.2544950842857361,-0.14636361598968506,-0.05502188205718994,0.9382362092024051,-0.22442349194144356,0.02808119348346781,0.2618363439601202,-0.4185314954383878,0.187392854086407,0.5842067583265916
1784719748276147456,1.3949594497680664,1.2862170934677124,1.4797863960266113,-2.189776659011841,0.17347624897956848,0.3980138599872589,-0.900827944278717,0.22988983988761902,-0.2935674786567688,0.09394317865371704,0.9423867085213684,-0.22010934570886093,0.03373304684626079,0.24964205784158974,-0.4093508217813825,0.1902453157449458,0.557518017675609
1784719748286067456,1.4048795700073242,1.1123003959655762,1.680227518081665,-2.153498411178589,0.17911876738071442,0.3911817967891693,-0.9027143716812134,0.07494008541107178,-0.3244551420211792,0.19852125644683838,0.9460009210465554,-0.21685418272118662,0.04021284483648146,0.2375697469412714,-0.4019153731760063,0.19587818730679948,0.5321093929408706
1784719748295987456,1.414799451828003,0.8724852800369263,1.7723922729492188,-2.2472407817840576,0.18607646226882935,0.3863217234611511,-0.9033997058868408,-0.052333176136016846,-0.2834011912345886,0.18156743049621582,0.9492148831667344,-0.21466684660533022,0.04709868613631706,0.22514636002219038,-0.39664038048349853,0.2031327245924127,0.5067339236838034
1784719748305906176,1.4247183799743652,0.7085312008857727,1.8261274099349976,-2.271172523498535,0.19350838661193848,0.38361606001853943,-0.9029912352561951,-0.0014612823724746704,-0.21361792087554932,0.12137508392333984,0.9520545150852228,-0.2135126800732851,0.054006538371718885,0.21233878495713474,-0.3937087583194616,0.2111041931045488,0.48113406941176795
1784719748315826432,1.434638500213623,0.5645720362663269,1.808529257774353,-2.148195505142212,0.20137667655944824,0.38230499625205994,-0.9018261432647705,0.13208889961242676,-0.14561066031455994,0.05525326728820801,0.9544757981359854,-0.21301647193757087,0.060917344035733685,0.19972261777126385,-0.39228949477519076,0.21969461175740918,0.4563672960845788
1784719748325746176,1.4445583820343018,0.17408554255962372,1.7575888633728027,-1.9313311576843262,0.2095358669757843,0.38281673192977905,-0.8997477889060974,0.232312873005867,-0.12532466650009155,0.04827684164047241,0.9562983893112619,-0.2134455726773973,0.06758027275817628,0.18806213769561816,-0.3928433702194431,0.22880471378134717,0.4340778657832047
1784719748335666432,1.4544785022735596,-0.7799089550971985,1.83307945728302,-1.7637112140655518,0.21838349103927612,0.38933834433555603,-0.8948320150375366,0.2798159718513489,-0.28051266074180603,0.10338914394378662,0.9570328987118872,-0.21710173534855265,0.07382981794652917,0.17749365404470133,-0.39991316212654526,0.23937059992627072,0.4154930446523953
1784719748345586176,1.4643983840942383,-1.686240792274475,1.9486702680587769,-1.6566108465194702,0.22836583852767944,0.4042838215827942,-0.8856656551361084,0.28919702768325806,-0.5017874836921692,0.2479093074798584,0.956389479044091,-0.22536829498465227,0.07985180468932096,0.16778532103358873,-0.41619566130440155,0.2523499137931063,0.40089433004255365
1784719748355506432,1.474318504333496,-2.0060782432556152,2.0092694759368896,-1.6202375888824463,0.23892398178577423,0.4245760142803192,-0.8732986450195312,0.19491390883922577,-0.4274294078350067,0.18465423583984375,0.9547294669444634,-0.2366087123011929,0.08583117827508899,0.1585589922556265,-0.43849353912053757,0.26705296606113915,0.3889959528080404
1784719748365425408,1.4842374324798584,-1.7852084636688232,1.831080436706543,-1.9251259565353394,0.24792201817035675,0.4454386532306671,-0.8603017330169678,0.07178014516830444,-0.3082773983478546,0.03412985801696777,0.9528818039247837,-0.24800415595009692,0.09134044093217876,0.148886062694218,-0.4616641505222616,0.28057807485783076,0.37634342379781727
1784719748375345408,1.4941575527191162,-0.9582720994949341,1.7928508520126343,-2.2079410552978516,0.2538306415081024,0.4624646306037903,-0.8495271801948547,-0.13742133975028992,-0.2701428532600403,-0.049886882305145264,0.9517792066940068,-0.25684489514829484,0.09626580922507846,0.13740403089693226,-0.4807729504418169,0.29034677698371614,0.35839496995952785
1784719748385265408,1.504077434539795,-0.06468675285577774,1.7095052003860474,-2.180262804031372,0.25847184658050537,0.4723300039768219,-0.8426723480224609,-0.16475236415863037,-0.1661166250705719,0.022497177124023438,0.9516820659197163,-0.2614842391870571,0.10143878103030327,0.12504942705780153,-0.49193236662620954,0.2976184863292264,0.33653757643252624
1784719748395185408,1.5139975547790527,0.7758856415748596,1.4522114992141724,-2.430459976196289,0.26044559478759766,0.47511693835258484,-0.8404951095581055,-0.12894538044929504,-0.05670565366744995,0.14826488494873047,0.952745045706907,-0.2617842208888126,0.1059314247216323,0.11191339698045077,-0.4950969338760957,0.3004885650405803,0.31033917167528097
1784719748405105408,1.5239174365997314,0.8146772384643555,1.4516083002090454,-2.322282075881958,0.26166144013404846,0.47402000427246094,-0.8407367467880249,-0.12779611349105835,-0.15402796864509583,0.3342518210411072,0.9543074581663423,-0.259725234128146,0.11033774642497829,0.0983138526084593,-0.4938507095439776,0.3017262911783515,0.2819187519465801
1784719748415024384,1.5338363647460938,0.22030256688594818,1.4895150661468506,-2.561984062194824,0.26206907629966736,0.47596168518066406,-0.8395119309425354,0.13235536217689514,-0.42806434631347656,0.3963204622268677,0.9552978524146235,-0.2592337806315713,0.11420106664145553,0.08462824256802741,-0.49605718650298886,0.3025827101719276,0.25389401445699694
1784719748424944384,1.5437564849853516,0.8251879215240479,0.9933351278305054,-2.9399375915527344,0.2602178752422333,0.4801369607448578,-0.8377082943916321,-0.016992807388305664,-0.3433419466018677,0.3363960385322571,0.9560196320763625,-0.2596710239086553,0.1171188391130687,0.0698616038811993,-0.50081085552337,0.30118094919605326,0.22347457625854333
1784719748434864384,1.5536763668060303,3.188364267349243,1.0235552787780762,-3.240009307861328,0.2535626292228699,0.4713931977748871,-0.8446860313415527,-0.17241638898849487,0.4872860014438629,0.17632055282592773,0.9589486343805583,-0.25227298402464915,0.11838634212492223,0.05254185622054088,-0.49086983122942546,0.2916271054092215,0.18300991090697186
1784719748444784384,1.563596487045288,3.902637004852295,0.8218730092048645,-3.0272319316864014,0.2469099462032318,0.44724878668785095,-0.8596534729003906,0.4268876612186432,0.5434280633926392,0.20080947875976562,0.9636661752928397,-0.23631276410812194,0.11970612314137949,0.03426911891662019,-0.46368695622832906,0.27969148333859795,0.1375338416741017
1784719748454704384,1.5735163688659668,3.464587688446045,1.1918818950653076,-2.611999988555908,0.24298927187919617,0.4227373003959656,-0.8730689287185669,0.9333412647247314,-0.15769213438034058,0.29715651273727417,0.967586855274705,-0.2206616777963449,0.12154812658407611,0.017611888455943872,-0.43646365425912875,0.27144668022492724,0.096950561932199
1784719748464624384,1.5834364891052246,3.9177963733673096,1.3138877153396606,-2.5572550296783447,0.24354465305805206,0.3972025215625763,-0.8848255276679993,0.6831216216087341,-0.6101083755493164,-0.15219229459762573,0.9707782547505424,-0.20477999850347747,0.12510954480718442,0.0015563108130615339,-0.4084665712306578,0.2685948713359992,0.059160250225463284
1784719748474543360,1.593355417251587,3.5229623317718506,1.5024775266647339,-2.1191458702087402,0.24709175527095795,0.36918604373931885,-0.8959059119224548,0.39640188217163086,-0.6219784021377563,-0.33836227655410767,0.9735336251089554,-0.18780008082251876,0.1295306386609193,-0.013613168806401794,-0.3781330266508135,0.2691107588472935,0.023831644141850756
1784719748484463360,1.6032755374908447,2.0700089931488037,1.8797420263290405,-1.6056982278823853,0.25549301505088806,0.3485051989555359,-0.9018134474754333,0.33865371346473694,-1.0803167819976807,-0.15087515115737915,0.9748015203302978,-0.17515705352751285,0.13569559120618083,-0.025861126617758606,-0.3559758542326026,0.27607568466187876,-0.003075679823378498
1784719748494383360,1.6131954193115234,0.8275757431983948,2.030308961868286,-1.7547309398651123,0.2674337923526764,0.34024450182914734,-0.9015058875083923,0.3069222569465637,-1.4657022953033447,-0.17057663202285767,0.9743871451227208,-0.16923599046688512,0.14354871565478808,-0.03637004079671553,-0.3471768904838763,0.2883826980422979,-0.023706256187437963
1784719748504303360,1.6231155395507812,1.125462532043457,2.092099905014038,-1.8989334106445312,0.27985453605651855,0.3374597728252411,-0.8987782597541809,0.22566914558410645,-0.7243921756744385,-0.4052531123161316,0.9732020391379355,-0.16594469975475742,0.15189876062946778,-0.047611728550821256,-0.34421705727595947,0.3018570558323923,-0.0449064977973631
1784719748514223360,1.63303542137146,2.395238161087036,1.8715338706970215,-2.019686698913574,0.290947824716568,0.32776209712028503,-0.8988444805145264,0.2370673418045044,-0.17633387446403503,-0.6165668964385986,0.9725282462462037,-0.15866203320125638,0.15938672609062438,-0.060091163349351426,-0.33393383435109625,0.3130474493211289,-0.07023793447678763
1784719748524142336,1.6429543495178223,4.406185150146484,1.6049813032150269,-1.638113260269165,0.3008405566215515,0.30287623405456543,-0.9043013453483582,0.4777238965034485,0.03220677375793457,-0.7024033665657043,0.9730461181950502,-0.1432257099194088,0.1653351515216994,-0.0730207687152109,-0.3077092101498541,0.3211600227927802,-0.09957864205663387
1784719748534062336,1.65287446975708,6.210677623748779,1.1744714975357056,-1.4714958667755127,0.30908864736557007,0.2591400742530823,-0.9150468111038208,0.6702356934547424,0.20577993988990784,-0.5300215482711792,0.9747659733953385,-0.11806178274396267,0.1689320106347624,-0.08575894545112711,-0.2621317616887386,0.3257512639552369,-0.1321880459146975
1784719748543982336,1.6627943515777588,6.8599019050598145,0.7820215225219727,-1.2294411659240723,0.31505388021469116,0.20278877019882202,-0.9271557331085205,0.6939640641212463,0.19754083454608917,-0.2947375774383545,0.9766682558510081,-0.08667318528292811,0.1700290619966423,-0.09847398106160134,-0.20420503317561067,0.3275653527324083,-0.1671116406043592
1784719748553902336,1.6727144718170166,7.577060222625732,0.5547935366630554,-1.4134989976882935,0.31922483444213867,0.14028798043727875,-0.9372378587722778,0.5431714057922363,-0.028059586882591248,-0.32699859142303467,0.9778941040318826,-0.052509108364384355,0.16918589604954334,-0.11109460413704558,-0.1407522602762172,0.3282777755692032,-0.20289177385527632
1784719748563822336,1.6826343536376953,8.665122985839844,0.30178332328796387,-1.3488919734954834,0.32189327478408813,0.06899266690015793,-0.9442588090896606,0.3675293028354645,-0.07306677103042603,-0.5838783383369446,0.9780444656125409,-0.014055208474974625,0.1663521467016736,-0.12473367476363623,-0.06904751846837896,0.3285407021192064,-0.24224794581148612
1784719748573742336,1.6925544738769531,9.627720832824707,-0.1709844321012497,-1.3346432447433472,0.32260292768478394,-0.013121477328240871,-0.9464434385299683,0.36184531450271606,0.17980849742889404,-0.49372684955596924,0.976735130222947,0.029556163749405208,0.16094940794464285,-0.13860134631395846,0.013121854195128797,0.32850750359958564,-0.28409811349946607
1784719748583661312,1.7024734020233154,10.521236419677734,-0.4201875925064087,-1.3015483617782593,0.322174608707428,-0.10468869656324387,-0.9408739805221558,0.3948511779308319,0.19848448038101196,-0.5103436708450317,0.9731792852864554,0.07786230962808308,0.15329867013867432,-0.15283655235003585,0.10488086902975587,0.3299066490092723,-0.3290272970576036
1784719748593581312,1.7123935222625732,10.06686019897461,-0.5730568766593933,-1.3472990989685059,0.31973710656166077,-0.1966172605752945,-0.9268817901611328,0.30736860632896423,0.11258712410926819,-0.3017864227294922,0.9672170070982207,0.12642651624569212,0.143441439705599,-0.16712913192416934,0.19790664193769947,0.33217777544334637,-0.3754898574161844
1784719748603501312,1.722313404083252,9.131521224975586,-0.675136387348175,-1.1964614391326904,0.3172883987426758,-0.28013840317726135,-0.9060080051422119,0.18788430094718933,0.07783740758895874,-0.2388588786125183,0.9594220062907054,0.17102906426437955,0.13321052925492088,-0.1803149172565338,0.28393828392819687,0.3368573061142428,-0.42014645923678917
1784719748613421568,1.7322335243225098,7.943737506866455,-0.7333574891090393,-1.4134716987609863,0.3153132498264313,-0.35197877883911133,-0.8812993168830872,0.09498032927513123,0.025837421417236328,-0.34974926710128784,0.9505803371753621,0.21010697975982734,0.12331014132128786,-0.19247541329095202,0.35968433568413083,0.3435908777803735,-0.46262997430994396
1784719748623341312,1.7421534061431885,6.828131198883057,-0.9358149766921997,-1.540737509727478,0.31408390402793884,-0.41093721985816956,-0.8558515906333923,-0.004650920629501343,0.07023897767066956,-0.38830429315567017,0.9412572391117564,0.24308813933937254,0.11394018567473774,-0.2048431203255492,0.42348185196834587,0.3517245718628151,-0.504931679849053
1784719748633261568,1.7520735263824463,5.910408020019531,-1.145798683166504,-1.2933344841003418,0.311602383852005,-0.459695041179657,-0.8316155672073364,-0.011461973190307617,0.1180202066898346,-0.4694708585739136,0.9322288907544953,0.2707555019369453,0.10432484314660337,-0.2162340335303949,0.47765177338890824,0.3585034338618295,-0.5440221303427006
1784719748643180288,1.7619924545288086,5.373626708984375,-1.333774447441101,-1.196879506111145,0.30767929553985596,-0.5014980435371399,-0.8085995316505432,-0.06266891956329346,0.07374840974807739,-0.4733523726463318,0.9235989856456717,0.2946185142619901,0.09434073491333368,-0.22641701897088265,0.5253294124061657,0.36359161564361137,-0.5795832770409236
1784719748653100544,1.7719125747680664,5.233072757720947,-1.5721486806869507,-1.0002442598342896,0.3019009530544281,-0.5400161147117615,-0.7856452465057373,-0.0478115975856781,0.042167603969573975,-0.5267937183380127,0.9149403566355815,0.31660154169322374,0.08331176869166738,-0.23602280416699445,0.5704562387463892,0.366874115048897,-0.613614377724258
1784719748663020288,1.7818324565887451,5.308761119842529,-1.6812819242477417,-0.7494421005249023,0.2943474352359772,-0.577643871307373,-0.761371910572052,0.05840525031089783,-0.004860401153564453,-0.6353261470794678,0.9060075214527625,0.33800436727005073,0.07118360632331266,-0.244614708038601,0.6158393575264695,0.3689027769131007,-0.645942630957807
1784719748672940288,1.7917523384094238,5.471039295196533,-1.936231255531311,-0.5329230427742004,0.2846949100494385,-0.6160340309143066,-0.7344732284545898,0.10394644737243652,-0.12819814682006836,-0.6714563369750977,0.8964136461659282,0.3597999103518278,0.05751019366454584,-0.25234728594525707,0.6636979646366531,0.3697867279824869,-0.6775320901203626
1784719748682860288,1.8016724586486816,5.725012302398682,-2.069554567337036,-0.3907393217086792,0.273343950510025,-0.6544256210327148,-0.704989492893219,0.1289997398853302,-0.25890445709228516,-0.6212128400802612,0.8861080222785978,0.38170746219270324,0.04248144590694676,-0.25943645866988574,0.7134227317142225,0.3698822650308746,-0.7088490942382917
1784719748692780288,1.8115923404693604,6.137417793273926,-2.2365777492523193,-0.3213500678539276,0.2610523998737335,-0.6941466331481934,-0.6708293557167053,0.10833233594894409,-0.27773141860961914,-0.5766834020614624,0.8743915228672623,0.4048552445033483,0.02602960024284886,-0.266184388015796,0.7672337275394077,0.37111699179537727,-0.7422599452520329
1784719748702699520,1.8215115070343018,6.137155532836914,-2.361961841583252,-0.2626616954803467,0.24832239747047424,-0.7332409024238586,-0.6330037117004395,0.11971957981586456,-0.11674994230270386,-0.45265913009643555,0.8614586374089136,0.42828187184515454,0.00853054306208505,-0.2727467532365306,0.823075999649016,0.37384407421760957,-0.7779724616493322
1784719748712619264,1.8314313888549805,5.968155384063721,-2.506735324859619,0.10485374927520752,0.2343074381351471,-0.769770622253418,-0.5937618613243103,0.1885441094636917,-0.14555835723876953,-0.2746310234069824,0.8481245183376733,0.450580140875012,-0.00982831206481877,-0.2785061789144736,0.8784817264122492,0.3758556740958509,-0.8128023596231205
1784719748722539520,1.8413515090942383,5.5970025062561035,-3.035414218902588,0.48416778445243835,0.21648173034191132,-0.8040714859962463,-0.5537190437316895,0.2773689925670624,-0.47347062826156616,-0.14493513107299805,0.8348251434501761,0.4714244765302923,-0.029990617479175224,-0.28271291430114864,0.934112053893297,0.3726886437858612,-0.8426255761891679
1784719748732459520,1.851271629333496,4.62734842300415,-2.7983663082122803,1.0812630653381348,0.19488626718521118,-0.8328200578689575,-0.5181024670600891,0.4577932357788086,-0.678898811340332,0.06006413698196411,0.8230864193871136,0.4882059367976924,-0.051026642326529974,-0.28562223057346836,0.9841828491053123,0.35978191178610813,-0.8623884505698531
1784719748742379520,1.8611915111541748,3.4803895950317383,-2.5891342163085938,1.62294340133667,0.16978943347930908,-0.8559399247169495,-0.48840397596359253,0.3719280958175659,-1.0847034454345703,0.19239872694015503,0.8141466271412527,0.5007329538204985,-0.0711654740388865,-0.2852495467784332,1.0273658943388677,0.3345720653140334,-0.8639765315570134
1784719748752299520,1.8711116313934326,2.1563282012939453,-2.54777455329895,1.7259790897369385,0.14330999553203583,-0.8716352581977844,-0.4687369763851166,0.15213069319725037,-1.1993792057037354,0.46962201595306396,0.8084930803403754,0.5075272216234501,-0.08970858061349384,-0.284090706145488,1.0585286605331692,0.2967112873664777,-0.8502090957147235
1784719748762218496,1.881030559539795,1.176496148109436,-2.026707649230957,2.3315370082855225,0.114869125187397,-0.8821576237678528,-0.4567309319972992,0.2181387096643448,-1.2266528606414795,0.7319537401199341,0.8059657248774575,0.5102046338912264,-0.1064225524958124,-0.28068638290624714,1.0804240997791292,0.2463925950253905,-0.8184956146904948
1784719748772138496,1.8909506797790527,0.11009184271097183,-1.6519463062286377,2.8190977573394775,0.08402090519666672,-0.8877565264701843,-0.45258012413978577,0.1357971727848053,-1.1914823055267334,0.9523512125015259,0.8067185841670057,0.5089259093098261,-0.12126154477196274,-0.2747637544052936,1.0924482428126263,0.18355891357623666,-0.7683295201521276
1784719748782058496,1.9008705615997314,-0.942315399646759,-1.284903883934021,3.200516939163208,0.05062642693519592,-0.8876568675041199,-0.4577140808105469,0.22899088263511658,-1.0540850162506104,1.0946464538574219,0.8110835457490814,0.5031534231982956,-0.13408802452506438,-0.2664590920580649,1.09223178112304,0.11015933355861768,-0.7018235135511791
1784719748791978496,1.9107906818389893,-1.5682628154754639,-1.110007643699646,3.0996999740600586,0.017399735748767853,-0.8829528093338013,-0.4691392779350281,0.21773821115493774,-0.9850281476974487,0.8593217730522156,0.8174645550817873,0.494346263623088,-0.14509353474256959,-0.25752938596315694,1.0821152165928383,0.0370716439987165,-0.6326609368777687
1784719748801898496,1.920710563659668,-2.1723906993865967,-1.0285003185272217,3.0291314125061035,-0.01407003216445446,-0.8740623593330383,-0.4856099486351013,0.1446700096130371,-0.9556800723075867,0.4957723021507263,0.8250289233600631,0.48304708934646917,-0.1544685420017074,-0.24926348033134385,1.0635024390104626,-0.02896583364831913,-0.5697734487870781
1784719748811817728,1.9306297302246094,-2.1796646118164062,-0.9053484797477722,3.1240031719207764,-0.04551677033305168,-0.8623799681663513,-0.5042113065719604,0.12142924964427948,-0.8715677857398987,0.22100818157196045,0.8332648717932377,0.4704460108592983,-0.16301804475735335,-0.2403651488281505,1.0399521093321438,-0.09002916993546278,-0.5101083549423512
1784719748821737472,1.940549612045288,-1.9655460119247437,-0.9890881180763245,3.34873628616333,-0.07737847417593002,-0.8498044013977051,-0.5213878154754639,0.19084283709526062,-0.8483767509460449,0.018656492233276367,0.8410298216620234,0.45802650539045003,-0.17180750696743688,-0.2310041005063063,1.0156140516863956,-0.1473332760658413,-0.4540245155647868
1784719748831657728,1.950469732284546,-1.39900541305542,-0.9843796491622925,3.6606903076171875,-0.1119232326745987,-0.8377200961112976,-0.5345075726509094,0.4354248344898224,-0.8965023159980774,0.12699109315872192,0.8478536737218647,0.4468152107445406,-0.181940606776039,-0.21999563328198993,0.9930949028927941,-0.20641271572332096,-0.39562862777640107
1784719748841577472,1.9603896141052246,-0.984013020992279,-0.8455544114112854,4.135082244873047,-0.1489088237285614,-0.8264998197555542,-0.5428850650787354,0.5076124668121338,-1.0290299654006958,0.37242913246154785,0.8536420276538583,0.437330638226744,-0.19313046277790982,-0.20673115498493455,0.9728612410427772,-0.2677075117544378,-0.33302331002329716
1784719748851497728,1.9703097343444824,-0.9219323396682739,-0.511668860912323,4.533575534820557,-0.187943235039711,-0.8141981363296509,-0.549325704574585,0.5761573314666748,-1.1139787435531616,0.7416932582855225,0.8592506030827268,0.42842317370061933,-0.20442784851171059,-0.19065993254834102,0.9513467358369875,-0.32965053395455624,-0.2657584490631909
1784719748861417472,1.9802296161651611,-1.1183505058288574,-0.13928303122520447,4.924161434173584,-0.22765374183654785,-0.7989717721939087,-0.5566129684448242,0.5893480777740479,-1.1385741233825684,1.0498991012573242,0.8652537558986834,0.4189339811839241,-0.2149135728289885,-0.17217010098646066,0.925583477968869,-0.3882393672875126,-0.19728426517325354
1784719748871336448,1.9901485443115234,-1.7454456090927124,0.16127486526966095,5.202998638153076,-0.26710736751556396,-0.7787480354309082,-0.5676313042640686,0.609545111656189,-1.2410732507705688,1.1353497505187988,0.8722181525265627,0.40741980000287176,-0.2240389516704064,-0.1518265801087703,0.8926676414545697,-0.4398234793937871,-0.13156227395968462
1784719748881256704,2.0000686645507812,-2.720170021057129,0.3376946747303009,5.406840801239014,-0.30595892667770386,-0.7510910630226135,-0.585022509098053,0.6489307284355164,-1.3880844116210938,1.1094212532043457,0.8805787684167249,0.39204150209834254,-0.23193146334375667,-0.13073732124175352,0.8497131266157797,-0.4818673271788308,-0.07337026524081397
1784719748891176448,2.00998854637146,-3.9602770805358887,0.44344061613082886,5.5509490966796875,-0.34340977668762207,-0.7136032581329346,-0.61060631275177,0.6509201526641846,-1.5030410289764404,1.15479576587677,0.8906416100883646,0.37119639485361994,-0.23855835670476877,-0.10982086924866286,0.7946283313511807,-0.5123194606670638,-0.026436691740337404
1784719748901096704,2.0199086666107178,-5.070465087890625,0.459016352891922,5.763160705566406,-0.379265159368515,-0.6652106046676636,-0.6431583762168884,0.6859820485115051,-1.5232963562011719,1.1767430305480957,0.9020002903686661,0.34455084461681507,-0.24434711996446015,-0.08930060247297873,0.7277758587843672,-0.5328053634606583,0.009752539774703072
1784719748911016448,2.0298285484313965,-5.755366325378418,0.40650445222854614,5.994565486907959,-0.4135271906852722,-0.6063752174377441,-0.679193913936615,0.798231840133667,-1.4220671653747559,1.2698159217834473,0.9137087356926924,0.31300749557220037,-0.24985867893439295,-0.06879854487930337,0.651494143446614,-0.546901444064508,0.03860672173745234
1784719748920936704,2.0397486686706543,-5.84423303604126,0.3016153573989868,6.169900417327881,-0.44564154744148254,-0.5401657819747925,-0.7138798832893372,0.9377222657203674,-1.196497917175293,1.290753722190857,0.9244713125954479,0.2789166842903162,-0.255471213873909,-0.04788178517669243,0.5706340909764973,-0.5580618656148859,0.06418658936037244
1784719748930855424,2.0496675968170166,-5.4505791664123535,0.15459610521793365,6.367189407348633,-0.4754354953765869,-0.4705115258693695,-0.743357241153717,1.0634634494781494,-0.9525841474533081,1.2398325204849243,0.9332758110992253,0.2447951591336888,-0.2615276374671454,-0.02597953693198742,0.4898704015177945,-0.5690142956173294,0.09027420362028768
1784719748940775680,2.0595877170562744,-4.866069793701172,0.06148693338036537,6.554330825805664,-0.5025898218154907,-0.4006081521511078,-0.7661048769950867,1.1363941431045532,-0.8031730055809021,1.1895058155059814,0.939705053389716,0.21240582283849124,-0.2680136901963367,-0.002631374634320293,0.4121804763047991,-0.580604416218282,0.11914659943444339
1784719748950695424,2.069507598876953,-4.428162574768066,-0.024216558784246445,6.649994850158691,-0.5264039039611816,-0.3313247561454773,-0.7830216288566589,1.1813416481018066,-0.7688645124435425,1.1868302822113037,0.9439420664180829,0.18190268603586832,-0.27459168048523463,0.022008030545870718,0.33770728576996567,-0.5918735290266557,0.15048146531313444
1784719748960615680,2.079427719116211,-4.361596584320068,-0.1007680594921112,6.69722318649292,-0.5465134382247925,-0.26170283555984497,-0.7955090999603271,1.230473518371582,-0.856949508190155,1.1928327083587646,0.9463210114408906,0.15230756682119034,-0.2811545236157577,0.04723534179935625,0.2647861129018939,-0.6019466595586188,0.18237361618942297
1784719748970535424,2.0893476009368896,-4.639642715454102,-0.09620431065559387,6.760270595550537,-0.5623799562454224,-0.1891157031059265,-0.804962158203125,1.3083668947219849,-0.966752827167511,1.240478515625,0.9472262813334124,0.1218076417065898,-0.2875444866771823,0.0724115662654702,0.19026152348081737,-0.6098136388429499,0.2126375150466193
1784719748980455680,2.0992677211761475,-4.976099967956543,-0.04343883693218231,6.829923152923584,-0.5731360912322998,-0.11235040426254272,-0.8117218613624573,1.4008643627166748,-1.0479278564453125,1.2986602783203125,0.9467776176219762,0.08950257048230717,-0.2934763296045381,0.09732923475237316,0.1125881197924052,-0.6147911549246453,0.24065734105005354
1784719748990374656,2.1091866493225098,-5.004912853240967,-0.010615489445626736,6.981733798980713,-0.5783330202102661,-0.032572004944086075,-0.8151503205299377,1.480936050415039,-1.0560967922210693,1.4183149337768555,0.9447859273612415,0.05591689981519167,-0.2988279612644575,0.12228941663626616,0.032577768196921035,-0.6170602161189693,0.2678244997054059
1784719749000294400,2.1191065311431885,-4.7695817947387695,0.03728492558002472,7.138579845428467,-0.5777179002761841,0.04741140082478523,-0.8148583769798279,1.5614062547683716,-1.035555362701416,1.4978723526000977,0.9410243840685837,0.022527193429290278,-0.30341939600554185,0.14799429273876166,-0.047429181392949826,-0.6167270841719819,0.29687340686293784
1784719749010214656,2.1290266513824463,-4.414242744445801,0.13969437777996063,7.299076080322266,-0.5708862543106079,0.12533752620220184,-0.8114058375358582,1.626413106918335,-1.0057239532470703,1.554051160812378,0.9355306626976708,-0.009705243718089533,-0.306924908443719,0.17460039098498367,-0.1256680308914489,-0.6131224190743053,0.3291933624864728
1784719749020134400,2.138946533203125,-4.2910051345825195,0.34071457386016846,7.4343438148498535,-0.557158887386322,0.20105189085006714,-0.8056997656822205,1.6666254997253418,-1.0414297580718994,1.5994315147399902,0.9284701942125329,-0.04105879609957842,-0.30897297446019373,0.20197261750827974,-0.20243162710942664,-0.6050131604574164,0.3650201020932878
1784719749030054656,2.148866653442383,-4.355861663818359,0.6001852750778198,7.451185703277588,-0.5360473990440369,0.27495256066322327,-0.7981567978858948,1.6337800025939941,-1.0803114175796509,1.7087249755859375,0.9200655458900089,-0.0723424158481724,-0.3093350739823253,0.22925466518181872,-0.2785403460406029,-0.5914148143036776,0.4030432494627906
1784719749039973376,2.158785581588745,-4.640830993652344,0.7763046622276306,7.470126152038574,-0.5090748071670532,0.3452856242656708,-0.7884292602539062,1.6077991724014282,-1.0829412937164307,1.7458267211914062,0.910501810445952,-0.10310349951622423,-0.30847209699789196,0.2553452488455946,-0.35254309987176125,-0.5733339444103432,0.44192326915437186
1784719749049893632,2.168705701828003,-4.866049289703369,0.8231776356697083,7.605468273162842,-0.4744924008846283,0.4185231029987335,-0.774399995803833,1.6342366933822632,-1.0742084980010986,1.668473482131958,0.8989245677579616,-0.13680215973818513,-0.30673303977705996,0.28130887972738466,-0.4318185371741751,-0.5497218797434414,0.4830272487618349
1784719749059813376,2.1786255836486816,-4.976326942443848,0.7745285630226135,7.776666164398193,-0.4338058531284332,0.4902874827384949,-0.7559303641319275,1.6869796514511108,-1.1217877864837646,1.5830636024475098,0.885190074141665,-0.17125384512025882,-0.3044781438954261,0.3072520638115338,-0.5124195718747186,-0.5209847502743827,0.5287554899257146
1784719749069733632,2.1885457038879395,-5.221676826477051,0.6674454808235168,7.876933574676514,-0.38780203461647034,0.5596414804458618,-0.7324008345603943,1.7301939725875854,-1.1751505136489868,1.603189468383789,0.8691029572180655,-0.2062251109568864,-0.3021105330096442,0.33295724243964836,-0.593953134632568,-0.48696363947606736,0.5799656131159011
1784719749079653376,2.198465585708618,-5.501007556915283,0.5451235175132751,7.972053527832031,-0.33691444993019104,0.6262735724449158,-0.7030434608459473,1.7711795568466187,-1.2325663566589355,1.5587258338928223,0.8504784658754043,-0.24191749640182245,-0.2999236526566146,0.3580616585190475,-0.676764067450744,-0.44688812260092364,0.6373771785549808
1784719749089573632,2.208385705947876,-5.572146892547607,0.42742377519607544,8.028727531433105,-0.2814319133758545,0.6885396242141724,-0.6683632135391235,1.7822253704071045,-1.2591115236282349,1.4552894830703735,0.8293677859498899,-0.27775472525385403,-0.2977762741663675,0.38253207965593594,-0.7594733268290974,-0.3985425587514218,0.7034596324598064
1784719749099492608,2.2183046340942383,-5.49550199508667,0.28607675433158875,8.027392387390137,-0.22211024165153503,0.7441205978393555,-0.6300408840179443,1.744433879852295,-1.238062858581543,1.3825433254241943,0.8061141051986392,-0.312611646746643,-0.2953870640096013,0.406448575556779,-0.839217524256974,-0.33892965920089047,0.781649005659976
1784719749109412352,2.228224515914917,-5.350958347320557,0.17718389630317688,8.040175437927246,-0.15952010452747345,0.792251706123352,-0.5889740586280823,1.6755266189575195,-1.232330560684204,1.365371823310852,0.7809037633543864,-0.3462110112018356,-0.2926617637744286,0.42973970945284373,-0.914490385396982,-0.26449834813764406,0.8754465434288622
1784719749119332608,2.238144636154175,-5.0372443199157715,0.10026487708091736,8.010335922241211,-0.09405292570590973,0.8316192030906677,-0.547324001789093,1.603864312171936,-1.3000640869140625,1.3051517009735107,0.7542238660433649,-0.3778540777356501,-0.2890749021355221,0.45255757815178105,-0.9820170125939056,-0.17017930083093008,0.9897350820611688
1784719749129252352,2.2480645179748535,-4.778517246246338,0.023659508675336838,8.011592864990234,-0.026448246091604233,0.8619752526283264,-0.5062599182128906,1.601384162902832,-1.2491669654846191,1.2264747619628906,0.7263820970223464,-0.4073427291945508,-0.2845029618376402,0.474867282755842,-1.0391531561049456,-0.052194974052316025,1.1281439259299815
1784719749139172608,2.2579846382141113,-4.775994300842285,-0.07916327565908432,8.032068252563477,0.042858704924583435,0.884220540523529,-0.46509918570518494,1.6561311483383179,-1.2229046821594238,1.2029531002044678,0.6970849576276138,-0.4352339265288943,-0.2793238995129704,0.4966107351664446,-1.08482253668876,0.09189009004777397,1.2934217710962974
1784719749149092352,2.26790452003479,-5.12891149520874,-0.1254490166902542,7.997270584106445,0.11335505545139313,0.8996350169181824,-0.4216722846031189,1.7037073373794556,-1.3613507747650146,1.2178454399108887,0.6658205442988786,-0.4625715869252173,-0.274210465316572,0.5172226248086986,-1.1189329727288038,0.2626141440871465,1.4859190619228888
1784719749159011584,2.2778236865997314,-6.00250244140625,-0.07548438757658005,7.897103786468506,0.18435357511043549,0.90973299741745,-0.3720211386680603,1.7184326648712158,-1.4829294681549072,1.1776089668273926,0.6318278208002494,-0.4908987443839165,-0.27019965688783665,0.5355410891356363,-1.1426405465911016,0.46007804223753995,1.7050442901642717
1784719749168931584,2.28774356842041,-6.935908794403076,-0.3930507302284241,7.783114910125732,0.25462520122528076,0.9146493673324585,-0.3139786124229431,1.6468640565872192,-1.4312204122543335,1.221388339996338,0.5941933442907834,-0.520443441652946,-0.2686062502994465,0.5512926417171686,-1.1546396718774679,0.6813903292026159,1.9498002749509273
1784719749178851584,2.297663688659668,-6.821654319763184,0.6433447003364563,7.290463924407959,0.32166412472724915,0.9133868217468262,-0.24951286613941193,1.5334994792938232,-1.2410998344421387,1.242417573928833,0.5544937109434669,-0.5503398608747101,-0.26901598661024534,0.5632878158245432,-1.1515274970135754,0.9110529466195488,2.2023102103936445
1784719749188771584,2.3075835704803467,-6.390116214752197,-4.13507080078125,6.813930511474609,0.41103020310401917,0.8886284232139587,-0.20345422625541687,4.736964702606201,1.4366888999938965,0.469887912273407,0.5072661249894641,-0.5750028120109341,-0.2600858641760856,0.5868629577596325,-1.0943458240320154,1.1111679145291031,2.4392095470934523
1784719749198691584,2.3175036907196045,-3.0715949535369873,1.149825930595398,2.9458813667297363,0.44168129563331604,0.8807891607284546,-0.17066945135593414,1.7845607995986938,3.914315700531006,2.8147430419921875,0.4794883325516324,-0.5856886975840161,-0.26764533894863846,0.596175865307018,-1.0775262839865054,1.2020613165305307,2.564843714494304
1784719749208611584,2.327423572540283,-4.205255031585693,1.6206475496292114,4.387380123138428,0.47975534200668335,0.8674818277359009,-0.1315687596797943,-0.6254919767379761,0.5730395913124084,1.8163526058197021,0.4578959929486481,-0.6040396370629574,-0.26334718058968504,0.5967543665814692,-1.0501177703085305,1.3031355531647206,2.6646776587343224
1784719749218530560,2.3373427391052246,-2.5349810123443604,1.347339391708374,3.3956823348999023,0.5161974430084229,0.8510958552360535,-0.09579098969697952,0.7490460276603699,1.2839901447296143,1.810421109199524,0.43672271565544785,-0.6207307080609223,-0.2584528849066232,0.5976359046153649,-1.0180690649529303,1.3873130439491341,2.7484185104780128
1784719749228450560,2.3472626209259033,-2.7112700939178467,1.3735309839248657,2.0877373218536377,0.5415095090866089,0.8379403352737427,-0.06799419969320297,1.000650405883789,0.4681813716888428,1.2354289293289185,0.42191891588802305,-0.6335523362700919,-0.25419350343375985,0.5966417863870035,-0.9934983384128684,1.4458858639576673,2.802807669963913
1784719749238370560,2.357182741165161,-3.321829080581665,0.9206164479255676,1.7545561790466309,0.5580341815948486,0.8290184140205383,-0.03641998767852783,1.8767039775848389,0.30318373441696167,1.3979922533035278,0.40822796130871397,-0.6457814537397906,-0.25447263011151966,0.5929249300415091,-0.9773501413510605,1.5056239535990699,2.8599443409931324
1784719749248290560,2.36710262298584,-3.4349253177642822,0.37071484327316284,2.673267126083374,0.5762200355529785,0.8172772526741028,-0.00532524986192584,2.892911434173584,0.24140805006027222,0.8713073134422302,0.3916770237260218,-0.6571410684176657,-0.2559355218027487,0.590975232591493,-0.9566700285105093,1.5615548954673242,2.920138354140898
1784719749258210304,2.3770225048065186,-2.6762804985046387,0.07456199079751968,3.477518081665039,0.6017624735832214,0.798391580581665,0.021277159452438354,2.9124128818511963,0.5271393656730652,1.1127254962921143,0.37213865237625987,-0.6677725432200045,-0.25439813397552224,0.5923463437172755,-0.9246192514585768,1.606139672709913,2.97287556912502
1784719749268130560,2.3869426250457764,-1.2152420282363892,-0.40302953124046326,2.484264850616455,0.6257510185241699,0.7792184352874756,0.03541583940386772,1.534191608428955,1.3186514377593994,0.6824796199798584,0.3568246843861248,-0.6747590388914452,-0.24981625131990018,0.5957920997337766,-0.8934178811802828,1.6273333473951592,3.0006320594184106
1784719749278049536,2.3968615531921387,-0.36981630325317383,-0.7623746395111084,1.5717886686325073,0.6411213278770447,0.766529381275177,0.03736744076013565,0.2646861672401428,2.0110127925872803,0.30418527126312256,0.3474320552316924,-0.6765965749589816,-0.24678086538702246,0.6005059033770767,-0.8734194404288185,1.629014972210394,3.011474005899757
1784719749287969536,2.4067816734313965,0.2898734509944916,-0.5908781886100769,0.2947342097759247,0.6494437456130981,0.7597532868385315,0.03158758580684662,-0.43192970752716064,1.5033540725708008,0.04961967468261719,0.343677245517065,-0.6753934675125729,-0.24420781376638864,0.6050554964966938,-0.8629336052513583,1.6193959365811235,3.008916178830221
1784719749297889536,2.416701555252075,0.42986759543418884,-0.4954230785369873,1.821438193321228,0.6569795608520508,0.7535168528556824,0.02429492026567459,-0.44398218393325806,0.4940112233161926,0.011166451498866081,0.34147990826726415,-0.6739814893720344,-0.24061673297463673,0.6092979626687891,-0.8533951988322789,1.6077592056792636,3.0015251509313603
1784719749307809536,2.426621675491333,-0.9890781044960022,0.3489498198032379,-0.06824178993701935,0.6646454930305481,0.7466706037521362,0.027011150494217873,-0.8201630711555481,0.055392444133758545,0.3009307384490967,0.33739065394251405,-0.6759166782225663,-0.23799625954073794,0.6104605507364598,-0.8430427548394543,1.6114139112443056,3.005580078102896
1784719749317729536,2.4365415573120117,-0.3872572183609009,0.3083246350288391,-0.4199143350124359,0.6617134809494019,0.7489393353462219,0.035004038363695145,-0.34866422414779663,0.7894670367240906,0.18749964237213135,0.3365677301523809,-0.6778773985523175,-0.2407991937121269,0.607634941269455,-0.8464599400080473,1.6236461503651383,3.016681401145652
1784719749327649536,2.4464616775512695,-0.09001728147268295,0.08280862122774124,0.056871380656957626,0.6607425212860107,0.7496528029441833,0.03795116767287254,0.8760311603546143,0.8258630037307739,-0.17116034030914307,0.3363031583746554,-0.6786512981052177,-0.24167746991175526,0.6065680147990844,-0.8475373123804475,1.628170437649088,3.0204927205561556
1784719749337569536,2.4563815593719482,0.38736259937286377,-0.3387013375759125,0.007312616799026728,0.6610790491104126,0.7494682669639587,0.035664524883031845,0.9090656042098999,0.5574164986610413,-0.08543872833251953,0.3366747013008977,-0.6779826814884239,-0.2411881965239882,0.607303838485619,-0.8472585427140207,1.624693036135318,3.0175895525944485
1784719749347488768,2.4663007259368896,-0.626757025718689,-0.1589469015598297,0.17999497056007385,0.6618509888648987,0.7488338351249695,0.03466048464179039,0.4387350082397461,0.3205631971359253,0.0856245756149292,0.3359120540461934,-0.6775227928185388,-0.2414396564427132,0.6081389361000198,-0.8463007952173867,1.6231175463076954,3.0184606689511497
1784719749357408512,2.4762206077575684,-1.1010314226150513,-0.019290737807750702,-0.21116958558559418,0.6620105504989624,0.7483879923820496,0.04071249067783356,0.018241524696350098,0.5916236042976379,0.19073283672332764,0.33269486553364946,-0.6787356402241049,-0.2442829819892033,0.60741908183109,-0.8456283414477901,1.632217219129081,3.031969456337126
1784719749367328768,2.486140727996826,-0.999945878982544,0.012919854372739792,-0.26734408736228943,0.6597856879234314,0.7498463988304138,0.04912589490413666,-0.1659502387046814,0.8387613892555237,0.023002393543720245,0.3299051967536202,-0.6802811301213616,-0.2485568968635599,0.6054747787954241,-0.847829925133988,1.645116535712168,3.0487745945253635
1784719749377248512,2.496060609817505,-0.5071659684181213,-0.1851349174976349,-0.20971833169460297,0.6581640243530273,0.7509344816207886,0.054016537964344025,0.02272897958755493,0.7487146854400635,-0.3292393684387207,0.3280424720886403,-0.6809595447720057,-0.2515996167895982,0.6044666837361163,-0.8494760091659904,1.652684344594061,3.059846508286978
1784719749387168768,2.5059807300567627,-0.44371604919433594,-0.5063915848731995,-0.3086380660533905,0.6563289761543274,0.7524570822715759,0.05514330044388771,0.07201880216598511,0.5429835915565491,-0.3968029022216797,0.32670126447881787,-0.6802390331158542,-0.2546497749653375,0.6047269629419767,-0.8517846918423411,1.6546172430592547,3.0676083402912253
1784719749397088512,2.5159006118774414,-0.24625808000564575,-0.7394917011260986,-0.2849484384059906,0.6542531847953796,0.7543729543685913,0.05361252278089523,-0.03669947385787964,0.3679872751235962,-0.35286784172058105,0.3257852884027474,-0.6785220112636462,-0.2577094149016087,0.6058528999719937,-0.8546984071209666,1.6525582590007961,3.072937674705963
1784719749407007488,2.5258195400238037,0.25867271423339844,-0.8100025057792664,-0.3435739278793335,0.6524292826652527,0.7562912106513977,0.048577021807432175,-0.08684694766998291,0.35494542121887207,-0.28769755363464355,0.32548645113676317,-0.6757209171143314,-0.2601725439416941,0.6080872626993796,-0.8576255176694881,1.645114807873933,3.0739196645352633
1784719749416927488,2.5357396602630615,0.8871241211891174,-0.982926070690155,-0.5543926954269409,0.6494022607803345,0.7594496607780457,0.03889470174908638,-0.15808457136154175,0.5808365345001221,-0.2156829833984375,0.3276454279002418,-0.671675963943232,-0.2613402944417933,0.6109018448280094,-0.8624667462035166,1.6306179420329872,3.0658223812407566
1784719749426847488,2.5456595420837402,1.6398972272872925,-1.0851784944534302,-0.5298940539360046,0.6451918482780457,0.7636939883232117,0.022340813651680946,-0.14943379163742065,0.7637872099876404,-0.1722888946533203,0.33233883846461426,-0.6655485500411074,-0.26118103738213677,0.6151264839367419,-0.8690159268008041,1.6054091170771292,3.0466459342737617
1784719749436767488,2.555579662322998,2.0666186809539795,-1.2006834745407104,-0.4889838397502899,0.6414381265640259,0.7671743631362915,0.0009930786909535527,-0.16699647903442383,0.6340709328651428,-0.10196042060852051,0.33849826137751904,-0.658302572013906,-0.259102803931218,0.6204212730814079,-0.8744242718609704,1.5723445319784337,3.0182961607367305
1784719749446687488,2.5654995441436768,1.666843056678772,-1.1615320444107056,-0.5199556350708008,0.6374919414520264,0.7701681852340698,-0.02109491638839245,-0.23771166801452637,0.4294320344924927,-0.018181204795837402,0.3446614426343656,-0.6507290179334279,-0.25691299429224185,0.6259041123091832,-0.8791048172362211,1.5377179116530093,2.9887842845688293
1784719749456607488,2.5754196643829346,1.3983101844787598,-1.008527398109436,-0.40369105339050293,0.6331605911254883,0.7729736566543579,-0.04023902490735054,-0.20194727182388306,0.30971354246139526,0.049180690199136734,0.3500268167224187,-0.6438950357268667,-0.2554988644423064,0.6305558097466378,-0.8835149161389924,1.5073290439527942,2.963497444053028
1784719749466526464,2.585338592529297,1.3549665212631226,-1.1230957508087158,-0.38070663809776306,0.6299999356269836,0.7744569182395935,-0.057589463889598846,-0.13151055574417114,0.3076048493385315,-0.05701929330825806,0.35414287957186236,-0.6376709130520734,-0.2541280687146123,0.6351200852872311,-0.8858561718980201,1.4796378166657644,2.941491275673269
1784719749476446720,2.5952587127685547,1.6766680479049683,-1.3312842845916748,-0.15429295599460602,0.6269202828407288,0.775328516960144,-0.07639747858047485,-0.13464128971099854,0.3945170044898987,-0.18341392278671265,0.35821614446209377,-0.6309019714747007,-0.25251527282976766,0.6402186346248581,-0.8872350868452122,1.4495326843059448,2.917983001436519
1784719749486366464,2.6051785945892334,2.5337908267974854,-1.1930716037750244,0.01681940257549286,0.6252890825271606,0.7738884687423706,-0.10055024176836014,-0.056380391120910645,0.45960158109664917,-0.24165862798690796,0.3633041592265703,-0.6229269241256231,-0.24836853073289775,0.6467497790645558,-0.8849581284115468,1.4113552702949432,2.8853681751195333
1784719749496286720,2.615098714828491,3.2711868286132812,-1.1648054122924805,0.12220893800258636,0.6244559288024902,0.7702111005783081,-0.12972982227802277,-0.21376562118530273,0.6686621904373169,-0.18884319067001343,0.37051088892733264,-0.6140440770706075,-0.2410082144859519,0.6539011454192662,-0.8791721177174072,1.3659614408947112,2.8414350413541634
1784719749506206464,2.62501859664917,4.254077911376953,-1.374232292175293,-0.1012890636920929,0.6229753494262695,0.7642802000045776,-0.16666638851165771,-0.39865583181381226,0.8818380832672119,-0.2538048028945923,0.38054226247858214,-0.6028979062695718,-0.23060989054926068,0.6622090867729549,-0.8699244165600977,1.3093853994515634,2.78365890972364
1784719749516126720,2.6349387168884277,4.320770740509033,-1.302188754081726,-0.24285365641117096,0.6187782883644104,0.7576783895492554,-0.20745337009429932,-0.6483041048049927,1.0039334297180176,-0.228719100356102,0.3925544543809774,-0.589958490236987,-0.21959576022223326,0.6705428190635155,-0.8597484016381515,1.2473102177939246,2.7195302297798865
1784719749526045440,2.64485764503479,3.6307621002197266,-1.2872583866119385,-0.3774777054786682,0.6136537790298462,0.7504730224609375,-0.24539636075496674,-0.6651673913002014,0.6646881699562073,-0.13563087582588196,0.4039199999234386,-0.5774275626247907,-0.20947369241535668,0.6778988872472732,-0.8487775507571167,1.1903814716463026,2.6606855539950667
1784719749535965440,2.6547775268554688,3.434636116027832,-1.2825852632522583,-0.3677845895290375,0.6072961091995239,0.7436026930809021,-0.2797258496284485,-0.5490533113479614,0.2797432541847229,-0.09597605466842651,0.41415057732044014,-0.5654099828413368,-0.2011184306859455,0.6843553814682165,-0.8384425874598673,1.139155323802553,2.6091416184747653
1784719749545885440,2.6646976470947266,3.113710403442383,-1.473150610923767,-0.23339496552944183,0.6011634469032288,0.7359705567359924,-0.31136757135391235,-0.40701067447662354,0.3232640027999878,-0.20778217911720276,0.4226834472870248,-0.5538394198746793,-0.19385075221896245,0.6906680987066395,-0.8270991732188454,1.0928986544480117,2.564901770498162
1784719749555805440,2.6746175289154053,3.8888161182403564,-1.274045705795288,-0.1962747573852539,0.5942683219909668,0.7263355255126953,-0.34537193179130554,-0.2919154167175293,0.5595530867576599,-0.37833717465400696,0.4317406795535993,-0.5411120325730108,-0.1857735209899312,0.6973419828002663,-0.812975407782731,1.0443362026747385,2.518506591150722
1784719749565725440,2.684537649154663,4.09350061416626,-1.5534108877182007,-0.4213971197605133,0.588121235370636,0.7127165198326111,-0.3822939693927765,-0.47679316997528076,0.8058076500892639,-0.2897183895111084,0.44188388440710225,-0.5274477616007,-0.17507678468774582,0.7041915190194872,-0.7933633172761083,0.9944030135866033,2.467836783433215
1784719749575645440,2.694457530975342,5.0202412605285645,-1.7555655241012573,-0.3729228079319,0.5779637694358826,0.6974707245826721,-0.4236656427383423,-0.6689671874046326,1.0336389541625977,-0.19121778011322021,0.4539794099700213,-0.5111148970969827,-0.16409980424028986,0.7111509028852336,-0.7718619245941312,0.938243823253569,2.41147980791916
1784719749585564672,2.704376697540283,5.600770473480225,-1.2230530977249146,-0.4541515111923218,0.567922830581665,0.6766066551208496,-0.4686865210533142,-0.6009581089019775,0.8977646827697754,-0.2212396264076233,0.4677799723578788,-0.4931427458400253,-0.14988984566081798,0.7180008137033559,-0.7431444644022495,0.880838956111636,2.3499825544066923
1784719749595484416,2.714296579360962,5.3794331550598145,-1.567386507987976,-0.605959951877594,0.5575703978538513,0.6530846357345581,-0.5124409198760986,-0.6900319457054138,0.8149939775466919,-0.15285754203796387,0.48218635480819205,-0.4750021046756709,-0.13473138253023267,0.7236827516852746,-0.7116505834191119,0.8275498213177581,2.289647193777104
1784719749605404672,2.7242166996002197,5.64648962020874,-2.0491671562194824,-0.6473658084869385,0.5440261363983154,0.6274927258491516,-0.5570354461669922,-0.32664942741394043,0.5758916735649109,-0.10534858703613281,0.49581559194433134,-0.4548255438493885,-0.1208967094058327,0.7298524478003028,-0.6783288566087884,0.7735834837947144,2.2335878523079016
1784719749615324416,2.7341365814208984,6.17327356338501,-2.0406482219696045,-0.14711500704288483,0.5283249616622925,0.59567791223526,-0.6050129532814026,-0.17987525463104248,0.48650598526000977,-0.5052623748779297,0.5096157030687662,-0.43165344842014924,-0.10568269520211494,0.7367485166214868,-0.638109345612672,0.7178355571349776,2.177921637941969
1784719749625244672,2.7440567016601562,5.999422073364258,-1.719618320465088,0.07829185575246811,0.5191514492034912,0.5571683645248413,-0.648108959197998,-0.2819383144378662,0.4744631052017212,-0.40439653396606445,0.521683147183877,-0.41037528074058094,-0.08681956258739439,0.7429005608753294,-0.5909718857700046,0.6753655804012798,2.130116199479895
1784719749635164416,2.753976583480835,4.243447303771973,-2.203838348388672,0.22556838393211365,0.5057934522628784,0.5227504968643188,-0.6862251162528992,-0.2901257276535034,0.29930150508880615,-0.41001206636428833,0.5307809621870565,-0.38929241121544983,-0.0730674931158529,0.7492556969119302,-0.5500741851435514,0.6351720567756691,2.093883870983682
1784719749645083392,2.7638955116271973,2.061399459838867,-1.9464002847671509,0.04613867774605751,0.4929579794406891,0.49954769015312195,-0.712351381778717,-0.020835816860198975,0.21152707934379578,-0.06378692388534546,0.5354941263272954,-0.3734579204952681,-0.06598105264805543,0.7546003114349726,-0.5230765733863458,0.6053469325113533,2.0740418167754737
1784719749655003648,2.773815631866455,0.6139402985572815,-1.7554361820220947,-1.1506246328353882,0.47596827149391174,0.49414077401161194,-0.727515697479248,-0.10849085450172424,-0.09658828377723694,0.15709638595581055,0.5397070633575594,-0.362843891836528,-0.06772350835973001,0.7566201450060672,-0.5168462240577207,0.5793486052396052,2.0596310976614642
1784719749664923392,2.783735513687134,-0.0715332105755806,-0.8620108962059021,-0.6381868720054626,0.461519718170166,0.4967581331729889,-0.7350040078163147,0.3171667754650116,-0.01177281141281128,0.335757851600647,0.5432288142049094,-0.35678721344280895,-0.07211715264120938,0.756574124759789,-0.5198594178446557,0.5606924365896446,2.049017500842463
1784719749674843648,2.7936556339263916,0.8726439476013184,-0.7634411454200745,-0.691669225692749,0.45142942667007446,0.4967223107814789,-0.7412680983543396,0.6122302412986755,0.3722657263278961,0.3608207106590271,0.5459915725043879,-0.351917482109637,-0.07429694932788568,0.756655268664122,-0.5198181482669513,0.5470080710515111,2.040385333799279
1784719749684763392,2.8035755157470703,1.3834848403930664,-0.5283670425415039,-0.5477139353752136,0.44409704208374023,0.4909561276435852,-0.7494931221008301,0.7022347450256348,0.2786971926689148,-0.023746013641357422,0.5501977360700853,-0.34638893211927857,-0.07258200297602588,0.7563260414464247,-0.513186920526509,0.5349086224065799,2.027299698141842
1784719749694683648,2.813495635986328,1.1912871599197388,-1.022991418838501,-0.4279651641845703,0.434956431388855,0.48349496722221375,-0.7596351504325867,1.0673476457595825,-0.060368746519088745,-0.17774277925491333,0.5537114766114049,-0.3392908919785362,-0.07116265144703678,0.7571137128903775,-0.5046429861723565,0.5200181792280644,2.015643043572944
1784719749704603392,2.823415517807007,0.19808082282543182,-0.26631733775138855,-0.07784941047430038,0.42759624123573303,0.4793134331703186,-0.7664333581924438,1.0299690961837769,-0.2777600884437561,0.09394800662994385,0.5560359225165469,-0.33428141003478856,-0.07098780387178791,0.7576547357464856,-0.4998722642027529,0.5088913029808465,2.0079601163543472
1784719749714522624,2.8333346843719482,-0.805881917476654,-1.5956413745880127,-0.7293736934661865,0.41939544677734375,0.48263731598854065,-0.7688749432563782,0.7511978149414062,-0.08409303426742554,0.3502653241157532,0.5563691249278407,-0.33157610968731477,-0.07496542481607227,0.7582155935727144,-0.503663488862066,0.4993558719977063,2.006536020998172
1784719749724442368,2.843254327774048,-1.2109578847885132,-0.6862044930458069,-0.5873448252677917,0.40572845935821533,0.4935740828514099,-0.7692652344703674,0.6622341871261597,0.08026319742202759,0.5376826524734497,0.5569606927579939,-0.32918013616150016,-0.08371264536335878,0.7579098926030468,-0.516194517715422,0.48534483770672365,2.004619701411054
1784719749734362112,2.8531742095947266,-1.2130898237228394,-0.0989910438656807,-0.08006220310926437,0.39999422430992126,0.5051570534706116,-0.7647359371185303,0.06675687432289124,0.06878703832626343,0.4855763912200928,0.5559649137882287,-0.33075987404395224,-0.09071907600678236,0.7571466738661301,-0.5295639463983441,0.4819162015257226,2.007915226924079
1784719749744282368,2.8630943298339844,-0.650391697883606,-0.7304967045783997,-0.40113258361816406,0.3962392508983612,0.5124792456626892,-0.7618132829666138,0.012909919023513794,-0.10696166753768921,-0.01156318187713623,0.5553325382807202,-0.3317088271707677,-0.09519769879509105,0.7566455205587873,-0.5380695077135325,0.47961880950369123,2.0099370833296732
1784719749754202112,2.873014211654663,0.3092946410179138,-0.7521737813949585,-0.23970718681812286,0.3886770009994507,0.5157793760299683,-0.7634800672531128,0.19570410251617432,0.07090580463409424,-0.3172847032546997,0.5557181263270542,-0.32936161893012605,-0.09889837397355981,0.7569130931390885,-0.5419171381092136,0.4708899497024297,2.0080649834070003
1784719749764122368,2.882934331893921,1.2027767896652222,-0.9054100513458252,-0.24780184030532837,0.3803999125957489,0.511504590511322,-0.770492672920227,0.0839555561542511,0.16479545831680298,-0.49049365520477295,0.5573332171251182,-0.3238856575569793,-0.09925593878244962,0.7580409483741444,-0.5369348827374623,0.4586029365812631,2.001881017544071
1784719749774041088,2.892853260040283,1.2146408557891846,-0.9657087922096252,-0.3996363878250122,0.3712616562843323,0.5032918453216553,-0.7802962064743042,-0.045333921909332275,0.030338585376739502,-0.4981614351272583,0.5604880077011423,-0.31672095291705316,-0.0976715943611255,0.758947524663884,-0.5274040326561484,0.4440974367978225,1.9911441800167877
1784719749783961088,2.902773141860962,1.680820345878601,-0.966322124004364,-0.6199132800102234,0.36051344871520996,0.49382591247558594,-0.7913064956665039,0.19165632128715515,-0.15250208973884583,-0.3229665160179138,0.5643461428671325,-0.3084766406197759,-0.09585879661332504,0.7597148084880113,-0.5164840903911296,0.4274950646327286,1.9783322513132637
1784719749793881088,2.9126932621002197,2.4260828495025635,-1.0119402408599854,-0.4105326533317566,0.3495720624923706,0.4800933003425598,-0.8045556545257568,0.19800487160682678,0.08541268110275269,-0.33942627906799316,0.5692466616378672,-0.29875085544179225,-0.09203318917915516,0.7604182883265318,-0.500761062204001,0.4098819342435567,1.9626066302532097
1784719749803801088,2.9226131439208984,3.1018548011779785,-0.7544377446174622,-0.2684083580970764,0.33871006965637207,0.45925313234329224,-0.8211954832077026,0.32278892397880554,0.15796485543251038,-0.1639271378517151,0.5744603042012225,-0.2865746555150335,-0.08530662526378802,0.7619665734471007,-0.47715422536840396,0.391201170132274,1.9458862493968623
1784719749813721088,2.9325332641601562,2.838338613510132,-0.9256517887115479,-0.07892629504203796,0.3277369737625122,0.4367465674877167,-0.8377594351768494,0.2359989881515503,-0.13652992248535156,0.16127628087997437,0.5795067584604197,-0.2738935466143398,-0.07811922512760652,0.7635780974834016,-0.45197890586496187,0.3729029227409082,1.9298913605147636
1784719749823641088,2.942453145980835,1.971032977104187,-0.9273123145103455,-0.08277386426925659,0.31610479950904846,0.4177948534488678,-0.8517776727676392,0.45879754424095154,-0.3703705370426178,0.26722872257232666,0.5831883325089278,-0.2622279935769847,-0.07312756616518189,0.76536276321965,-0.4310168238750696,0.3553575390047326,1.9179277756542175
1784719749833560320,2.9523723125457764,1.3380945920944214,-0.6775850653648376,-0.15713651478290558,0.3077771067619324,0.4056556522846222,-0.8606489896774292,0.35327938199043274,-0.3107307553291321,0.281608521938324,0.5855267786396425,-0.25444106809148337,-0.07025124159671337,0.7664742812743899,-0.41769604595891147,0.34343860020293576,1.910367361493979
1784719749843480064,2.962292194366455,1.2470698356628418,-0.5387080907821655,0.01384295430034399,0.30189692974090576,0.3949793577194214,-0.8676690459251404,0.19273197650909424,-0.12157240509986877,0.2825860381126404,0.5873113268284131,-0.2482511607433113,-0.06735612258640965,0.7673981226678749,-0.40604538553788877,0.3348386175078762,1.9046671457947146
1784719749853400320,2.972212314605713,1.0188984870910645,-0.6860975623130798,0.17575782537460327,0.2973422110080719,0.3847593069076538,-0.8738122582435608,0.1757259964942932,-0.0662778913974762,0.30513250827789307,0.5881845818789879,-0.24275923537542382,-0.06451218163965812,0.7687294634894778,-0.39494704206206566,0.32799088177931796,1.9015486832325874
1784719749863320064,2.9821321964263916,0.36452800035476685,-0.6558356285095215,0.10985703766345978,0.29158636927604675,0.3782236576080322,-0.8785922527313232,0.17781975865364075,-0.3387644290924072,0.27254366874694824,0.5880994644833856,-0.23797387938262707,-0.06381472341182766,0.7703475008654647,-0.3878766430475433,0.32044113228614435,1.9009817325803187
1784719749873240320,2.9920523166656494,-0.026520993560552597,-0.5083547830581665,0.17554549872875214,0.2869139015674591,0.3764883577823639,-0.8808728456497192,0.1232881247997284,-0.2741324007511139,0.28947269916534424,0.587681330359479,-0.23530681609331328,-0.06476323838120664,0.7714060090314087,-0.3860028072585847,0.3148788575742712,1.9015638638237433
1784719749883160064,3.001972198486328,-0.21464096009731293,-0.3096974790096283,0.15932197868824005,0.2829909920692444,0.3777404725551605,-0.8816055059432983,0.12827911972999573,-0.18035277724266052,0.21731412410736084,0.5868457773586989,-0.23396156657043105,-0.06677752679564704,0.7722790319147433,-0.38735476098977745,0.31060531058058105,1.903389644449852
1784719749893080320,3.011892318725586,-0.30881351232528687,-0.3012102544307709,0.09667618572711945,0.28127795457839966,0.38005200028419495,-0.8811601400375366,0.07451122999191284,-0.010301023721694946,0.21549546718597412,0.5857612565717569,-0.23391720703340121,-0.06857600463215638,0.7729578345588707,-0.38985250803925786,0.30898905905052554,1.9060964239191096
1784719749902999040,3.0218112468719482,-0.02543022856116295,-0.30260568857192993,0.07473350316286087,0.27887487411499023,0.38138726353645325,-0.8813470602035522,0.13259363174438477,0.13326117396354675,0.17488038539886475,0.5852530888493791,-0.23328536704186978,-0.07003158056944767,0.773403130878637,-0.39129651166480534,0.3064511290488474,1.9072051374131302
1784719749912919296,3.031731367111206,0.2597551941871643,-0.320304274559021,-0.011011761613190174,0.2759281396865845,0.38011929392814636,-0.8828210234642029,0.17063558101654053,0.17525485157966614,0.09053897857666016,0.5851218916122987,-0.23155603053409854,-0.07050729444659559,0.7739786756919722,-0.38992526390002674,0.3029329133119701,1.9072063756520705
1784719749922839040,3.0416512489318848,0.525886595249176,-0.3929748833179474,-0.0848022997379303,0.27285775542259216,0.37659329175949097,-0.8852831125259399,0.07186880707740784,0.13507971167564392,0.04287588596343994,0.5856736038619881,-0.22906368018110518,-0.06991622659812068,0.7743565731940395,-0.3861160774380608,0.2989765793351484,1.9053754219239554
1784719749932759040,3.0515711307525635,0.6694570779800415,-0.31787028908729553,-0.05603243410587311,0.2693108320236206,0.37160006165504456,-0.8884734511375427,0.0973120927810669,0.14973172545433044,0.047454774379730225,0.5865833581106346,-0.225901448499754,-0.06878811026613284,0.7746978824631581,-0.3807319081835258,0.2943133660771987,1.9025471062113957
1784719749942679040,3.0614912509918213,0.6730778217315674,-0.15452103316783905,-0.011813207529485226,0.2671312391757965,0.3655153214931488,-0.8916498422622681,0.1293378472328186,0.0728849470615387,0.018313050270080566,0.5873065020359145,-0.22294977428845245,-0.06684660466444212,0.7751749039778564,-0.3741863762526533,0.2910825270038638,1.9003244417169258
1784719749952599040,3.0714111328125,0.530017077922821,-0.23350213468074799,-0.005897527560591698,0.2651043236255646,0.3602224886417389,-0.8944045305252075,0.09042549133300781,-0.13263767957687378,-0.0054215192794799805,0.5880650969690417,-0.2203434036264002,-0.0651654014635503,0.7754879466769568,-0.36850639119344525,0.28815367098134287,1.8980518135395779
1784719749962518272,3.0813302993774414,0.4745631515979767,-0.13909371197223663,0.06304199248552322,0.26340651512145996,0.3558097779750824,-0.8966696262359619,0.19083234667778015,-0.1488243043422699,-0.061582326889038086,0.5884218960683665,-0.21814862147993727,-0.06384641125408598,0.7759475571824801,-0.3637804135829394,0.2857231175144057,1.8968738317383858
1784719749972438016,3.09125018119812,0.7357190847396851,-0.1571752429008484,0.08148731291294098,0.26222607493400574,0.3504289388656616,-0.8991312980651855,0.16195300221443176,-0.03196275234222412,-0.09766435623168945,0.5887127362631966,-0.215849062179993,-0.0619963325176158,0.7765197931519344,-0.35802904812318204,0.2837730511591312,1.8958936715951187
1784719749982358272,3.101170301437378,0.9645023941993713,-0.3152162432670593,0.250573068857193,0.26050063967704773,0.3426774740219116,-0.9026137590408325,0.14976239204406738,0.06229078769683838,-0.16193091869354248,0.5889396840099795,-0.2125220195114561,-0.05939287855907205,0.777468364725346,-0.34976545235897955,0.2809720067637547,1.8949760659170491
1784719749992278016,3.1110901832580566,1.10980224609375,-0.36162689328193665,0.08529596775770187,0.25795069336891174,0.3326374888420105,-0.9070907831192017,0.15246492624282837,-0.030788153409957886,-0.16520529985427856,0.589386990060285,-0.2081098623539325,-0.056079222366398916,0.7785681600949282,-0.3390989467310682,0.27705769646277384,1.8933697493390735
1784719750002198272,3.1210103034973145,1.156812071800232,-0.28823909163475037,0.26294437050819397,0.2553301751613617,0.32215675711631775,-0.9116038084030151,0.1003827154636383,-0.02445778250694275,-0.06932270526885986,0.5897737617789981,-0.20353932512818818,-0.052629204005877735,0.7797235564776941,-0.3280068346342402,0.27309119356898265,1.891907443021063
1784719750012118016,3.130930185317993,1.1705694198608398,-0.3298368752002716,0.1442885398864746,0.2528608739376068,0.31116554141044617,-0.9160990118980408,0.1298905909061432,-0.04076454043388367,-0.01798301935195923,0.590055801771637,-0.19888160963494542,-0.048955114422246475,0.7809504916302771,-0.3164192080209691,0.2693134742491655,1.8907131785402667
1784719750022038272,3.140850305557251,1.1751761436462402,-0.21245494484901428,0.16401241719722748,0.2506661117076874,0.299988329410553,-0.9204202890396118,0.14417031407356262,-0.03002983331680298,0.048517823219299316,0.5904721990576962,-0.19431179266513576,-0.04508648055561734,0.7820182818797407,-0.30468041757343634,0.265890403902451,1.889185362837632
1784719750031957248,3.1507692337036133,0.9974527359008789,-0.30284157395362854,0.26886507868766785,0.24858103692531586,0.2891578674316406,-0.9244431853294373,0.13124075531959534,-0.07378008961677551,0.08205121755599976,0.5907114889936368,-0.18991383586935967,-0.04136598941622247,0.7831229343119412,-0.2933470207523276,0.26268453637859246,1.888122066395088
1784719750041877248,3.160689353942871,0.8530182242393494,-0.2926248013973236,0.19426508247852325,0.24639256298542023,0.28060299158096313,-0.9276597499847412,0.19002404808998108,-0.12012633681297302,0.12094289064407349,0.5905421439790193,-0.18620911659287587,-0.03868171988355218,0.7842766702115871,-0.28442229473447395,0.2596124424482686,1.8881621278694614
1784719750051797248,3.17060923576355,0.8570566177368164,-0.293491929769516,0.24482813477516174,0.24408555030822754,0.2719883918762207,-0.9308300614356995,0.16777968406677246,-0.1268620491027832,0.012968122959136963,0.5904702944956699,-0.1824559141407609,-0.03598362215382944,0.7853405783152329,-0.2754587199141528,0.25644967362625437,1.8879430115185427
1784719750061717248,3.1805293560028076,0.8947221040725708,-0.34247076511383057,0.1902341991662979,0.2412348836660385,0.2635572552680969,-0.9339932203292847,0.139578714966774,-0.036475956439971924,0.003344416618347168,0.5903946271165483,-0.17854808796444196,-0.03352577858497281,0.7864037241773268,-0.266707994393981,0.2527594246778055,1.8877136040193587
1784719750071637248,3.1904492378234863,0.7987955808639526,-0.33919134736061096,0.21098528802394867,0.23853495717048645,0.2555336356163025,-0.9369117617607117,0.04079243540763855,-0.08269733190536499,-0.01865464448928833,0.5902679659959748,-0.17484634935168772,-0.031191028849099387,0.7874258974726585,-0.2583996340842955,0.24930058633542412,1.8876364506648766
1784719750081557248,3.200369358062744,0.7503600120544434,-0.31624075770378113,0.13944335281848907,0.23539170622825623,0.24775239825248718,-0.939792275428772,0.051641374826431274,-0.13918611407279968,-0.06530416011810303,0.5901958427620193,-0.17105122212916707,-0.029074910208124357,0.7883939154804936,-0.2503596421591363,0.2454229059412387,1.887413795672245
1784719750091477248,3.210289239883423,0.5913317203521729,-0.24941591918468475,0.17283353209495544,0.23307019472122192,0.24105815589427948,-0.9421089291572571,0.006904780864715576,-0.13137798011302948,-0.06429976224899292,0.5900918011452042,-0.16795497538166662,-0.02714148487253974,0.7892059665518926,-0.24345600745881954,0.24252256170335817,1.8873460975635754
1784719750101395968,3.220208168029785,0.44534119963645935,-0.2573329508304596,0.20060017704963684,0.23086750507354736,0.2359248697757721,-0.9439489841461182,0.04553020000457764,-0.10797993838787079,-0.052251577377319336,0.589804783721222,-0.16540334224611802,-0.025831236705660014,0.790003020114738,-0.2381701997566421,0.23986748718337186,1.8878050148872552
1784719750111316224,3.230128288269043,0.4202407896518707,-0.282705694437027,0.23426447808742523,0.22855840623378754,0.23120945692062378,-0.9456760883331299,0.14189447462558746,-0.11563938856124878,-0.08285784721374512,0.5891644464094005,-0.16293370399466828,-0.02479054219972535,0.7910267081548747,-0.2333206366615,0.23714028678302396,1.8891706309913894
1784719750121235968,3.2400481700897217,0.2817900478839874,-0.18457092344760895,0.25166693329811096,0.22663718461990356,0.22742977738380432,-0.9470540285110474,0.11735695600509644,-0.10471859574317932,-0.10426127910614014,0.588531239510188,-0.16092568425287426,-0.023998357074454576,0.7919330870911256,-0.22943746991232722,0.234890149042184,1.8905658901708455
1784719750131156224,3.2499682903289795,0.2766117751598358,-0.334578275680542,0.20743314921855927,0.22462192177772522,0.22437188029289246,-0.9482627511024475,0.10783657431602478,-0.059912651777267456,-0.10712665319442749,0.5878251714196309,-0.15910603066179205,-0.023534947679299874,0.792838555085803,-0.22629844200683613,0.23259026754673423,1.8921686442178371
1784719750141075968,3.259888172149658,0.47967728972435,-0.26979079842567444,0.23288072645664215,0.22218966484069824,0.22036032378673553,-0.9497752785682678,0.15700650215148926,0.00038857758045196533,-0.14408153295516968,0.5871835539848185,-0.1568200920563376,-0.022799444171318926,0.7937904416489887,-0.22218385518200276,0.22980643183884686,1.8935597619825544
1784719750150996224,3.269808292388916,0.5626909732818604,-0.3650320768356323,0.16077297925949097,0.21922071278095245,0.21502362191677094,-0.951686441898346,0.04544296860694885,0.02589738368988037,-0.17050588130950928,0.5867728917761592,-0.15390982196235203,-0.02164565179936731,0.794695468362927,-0.2167160210396415,0.2264005138826755,1.8943038842846436
1784719750160915200,3.2797272205352783,0.7620754241943359,-0.39252403378486633,0.24773690104484558,0.21606341004371643,0.2081189751625061,-0.9539408087730408,0.09285077452659607,0.043864667415618896,-0.14914757013320923,0.5864485878706376,-0.15044493480568755,-0.019897442909754353,0.7956434741044175,-0.20965143551085197,0.2227375258501623,1.8947687307011007
1784719750170835200,3.289647340774536,1.043384075164795,-0.46509864926338196,0.30075803399086,0.21251873672008514,0.19912093877792358,-0.956653892993927,0.13008685410022736,0.09607559442520142,-0.1312519907951355,0.5859910580803076,-0.14618059754460885,-0.017444009796976637,0.7968321672800466,-0.20046081831817594,0.2185982067011481,1.8954796568539505
1784719750180755200,3.299567222595215,1.0372138023376465,-0.47015416622161865,0.28276070952415466,0.2083597332239151,0.18860144913196564,-0.9596956372261047,0.1066579669713974,0.06831078231334686,-0.12926310300827026,0.5855410380539682,-0.1412102889950383,-0.014554655377220373,0.7981161909662895,-0.18973784444564545,0.21379227782140872,1.8960985469905813
1784719750190675200,3.3094873428344727,0.8426411747932434,-0.45570066571235657,0.23967687785625458,0.20409590005874634,0.17927949130535126,-0.9623947739601135,0.13506120443344116,-0.07185763120651245,-0.07941430807113647,0.585130280232795,-0.13658209990385367,-0.012162998431445991,0.7992620628347968,-0.180254027719333,0.208974773366615,1.8966692140423447
1784719750200595200,3.3194072246551514,0.7875642776489258,-0.5069266557693481,0.30281907320022583,0.19980762898921967,0.17136159539222717,-0.9647341966629028,0.14723825454711914,-0.08586661517620087,-0.07094079256057739,0.5845657764739757,-0.13238399608694637,-0.010361793444827244,0.800406122938009,-0.1722115390542434,0.20422416591591477,1.8976877519824877
1784719750210515200,3.329327344894409,0.8100741505622864,-0.5274165272712708,0.3700641393661499,0.1948332041501999,0.16315051913261414,-0.9671721458435059,0.1406160145998001,-0.013217657804489136,-0.14961862564086914,0.5837526673093915,-0.12782255539891427,-0.008679036253947166,0.8017599759617876,-0.1638831253401373,0.19878579391008713,1.899311778152641
1784719750220435200,3.339247226715088,0.7901703715324402,-0.510551929473877,0.3094826638698578,0.18993090093135834,0.15480925142765045,-0.9695155024528503,0.08501720428466797,-0.021279603242874146,-0.17902874946594238,0.5829248230455658,-0.12326589549572786,-0.006910635273573085,0.8030918113673954,-0.15543437258683246,0.19345295275247912,1.9009732661694703
1784719750230354176,3.34916615486145,0.6921098232269287,-0.4574093818664551,0.3271242380142212,0.18496321141719818,0.14744985103607178,-0.9716209173202515,0.07005693018436432,-0.07663381099700928,-0.13433611392974854,0.5821620913329832,-0.11899119602046393,-0.005536199206798208,0.8042995851539475,-0.14798944435542427,0.1881147990234532,1.90251996510384
1784719750240274176,3.359086275100708,0.6792644262313843,-0.5767459869384766,0.31715232133865356,0.17950809001922607,0.14050649106502533,-0.9736707806587219,0.15526974201202393,-0.039981573820114136,-0.11133593320846558,0.5812592408319351,-0.11464950505412194,-0.0044838751510896295,0.8055886143150696,-0.14097295705064594,0.1823150008341583,1.904435615492254
1784719750250194176,3.3690061569213867,0.5895113945007324,-0.5401893258094788,0.2847405970096588,0.17422574758529663,0.13414382934570312,-0.9755259156227112,0.09359650313854218,-0.05189894139766693,-0.12367147207260132,0.5805039851912358,-0.11056314165498704,-0.0035819239852410236,0.80670824647777,-0.13454942695086766,0.1767333894997635,1.9060175673493551
1784719750260114176,3.3789262771606445,0.46699070930480957,-0.585949718952179,0.240428626537323,0.1687902957201004,0.12854252755641937,-0.9772341847419739,0.1347528100013733,-0.04335270822048187,-0.10882538557052612,0.5797596064009601,-0.10664790089266646,-0.003022038355590035,0.8077721188561964,-0.12889917355742597,0.17103494995869775,1.9076093365020927
1784719750270034176,3.3888461589813232,0.41707509756088257,-0.6106601357460022,0.16212183237075806,0.1631791591644287,0.12375171482563019,-0.9788044095039368,0.1304762363433838,-0.03026110678911209,-0.10643118619918823,0.5792151949452083,-0.10290729147608116,-0.002807634443847375,0.8086482684842705,-0.12406977373895454,0.16519349667658736,1.9087449136687795
1784719750279954176,3.398766279220581,0.3228972554206848,-0.6126407980918884,0.21368706226348877,0.1573634147644043,0.11995585262775421,-0.9802281856536865,0.1294255256652832,0.004403278231620789,-0.08834481239318848,0.5785851151852934,-0.09938071031777261,-0.003060661753681764,0.8095390057977555,-0.12024541075568274,0.1591793308546323,1.9101348109390217
1784719750289873152,3.4086852073669434,0.13756974041461945,-0.5961318612098694,0.17101123929023743,0.1517605185508728,0.1177082359790802,-0.9813835024833679,0.1145816445350647,-0.025545142590999603,-0.08741843700408936,0.5779123587405935,-0.09640137652672873,-0.003877916069998474,0.8103759308284139,-0.11798175470515405,0.15342410905892176,1.9116893716858732
1784719750299793152,3.418605327606201,-0.016469158232212067,-0.6157038807868958,0.12780193984508514,0.14591220021247864,0.11697986721992493,-0.9823570251464844,0.12372584640979767,-0.03706958889961243,-0.11095041036605835,0.577310469091839,-0.09376907378484993,-0.005370533683517144,0.8111049723557942,-0.11724832326369089,0.1474546776010025,1.9131152829582496
1784719750309713152,3.42852520942688,0.038658276200294495,-0.6814781427383423,0.16261692345142365,0.1397089660167694,0.1165829747915268,-0.9833055734634399,0.1295171082019806,-0.02435886114835739,-0.17660653591156006,0.5766829126102148,-0.09108692058655703,-0.007098928697901754,0.8118433465980495,-0.11684869717155812,0.14113627472871348,1.91460083469729
1784719750319633152,3.4384453296661377,-0.019554097205400467,-0.7559314966201782,0.10286174714565277,0.13263702392578125,0.11632480472326279,-0.9843149781227112,0.16358186304569244,-0.010444074869155884,-0.21852010488510132,0.5761510843127867,-0.0880870388425034,-0.009120829459903576,0.8125314016798845,-0.11658875775400068,0.13394377001959298,1.9158311349474673
1784719750329553152,3.4483652114868164,0.023713480681180954,-0.8126837015151978,0.1620243936777115,0.12527991831302643,0.11622966825962067,-0.9852896332740784,0.19416283071041107,-0.00923503190279007,-0.22636502981185913,0.5755336176443517,-0.08501545270616143,-0.011294646455737238,0.8132686969187494,-0.11649296833141615,0.12647169583999285,1.91725455635773
1784719750339473152,3.458285331726074,0.09960431605577469,-0.8178121447563171,0.1382618546485901,0.11746962368488312,0.1155603751540184,-0.9863299131393433,0.20459763705730438,0.014856494963169098,-0.23383915424346924,0.5748738864134505,-0.08158731438079321,-0.013362456068892387,0.8140547137713213,-0.11581913445465336,0.11853933788341192,1.9187421097217328
1784719750349393152,3.468205213546753,0.14205163717269897,-0.9090092182159424,0.0626019686460495,0.10915246605873108,0.11418768763542175,-0.9874446392059326,0.16909155249595642,0.027383357286453247,-0.22076153755187988,0.5744167765604796,-0.07774805196793651,-0.015261765544325338,0.8147194281310173,-0.1144372975558221,0.11009337796296778,1.919692858091692
1784719750359312128,3.4781241416931152,0.12317056208848953,-0.9283565878868103,0.08519460260868073,0.10030197352170944,0.11270403116941452,-0.9885531663894653,0.15349745750427246,0.01595807820558548,-0.19908416271209717,0.5742040759168772,-0.07366270736089635,-0.017240465335259556,0.8152094061978405,-0.11294400503735427,0.10111736234775069,1.9200164977924927
1784719750369232128,3.488044261932373,0.14974971115589142,-0.8785400390625,0.09353748708963394,0.0914168581366539,0.11138977110385895,-0.9895631670951843,0.173613041639328,0.015639640390872955,-0.1831662654876709,0.5737436339143358,-0.06960873987638364,-0.019314149571682118,0.8158429456279994,-0.11162141192153062,0.09211955922869768,1.9209316741751168
1784719750379152128,3.4979641437530518,0.17913715541362762,-0.9257068634033203,0.01900639198720455,0.08272454887628555,0.10970544815063477,-0.9905157089233398,0.16480353474617004,0.0076498910784721375,-0.18540287017822266,0.573493674745884,-0.06553292066580078,-0.021156178138701656,0.816310464040699,-0.10992670664615241,0.08332327715241837,1.9213175153074598
1784719750389072128,3.5078842639923096,0.26107969880104065,-0.9777319431304932,0.026486678048968315,0.07321254163980484,0.10751140117645264,-0.9915045499801636,0.15440282225608826,-0.005201227962970734,-0.18363583087921143,0.5733729558604705,-0.060977357299701815,-0.023010874869546165,0.8166979714209327,-0.10771960499296072,0.07370608380220611,1.9213503577660167
1784719750398992128,3.5178041458129883,0.4323533773422241,-1.0171359777450562,0.03369848430156708,0.06365195661783218,0.10432778298854828,-0.9925040006637573,0.1427994668483734,0.018566511571407318,-0.19069302082061768,0.5732336168751103,-0.056117482236675315,-0.02447120240454385,0.8171017746340953,-0.10451796902264145,0.06404498746015155,1.9214196957481842
1784719750408912128,3.527724266052246,0.40003830194473267,-0.9773576855659485,0.0549561008810997,0.05371291562914848,0.10006212443113327,-0.9935303330421448,0.18272201716899872,0.00900769978761673,-0.20535272359848022,0.5730314413683434,-0.05079036203198026,-0.025596473723422185,0.8175575002118328,-0.10022986120993677,0.05401010384582627,1.9216341094413736
1784719750418832128,3.537644147872925,0.2779083251953125,-0.9823376536369324,0.09653187543153763,0.04399809613823891,0.09657767415046692,-0.9943525195121765,0.1925894320011139,-0.03538993000984192,-0.10244923830032349,0.5726635065966165,-0.04577920712207863,-0.02698161564687445,0.8180664763357571,-0.09672844067540871,0.044219142372692116,1.9222535121343156
1784719750428751104,3.547563314437866,0.0656975507736206,-0.9409430623054504,0.03352867439389229,0.03454812243580818,0.09488098323345184,-0.994888961315155,0.22434775531291962,-0.08763305842876434,-0.06201106309890747,0.572317151347946,-0.04139514271218869,-0.02901665668259786,0.8184726514076356,-0.09502391942116091,0.03471166002315034,1.9227981029417742
1784719750438671104,3.557483196258545,-0.04112030938267708,-0.9306396842002869,0.11422468721866608,0.025448132306337357,0.09482493251562119,-0.9951686263084412,0.19908495247364044,-0.07862009853124619,-0.04094892740249634,0.5718036371362949,-0.03762145797856827,-0.03162760694607823,0.8189168711565492,-0.09496762026941998,0.02556610622451861,1.9237148517217497
1784719750448591360,3.5674033164978027,-0.058295298367738724,-0.8964138031005859,0.20304003357887268,0.016512317582964897,0.09547418355941772,-0.9952949285507202,0.21337659657001495,-0.07502741366624832,-0.06784588098526001,0.5710617708859251,-0.03410676523979651,-0.03448560751618781,0.8194729294864133,-0.09561982764255315,0.016588854259917355,1.92514905459013
1784719750458511104,3.5773231983184814,-0.13757315278053284,-0.8977550864219666,0.1615435779094696,0.0077904644422233105,0.09626302868127823,-0.9953254461288452,0.1984778493642807,-0.10308370739221573,-0.049764275550842285,0.5701724392424803,-0.03070952499199677,-0.03733903453456513,0.8201012778591067,-0.09641232417484985,0.007826892750238219,1.9269132855383833
1784719750468431360,3.5872433185577393,-0.1793522834777832,-0.8398180603981018,0.08926191180944443,-0.0006690862355753779,0.09780310094356537,-0.9952055811882019,0.13424453139305115,-0.10138891637325287,-0.043399155139923096,0.5693410205284769,-0.027633361575945693,-0.040418035812186864,0.8206422001151267,-0.09795970096919551,-0.0006723094806608469,1.928488004644391
1784719750478351104,3.597163200378418,-0.051745589822530746,-0.85959792137146,0.141644686460495,-0.009018834680318832,0.09924187511205673,-0.9950224757194519,0.12661832571029663,-0.022932671010494232,-0.052691757678985596,0.5687796668090735,-0.0245824381167042,-0.043410481690339404,0.8209755961133103,-0.09940550505092646,-0.009063702955730786,1.9293742228792774
1784719750488271360,3.607083320617676,0.10771463811397552,-0.8914732933044434,0.08202876895666122,-0.01751042902469635,0.09891773015260696,-0.9949415326118469,0.19217778742313385,0.03545115888118744,-0.1234360933303833,0.5680969513466773,-0.02095870002420209,-0.04571611334007368,0.8214235729501126,-0.09907976163482482,-0.017597638105946948,1.9305873084549063
1784719750498190080,3.617002248764038,0.14089670777320862,-0.9480278491973877,0.13047359883785248,-0.026633156463503838,0.09777694940567017,-0.9948519468307495,0.155844584107399,0.024186551570892334,-0.11914646625518799,0.5674700311751804,-0.016842141714663004,-0.047857939451974245,0.8218294763578873,-0.09793342279920952,-0.026764582195306225,1.9316429709353733
1784719750508110080,3.626922130584717,0.08545687049627304,-0.9309716820716858,0.07318872958421707,-0.035475343465805054,0.09663103520870209,-0.9946878552436829,0.16593798995018005,-0.045651428401470184,-0.10237324237823486,0.5668095554157905,-0.012835249025064836,-0.04991317933139087,0.8222352665073227,-0.0967820546061844,-0.03564969143557451,1.932778223584656
1784719750518030080,3.6368422508239746,0.038693830370903015,-0.895479679107666,0.06895587593317032,-0.04444937780499458,0.09614045172929764,-0.9943748116493225,0.13157705962657928,-0.04735810309648514,-0.06153339147567749,0.5662812287785,-0.008966590616604668,-0.052270398634533165,0.82250403941344,-0.09628917551859718,-0.04467109016879177,1.933528856485117
1784719750527950080,3.6467621326446533,0.04732007533311844,-0.950550377368927,0.026637712493538857,-0.05344078317284584,0.09577114880084991,-0.9939677715301514,0.11523888260126114,-0.02176602929830551,-0.05270880460739136,0.5658712578685244,-0.0051306837069686265,-0.05467888913085851,0.8226624506295662,-0.09591816231571944,-0.05371338790925538,1.9339591948466717
1784719750537870080,3.656682252883911,0.11801934242248535,-0.9634438157081604,0.03476091846823692,-0.06273335963487625,0.09511194378137589,-0.9934878945350647,0.13329000771045685,-0.013416394591331482,-0.04348409175872803,0.5654581042222515,-0.0010859182950116225,-0.05705139505728389,0.8228007731118581,-0.09525593503480764,-0.06306083723041668,1.9343701773474573
1784719750547790080,3.66660213470459,0.17014005780220032,-1.0427519083023071,-0.014547241851687431,-0.07260250300168991,0.09379922598600388,-0.992940366268158,0.11370968073606491,0.003918059170246124,0.009984433650970459,0.5651419371367302,0.0033775288044695577,-0.059316152156270265,0.8228516716259022,-0.09393731654338974,-0.0729888019529039,1.934524560025069
1784719750557710080,3.6765222549438477,0.2634563148021698,-0.9769899249076843,-0.0018007535254582763,-0.08256159722805023,0.09165194630622864,-0.9923625588417053,0.09247981756925583,0.032295189797878265,0.0766063928604126,0.5648346183931984,0.008116336668472933,-0.06126035399671701,0.8228871971759072,-0.0917807475522361,-0.08300584342089194,1.9346907714771298
