time,seconds_elapsed,rotationRateX,rotationRateY,rotationRateZ,gravityX,gravityY,gravityZ,accelerationX,accelerationY,accelerationZ,quaternionW,quaternionX,quaternionY,quaternionZ,pitch,roll,yaw
1784373729663926528,0.4083106517791748,0.9003085494041443,0.3909101188182831,-1.3022593259811401,0.08211678266525269,0.39312005043029785,-0.9158130288124084,-0.18731087446212769,0.15422797203063965,0.693416178226471,-0.5182606728931196,0.07075916962529606,-0.19257891518509043,0.8302483691682083,-0.4040223918821088,0.08942630341822422,-2.007184296694644
1784373729673845504,0.4182295799255371,0.8166682720184326,0.5129714608192444,-1.5172256231307983,0.08004377782344818,0.38809046149253845,-0.9181387424468994,-0.17881393432617188,0.23953405022621155,0.5604574680328369,-0.5121461971549778,0.06878753551828563,-0.19026006223525715,0.8347308788172904,-0.39855873719772433,0.08696060789416199,-2.0233781518318676
1784373729683765504,0.4281494617462158,1.202332615852356,0.6823511719703674,-1.6960257291793823,0.07866652309894562,0.3817853629589081,-0.9208971261978149,-0.2036817967891693,0.3277025520801544,0.40852224826812744,-0.5050784855475384,0.06599189932880896,-0.18760730523216967,0.8398478273460328,-0.39172720255923055,0.08521690636448889,-2.0417891840993287
1784373729693685504,0.43806958198547363,1.8208611011505127,0.8445082902908325,-1.826824426651001,0.07839062064886093,0.3708091378211975,-0.9253947734832764,-0.17328503727912903,0.39187091588974,0.27991747856140137,-0.49732452070749594,0.06134338148347409,-0.1831381938203934,0.84579301213913,-0.3798801268227874,0.08450870912591807,-2.0622406181937367
1784373729703604480,0.44798851013183594,2.5455641746520996,0.9309398531913757,-1.9399651288986206,0.07905049622058868,0.35380443930625916,-0.931972861289978,-0.16260762512683868,0.40805163979530334,0.254665732383728,-0.48905232659911807,0.054677603483235145,-0.17613609459978088,0.8525340304337335,-0.3616355288189592,0.0846180589278463,-2.084482820854054
1784373729713524480,0.45790863037109375,3.2866618633270264,1.0666897296905518,-2.008280038833618,0.08072543144226074,0.3298030495643616,-0.9405920505523682,-0.13538241386413574,0.4158634543418884,0.25271058082580566,-0.4804102545493275,0.04587337119756273,-0.1661313387821369,0.859942987724849,-0.33609492973580896,0.08561426993005761,-2.108134193444021
1784373729723443456,0.46782755851745605,3.814232349395752,1.2151426076889038,-2.1783745288848877,0.08405596017837524,0.29976677894592285,-0.9503023028373718,-0.15023332834243774,0.41558051109313965,0.2689821124076843,-0.47112052283227834,0.03500826455499369,-0.15369861373669255,0.8678690593911444,-0.3044481682368368,0.08822221627779221,-2.1333794243221087
1784373729733363456,0.47774744033813477,4.124777793884277,1.3395414352416992,-2.349613666534424,0.08886450529098511,0.2657816410064697,-0.9599287509918213,-0.1715366244316101,0.3137471675872803,0.3001844882965088,-0.4607984017694044,0.022762869549060333,-0.13970494641163225,0.8761445272375213,-0.2690146298407964,0.0923109620410632,-2.1607266885079817
1784373729743283456,0.4876675605773926,4.351296901702881,1.3981642723083496,-2.4247992038726807,0.09507843106985092,0.22917763888835907,-0.9687299728393555,-0.09243866056203842,0.23352989554405212,0.30498790740966797,-0.44966454774143244,0.009633367212322563,-0.1246684567986248,0.8844019992866624,-0.231232744913453,0.09783416931880554,-2.189469779764769
1784373729753202432,0.4975864887237549,4.377068042755127,1.4686027765274048,-2.4914300441741943,0.10272660851478577,0.19104944169521332,-0.9761902093887329,-0.0012404099106788635,0.18657507002353668,0.2868286967277527,-0.437948563038505,-0.004047540232475309,-0.10903441611846228,0.8923543136193358,-0.19223116265289036,0.10484628604375434,-2.218988085009684
1784373729763122432,0.5075066089630127,4.155928134918213,1.5372545719146729,-2.5227084159851074,0.11212379485368729,0.15388374030590057,-0.9817066788673401,0.004819557070732117,0.08549612760543823,0.36067402362823486,-0.4257022356367224,-0.0178531811524389,-0.09395697573606841,0.8997949077852306,-0.15449763596947097,0.11372035520519976,-2.2489701095462493
1784373729773041408,0.517425537109375,3.8922359943389893,1.444503664970398,-2.4944980144500732,0.12240958213806152,0.11918333917856216,-0.9852975606918335,0.03907418251037598,-0.08379820734262466,0.3988412618637085,-0.41321551530744266,-0.03109188576366343,-0.07990323913523405,0.9065880342055042,-0.11946732077287804,0.12360283273423653,-2.2788712405847233
1784373729782961408,0.5273454189300537,3.8049685955047607,1.2811038494110107,-2.30036997795105,0.13242870569229126,0.08615265041589737,-0.9874413013458252,0.18841783702373505,-0.13311919569969177,0.36024409532546997,-0.40107790317475295,-0.043423597717191786,-0.06628522432663586,0.9126101694019069,-0.08625958093528192,0.13331749548364075,-2.3076811292019404
1784373729792881408,0.5372655391693115,4.128626823425293,1.1535954475402832,-2.0010499954223633,0.14203660190105438,0.05181114003062248,-0.9885045289993286,0.2894209027290344,-0.08217612653970718,0.2501317262649536,-0.3899403577328076,-0.05539122433891708,-0.05176432548224095,0.9177139520126943,-0.0518343480551188,0.14271155509271227,-2.334308224031448
1784373729802800384,0.5471844673156738,5.086633205413818,1.1112604141235352,-1.7253795862197876,0.15179243683815002,0.010922984220087528,-0.9883520603179932,0.2695332467556,-0.006085948087275028,0.08729004859924316,-0.3797623543598237,-0.06829474567319795,-0.03405598472408327,0.9219309286558764,-0.01092320164951147,0.1523906355403281,-2.359278095114859
1784373729812720640,0.5571045875549316,6.460299968719482,1.2420008182525635,-1.4574693441390991,0.1626957505941391,-0.042050138115882874,-0.9857798218727112,0.2534571886062622,0.13781429827213287,-0.09666341543197632,-0.3701435215977432,-0.083635105855774,-0.010735591833335974,0.9251397751271108,0.04206254133867565,0.16356816754222495,-2.383864810459259
1784373729822640384,0.5670244693756104,6.762686729431152,1.688105583190918,-1.5104787349700928,0.17744970321655273,-0.10411030799150467,-0.9786074757575989,0.23659752309322357,0.22044332325458527,-0.17242395877838135,-0.36043251426192224,-0.1021054770348911,0.016453570381383335,0.9270340598340538,0.10429930572710762,0.17937971972522077,-2.4093495650627625
1784373729832559616,0.5769436359405518,5.670980453491211,1.7869305610656738,-1.8650517463684082,0.19633623957633972,-0.16020648181438446,-0.9673603177070618,0.09538128972053528,-0.08919842541217804,0.10893136262893677,-0.34941293876543,-0.12108675096040632,0.04071663968498986,0.9282191258384942,0.16089983371494537,0.20024086788366735,-2.437736662032578
1784373729842479360,0.5868635177612305,4.210544586181641,1.34153151512146,-1.857093334197998,0.2143595814704895,-0.2026112675666809,-0.955509603023529,0.233928382396698,-0.5663401484489441,0.40149348974227905,-0.3379300187404701,-0.1368789732004504,0.05923965374753554,0.929278229729326,0.20402376462532462,0.2206867111259184,-2.4667125774780247
1784373729852398336,0.5967824459075928,2.734448194503784,0.7525027394294739,-1.611912488937378,0.22748897969722748,-0.23047436773777008,-0.9461132884025574,0.5186200141906738,-0.6702061891555786,0.5669171214103699,-0.3278121158685092,-0.14757729922175852,0.0718630930160994,0.9303740260562526,0.2325651424654462,0.23596648250206534,-2.4917588553405055
1784373729862318592,0.6067025661468506,2.1572253704071045,-0.9359201192855835,-0.747747004032135,0.23590470850467682,-0.24799105525016785,-0.9396006464958191,0.5914115905761719,-0.5317025184631348,0.2349497675895691,-0.31923167109872885,-0.15412298184089013,0.08028555888547795,0.9316069842128795,0.25060597332218815,0.2459846330502251,-2.512476570041857
1784373729872238336,0.6166224479675293,1.3901221752166748,-1.2733042240142822,-0.8597510457038879,0.22877351939678192,-0.2619164288043976,-0.937583327293396,0.7695022225379944,-0.6190955638885498,-0.757057785987854,-0.31390368118333406,-0.1525785585839229,0.08904003934356332,0.9328752280060836,0.2650074275621964,0.2393268976531299,-2.5244630063612665
1784373729882157568,0.6265416145324707,2.055760622024536,-1.203679084777832,0.45129308104515076,0.2167886346578598,-0.27577003836631775,-0.9364579916000366,0.590859055519104,-0.6112996339797974,-0.05591261386871338,-0.31120285825999766,-0.1488221825719206,0.09809668304734534,0.9334783644802837,0.2793907140008489,0.2274911507635852,-2.530131608796597
1784373729892077568,0.6364614963531494,2.9348206520080566,-1.3700435161590576,0.626201868057251,0.20294435322284698,-0.29990285634994507,-0.9321329593658447,0.5621770620346069,-0.7495661377906799,-0.2698781490325928,-0.3114467651881997,-0.14626125486261324,0.11198733990809628,0.9322378230783168,0.3045908224632315,0.2143749035789614,-2.529765334736596
1784373729901996288,0.6463804244995117,4.397662162780762,-1.0787367820739746,0.6098189353942871,0.18974538147449493,-0.3341648578643799,-0.9232174754142761,-0.03970572352409363,0.12643170356750488,-0.10575896501541138,-0.3108116798789327,-0.1457642025981839,0.13093531140761716,0.9300563153744348,0.3407190142436351,0.20270352819340545,-2.531544111532548
1784373729911916544,0.6563005447387695,4.916029930114746,-0.6057840585708618,0.5485320687294006,0.18011370301246643,-0.3782345652580261,-0.9080185294151306,-0.13413897156715393,0.4169919192790985,-0.16345363855361938,-0.3094613521651595,-0.1487977314814495,0.15443433676237142,0.9264140668623784,0.38788845112997444,0.19581723768193462,-2.5353956287107615
1784373729921836288,0.6662204265594482,4.210886001586914,-0.7074766159057617,0.4137750566005707,0.1728174388408661,-0.4195502698421478,-0.8911294937133789,-0.0657007247209549,-0.12915578484535217,0.1963663101196289,-0.3076264151086446,-0.15254467366509783,0.17653720484203564,0.9224591302636633,0.43294980334370825,0.19155302378504985,-2.5400678855370318
1784373729931755520,0.6761395931243896,3.3212602138519287,-1.0312819480895996,0.6188647747039795,0.1629982441663742,-0.4530896246433258,-0.876436710357666,0.3044242262840271,-0.6142627000808716,0.261293888092041,-0.3062700991692948,-0.1537757364399944,0.1952809656583525,0.9189215950982484,0.470228069361356,0.1838775643289979,-2.5423283303027304
1784373729941675520,0.6860594749450684,2.835064172744751,-1.1860699653625488,0.7271203994750977,0.1500944197177887,-0.4799533188343048,-0.8643589615821838,0.4931398332118988,-0.4785580337047577,0.2352696657180786,-0.30595934334048036,-0.15248820150756714,0.21111100126157553,0.9157337327983661,0.5006014916632803,0.1719337696491506,-2.5407453081280438
1784373729951595520,0.6959795951843262,3.214733600616455,-1.0034358501434326,0.5864311456680298,0.13759484887123108,-0.5061512589454651,-0.8513979911804199,0.19928869605064392,-0.1622599959373474,0.04532194137573242,-0.305516082949333,-0.1513290160583242,0.22671684264920194,0.912337015356508,0.5307162900133073,0.16022514972780555,-2.5389536452471595
1784373729961514496,0.7058985233306885,4.168795108795166,-0.745184063911438,0.44369661808013916,0.1278008669614792,-0.5373075604438782,-0.8336470723152161,-0.022164300084114075,0.05012500286102295,-0.10440218448638916,-0.30399896123152786,-0.1523631443438375,0.24487125267481166,0.9079691934390084,0.5672414621437873,0.15211900711668258,-2.53984892394963
1784373729971434496,0.7158186435699463,5.367697238922119,-0.4318089187145233,0.42084604501724243,0.12077518552541733,-0.5764737129211426,-0.8081406950950623,0.005201384425163269,0.14895296096801758,-0.16120433807373047,-0.3015179176683042,-0.15636308207738125,0.2673578588632859,0.9017523469356791,0.6144065361774144,0.148350253791523,-2.5433695213412513
1784373729981353472,0.7257375717163086,6.301581859588623,-0.3579682409763336,0.3247937858104706,0.11545724421739578,-0.622750461101532,-0.7738549113273621,0.07629996538162231,0.257058322429657,-0.13300538063049316,-0.29801169092570484,-0.1627717048630326,0.29424123481196873,0.8933736335494566,0.6722531335331084,0.1481050410971829,-2.549476143991789
1784373729991273472,0.7356574535369873,6.945158004760742,-0.2032758593559265,0.1108289584517479,0.11216800659894943,-0.672369122505188,-0.7316679954528809,0.04643183946609497,0.31155985593795776,-0.040304601192474365,-0.29302052657874833,-0.17097985911967634,0.3239319182992251,0.8831607730372079,0.7374047648333517,0.15212016816276164,-2.5597491543064255
1784373730001193472,0.7455775737762451,7.132725238800049,-0.15193916857242584,-0.07203007489442825,0.11094070225954056,-0.7218539714813232,-0.6830951571464539,0.032278306782245636,0.2931583523750305,0.05254101753234863,-0.2866525427979543,-0.18038048534620146,0.35484544292205744,0.8714229836861178,0.80647760279797,0.16100309987464864,-2.5748043264536054
1784373730011112448,0.7554965019226074,6.656515598297119,-0.13975845277309418,-0.2857585549354553,0.11174694448709488,-0.7667131423950195,-0.6321895718574524,0.02805410325527191,0.25734424591064453,0.2252834439277649,-0.27926375313907376,-0.19000271908289534,0.3844530908643767,0.8591313023255783,0.8737055392735333,0.17495456118567448,-2.594888679287092
1784373730021032448,0.7654166221618652,5.970958232879639,-0.2870293855667114,-0.4455375671386719,0.11363246291875839,-0.8041228652000427,-0.5835016369819641,0.08232090622186661,0.14913934469223022,0.4387262463569641,-0.27113065938252695,-0.19849975916153753,0.4109099939723499,0.8474898468533785,0.9341984371629791,0.19233502760761492,-2.619550539414252
1784373730030951424,0.7753355503082275,5.450894355773926,-0.43732911348342896,-0.6434261202812195,0.11613795161247253,-0.835189700126648,-0.537559449672699,0.08430150896310806,0.01486194133758545,0.46595001220703125,-0.26242895295092494,-0.2057414701072158,0.43461559648898074,0.8366066942042251,0.9884775770237558,0.2127764034750374,-2.648630195426717
1784373730040871424,0.7852554321289062,4.889562129974365,-0.4999096989631653,-0.6425542235374451,0.11949586123228073,-0.8606047034263611,-0.4950559139251709,0.006526477634906769,0.07122176885604858,0.5021665096282959,-0.2533447195217933,-0.2119054356106148,0.4555964530436847,0.8266465039679087,1.0364558154535404,0.23684801284358958,-2.6823042024407977
1784373730050791424,0.7951755523681641,4.474830150604248,-0.6441627144813538,-0.7882596254348755,0.12322300672531128,-0.8819146752357483,-0.4550192654132843,0.09720544517040253,0.2185693383216858,0.4379447102546692,-0.2440656277022474,-0.2171465487011596,0.4746975324297734,0.8172768894734209,1.0799084708668683,0.26446509572442256,-2.720294404391194
1784373730060710400,0.8050944805145264,4.017138957977295,-0.6730508208274841,-0.9795835018157959,0.1283544898033142,-0.8990657925605774,-0.4185761511325836,0.005251482129096985,0.3650081753730774,0.42271125316619873,-0.23424829674857373,-0.22165760336060436,0.4915077097189503,0.8089598029693287,1.1176310147275217,0.2975423771430011,-2.764768632481464
1784373730070630656,0.8150146007537842,3.7833449840545654,-0.663684070110321,-1.100590705871582,0.13519571721553802,-0.9132430553436279,-0.3843297064304352,-0.09428688883781433,0.36246180534362793,0.3292301893234253,-0.22405539961637666,-0.22605844375641715,0.5066879978227953,0.8012266075375157,1.1511744066374534,0.33825091479195396,-2.8169428354486516
1784373730080549376,0.8249335289001465,3.519199848175049,-0.7097015976905823,-1.2838371992111206,0.14374659955501556,-0.9249358177185059,-0.3518960475921631,-0.05774804949760437,0.24717092514038086,0.2794167995452881,-0.21342738654103457,-0.23044511863546036,0.5205257250793712,0.7939753640668762,1.1808666745629792,0.3878052926203149,-2.878094262030817
1784373730090469632,0.8348536491394043,3.3589465618133545,-0.7847107648849487,-1.4082744121551514,0.15385639667510986,-0.9343888759613037,-0.3213186264038086,0.006818652153015137,0.1851823329925537,0.2513113021850586,-0.20217647613406153,-0.23464210335766308,0.5331826826350408,0.7872636273166714,1.2065398211078842,0.446567111728596,-2.9492016955597524
1784373730100389376,0.844773530960083,3.3350284099578857,-0.8375542759895325,-1.482722282409668,0.16498813033103943,-0.9422864317893982,-0.29133370518684387,0.07167570292949677,0.1204175353050232,0.20312261581420898,-0.19040138941476487,-0.2386761631483987,0.5453135249438543,0.7806498646484069,1.229394968376238,0.5152866249576112,-3.0309547019009875
1784373730110308352,0.8546924591064453,3.246351718902588,-0.9332379102706909,-1.5722659826278687,0.17704620957374573,-0.9486947059631348,-0.2619791030883789,0.09243926405906677,0.09557580947875977,0.18638700246810913,-0.17811787847296248,-0.242503771606114,0.5569581445817611,0.7741211902933742,1.249081888338152,0.5943009943709392,-3.123752178419375
1784373730120228608,0.8646125793457031,3.177469253540039,-0.9795329570770264,-1.6341371536254883,0.18998222053050995,-0.9536933302879333,-0.23318597674369812,0.10262028872966766,0.09283828735351562,0.1675274521112442,-0.1653480983390381,-0.24613246716312526,0.5681776288467542,0.7676281205777966,1.2652851383341694,0.6836547561959029,3.0555693664944084
1784373730130148352,0.8745324611663818,3.0470945835113525,-1.0157954692840576,-1.6856215000152588,0.20378461480140686,-0.9571855068206787,-0.20559126138687134,0.08488115668296814,0.08354353904724121,0.15848737955093384,-0.15229559617840913,-0.2496033099794523,0.5787076608886851,0.7613157543299589,1.2771177201024075,0.7809850013807533,2.943373179986921
1784373730140067584,0.8844516277313232,2.859778881072998,-1.0399354696273804,-1.6980587244033813,0.21807119250297546,-0.9592910408973694,-0.17945979535579681,0.07312755286693573,0.07241970300674438,0.13005179166793823,-0.1391885075979488,-0.25283936967165727,0.5885085861810571,0.7552195304582642,1.2844810588446303,0.8822224805756248,2.8271057197251075
1784373730149987584,0.894371509552002,2.4643259048461914,-0.9929891228675842,-1.741849422454834,0.23286427557468414,-0.9598845839500427,-0.15619182586669922,0.04631054401397705,0.07785028219223022,0.09898662567138672,-0.1263854505992453,-0.25593074326831283,0.5969954284737828,0.749748424856332,1.2865903972738382,0.9799777041349832,2.7148247404406813
1784373730159906304,0.9042904376983643,1.9046905040740967,-0.9341007471084595,-1.7950141429901123,0.24852395057678223,-0.9588227272033691,-0.13745877146720886,-0.018406137824058533,0.02786874771118164,0.10636132955551147,-0.11410819700867539,-0.2590633326408389,0.6034540615184976,0.7454587446591399,1.282827489437967,1.0655756467108877,2.6158091281826055
1784373730169826560,0.9142105579376221,1.3457953929901123,-0.8449298739433289,-1.7961333990097046,0.2646797299385071,-0.9563040137290955,-0.12420591711997986,-0.027298778295516968,-0.03646320104598999,0.10195864737033844,-0.10261712504200808,-0.26214537003538474,0.6075992476499437,0.7426793326967884,1.274087823121686,1.132034561991075,2.537239823816651
1784373730179746304,0.9241304397583008,1.0253199338912964,-0.7837064266204834,-1.741492748260498,0.2806502878665924,-0.9528554081916809,-0.11533381789922714,-0.012522906064987183,-0.06577551364898682,0.08008600026369095,-0.09207826107802114,-0.2651399195698748,0.6099458282960737,0.741072484146934,1.262511462367632,1.1808843113454126,2.477690355856368
1784373730189665536,0.9340496063232422,1.2026896476745605,-0.7381731867790222,-1.6388300657272339,0.2959668040275574,-0.9491748809814453,-0.10710138082504272,-0.001304328441619873,-0.022245407104492188,0.040084779262542725,-0.08204308810849963,-0.2680265487617844,0.612054801344032,0.7394725224815829,1.2506038927912009,1.2235866653294372,2.424901606357177
1784373730199585536,0.9439694881439209,1.8745489120483398,-0.6845493316650391,-1.610426425933838,0.31063809990882874,-0.9457677602767944,-0.09501278400421143,-0.038482338190078735,0.10767877101898193,-0.038852572441101074,-0.07192507140599767,-0.2710365383065267,0.6156563998462934,0.7364327642296874,1.239949923035506,1.2739691173478114,2.364451559454791
1784373730209504256,0.9538884162902832,3.163771867752075,-0.7006315588951111,-1.6029912233352661,0.32525548338890076,-0.9427621960639954,-0.07354389131069183,-0.08589079976081848,0.2138344645500183,-0.14935648441314697,-0.060483387488502315,-0.2743301877098945,0.6228731839582432,0.7301465015614688,1.2308188918808634,1.3484245396359922,2.27833598841369
1784373730219424512,0.963808536529541,4.118764877319336,-0.6644929647445679,-1.6853382587432861,0.340308278799057,-0.9394060969352722,-0.04131215438246727,-0.09126952290534973,0.25984054803848267,-0.22454172372817993,-0.04738173376000928,-0.2780484361529154,0.6340607147230461,0.7200077600880341,1.2208937187597912,1.4499911810208683,2.163325737662817
1784373730229344256,0.9737284183502197,4.38315486907959,-0.7169482111930847,-1.746528148651123,0.35630133748054504,-0.9343639016151428,-0.0036812557373195887,-0.09653571248054504,0.18820911645889282,-0.1763724684715271,-0.033074796506046174,-0.2819969346242857,0.6470217159973192,0.7076345900935642,1.2064696061585953,1.5604648340037475,2.038170799075082
1784373730239263488,0.9836475849151611,4.099353790283203,-0.7478826642036438,-1.749145269393921,0.3727249503135681,-0.9273480772972107,0.03319145739078522,-0.09591525793075562,0.0717572569847107,-0.09483695030212402,-0.018541578002724282,-0.2857316922225401,0.6595097638673275,0.6950255345368286,1.187262537893975,1.6596128561864605,1.9239099785191012
1784373730249183488,0.9935674667358398,3.4951977729797363,-0.840778112411499,-1.792991280555725,0.38939541578292847,-0.9187604188919067,0.06519830971956253,-0.10516989231109619,0.029829025268554688,-0.08150994032621384,-0.004417444046797222,-0.2891199929177874,0.6700811771507023,0.6836530344530442,1.164929239303827,1.736692191083268,1.8319606728236224
1784373730259103488,1.0034875869750977,2.759514093399048,-0.8826003670692444,-1.88787043094635,0.40691229701042175,-0.9090029001235962,0.09020151942968369,-0.12293094396591187,0.05245077610015869,-0.0647650957107544,0.009264364195299874,-0.2923721082739713,0.6779522930362053,0.6743986248304911,1.1408854642481054,1.7889419635619612,1.7653804651174199
1784373730269022464,1.01340651512146,2.349956750869751,-0.9182031750679016,-1.894445776939392,0.424938440322876,-0.8986213803291321,0.10911760479211807,-0.14930376410484314,0.06448453664779663,-0.03607381880283356,0.02232766272975617,-0.29564727835651333,0.6834848126753738,0.6670401475990949,1.1166170333442431,1.8221501349890616,1.718808480431664
1784373730278942464,1.0233266353607178,2.1897830963134766,-0.921761691570282,-1.926958441734314,0.4430675208568573,-0.8876932263374329,0.12526708841323853,-0.1486034393310547,0.11327922344207764,-0.08303071558475494,0.0351230715984924,-0.29886247634614177,0.6879787532418238,0.660403526631337,1.0923107912811962,1.8463318528995534,1.6815772801120579
1784373730288861440,1.03324556350708,2.377786636352539,-0.874886155128479,-1.8798718452453613,0.4610215723514557,-0.8760621547698975,0.1413298100233078,-0.14254015684127808,0.17705708742141724,-0.08088983595371246,0.047816919625466095,-0.30207432034976,0.6923987355086045,0.6534895608528775,1.0676341826347535,1.8682586328474864,1.6467614159408794
1784373730298781440,1.0431654453277588,2.6679623126983643,-0.8729090094566345,-1.8898085355758667,0.4786973297595978,-0.8634632229804993,0.15899702906608582,-0.11732348799705505,0.16912734508514404,-0.1107182651758194,0.06070888574562481,-0.3051514309986945,0.6974102933410562,0.6456127887683236,1.0420956675687834,1.8914771872247627,1.6101920740470097
1784373730308701440,1.0530855655670166,2.833036422729492,-0.9306870102882385,-1.902501106262207,0.4963437020778656,-0.8496327996253967,0.17823366820812225,-0.09726527333259583,0.14711803197860718,-0.17463253438472748,0.07410886751980887,-0.3079443740638245,0.7030555415899837,0.6367033280128864,1.0152886020337755,1.9155489331172908,1.5716339299607398
1784373730318620416,1.063004493713379,2.870969533920288,-0.9886690974235535,-1.8948884010314941,0.5141448974609375,-0.8347220420837402,0.19721725583076477,-0.10142499208450317,0.1431935429573059,-0.1712314635515213,0.08787315471416139,-0.31047098074441604,0.7086722757564139,0.6274311739203587,0.9876278023934549,1.9370705259591159,1.534694787791204
1784373730328540672,1.0729246139526367,2.764829397201538,-1.0537952184677124,-1.8612308502197266,0.5317643880844116,-0.8190886378288269,0.21522203087806702,-0.06821763515472412,0.1184355616569519,-0.17225325107574463,0.10171789744562423,-0.3126557610127178,0.7140429884558998,0.6180958610907328,0.9598205872896248,1.955375302467968,1.5003002887981596
1784373730338460416,1.0828444957733154,2.493469476699829,-1.0686641931533813,-1.797325611114502,0.5488653779029846,-0.8034412860870361,0.23071299493312836,-0.057379961013793945,0.14792382717132568,-0.16580216586589813,0.1151467412887423,-0.3145410202422007,0.7186239917593289,0.60941329702439,0.9330528253003829,1.9687178143217317,1.47093209713647
1784373730348379392,1.0927634239196777,2.234487295150757,-1.045598030090332,-1.8255034685134888,0.5656881332397461,-0.7878783345222473,0.24340282380580902,-0.09142965078353882,0.16238993406295776,-0.15813669562339783,0.12805805544007975,-0.31643398882367707,0.7221986875872198,0.6015810928920708,0.9073561148782123,1.9771284890444287,1.4471695358352303
1784373730358299392,1.1026835441589355,2.1074533462524414,-1.031713843345642,-1.8376415967941284,0.5825968980789185,-0.7719792127609253,0.2542221248149872,-0.17492789030075073,0.11290633678436279,-0.17953038215637207,0.14071195289534452,-0.3185398331883532,0.7250127145157547,0.5942129849153351,0.8819489882853714,1.9822497044437948,1.4273219394258043
1784373730368218368,1.1126024723052979,2.021653890609741,-0.9692744016647339,-1.6952403783798218,0.5986384153366089,-0.7563052177429199,0.2638840079307556,-0.06889897584915161,0.07571732997894287,-0.1586136519908905,0.15279144496411196,-0.3204890116957437,0.7274811365180469,0.5871225423341947,0.8576468614374626,1.9859791182881477,1.4093735559106437
1784373730378138624,1.1225225925445557,2.0055019855499268,-1.0066485404968262,-1.5941424369812012,0.613521933555603,-0.7410693168640137,0.272777259349823,-0.0066492557525634766,0.028026103973388672,-0.10891303420066833,0.16430179116059443,-0.3220444619518507,0.7298465555903297,0.5801865386987979,0.8346615808094298,1.989157917147983,1.3921036584836075
1784373730388058368,1.1324424743652344,1.9510071277618408,-0.9372705817222595,-1.539846420288086,0.627634584903717,-0.7259880304336548,0.2810985743999481,-0.006327211856842041,-0.002268195152282715,-0.07862961292266846,0.17550319841962803,-0.3232665642883287,0.7321529976818076,0.5732795167111155,0.8124699665884701,1.9918773535761376,1.375138247401388
1784373730397977600,1.1423616409301758,1.8554884195327759,-0.8557104468345642,-1.4849023818969727,0.6411473155021667,-0.7109120488166809,0.2890232503414154,-0.017169594764709473,0.0006611943244934082,-0.056113094091415405,0.18620106129549788,-0.3245930539311661,0.7342690044905049,0.5664076895406119,0.790794251370162,1.9943075861290356,1.3592877762395845
1784373730407897600,1.1522815227508545,1.6335082054138184,-0.8701037764549255,-1.3729196786880493,0.6536401510238647,-0.6966965198516846,0.2955814301967621,0.04377800226211548,-0.09271687269210815,-0.04387238621711731,0.19616711073595403,-0.3257212202340721,0.7360002763343243,0.5601139975224351,0.770782140362062,1.9954850957038248,1.3453571495220014
1784373730417816320,1.1622004508972168,1.4898560047149658,-0.813218891620636,-1.1743168830871582,0.6649969816207886,-0.6836504340171814,0.30066820979118347,0.1101495623588562,-0.12498915195465088,-0.02629980444908142,0.2053789644736874,-0.32651520451860927,0.7373750272898798,0.5545137343501202,0.7527529136169123,1.995424069659044,1.3331556841654062
1784373730427736576,1.1721205711364746,1.4064046144485474,-0.6384938955307007,-1.0628564357757568,0.6747497320175171,-0.6718751192092896,0.3054453134536743,0.11324471235275269,-0.11837762594223022,-0.05884799361228943,0.21348812323645214,-0.32709311304022076,0.7387372696811895,0.5492724857563855,0.736737566859564,1.9958762078808843,1.3216653022136229
1784373730437656320,1.1820404529571533,1.254315972328186,-0.45981255173683167,-0.9020366668701172,0.6829714775085449,-0.6611624360084534,0.3105064630508423,0.12098360061645508,-0.11316007375717163,-0.11148607730865479,0.2203269057893248,-0.3278233305450442,0.7401250545438661,0.5442452114002461,0.7223671147744498,1.9975025497490655,1.3110925927966188
1784373730447575552,1.1919596195220947,1.2709380388259888,-0.3340234160423279,-0.7656015753746033,0.689710259437561,-0.6515381336212158,0.3159075379371643,0.21611237525939941,-0.1126219630241394,-0.18259158730506897,0.22615606713835745,-0.32838650771266276,0.7416981036997666,0.5393510749481585,0.7096102327110657,2.000307362886344,1.300551826100527
1784373730457495552,1.2018795013427734,1.1183676719665527,-0.24988777935504913,-0.6600924134254456,0.6952000260353088,-0.6428683400154114,0.3215859532356262,0.28079795837402344,-0.1216428279876709,-0.2133859097957611,0.2311008494519239,-0.328837499101467,0.7434103052250739,0.5346022198395225,0.6982371019747037,2.0040627992593167,1.2901840123805053
1784373730467415552,1.2117996215820312,0.8950686454772949,-0.19754546880722046,-0.6022918820381165,0.6999557018280029,-0.6352668404579163,0.3263401985168457,0.2751113772392273,-0.26719892024993896,-0.2092595398426056,0.23524524308775266,-0.32942759471487487,0.744746636838183,0.5305558517374251,0.6883539659597686,2.007064671811351,1.281962146511076
1784373730477334528,1.2217185497283936,0.7799249887466431,-0.2406865507364273,-0.547865629196167,0.7043921947479248,-0.6284235119819641,0.33002376556396484,0.23797541856765747,-0.38718628883361816,-0.21427056193351746,0.23896523957551916,-0.3300813998878593,0.7456930682513296,0.527146824828433,0.6795248698859797,2.008946568606115,1.2755722532211728
1784373730487254272,1.2316384315490723,0.7557623982429504,-0.2299477756023407,-0.32025420665740967,0.7080064415931702,-0.6228740811347961,0.33279895782470703,0.2740188241004944,-0.39256787300109863,-0.18373581767082214,0.2423564923750045,-0.3300837196481221,0.746621865638369,0.5242747335943686,0.6724111534748656,2.0101987752919364,1.2692312086413833
1784373730497173504,1.2415575981140137,0.8085384964942932,-0.10700347274541855,-0.1634635180234909,0.7101797461509705,-0.6185964345932007,0.3361300230026245,0.22777801752090454,-0.4872080087661743,-0.1470431089401245,0.24493917996275105,-0.3296201962969816,0.747940863109772,0.5214785434177779,0.6669550607072922,2.012858928448455,1.2619534663154905
1784373730507093504,1.2514774799346924,0.7428163886070251,-0.09990169107913971,0.026247762143611908,0.7110311388969421,-0.6154749989509583,0.3400373160839081,0.15414220094680786,-0.5990635752677917,-0.09229552745819092,0.24685595293500526,-0.3286154351993613,0.7496869706428405,0.518694068442165,0.6629885184986577,2.016877777583707,1.2534563295666055
1784373730517013504,1.2613976001739502,0.7701436281204224,-0.1140526682138443,0.21804676949977875,0.7107380628585815,-0.6138461828231812,0.3435753583908081,0.18422037363052368,-0.5630336403846741,0.005408376455307007,0.24823129034987002,-0.32691856442510425,0.751606239201709,0.5163268840144417,0.6609235412528081,2.021081203655895,1.2444712322762401
1784373730526932480,1.2713165283203125,0.5731766819953918,-0.20747826993465424,0.5172423124313354,0.7091100215911865,-0.614111602306366,0.34645307064056396,0.2105218768119812,-0.5323727130889893,0.028440088033676147,0.24900870691254723,-0.32431925647200555,0.7536866447532284,0.5145561652001868,0.6612597805199214,2.0252618331470607,1.234954951567842
1784373730536852480,1.2812366485595703,0.2817184627056122,-0.42897123098373413,0.7435678839683533,0.7063823342323303,-0.6171571612358093,0.3466133177280426,0.2317279577255249,-0.5929563045501709,0.09575411677360535,0.24930138546070346,-0.32057612112768363,0.7553394030224894,0.5143365270546566,0.6651245625609492,2.0269666120125205,1.2267804404737084
1784373730546772480,1.291156530380249,-0.07640677690505981,-0.583928644657135,1.0096852779388428,0.7028080224990845,-0.6229600310325623,0.34348535537719727,0.21770912408828735,-0.6711379289627075,0.1119285523891449,0.24917861811682168,-0.3158501248550835,0.7562945031842067,0.5159142658447587,0.6725210324885235,2.0253896472619126,1.2209198698969534
1784373730556691456,1.3010754585266113,-0.3778534531593323,-0.6886454820632935,1.2137260437011719,0.6980424523353577,-0.6316102147102356,0.3373504877090454,0.21020644903182983,-0.7161375880241394,0.11806333065032959,0.2483564398095526,-0.3102842726326773,0.7565704992023645,0.5192724423473906,0.683628404814708,2.0209793184958404,1.217614818222377
1784373730566611456,1.3109955787658691,-0.5602872967720032,-0.6708523631095886,1.3747252225875854,0.6921538710594177,-0.6423074007034302,0.32918742299079895,0.17076122760772705,-0.6897238492965698,0.12108412384986877,0.24689289361070121,-0.3041451721656121,0.7563659319155378,0.5238800122677936,0.697505027775718,2.0147329437842916,1.216239843851487
1784373730576530432,1.3209145069122314,-0.6479274034500122,-0.5701143145561218,1.5682291984558105,0.6846637725830078,-0.6545243263244629,0.32067736983299255,0.17384159564971924,-0.5611129403114319,0.1345076858997345,0.24449216233175466,-0.29763394842793806,0.7561433201481835,0.529041667344047,0.7135532640410298,2.0088229901846013,1.2154220909067062
1784373730586450688,1.3308346271514893,-0.7561225295066833,-0.45630747079849243,1.6612083911895752,0.6756376624107361,-0.6678095459938049,0.3123200833797455,0.20249027013778687,-0.502188503742218,0.10165077447891235,0.24112486252517804,-0.29099032135799796,0.7559660547158381,0.5345078359256159,0.7312620585822088,2.003798563957053,1.215037733438577
1784373730596370432,1.340754508972168,-0.9046973586082458,-0.34912109375,1.7637630701065063,0.6653307676315308,-0.6820398569107056,0.30357232689857483,0.2356700301170349,-0.5551273822784424,0.08625906705856323,0.23690823767183325,-0.2843058352710952,0.7556165446899442,0.5404518126006213,0.7505483425002719,1.9988544614790313,1.2158458049139629
1784373730606289408,1.3506734371185303,-1.082335114479065,-0.24633291363716125,1.8739597797393799,0.6537091732025146,-0.69713294506073,0.29439792037010193,0.27874016761779785,-0.5833083391189575,0.12119042873382568,0.2316928803022903,-0.27778355259480847,0.7550067924540311,0.5469181995621588,0.771390706799463,1.993941272960002,1.2184258779693942
1784373730616209408,1.360593557357788,-1.3294317722320557,-0.20810243487358093,1.9122693538665771,0.6409286260604858,-0.7131757140159607,0.2838849723339081,0.3088851571083069,-0.5845537185668945,0.14796921610832214,0.22566976056621366,-0.2712642758964451,0.7538953332821295,0.5541936452279794,0.7940181942310177,1.9877532742169888,1.2235225939439345
1784373730626129408,1.3705134391784668,-1.50175940990448,-0.08649548888206482,1.909847378730774,0.6274839639663696,-0.7294608354568481,0.27230602502822876,0.3206055760383606,-0.6133888363838196,0.17895743250846863,0.21900626686117,-0.2650996121723902,0.7522467767987578,0.5620348287879912,0.8175333759887343,1.9802357904634884,1.2314701515485107
1784373730636048896,1.3804328441619873,-1.8800501823425293,-0.13001394271850586,1.9174580574035645,0.6135205030441284,-0.7462363243103027,0.25830936431884766,0.35040760040283203,-0.612726628780365,0.20831960439682007,0.21173077194367734,-0.2592796158666942,0.7496190810738721,0.570977492372163,0.8423901081439311,1.9692979349538087,1.244274508132899
1784373730645968640,1.390352725982666,-2.150148868560791,-0.10259213298559189,2.0057601928710938,0.5987833738327026,-0.7636311054229736,0.2415083646774292,0.43960779905319214,-0.5675457715988159,0.2002030909061432,0.20393247743254025,-0.2534155884609962,0.746012549350017,0.5810830036397665,0.868918466009341,1.9541716401131752,1.2619603106001052
1784373730655887616,1.4002716541290283,-2.260845899581909,-0.06354033946990967,2.1001696586608887,0.5825511813163757,-0.7818576693534851,0.2221093624830246,0.4558398127555847,-0.5176875591278076,0.2495550960302353,0.19532418187002315,-0.24722860637024874,0.7415744696663321,0.5922784429444984,0.8976399419977549,1.9350527091199503,1.2843269091711196
1784373730665807616,1.4101917743682861,-2.4427480697631836,0.043227195739746094,2.20906400680542,0.5628109574317932,-0.8027514219284058,0.1970629096031189,0.470209002494812,-0.4962291717529297,0.25816771388053894,0.18527441109129744,-0.23948382357384734,0.7356486590672845,0.6059223203071198,0.9318950667847878,1.9075963100335798,1.31476696261624
1784373730675727616,1.4201116561889648,-2.9519875049591064,-0.03760666772723198,2.189652442932129,0.5445744395256042,-0.8204881548881531,0.17389051616191864,0.49169570207595825,-0.5357130169868469,0.35029470920562744,0.1752944737795579,-0.2335008769397781,0.7296729415865741,0.618325644803832,0.9622644207487039,1.8798773406198663,1.3480214960643413
1784373730685646848,1.4300308227539062,-3.5409653186798096,-0.16579647362232208,2.1811702251434326,0.5265958309173584,-0.8374748826026917,0.14605635404586792,0.5694887042045593,-0.5333288311958313,0.4311530590057373,0.1651528487291383,-0.22789636809619526,0.7218666260976317,0.6322153749651969,0.9926460126921564,1.8413548261173178,1.3928444631160246
1784373730695566592,1.439950704574585,-4.229880332946777,-0.24381403625011444,2.156951904296875,0.5086708664894104,-0.8536326885223389,0.11209319531917572,0.6061362028121948,-0.5222674608230591,0.4720284938812256,0.15465398986818119,-0.22260517031259439,0.7116835928433172,0.6481013862307838,1.022920143987753,1.787694649232541,1.453758419986779
1784373730705485568,1.4498696327209473,-4.865922451019287,-0.1214226558804512,2.1326746940612793,0.4903259873390198,-0.8685352206230164,0.07229705899953842,0.6450804471969604,-0.5525615215301514,0.5117789506912231,0.14325397776084892,-0.21779892788635133,0.6990795077498693,0.6658300916816845,1.0522392177858937,1.7171884516641556,1.5335261710412442
1784373730715405824,1.459789752960205,-5.398691177368164,-0.1804276555776596,2.1611528396606445,0.471834272146225,-0.8812791109085083,0.0268247053027153,0.6482828855514526,-0.5225142240524292,0.5942690372467041,0.13110963461705755,-0.21344750385561742,0.6839974528799846,0.6851262192340761,1.078562008841604,1.62758715736421,1.6341391174687907
1784373730725325568,1.4697096347808838,-5.604498386383057,-0.29238149523735046,2.229665994644165,0.4526017904281616,-0.8914260864257812,-0.0226128026843071,0.7071882486343384,-0.43450164794921875,0.6850730776786804,0.11852477010060397,-0.20878190497046548,0.6671609361479949,0.7051654870991688,1.1004824161607274,1.520876028767622,1.7520666921900827
1784373730735244800,1.4796288013458252,-5.573233604431152,-0.36323490738868713,2.3639707565307617,0.4318965971469879,-0.89890056848526,-0.07377690821886063,0.7441745400428772,-0.2664283514022827,0.7615363001823425,0.1056615091321343,-0.20318500247552043,0.6494824094065735,0.7250682997519918,1.1172537228169277,1.4016085598614185,1.8816451644790584
1784373730745164544,1.489548683166504,-5.32813835144043,-0.45175665616989136,2.462470293045044,0.4100724458694458,-0.9035361409187317,-0.12435037642717361,0.6736677885055542,-0.1991097331047058,0.8280704617500305,0.09280522857237201,-0.1967787733117364,0.6317459357026428,0.7440177130629453,1.1279511611706683,1.276369694042078,2.0160863887021327
1784373730755084800,1.4994688034057617,-5.050690650939941,-0.3234301209449768,2.5850625038146973,0.38687267899513245,-0.9058719873428345,-0.17240992188453674,0.6265549659729004,-0.13242745399475098,0.8882607221603394,0.07959628979635947,-0.1897768462579209,0.6146379300207728,0.7614914462711865,1.1334339601391448,1.151565501180761,2.1498166822078004
1784373730765003776,1.509387731552124,-4.518129825592041,-0.31176745891571045,2.6081249713897705,0.3630234897136688,-0.9062138199806213,-0.21677285432815552,0.48135215044021606,-0.08601945638656616,0.941794216632843,0.06624408232666555,-0.18253267455713182,0.5985778089957194,0.7771731842147035,1.13424173269181,1.0324884711974138,2.2777580126432424
1784373730774923776,1.5193078517913818,-3.9524641036987305,-0.2725795805454254,2.777414321899414,0.3381956219673157,-0.9057539105415344,-0.25540879368782043,0.4523317217826843,-0.0573502779006958,0.8947672843933105,0.05288551707252439,-0.1748004847402673,0.5845856570069546,0.7905109855212262,1.1331553352295058,0.9239690092874457,2.3944799560444645
1784373730784843776,1.5292277336120605,-4.075922012329102,-0.2935142517089844,2.666818380355835,0.31296244263648987,-0.9038048982620239,-0.2918751537799835,0.40308672189712524,-0.002048313617706299,0.9132130146026611,0.039527028664673225,-0.16681145644638673,0.5711710409808416,0.8027297947744266,1.1285787889711305,0.8202484156074624,2.5061057245725498
1784373730794762496,1.5391466617584229,-4.570897579193115,-0.21014396846294403,2.5482966899871826,0.2890114188194275,-0.8983500003814697,-0.3308168053627014,0.331304132938385,-0.020137548446655273,0.8907685279846191,0.02634419976606138,-0.1592741754411848,0.5560785369906133,0.8153002110205627,1.1159988150365086,0.7180534556238712,2.6167988329400407
1784373730804682752,1.5490667819976807,-5.094303131103516,-0.17659978568553925,2.5002810955047607,0.26633399724960327,-0.8882801532745361,-0.3741986155509949,0.37194114923477173,-0.05900073051452637,0.8205487132072449,0.012917148347657921,-0.1522831333827522,0.5382476587702889,0.8288138981261679,1.0935870235355722,0.6185651246190108,2.726216922384724
1784373730814601728,1.558985710144043,-5.299637794494629,-0.11227431893348694,2.6832852363586426,0.24322740733623505,-0.8743883371353149,-0.4198635220527649,0.40125805139541626,-0.03358584642410278,0.6563137769699097,-0.0012078552655190524,-0.14507953651469352,0.5186715391820491,0.8425735663276598,1.0641737896142347,0.5250606676638391,2.830641858404584
1784373730824521728,1.5689058303833008,-5.267429351806641,0.008176381699740887,2.7314088344573975,0.21969811618328094,-0.8574462532997131,-0.4653157889842987,0.32038676738739014,-0.00858163833618164,0.6144399046897888,-0.01623180869683424,-0.1378103088273761,0.49834768990595946,0.8558005572105888,1.0302861753616936,0.44111911707001034,2.9270113858440507
1784373730834441728,1.5788257122039795,-5.052718639373779,0.14008301496505737,2.687729835510254,0.1975555568933487,-0.8382949233055115,-0.5081667900085449,0.2526702582836151,-0.053154051303863525,0.5665469169616699,-0.03133030163104704,-0.13109000513205982,0.4782593705340219,0.8678143822826915,0.9941482822553962,0.37078043704081604,3.01097569639089
1784373730844360704,1.5887446403503418,-4.895983695983887,0.287442684173584,2.8232924938201904,0.17637120187282562,-0.8174214363098145,-0.548375129699707,0.3238118886947632,-0.05234473943710327,0.5486345887184143,-0.046904537669615075,-0.12484409969533625,0.45850451006262566,0.8786281644118472,0.9569203779342956,0.3111763860380252,3.0859082349039126
1784373730854280704,1.5986647605895996,-4.782538414001465,0.22534576058387756,2.7334108352661133,0.15567292273044586,-0.7951385378837585,-0.5861064195632935,0.28989899158477783,-0.07214051485061646,0.565858006477356,-0.06263929391334774,-0.1185896363448121,0.4391848149859057,0.8883296299562774,0.9192359492814576,0.2596111604425416,-3.1298463102107705
1784373730864200704,1.6085846424102783,-4.730007171630859,0.09834234416484833,2.5738861560821533,0.13658253848552704,-0.7704487442970276,-0.6226990222930908,0.19564710557460785,0.002901136875152588,0.5099670886993408,-0.07733795999723307,-0.11225571501800402,0.4195821069838243,0.897423269773283,0.8795447700608496,0.2159202737753171,-3.071561111973553
1784373730874119680,1.6185038089752197,-4.218929290771484,-0.08654281497001648,2.6242780685424805,0.11735343188047409,-0.7455313801765442,-0.6560573577880859,0.0814991295337677,0.06939917802810669,0.40395164489746094,-0.09139065990434418,-0.10529928986862859,0.4011026943982691,0.9053599220291103,0.8413317476542935,0.17700476009008073,-3.019738800074201
1784373730884039680,1.6284236907958984,-3.2588095664978027,-0.12679855525493622,2.5285441875457764,0.09786760807037354,-0.7235094308853149,-0.683341920375824,-0.15424881875514984,0.26345694065093994,0.3549880385398865,-0.10463117185163394,-0.09796114089745536,0.3856587450662055,0.9114402916284692,0.8088726613844209,0.1422517512843095,-2.9739704542264915
1784373730893958912,1.6383428573608398,-2.326974868774414,0.09367096424102783,2.265523672103882,0.08090444654226303,-0.7070448994636536,-0.7025253772735596,-0.33459708094596863,0.34538114070892334,0.24029093980789185,-0.1167023799563393,-0.09195744344969338,0.37454122402393136,0.9152285220597673,0.7853106919648035,0.11465721209416328,-2.935467848149088
1784373730903878656,1.6482627391815186,-2.0798346996307373,0.3073703348636627,2.0264124870300293,0.06762631982564926,-0.6939049363136292,-0.7168839573860168,-0.36444029211997986,0.21470266580581665,0.19596415758132935,-0.12773700204027175,-0.08777311149037695,0.365860490385053,0.9176737837151411,0.7668979656045817,0.09405537164287607,-2.9029440018765915
1784373730913798912,1.6581828594207764,-2.283653974533081,0.49249038100242615,1.7812162637710571,0.057698704302310944,-0.6798582077026367,-0.7310702204704285,-0.34457921981811523,0.2159910798072815,0.10220980644226074,-0.13803720046690315,-0.08487874611007856,0.3567358759661258,0.9200439156686299,0.747569247327502,0.07876035399126871,-2.874652850509481
1784373730923717632,1.6681017875671387,-2.2633042335510254,0.6386535167694092,1.5186192989349365,0.051063742488622665,-0.6644577980041504,-0.7455792427062988,-0.3612138628959656,0.3781418800354004,-0.09646177291870117,-0.1474513679849002,-0.08311432839611718,0.346846348260858,0.9225225117283407,0.7267680255246586,0.06838189786520175,-2.8506163008356165
1784373730933637632,1.6780216693878174,-2.123354911804199,0.6414538025856018,1.2516430616378784,0.046951331198215485,-0.6492199897766113,-0.7591502070426941,-0.4048919975757599,0.49155092239379883,-0.2418110966682434,-0.15576651450424003,-0.08216964854214207,0.33715434168872044,0.924830794880367,0.7065584756755466,0.06176854387919164,-2.8306540793574584
1784373730943557632,1.6879417896270752,-1.9147861003875732,0.6335337162017822,1.0180171728134155,0.04477314651012421,-0.6349232196807861,-0.7712768316268921,-0.4965706169605255,0.5631153583526611,-0.2229553461074829,-0.16276373716404446,-0.08177308279626112,0.32813832140772176,0.9269015071085164,0.6879091009556749,0.057985610134247884,-2.814712545907479
1784373730953476608,1.6978607177734375,-1.6046391725540161,0.5919138193130493,0.8372673988342285,0.04376967251300812,-0.6222732663154602,-0.7815755009651184,-0.5808027386665344,0.5471389889717102,-0.11785382032394409,-0.16866853971280224,-0.08172731685849438,0.320207586163074,0.9286219812543884,0.6716433745972724,0.05594341577267109,-2.8017750323273565
1784373730963396864,1.7077808380126953,-1.1810261011123657,0.45858141779899597,0.6399326324462891,0.04338329657912254,-0.6122554540634155,-0.7894688844680786,-0.6644770503044128,0.6251949667930603,-0.02336674928665161,-0.17352846969507435,-0.08191466115543114,0.31393556398733685,0.9298507208069758,0.6589100962782222,0.05489729498032915,-2.7913722647948513
1784373730973315840,1.7176997661590576,-0.7510920763015747,0.2237422615289688,0.2928534746170044,0.043126292526721954,-0.6055594086647034,-0.7946306467056274,-0.7888233065605164,0.8551932573318481,0.018690764904022217,-0.17661660091349474,-0.08195983133612562,0.3097858139770825,0.9306566814575629,0.650468631032885,0.05421893248511907,-2.7847875949491603
1784373730983235584,1.7276196479797363,-0.5957047343254089,0.12005756795406342,-0.18294787406921387,0.04386497288942337,-0.6011216640472412,-0.7979527711868286,-0.9158742427825928,1.1369187831878662,0.009668469429016113,-0.17744186554759817,-0.08204867305410518,0.30706943726554176,0.9313917875933103,0.6449039014445729,0.054916619371743886,-2.7834317922061427
1784373730993155840,1.7375397682189941,-0.4567534923553467,-0.004865193739533424,-0.8825227618217468,0.047063760459423065,-0.5978418588638306,-0.8002312779426575,-1.0838984251022339,1.258135437965393,0.01769953966140747,-0.17541607336220344,-0.08262976982382417,0.30505193115756746,0.9323866132164705,0.6408061458700626,0.05874502609546814,-2.7891656168955423
1784373731003074560,1.7474586963653564,0.03701817989349365,-0.19520820677280426,-1.379132866859436,0.04952237010002136,-0.5992807149887085,-0.7990057468414307,-1.1584854125976562,1.1733773946762085,0.003931283950805664,-0.17049142202751885,-0.08247620548639235,0.3060960699191925,0.9329713741372087,0.6426023029350286,0.06190080802311087,-2.8007093841536705
1784373731012994816,1.7573788166046143,0.47407248616218567,-0.15122289955615997,-1.4537274837493896,0.0559234693646431,-0.6007470488548279,-0.7974807620048523,-1.0115203857421875,0.9892358183860779,-0.0731704831123352,-0.16343970177109554,-0.08367745087872103,0.3070141794475605,0.9338243527031318,0.6444352737028711,0.07001055694356834,-2.8184405501080985
1784373731022914560,1.767298698425293,0.8160768151283264,-0.2985571324825287,-1.3343805074691772,0.061848461627960205,-0.6064390540122986,-0.7927209734916687,-0.8550613522529602,0.6721739172935486,-0.2123907208442688,-0.15625912657542204,-0.08507427038782936,0.3104865427077665,0.9337792202646915,0.6515744205903354,0.07786273540558515,-2.8362998515001507
1784373731032833536,1.7772176265716553,0.12490103393793106,-0.6935358643531799,-1.9433854818344116,0.06700804084539413,-0.6076503992080688,-0.7913727760314941,-0.7909307479858398,0.5814510583877563,0.05324411392211914,-0.14815618098227332,-0.08522076995286375,0.31153014154020786,0.9347385257638006,0.6530988220426143,0.08447167939868577,-2.855831090105606
1784373731042753792,1.787137746810913,1.1417992115020752,-0.8036491274833679,-2.1681089401245117,0.07372117787599564,-0.6120970249176025,-0.7873388528823853,-0.964407205581665,0.8069822788238525,-0.14175355434417725,-0.13703043564225875,-0.08550785833857781,0.3146728338612602,0.9353566430782032,0.6587096928625472,0.09336115079445124,-2.8825924869021473
1784373731052672512,1.7970566749572754,1.4782835245132446,-0.9202859997749329,-2.1406409740448,0.08017123490571976,-0.6206939816474915,-0.7799433469772339,-0.9597336053848267,0.7377899289131165,-0.04168140888214111,-0.12511454729413907,-0.08574538448353204,0.32043105360600704,0.9350497747178745,0.6696274853432419,0.1024313458637461,-2.9112268932287257
1784373731062592768,1.8069767951965332,1.0855733156204224,-1.283676028251648,-2.0315439701080322,0.08389227837324142,-0.6291050910949707,-0.7727800011634827,-0.698699414730072,0.6034855842590332,0.002470552921295166,-0.11359079684609864,-0.08453768083594716,0.3262872834479077,0.9346053807452377,0.6804014200360956,0.1081356040411079,-2.9380101296365115
1784373731072512512,1.816896677017212,0.704479455947876,-0.643649160861969,-1.8436466455459595,0.0880964994430542,-0.636138916015625,-0.7665287256240845,-0.7229079008102417,0.704376220703125,0.10303080081939697,-0.10314603685678637,-0.08372920322940273,0.33124773131119556,0.9341441060864915,0.6894836994811879,0.11442711065760951,-2.962775937742484
1784373731082431744,1.8268158435821533,0.7050768136978149,0.12256348878145218,-2.1479289531707764,0.09908419847488403,-0.6385761499404907,-0.7631532549858093,-1.1650478839874268,0.5843616724014282,0.2914583086967468,-0.09249857511578603,-0.08600912009168997,0.333205363707006,0.9343557846475194,0.6926466389669254,0.1291129940068372,-2.990890414553221
1784373731092351744,1.836735725402832,-0.24627171456813812,0.4718399941921234,-1.927221417427063,0.11501431465148926,-0.6385804414749146,-0.760911762714386,-0.7678768634796143,0.42919933795928955,0.08534413576126099,-0.08284261169375103,-0.09108984037684219,0.33353673152296254,0.934661997793697,0.6926522213686753,0.15001766528758664,-3.019012589020277
1784373731102271744,1.8466558456420898,-1.9975086450576782,-0.5020431280136108,-1.2895230054855347,0.12458986043930054,-0.6277716159820557,-0.7683620452880859,0.07693296670913696,0.07497620582580566,0.20458030700683594,-0.07599997586344372,-0.0930128028879423,0.3273646376282381,0.9372326411788318,0.678687077251449,0.16075083724963812,-3.036619186971139
1784373731112190720,1.8565747737884521,-2.0211892127990723,-0.4044196307659149,-0.9026693105697632,0.12685532867908478,-0.6118687391281128,-0.7807204127311707,0.13591627776622772,-0.3237849473953247,-0.27596598863601685,-0.07131719890667289,-0.09153243601988653,0.3182162958796469,0.9408900300073393,0.6584210806814809,0.16107725085096794,-3.0454230331279013
1784373731122110720,1.8664946556091309,-1.282189965248108,0.15169969201087952,-0.3126530349254608,0.12849931418895721,-0.5973494648933411,-0.791619598865509,0.057688429951667786,-0.08119362592697144,-0.33064907789230347,-0.0690217395795456,-0.09071530062779987,0.3097756295652363,0.9439522131844195,0.6401920064958819,0.1609209865673812,-3.0490598880699253
1784373731132030720,1.8764147758483887,-0.9209936857223511,-0.12604165077209473,-1.3190112113952637,0.13296622037887573,-0.5871214270591736,-0.7985038161277771,0.4022357761859894,0.5696349143981934,-0.4705085754394531,-0.06652024614887311,-0.091651324879754,0.30388833584763275,0.9459528996635387,0.627498260799944,0.16500519366038444,-3.054829586785543
1784373731141949696,1.886333703994751,0.579457700252533,-0.6321098208427429,-0.9135666489601135,0.137126624584198,-0.5839510560035706,-0.800123393535614,0.726856529712677,0.6648226380348206,-0.583177387714386,-0.060085275006610185,-0.0916158771081719,0.3025637675369941,0.9468112185221093,0.6235873336412081,0.16973288409878423,-3.0696652497753036
1784373731151869696,1.8962538242340088,0.11709244549274445,-1.385474443435669,-1.3320441246032715,0.13633355498313904,-0.5851744413375854,-0.7993647456169128,0.9232367277145386,0.07380664348602295,-0.5969670414924622,-0.054037225577967474,-0.08932360082932293,0.30387321085221103,0.9469753099088697,0.625095176811792,0.1689269740761975,-3.0822937412375637
1784373731161788672,1.906172752380371,-0.32233065366744995,-0.8309500217437744,-0.9854130148887634,0.13517029583454132,-0.5838013887405396,-0.8005653619766235,0.5952526926994324,-0.29420459270477295,-0.26928937435150146,-0.04655282593631756,-0.08623796152196041,0.3037767840681597,0.9476895473145063,0.6234029856009801,0.16726597149464476,-3.097433420399755
1784373731171708672,1.9160926342010498,-0.2968127727508545,-0.5869583487510681,-1.0816175937652588,0.13521550595760345,-0.5789723992347717,-0.8040570616722107,0.43143489956855774,-0.39812415838241577,0.0784863829612732,-0.04121457373703446,-0.08434449940205649,0.3014257168455354,0.9488572109945195,0.6174677733765587,0.16660766991629963,-3.10802238693171
1784373731181628672,1.9260127544403076,0.4266291856765747,-0.24966631829738617,-1.1617083549499512,0.13790716230869293,-0.5776576995849609,-0.8045453429222107,0.17363153398036957,-0.16495704650878906,0.0018567442893981934,-0.03489081235291398,-0.08371185843131498,0.3011970315223324,0.9492393205787998,0.6158562593748178,0.1697602801082143,-3.122220695148861
1784373731191547648,1.93593168258667,0.7012133598327637,-0.2582637667655945,-0.9575343728065491,0.14143434166908264,-0.5813874006271362,-0.8012396693229675,0.23945556581020355,0.08076179027557373,-0.11930781602859497,-0.02960884782860167,-0.08403737354419968,0.30383856449485064,0.948547977191052,0.6204328717712396,0.17471952631525225,-3.1353204079378343
1784373731201467648,1.9458518028259277,1.125877857208252,0.025701921433210373,-0.8732597827911377,0.1456528753042221,-0.5873221755027771,-0.7961394190788269,0.2343825399875641,-0.1274757981300354,-0.12382829189300537,-0.024604470899934852,-0.08486779863406929,0.30777875149540496,0.9473460150131939,0.6277462880470298,0.1809478759347451,3.1346449353392085
1784373731211387648,1.9557716846466064,1.185268759727478,0.09402026236057281,-0.6102145314216614,0.15001316368579865,-0.5961116552352905,-0.7887629270553589,0.27129727602005005,-0.11343729496002197,-0.11959278583526611,-0.021270538915198322,-0.08638024961783712,0.313300156062187,0.9454782011267834,0.6386494727010565,0.1879432867876082,3.124274310375622
1784373731221306880,1.9656908512115479,0.7427142858505249,0.49097147583961487,-0.47213515639305115,0.15531699359416962,-0.6031205654144287,-0.7823823690414429,0.1500876545906067,-0.02387833595275879,0.06111466884613037,-0.01850127145889033,-0.08850745373256048,0.3177660351263017,0.9438478653799764,0.6474075773376065,0.19597016788893612,3.1148552375889174
1784373731231226624,1.9756107330322266,0.12385427951812744,0.5893102288246155,-0.5379583835601807,0.16228054463863373,-0.6052830219268799,-0.7792929410934448,0.16155675053596497,-0.3175685405731201,0.2799338102340698,-0.016861749377904293,-0.09174790973737704,0.3192739316757809,0.9430600410435229,0.650121386044295,0.2053066450346329,3.1079408329062495
1784373731241146880,1.9855308532714844,0.00444446038454771,0.4730815291404724,-0.3226602077484131,0.16910125315189362,-0.6049006581306458,-0.7781387567520142,0.3186917006969452,-0.27373093366622925,0.28236544132232666,-0.016062503222076682,-0.09512163808605363,0.31919037655609706,0.9427678887761373,0.6496411072752816,0.21398786483074717,3.1033598444305195
1784373731251065856,1.9954497814178467,0.06437411159276962,0.4328598082065582,-0.2542499899864197,0.17423541843891144,-0.604202389717102,-0.7775483727455139,0.40210428833961487,-0.11701947450637817,0.17990738153457642,-0.015233829999740734,-0.09757427900692647,0.3189123506834179,0.9426250774116476,0.6487645450556448,0.2204415132574451,3.0995189805232344
1784373731260985600,2.0053696632385254,-0.23192453384399414,0.0814986452460289,-0.38854703307151794,0.1774970442056656,-0.6028804183006287,-0.7778367400169373,0.4197777509689331,-0.11551862955093384,0.055378854274749756,-0.014403674865403981,-0.09900388988780556,0.31824497837855825,0.9427146344215884,0.647106536988912,0.22435167200221687,3.096633343438927
1784373731270904832,2.015288829803467,-0.3601008653640747,-0.0555976927280426,-0.017945265397429466,0.17861655354499817,-0.5998300313949585,-0.779935896396637,0.5114468932151794,-0.1333853006362915,0.12623411417007446,-0.01355191309840165,-0.0992254584477968,0.3165222915478885,0.9432837494550683,0.643288697579724,0.22513211614713083,3.0950238053072314
1784373731280824576,2.0252087116241455,-0.5304664969444275,-0.11141324788331985,-0.042276035994291306,0.17778412997722626,-0.595740556716919,-0.7832534313201904,0.43986111879348755,-0.14833897352218628,0.1142013669013977,-0.01343675672124146,-0.09861876456164104,0.3140821785996367,0.9441642257801113,0.6381873555928614,0.2231997631292821,3.096038001881473
1784373731290744832,2.0351288318634033,-0.9082388281822205,-0.13883687555789948,0.22125254571437836,0.1763172745704651,-0.5901934504508972,-0.787771463394165,0.3589000105857849,-0.16629153490066528,0.16496872901916504,-0.014464699134632228,-0.09800892432589932,0.31065819303720676,0.9453446612631563,0.6312984790014214,0.22018891508857294,3.1000250260406146
1784373731300663808,2.0450477600097656,-1.7357209920883179,-0.03320305421948433,0.49983668327331543,0.17347723245620728,-0.5812035202980042,-0.7950522303581238,0.3338012099266052,-0.24173343181610107,0.12346720695495605,-0.016370793835945002,-0.09684333079523873,0.3051151271741379,0.9472370724243673,0.6202068809364558,0.21482895019318268,3.1070759325316524
1784373731310583552,2.0549676418304443,-1.753654956817627,-0.09413910657167435,0.5276461839675903,0.16952264308929443,-0.568242073059082,-0.8052099943161011,0.32654061913490295,-0.19425487518310547,0.2858771085739136,-0.019483425452457744,-0.0953314507413756,0.29716481642786585,0.9498555483852935,0.6043679081087143,0.20750187366295544,3.117715870954294
1784373731320503808,2.064887762069702,-2.054800510406494,-0.10469214618206024,0.4100605249404907,0.16618740558624268,-0.5541512370109558,-0.8156580924987793,0.19613252580165863,-0.2903464436531067,0.0517573356628418,-0.022439869880427312,-0.09403457451665972,0.2886666954077071,0.952536310693821,0.587343015725278,0.20099527112283364,3.1277292849196976
1784373731330422528,2.0748066902160645,-1.628914713859558,0.08129183202981949,0.6242220997810364,0.16281075775623322,-0.5399169325828552,-0.8258222341537476,0.21046499907970428,-0.19909673929214478,0.02966439723968506,-0.025900926895685634,-0.09282775050801002,0.28012834758929317,0.9551126975846685,0.5703384189027908,0.19465356862800373,3.1385859895229777
1784373731340342784,2.0847268104553223,-1.294231653213501,0.03566872701048851,0.3394160866737366,0.16079574823379517,-0.5285071134567261,-0.8335615992546082,0.15385574102401733,-0.030742764472961426,-0.15464335680007935,-0.02899323955832689,-0.09228614058257822,0.2733175220224481,0.9570476368000775,0.5568410617344279,0.19056138921444968,-3.135645142050595
1784373731350262528,2.094646692276001,-0.7994880676269531,-0.45767921209335327,0.28044599294662476,0.157279834151268,-0.5211804509162903,-0.8388289213180542,0.2093736082315445,0.05314761400222778,-0.2443162202835083,-0.030609373397777518,-0.09064771507359345,0.2690139717768744,0.9583723834658322,0.5482335381209367,0.18534726735613982,-3.12999313043723
1784373731360181760,2.1045658588409424,-0.4522880017757416,-0.08606554567813873,0.690864622592926,0.15168631076812744,-0.5164006948471069,-0.8428057432174683,0.44261300563812256,0.0011419057846069336,-0.12295353412628174,-0.03321748275294737,-0.08827279334208903,0.2660921513767999,0.9593223620126393,0.5426425153833869,0.17807141126596893,-3.1220255570541253
1784373731370101760,2.114485740661621,0.0781572237610817,-0.07107514888048172,0.2585611939430237,0.14835196733474731,-0.5153903961181641,-0.8440168499946594,0.02179877460002899,0.09401893615722656,-0.19266527891159058,-0.03528001081911707,-0.08705790820691625,0.26535354474555695,0.9595643258617292,0.5414631513011924,0.17399169426104702,-3.1164957957999153
1784373731380020736,2.1244046688079834,0.11806496232748032,0.16060064733028412,0.3911532163619995,0.1467992514371872,-0.5169148445129395,-0.8433558344841003,0.1136530190706253,0.20856523513793945,-0.17680102586746216,-0.036875201549590494,-0.08673886093710337,0.26607980049459284,0.9593321154247987,0.5432429874797711,0.17233891223670286,-3.1128607150037633
1784373731389940736,2.134324789047241,0.5531493425369263,-0.03931698575615883,0.3959048092365265,0.14572729170322418,-0.520100474357605,-0.8415812849998474,0.216852068901062,0.26262366771698,-0.09663587808609009,-0.038666944685034184,-0.08679164211523917,0.2677247933336978,0.9587990419117884,0.546968597039331,0.17145871371840357,-3.109184523005197
1784373731399860736,2.14424467086792,0.25366947054862976,0.09165853261947632,0.5149648785591125,0.1432279795408249,-0.5244022607803345,-0.8393378853797913,0.2649751603603363,0.04036295413970947,-0.20892566442489624,-0.04090944426681975,-0.08627163443665346,0.2699782631356342,0.9581208407800028,0.5520129407505635,0.16901600901362432,-3.1042257301297553
1784373731409779712,2.1541638374328613,-0.010958198457956314,-0.1283891499042511,0.3738213777542114,0.14058735966682434,-0.525888204574585,-0.8388544321060181,0.27458903193473816,-0.20178818702697754,-0.07372796535491943,-0.04289353623040925,-0.08550264919265244,0.27066966557827776,0.957907872332548,0.5537590712711719,0.16605126312313728,-3.0993838971105525
1784373731419699712,2.16408371925354,-0.41256535053253174,-0.09467508643865585,0.573208212852478,0.13717031478881836,-0.5249003767967224,-0.8400380611419678,0.23010875284671783,-0.3480549454689026,-0.07666420936584473,-0.04516387740378226,-0.0843086338276426,0.2699500305254696,0.9581124021816289,0.5525980385984275,0.16186206207285753,-3.093374201399795
1784373731429619712,2.174003839492798,-0.6085748076438904,-0.06090274825692177,0.3601779639720917,0.13461583852767944,-0.520776629447937,-0.8430126309394836,0.14304834604263306,-0.1741238832473755,0.011484920978546143,-0.047331895233366804,-0.08340518454227475,0.2674645069007741,0.9587836160240172,0.5477604226356144,0.1583473853853552,-3.087511456536027
1784373731439538688,2.18392276763916,-0.5332654714584351,-0.10085784643888474,0.3164686858654022,0.1322370320558548,-0.5164669156074524,-0.8460350632667542,0.2035326212644577,-0.05694311857223511,-0.09508126974105835,-0.04904755892324304,-0.08245288738819302,0.26492261551454616,0.9594852077988902,0.542719804744464,0.1550475769044666,-3.082661990758603
1784373731449458688,2.193842649459839,-0.48159268498420715,-0.08474519103765488,0.2875046730041504,0.12985220551490784,-0.5127463936805725,-0.8486633896827698,0.21147164702415466,-0.07340472936630249,-0.08958429098129272,-0.050801075926571085,-0.08152722197098265,0.2627196509699599,0.9600786575085846,0.5383806653707828,0.1518303600840707,-3.0778268128259176
1784373731459378688,2.2037627696990967,-0.3057594299316406,-0.06850188970565796,0.34861430525779724,0.1280534267425537,-0.5101023316383362,-0.8505280017852783,0.1434919834136963,0.003251194953918457,-0.06039118766784668,-0.052279312560615764,-0.08087484146066189,0.2611422031843368,0.9604847339585895,0.5353037951462892,0.14943520324618545,-3.073890251377835
1784373731469297664,2.213681697845459,-0.21570782363414764,-0.1920672357082367,0.336858332157135,0.12566564977169037,-0.5085867047309875,-0.8517909049987793,0.22046473622322083,0.00046902894973754883,-0.0805974006652832,-0.05384602156418977,-0.07998511950408996,0.2602055399827323,0.9607268885993874,0.5335425252852073,0.14647449736680776,-3.069711128602612
1784373731479217664,2.223601818084717,-0.1369706690311432,-0.35751157999038696,0.28613656759262085,0.12247896939516068,-0.507423996925354,-0.8529477119445801,0.19618558883666992,-0.07106715440750122,-0.06875944137573242,-0.054905464196484885,-0.07855521127748344,0.25952885402037584,0.9609679179267443,0.5321927280756351,0.14262001716395806,-3.0663792052747487
1784373731489137664,2.2335216999053955,-0.4079611599445343,-0.3630530834197998,0.1973523646593094,0.11857200413942337,-0.5051969289779663,-0.8548197150230408,0.21992895007133484,-0.08045065402984619,-0.07337242364883423,-0.055771888998333054,-0.07664976787163183,0.2582924050613599,0.9614048374954159,0.5296101530810028,0.13783047571696613,-3.06313174085257
1784373731499056640,2.243440628051758,-0.5162503123283386,-0.38091224431991577,0.24306870996952057,0.1144295483827591,-0.5018584132194519,-0.8573470711708069,0.1709098070859909,-0.1098816990852356,-0.052229344844818115,-0.05653284538392429,-0.0745443396644491,0.2564558524923393,0.9620174210049002,0.5257460070313085,0.13268516151375404,-3.0599521611038916
1784373731508976640,2.2533607482910156,-0.49601617455482483,-0.471708208322525,0.2625340223312378,0.10976926982402802,-0.49780258536338806,-0.8603157997131348,0.21527345478534698,-0.08581557869911194,-0.016072750091552734,-0.05728551826147888,-0.07213646229266733,0.2542408787037909,0.9627441367595787,0.5210632664861301,0.12690613353961452,-3.056602401712317
1784373731518895616,2.263279676437378,-0.47362592816352844,-0.3860047459602356,0.2928144335746765,0.104547880589962,-0.49370789527893066,-0.8633204698562622,0.2056632936000824,-0.07677245140075684,-0.03539168834686279,-0.058296199815244615,-0.06950460657911382,0.2520096632438193,0.9634634268394826,0.5163483916393662,0.12051290856577564,-3.052585595953956
1784373731528815872,2.2731997966766357,-0.63381028175354,-0.39873331785202026,0.3686197102069855,0.0997869223356247,-0.48939618468284607,-0.8663336038589478,0.1679132729768753,-0.09117022156715393,-0.07842957973480225,-0.059583239600375704,-0.06717501843133088,0.24964115678555746,0.9641663006781178,0.5113972264846202,0.11467765154792271,-3.04816406213524
1784373731538735616,2.2831196784973145,-0.38968414068222046,-0.5336745381355286,0.29842638969421387,0.09450648725032806,-0.4852920174598694,-0.8692296743392944,0.23773837089538574,-0.006727635860443115,-0.09202826023101807,-0.06055815792286637,-0.06450441595474135,0.24743555468764752,0.9648562159706293,0.5066971019536216,0.1082990234779665,-3.0442947536595257
1784373731548654848,2.293038845062256,-0.47078007459640503,-0.4627164900302887,0.3677617907524109,0.08860890567302704,-0.4818907380104065,-0.8717395067214966,0.25756722688674927,-0.0746888518333435,-0.14104735851287842,-0.06175503082309623,-0.06160308327012897,0.24563246775202652,0.9654304874253574,0.5028112521665297,0.10129817337344924,-3.039872275757616
1784373731558574592,2.3029587268829346,-0.15594960749149323,-0.4598705768585205,0.2738351821899414,0.08331338316202164,-0.4793713390827179,-0.8736486434936523,0.20773276686668396,0.0071728527545928955,-0.12452030181884766,-0.06284258531155924,-0.05902576847012215,0.24431869682649116,0.9658545807206257,0.4999382292453284,0.09507505912880254,-3.035937976154202
1784373731568494848,2.3128788471221924,-0.05297635495662689,-0.26321983337402344,0.278500497341156,0.0790092721581459,-0.4790021479129791,-0.8742507696151733,0.1619422435760498,0.032896220684051514,-0.19410854578018188,-0.06376380853174708,-0.05701586044670325,0.2441798438751244,0.9659500342914193,0.4995176192947835,0.09012885050272636,-3.0327659958660567
1784373731578413824,2.3227977752685547,-0.09956642985343933,-0.3064652383327484,0.28696393966674805,0.07535829395055771,-0.4786060154438019,-0.8747899532318115,0.11058531701564789,-0.09033319354057312,-0.13462471961975098,-0.06472354346273113,-0.055352934689327615,0.2440104156044087,0.9660258498728891,0.4990663950626057,0.08593230029048861,-3.029705025131076
1784373731588333568,2.3327176570892334,-0.22952468693256378,-0.6309512257575989,0.1567380279302597,0.0699973851442337,-0.47728776931762695,-0.875954806804657,0.24178546667099,-0.11366987228393555,-0.12319070100784302,-0.06520854763682221,-0.0526459013603045,0.24341532300566254,0.9662946405011218,0.4975656415251707,0.07974037464140216,-3.0270985552525627
1784373731598253824,2.342637777328491,-0.26873186230659485,-0.5102502107620239,0.10966845601797104,0.06436338275671005,-0.47491222620010376,-0.8776763081550598,0.23913392424583435,-0.07937854528427124,-0.07076424360275269,-0.065246271095503,-0.04964047078824307,0.24227600887596484,0.9667373317479634,0.49486430093138395,0.07320280932286488,-3.0253140090171327
1784373731608172544,2.3525567054748535,-0.2579133212566376,-0.42686185240745544,0.10613950341939926,0.06015283241868019,-0.47302278876304626,-0.878994345664978,0.05328100547194481,-0.07279935479164124,-0.09144937992095947,-0.06525801459507503,-0.047387566533256986,0.24136536521500088,0.9670773133314584,0.49271850770601083,0.0683271655159715,-3.0240260055205073
1784373731618092800,2.3624768257141113,-0.39383432269096375,-0.40238383412361145,0.2905217409133911,0.055440496653318405,-0.47043266892433167,-0.8806926012039185,0.181330144405365,-0.061458200216293335,-0.03321731090545654,-0.06598726146908306,-0.045025646231344224,0.2400549706347291,0.967466820879943,0.4897810348391995,0.06286806200935646,-3.0211071333193353
1784373731628012544,2.37239670753479,-0.3694978356361389,-0.3295338749885559,0.3087462782859802,0.050850797444581985,-0.4671986401081085,-0.8826888799667358,0.1773138791322708,-0.12824508547782898,-0.00819551944732666,-0.06703349956638507,-0.0427776392351818,0.23838129766786695,0.9679106225948474,0.48611971433080214,0.0575453675532264,-3.017574493492153
1784373731637932288,2.3823163509368896,-0.37265294790267944,-0.42648953199386597,0.31387802958488464,0.046113520860672,-0.4642084240913391,-0.8845247626304626,0.142668217420578,-0.061166912317276,-0.020977497100830078,-0.06815219706788607,-0.040481741941953565,0.23685193392791212,0.9683066366885245,0.4827407149111447,0.05208651114947013,-3.013883519589649
1784373731647852288,2.3922362327575684,-0.3060627281665802,-0.4993475079536438,0.24926204979419708,0.04168935865163803,-0.4614037871360779,-0.8862102031707764,0.17965464293956757,-0.03380492329597473,-0.0012561678886413574,-0.0688304798047547,-0.03824751722158414,0.23544004570515142,0.9686937309529445,0.47957682767576026,0.047007634050942534,-3.0112162136459553
1784373731657772288,2.402156352996826,-0.36277276277542114,-0.5040655732154846,0.28841203451156616,0.036072924733161926,-0.458620548248291,-0.8878997564315796,0.24551278352737427,-0.07735967636108398,0.02515256404876709,-0.06960637721766641,-0.035425743311273857,0.23408362282382875,0.9690742467337201,0.47644223054872403,0.04060491943744361,-3.008044997442866
1784373731667691264,2.4120752811431885,-0.2011745423078537,-0.5012884140014648,0.35046741366386414,0.030308779329061508,-0.4562535583972931,-0.8893334865570068,0.2311811000108719,-0.07842966914176941,0.043187856674194336,-0.07047604070916057,-0.03257005833360872,0.23296445404775143,0.9693812059343313,0.47378042068536985,0.0340671455497622,-3.0046691975996485
1784373731677611008,2.421995162963867,-0.1497138887643814,-0.4265444576740265,0.2860364317893982,0.025079380720853806,-0.4546359181404114,-0.8903242349624634,0.1600402593612671,-0.03919953107833862,0.04591810703277588,-0.07169267484626318,-0.030105794714651572,0.2322316278091781,0.9695474720194199,0.47196338734282184,0.02816137119123961,-3.000744535499082
1784373731687530240,2.4319143295288086,-0.1640952229499817,-0.5942838788032532,0.35913220047950745,0.019595660269260406,-0.4534411132335663,-0.8910708427429199,0.1516995131969452,-0.022984057664871216,0.03509855270385742,-0.0725653338390393,-0.02744768787847382,0.23175680365467746,0.9696751257762899,0.4706224078637693,0.021987593352873962,-2.9974735521018596
1784373731697450240,2.4418342113494873,-0.26282164454460144,-0.5724995732307434,0.33793577551841736,0.012840821407735348,-0.4516586661338806,-0.8920984268188477,0.26676124334335327,-0.08697658777236938,0.058327674865722656,-0.07361923059405609,-0.024155490000612487,0.2310136443690017,0.9698605780158516,0.46862356447851194,0.014392957698281621,-2.993504797809777
1784373731707370240,2.451754331588745,-0.2251640409231186,-0.2654903531074524,0.4819638133049011,0.007499432656913996,-0.44964122772216797,-0.8931777477264404,0.13564327359199524,-0.10051441192626953,0.04669642448425293,-0.07504528413375974,-0.021666282296296413,0.23009060537852202,0.9700294197988376,0.4663636204207687,0.00839615224757712,-2.9891665016585542
1784373731717289216,2.4616732597351074,-0.20787972211837769,-0.41581442952156067,0.37481755018234253,0.002912115305662155,-0.44788089394569397,-0.8940885066986084,0.07893604040145874,-0.08158382773399353,0.0024259090423583984,-0.07700652888000085,-0.01970067524363951,0.22927632831178243,0.9701104981845079,0.4643938256597737,0.0032570657893717945,-2.983936779386095
1784373731727209216,2.471593141555786,-0.3299829959869385,-0.7124117612838745,0.4329516887664795,-0.003705809358507395,-0.44575193524360657,-0.8951488733291626,0.26452428102493286,-0.09637758135795593,-0.008308768272399902,-0.07821499429807091,-0.0164993817890284,0.22837105034386937,0.9702870042918162,0.46201407552845064,-0.00413985685210745,-2.979746458209705
1784373731737129216,2.481513261795044,-0.4325098991394043,-0.6752063632011414,0.38308602571487427,-0.011685128323733807,-0.4418624937534332,-0.8970066905021667,0.2976043224334717,-0.11570891737937927,0.028308570384979248,-0.07925682218324699,-0.012481812099559876,0.22658520632191012,0.9706811118950407,0.45767378569641143,-0.01302606484709656,-2.97561864081415
1784373731747048192,2.4914321899414062,-0.5333203673362732,-0.5642274022102356,0.4356522858142853,-0.018670715391635895,-0.4376569390296936,-0.8989481329917908,0.1168305054306984,-0.12432423233985901,-0.028007984161376953,-0.08049540544659786,-0.009004265627559599,0.224599297900037,0.9710790406054038,0.45299113759115256,-0.020766527755675654,-2.9713995065467373
1784373731756968192,2.501352310180664,-0.4644380509853363,-0.41883790493011475,0.418416827917099,-0.02464575320482254,-0.4329611659049988,-0.9010756015777588,0.10763829946517944,-0.07816249132156372,-0.011384725570678711,-0.08220021142051125,-0.0061262942343644185,0.22231661629915378,0.9714838363431912,0.44777522148175397,-0.02734466617793883,-2.9665417761112214
1784373731766888192,2.5112721920013428,-0.34145355224609375,-0.4616761803627014,0.40274545550346375,-0.030276846140623093,-0.4291430115699768,-0.9027289748191833,0.1426730751991272,-0.024210870265960693,-0.06284719705581665,-0.08360819663235727,-0.0033936330088792242,0.2205085060259598,0.9717891020143652,0.44354374959146725,-0.03352667540352139,-2.962384368722455
1784373731776807424,2.521191358566284,-0.2413017302751541,-0.3391730785369873,0.32837143540382385,-0.03546231985092163,-0.4264579713344574,-0.9038119316101074,0.14938443899154663,-0.0314277708530426,-0.07592439651489258,-0.08512520438338762,-0.0009639689760495223,0.21930140025214187,0.9719360396517064,0.440573184849755,-0.03921627733554649,-2.9580898317594837
1784373731786727168,2.531111240386963,-0.12558338046073914,-0.38611239194869995,0.3850483000278473,-0.039785709232091904,-0.42457297444343567,-0.9045191407203674,0.1125091016292572,-0.011645287275314331,-0.03810781240463257,-0.08620985851585775,0.0010870044104087432,0.21849312212220492,0.9720223578910033,0.4384901916536498,-0.043957144746052876,-2.95487678874539
1784373731796647424,2.5410313606262207,-0.3510115146636963,-0.5007637143135071,0.3338525891304016,-0.04537997022271156,-0.4225134253501892,-0.9052199125289917,0.28286778926849365,-0.08687072992324829,-0.0136948823928833,-0.08753400409285643,0.0037417546581700405,0.21766038473241178,0.9720842857038284,0.4362166335212347,-0.05008950057978719,-2.9508778515072795
1784373731806566144,2.550950288772583,-0.3345281481742859,-0.4013412296772003,0.4858628809452057,-0.05131710693240166,-0.41945451498031616,-0.9063246846199036,0.21866023540496826,-0.11026957631111145,0.04969632625579834,-0.08907098933948285,0.006573242185719933,0.21632024634108862,0.9722286705729464,0.43284434041984643,-0.05656071350414776,-2.946433250304459
1784373731816486144,2.5608701705932617,-0.4169740378856659,-0.2993009090423584,0.5669095516204834,-0.05644981935620308,-0.4157229959964752,-0.9077377319335938,0.14693443477153778,-0.12639126181602478,0.02707672119140625,-0.09118006999761498,0.008903716229105284,0.21459696410846305,0.9723965453086071,0.4287376197140613,-0.0621073859200887,-2.9410768130644294
1784373731826406144,2.5707902908325195,-0.5722874402999878,-0.4835365414619446,0.35150906443595886,-0.061737388372421265,-0.411258339881897,-0.909425675868988,0.18299898505210876,-0.15145528316497803,-0.013090193271636963,-0.0930826375835417,0.011400220055601836,0.21250222879072517,0.9726502079279022,0.42383412989125524,-0.06778213139460591,-2.9361852627571903
1784373731836325120,2.580709218978882,-0.5686249732971191,-0.6119083762168884,0.44864049553871155,-0.06826867163181305,-0.40573111176490784,-0.9114392995834351,0.27951136231422424,-0.13612371683120728,-0.025541841983795166,-0.09435191384661602,0.01472555888254658,0.20991306502232246,0.9730454095650747,0.4177786070506378,-0.07476244469562325,-2.9324105695713465
1784373731846245376,2.5906293392181396,-0.6431665420532227,-0.6261139512062073,0.40314143896102905,-0.07567890733480453,-0.3999612331390381,-0.913402259349823,0.28002461791038513,-0.16571259498596191,-0.07327675819396973,-0.09582132322135509,0.018470501108182196,0.20726238937764416,0.9734061343017476,0.4114745413706562,-0.08266505284727574,-2.928085757205859
1784373731856165120,2.6005492210388184,-0.7469600439071655,-0.6123273372650146,0.4843854308128357,-0.08278864622116089,-0.3934049606323242,-0.9156301617622375,0.2092840075492859,-0.13799762725830078,-0.04448336362838745,-0.09702262753383746,0.022162574809944827,0.20419045680867065,0.9738591965511569,0.40433227609854716,-0.09017192966759688,-2.9244998874680728
1784373731866084096,2.6104681491851807,-1.0903126001358032,-0.6010856032371521,0.4529673159122467,-0.08980240672826767,-0.3848697245121002,-0.9185917973518372,0.26024308800697327,-0.19415554404258728,0.002942323684692383,-0.09863795205402995,0.025824058132987545,0.20009306122495923,0.9744570259811929,0.39506665935138496,-0.09745128904471498,-2.920313832530978
1784373731876004096,2.6203882694244385,-1.4784444570541382,-0.671079158782959,0.42892882227897644,-0.09722261875867844,-0.37278008460998535,-0.9228124022483826,0.20560580492019653,-0.22528815269470215,0.08551692962646484,-0.09994290277465309,0.029943035360709462,0.19415766927371594,0.9754064023273178,0.38200325889203446,-0.10496746861512159,-2.917065324262304
1784373731885924096,2.630308151245117,-1.7753647565841675,-0.766933262348175,0.3598701059818268,-0.10525257885456085,-0.3574559986591339,-0.9279801249504089,0.17292530834674835,-0.2324945628643036,0.061235129833221436,-0.10085449654369993,0.0346178058538555,0.18657851750833107,0.9766363101875358,0.36554248176655024,-0.1129385106296007,-2.9148914437806233
1784373731895843328,2.6402273178100586,-1.757929801940918,-0.6537071466445923,0.39823660254478455,-0.11317448318004608,-0.34067678451538086,-0.9333439469337463,0.09938054531812668,-0.12094733119010925,0.008707106113433838,-0.10175104578385011,0.03931574591130938,0.17827594469793026,0.9779154861673935,0.3476366418430461,-0.12066789471498694,-2.9130278963696914
1784373731905763072,2.6501471996307373,-1.6131941080093384,-0.5099198818206787,0.25402137637138367,-0.11951792240142822,-0.3243587017059326,-0.9383533000946045,0.03387033939361572,-0.018582582473754883,-0.04301571846008301,-0.10250349758509698,0.043219214190122375,0.17016302466455083,0.979116748295836,0.3303336882314398,-0.12668770658398498,-2.9118285669480537
1784373731915683328,2.660067319869995,-1.4088820219039917,-0.4659028947353363,0.2199116051197052,-0.12463293224573135,-0.31020867824554443,-0.9424633979797363,0.10147009044885635,0.005292296409606934,-0.12928342819213867,-0.10289060655263822,0.04645560278776925,0.1631263047839234,0.9801251159755974,0.3154125401071933,-0.13147878941436053,-2.911466755338628
1784373731925602304,2.6699862480163574,-1.2438507080078125,-0.44465965032577515,0.3146410286426544,-0.1298968642950058,-0.2975262403488159,-0.9458355903625488,0.1685931533575058,-0.07280457019805908,-0.10053586959838867,-0.10356053038924302,0.049647425015069344,0.15689915641252405,0.9809143558482158,0.30210050524556636,-0.13648177545464948,-2.9104155383187997
1784373731935522048,2.679906129837036,-1.2224018573760986,-0.40861421823501587,0.27332618832588196,-0.13475079834461212,-0.2856135666370392,-0.9488240480422974,0.14543196558952332,-0.09651225805282593,-0.06617528200149536,-0.10431171473760047,0.052584548319875114,0.1510722638080303,0.9815962045748987,0.2896465883792723,-0.14107532413402357,-2.9092439328180304
1784373731945442304,2.689826250076294,-1.1858640909194946,-0.3743313252925873,0.295364111661911,-0.13924789428710938,-0.2738226056098938,-0.9516465663909912,0.14445115625858307,-0.0248834490776062,-0.03143143653869629,-0.10509286441614257,0.05533628487738663,0.14530865264062143,0.9822315883384308,0.27736530046544033,-0.14529205384268773,-2.908101006741056
1784373731955361024,2.6997451782226562,-1.0608537197113037,-0.31566789746284485,0.25582993030548096,-0.14313162863254547,-0.26284724473953247,-0.9541617631912231,0.12323418259620667,0.005523025989532471,-0.041535258293151855,-0.10587643891156538,0.05774272519830251,0.13994604220270773,0.9827874694704725,0.2659720320620715,-0.1488974974320449,-2.90700389799403
1784373731965281280,2.709665298461914,-1.1263384819030762,-0.26777544617652893,0.23165161907672882,-0.14626190066337585,-0.25246942043304443,-0.9564866423606873,0.10742828249931335,-0.019884705543518066,-0.043437063694000244,-0.1064982852789357,0.05976705346879507,0.13485024598563553,0.9833114645019303,0.2552314921350435,-0.15174033921539726,-2.9063151124551316
1784373731975200256,2.7195842266082764,-1.0166120529174805,-0.2153616100549698,0.20071054995059967,-0.14897781610488892,-0.24189995229244232,-0.9587961435317993,0.13100296258926392,-0.021008983254432678,0.013544678688049316,-0.10711928668552176,0.06159744900724541,0.12964445622909884,0.9838311061759486,0.24432347581084482,-0.15414743691466412,-2.9057254612765795
1784373731985120256,2.729504346847534,-0.9884248971939087,-0.1548045128583908,0.01897323690354824,-0.15094709396362305,-0.23234166204929352,-0.9608498215675354,0.09746503829956055,0.009746447205543518,-0.0181388258934021,-0.10713903703964318,0.0630808171785783,0.12488359875767184,0.9843506129112196,0.23448453545956294,-0.15582393551159385,-2.9063714711119353
1784373731995040256,2.739424228668213,-0.8414854407310486,-0.09335792809724808,0.0035565318539738655,-0.15203605592250824,-0.2237585037946701,-0.9627134203910828,0.07815301418304443,0.0619543194770813,0.03204941749572754,-0.10681653740297954,0.06411173025518356,0.12055275280787389,0.9848588201361673,0.22566904956641132,-0.1566309390311073,-2.9077351080599847
1784373732004959232,2.749343156814575,-0.9210175275802612,-0.040618814527988434,-0.1966117024421692,-0.1522914171218872,-0.21539480984210968,-0.9645788669586182,0.06440079212188721,-0.00446908175945282,0.09884095191955566,-0.10603868580201695,0.06476210143863005,0.11626019659195318,0.9854162821324823,0.21709610694575937,-0.15659124394702092,-2.91010231956081
1784373732014879232,2.759263277053833,-0.8912761211395264,0.011572103016078472,-0.20086705684661865,-0.15205298364162445,-0.20698633790016174,-0.9664556384086609,0.10194313526153564,0.002259179949760437,0.17237305641174316,-0.1046796818404543,0.06522531477764897,0.11188310568656187,0.9860374669470833,0.20849357929400603,-0.15605134958119762,-2.9137010984832536
1784373732024799232,2.7691831588745117,-1.0677486658096313,0.1777312457561493,-0.31664586067199707,-0.15049345791339874,-0.1980724334716797,-0.9685654640197754,0.07761748135089874,-0.08894538879394531,0.2187180519104004,-0.10321109990731661,0.0650487276298305,0.10717246701940969,0.9867270307753728,0.1993910055383939,-0.15414509762077327,-2.917702769797559
1784373732034718208,2.779102325439453,-1.0590765476226807,0.28412067890167236,-0.43882226943969727,-0.1473732739686966,-0.1881423145532608,-0.9710219502449036,0.0886269360780716,-0.00851297378540039,0.31120139360427856,-0.10108704528966173,0.06419132824352235,0.10182586693215863,0.987568960801085,0.18927033207009708,-0.15062183639653723,-2.9232605561647538
1784373732044638208,2.789022207260132,-0.6113892197608948,0.419501930475235,-0.26284778118133545,-0.14334900677204132,-0.18062646687030792,-0.9730494022369385,0.19474060833454132,0.09511621296405792,0.280559778213501,-0.0992537764861743,0.06271477921113415,0.09768395095537946,0.9882678886283344,0.18162335720125206,-0.14626726083525474,-2.9280568259240844
1784373732054558208,2.7989423274993896,-0.08369678258895874,0.5857542157173157,-0.3492884635925293,-0.1376001387834549,-0.17744973301887512,-0.9744628071784973,0.1070978194475174,0.09416727721691132,0.2702544927597046,-0.09792790690559022,0.06010540892186318,0.09568661812669332,0.9887575345370119,0.17839445240034152,-0.140278697832915,-2.93158756708408
1784373732064477184,2.808861255645752,0.5383451581001282,0.7245627045631409,-0.11759426444768906,-0.13088978826999664,-0.18018876016139984,-0.974884569644928,0.14146414399147034,0.24400103092193604,0.21644645929336548,-0.09710292177984262,0.05668484859641491,0.0966672515636994,0.9889454872600091,0.1811783443880335,-0.13346371264884327,-2.933701966683888
1784373732074397184,2.8187811374664307,0.8297090530395508,0.9999330043792725,-0.15290287137031555,-0.12225303798913956,-0.18730555474758148,-0.9746644496917725,0.08038293570280075,0.2595406770706177,0.26980000734329224,-0.09710636794399254,0.05201197266181922,0.09981242638010758,0.9888895898732661,0.18841843028654062,-0.1247792423380285,-2.9340200915639536
1784373732084317184,2.8287012577056885,0.8671965003013611,1.3407232761383057,-0.14736856520175934,-0.11050944775342941,-0.195893332362175,-0.9743785262107849,-0.11039204895496368,0.169526144862175,0.3906688094139099,-0.0970994030328106,0.045711905287989824,0.1035430916254391,0.9888179229628166,0.19716834967033026,-0.1129327484133944,-2.934644002083194
1784373732094236160,2.838620185852051,0.7463406324386597,1.5250571966171265,-0.22493062913417816,-0.09568357467651367,-0.20409518480300903,-0.9742637276649475,-0.10921143740415573,0.06452304124832153,0.48331218957901,-0.09712765834977158,0.03788111245560985,0.10692593945796895,0.9887862106145334,0.20553934456213682,-0.09789721644290324,-2.935658134806712
1784373732104156160,2.8485403060913086,0.5125129222869873,1.5604244470596313,-0.24018308520317078,-0.07960311323404312,-0.21054118871688843,-0.9743386507034302,-0.03422745317220688,-0.03486591577529907,0.5558358430862427,-0.09685558109878067,0.029540017596452327,0.10935298636143394,0.9888318074086012,0.21212852690032238,-0.08151858467540021,-2.9376330394132357
1784373732114076160,2.8584601879119873,0.14847880601882935,1.5154755115509033,-0.3312644064426422,-0.062148403376340866,-0.21460923552513123,-0.9747207164764404,-0.006210971623659134,-0.13434401154518127,0.5822799205780029,-0.0961961777775579,0.0206711410069982,0.1105095062263966,0.9889927806723047,0.2162917284861443,-0.06367402320324932,-2.940753700760661
1784373732123995392,2.8683793544769287,0.12249806523323059,1.4239530563354492,-0.3310558795928955,-0.04671293497085571,-0.21602393686771393,-0.9752699732780457,0.013906538486480713,-0.016413196921348572,0.5762831568717957,-0.09532570796647416,0.012968627733701266,0.11043920912544268,0.9892158308350081,0.21774041108154615,-0.04786086152252441,-2.944223777150279
1784373732133915136,2.8782992362976074,0.12028804421424866,1.5175851583480835,-0.29732009768486023,-0.03176046907901764,-0.21750953793525696,-0.9755412936210632,0.07958151400089264,0.08211830258369446,0.5085155963897705,-0.0946287325469043,0.005486906550456929,0.11045013507607346,0.9893513596148675,0.21926219792821142,-0.03254526942956027,-2.9472956872396106
1784373732143835392,2.8882193565368652,0.32481080293655396,1.4752278327941895,-0.32900187373161316,-0.016375014558434486,-0.21966803073883057,-0.9754372239112854,0.0023827049881219864,0.11873115599155426,0.4772073030471802,-0.09384744828957146,-0.0022343680401405034,0.11079885719774848,0.9893994142358794,0.22147417422338267,-0.016785782312773972,-2.950586142365754
1784373732153754112,2.8981382846832275,0.20636214315891266,1.4053411483764648,-0.32511234283447266,-0.001604850753210485,-0.22250233590602875,-0.9749308228492737,0.0704677626490593,0.07348500192165375,0.4130411744117737,-0.09305560169680863,-0.009680002974837336,0.11153869208899089,0.9893462612881812,0.22438039600076015,-0.0016461160083845153,-2.9538436687378855
1784373732163674112,2.9080581665039062,0.3099875748157501,1.3435025215148926,-0.22956104576587677,0.012319413013756275,-0.22489221394062042,-0.9743057489395142,0.1026860773563385,0.09009608626365662,0.44677895307540894,-0.09232975390777401,-0.016690068712475168,0.11210958427427047,0.9892563671217859,0.22683242124232272,0.012643624613494768,-2.956907083006855
1784373732173594112,2.917978286743164,0.35850977897644043,1.3286736011505127,-0.26377496123313904,0.02609824761748314,-0.22804853320121765,-0.9732999205589294,0.05442238599061966,0.07359908521175385,0.3718900680541992,-0.09202068507432108,-0.0237151749345691,0.11308238319828424,0.9890309464480576,0.23007292366470689,0.026807764061520523,-2.959142053456648
1784373732183513088,2.9278972148895264,0.26457902789115906,1.1921367645263672,-0.1796206831932068,0.038834672421216965,-0.2311832457780838,-0.9721348285675049,0.03759659454226494,0.049512118101119995,0.35465747117996216,-0.09150380556432385,-0.030197360131184313,0.11410825275790656,0.9887843160691685,0.23329370197503865,0.039926595844088746,-2.961714010206202
1784373732193433344,2.937817335128784,0.26897579431533813,1.1586545705795288,-0.20401902496814728,0.05057939514517784,-0.23378969728946686,-0.9709706902503967,0.16719403862953186,-0.006490454077720642,0.33083397150039673,-0.09129510333825616,-0.036196406901585876,0.11491070414748994,0.9885092271582085,0.2359735764937825,0.052044536376052844,-2.963573048831478
1784373732203353088,2.947737216949463,0.33363068103790283,1.3458892107009888,-0.14181451499462128,0.06307852268218994,-0.23630614578723907,-0.9696290493011475,0.06106697767972946,-0.028555914759635925,0.27979445457458496,-0.09108692034859632,-0.04257548743577036,0.1156408303285401,0.9881890330060449,0.23856255936979656,0.06496274672262858,-2.965549382967041
1784373732213272064,2.957656145095825,0.42421236634254456,1.3061435222625732,-0.16405077278614044,0.07615867257118225,-0.24013057351112366,-0.9677485227584839,0.057813502848148346,0.014483600854873657,0.2069758176803589,-0.09106724179972465,-0.049341207580821035,0.11700936233496025,0.9877151177442015,0.2425003518346417,0.07853490139695435,-2.967286889949317
1784373732223192320,2.967576265335083,0.5046898722648621,1.2104713916778564,-0.16336527466773987,0.08868627995252609,-0.24405956268310547,-0.9656964540481567,0.08355493098497391,0.006373420357704163,0.2114240527153015,-0.09076320445605786,-0.05580963574312933,0.11847804709297195,0.9872235625462299,0.2465498108387968,0.09157971619864706,-2.9695872770251954
1784373732233112064,2.9774961471557617,0.6606115698814392,1.338143229484558,-0.09692686796188354,0.10110081732273102,-0.24971191585063934,-0.963027834892273,0.10849390923976898,-0.005231931805610657,0.11537158489227295,-0.09072334985901184,-0.06235053320606092,0.12082425662912354,0.986551157461247,0.2523827377150103,0.10459909236213698,-2.971470208567093
1784373732243031296,2.987415313720703,0.8712093234062195,1.4295623302459717,-0.12564505636692047,0.11485429108142853,-0.25701361894607544,-0.9595584869384766,0.023954913020133972,0.10215216875076294,0.08699989318847656,-0.09084608555517422,-0.06968712498895091,0.12395345990548268,0.985660313112932,0.2599307380708944,0.11912818350681127,-2.9733649253248813
1784373732252951040,2.997335195541382,0.7010151147842407,1.4529908895492554,-0.10587538778781891,0.12869815528392792,-0.2649264335632324,-0.9556415677070618,0.05353756248950958,0.09924650192260742,0.04005318880081177,-0.09083455585554714,-0.0771048001896164,0.12741301421443316,0.9846673445910965,0.2681276246324011,0.13386657464515192,-2.975696862622222
1784373732262871296,3.0072553157806396,0.5188221335411072,1.2956846952438354,-0.12795591354370117,0.14203348755836487,-0.2705259621143341,-0.9521775841712952,0.10167987644672394,-0.036038339138031006,0.14184439182281494,-0.09093525425830937,-0.08417768717515409,0.12971242607673242,0.9837782187279738,0.27393931842065655,0.14807518682074772,-2.9776933322649706
1784373732272790272,3.017174243927002,0.2031283974647522,1.119663953781128,-0.15370270609855652,0.1537742018699646,-0.27370694279670715,-0.9494408965110779,0.1127968430519104,-0.09204623103141785,0.09386533498764038,-0.0909534933074278,-0.09031670303874254,0.13085277135702988,0.9830808450079018,0.2772450519403441,0.16056858632549775,-2.9795296682359886
1784373732282710016,3.0270941257476807,-0.18534903228282928,1.165856957435608,-0.2567334771156311,0.16504669189453125,-0.27339431643486023,-0.947636604309082,0.09050750732421875,-0.12595871090888977,0.06592273712158203,-0.09063699149982149,-0.09599478822137235,0.13025628613396067,0.9826510747452575,0.27692002603876764,0.1724369606660432,-2.9817266549722725
1784373732292630272,3.0370142459869385,-0.35070177912712097,1.0503257513046265,-0.31338146328926086,0.17650356888771057,-0.27016788721084595,-0.9464966058731079,-0.017064467072486877,-0.10800594091415405,0.00454103946685791,-0.08999374953088937,-0.10157431893936927,0.12819654681983728,0.9824202793750161,0.273567393645863,0.18436330680977786,-2.9843414166167617
1784373732302549248,3.046933174133301,-0.4207729995250702,0.9272869229316711,-0.2567288279533386,0.18663987517356873,-0.2663387954235077,-0.9456369280815125,0.09927931427955627,-0.01570466160774231,-0.10407620668411255,-0.08953463043811258,-0.10648046789735224,0.12587075900517586,0.9822433164733966,0.26959262897405634,0.19486494312662841,-2.986298371146763
1784373732312469248,3.0568532943725586,-0.41154882311820984,0.8575788736343384,-0.32847315073013306,0.19566652178764343,-0.26189854741096497,-0.9450522661209106,0.010479718446731567,0.043606311082839966,-0.16882407665252686,-0.08890593329105344,-0.11077261375567163,0.12330165364158648,0.9821516720425109,0.26498887947438815,0.20415847642968166,-2.988344029902847
1784373732322389248,3.0667731761932373,-0.3588384985923767,0.609015166759491,-0.322160929441452,0.2035520076751709,-0.25751379132270813,-0.9445915818214417,-0.0464627742767334,0.09281042218208313,-0.29747384786605835,-0.08796642771411627,-0.11445325952529026,0.12084975740065271,0.9821190587170809,0.26044833110777627,0.21224646000099048,-2.990833374439637
1784373732332308224,3.0766923427581787,-0.17281614243984222,0.2748507261276245,-0.28200459480285645,0.20825541019439697,-0.25456464290618896,-0.9443656802177429,0.03464925289154053,0.11169663071632385,-0.3723762631416321,-0.08690428981558243,-0.11657378000611517,0.11927998530866908,0.9821561034385887,0.257397500096724,0.21705017787060515,-2.993284270733275
1784373732342228224,3.0866122245788574,-0.23375645279884338,0.10949105769395828,-0.2802327871322632,0.21079842746257782,-0.2518481910228729,-0.9445297718048096,-0.02209298312664032,0.07283207774162292,-0.36832118034362793,-0.08578725337732253,-0.11759748353572062,0.11792344047454259,0.9822960430198628,0.2545895274223161,0.21957972298408157,-2.9955828080560676
1784373732352148224,3.0965323448181152,-0.022639088332653046,-0.012014905922114849,-0.37732425332069397,0.21216577291488647,-0.2503509819507599,-0.9446216821670532,-0.10742942988872528,0.1871490776538849,-0.4052928686141968,-0.08414778440539575,-0.11802352575102774,0.11730138913250063,0.9824612179037278,0.25304274995166437,0.22093745733875425,-2.998926179396999
1784373732362067200,3.1064512729644775,0.097689189016819,0.025302905589342117,-0.25875261425971985,0.213321715593338,-0.24969768524169922,-0.9445342421531677,-0.07028582692146301,0.21870706975460052,-0.3756104111671448,-0.08266369780869522,-0.11840540909984064,0.11710270820068451,0.9825648947868946,0.25236803114936784,0.2221219824236916,-3.002019405051207
1784373732371987200,3.1163711547851562,0.32491442561149597,-0.04145052284002304,-0.21394343674182892,0.21413934230804443,-0.25139641761779785,-0.9438983798027039,-0.022778868675231934,0.15264156460762024,-0.43514513969421387,-0.08120712196536965,-0.1187368294926292,0.11812011995265888,0.9825246664478757,0.25412273578976596,0.2230907053773976,-3.005281156168756
1784373732381907200,3.126291275024414,0.6457083821296692,-0.22502487897872925,-0.2858743667602539,0.2138300985097885,-0.25509607791900635,-0.9429754614830017,0.007605463266372681,0.22030603885650635,-0.4173303246498108,-0.07970736676821853,-0.11858225236911266,0.12021034539050202,0.9824125783018767,0.2579470578981569,0.22298999198173483,-3.0087174295235957
1784373732391826176,3.1362102031707764,0.5642270445823669,-0.17996633052825928,-0.17811718583106995,0.21263450384140015,-0.26036715507507324,-0.9418044090270996,0.013332903385162354,0.12769198417663574,-0.4221177101135254,-0.07810637433872006,-0.1180320290244457,0.12315130181463463,0.9822431829786957,0.2634024603447699,0.22205058312666373,-3.0124237761298276
1784373732401746176,3.146130323410034,0.6111109256744385,-0.39903607964515686,-0.2000560462474823,0.21059203147888184,-0.26563507318496704,-0.9407917261123657,0.058847665786743164,0.06801849603652954,-0.3292888402938843,-0.07662893401421908,-0.11705435420135063,0.1261048356447887,0.9821018253896734,0.2688626082436528,0.22021534559851477,-3.0157594812035065
1784373732411666176,3.156050205230713,0.46221962571144104,-0.47585999965667725,-0.13367292284965515,0.20741207897663116,-0.270261287689209,-0.9401803612709045,0.09123294055461884,-0.07177969813346863,-0.29918426275253296,-0.0751716508186519,-0.11545670652057716,0.1287617209952342,0.9820587877114197,0.27366442249196915,0.21713095398684418,-3.0188137786205442
1784373732421585152,3.165969133377075,0.4787149727344513,-0.640400767326355,-0.03447337821125984,0.2024543285369873,-0.2743397653102875,-0.9400797486305237,0.2027122974395752,-0.09127607941627502,-0.23695272207260132,-0.07417317217433297,-0.11297518313758233,0.13113628805968855,0.9821091453435921,0.27790304350664036,0.21211896234201966,-3.0206050946767706
1784373732431505152,3.175889253616333,0.0758306235074997,-0.5604128241539001,0.050425935536623,0.19676637649536133,-0.27674612402915955,-0.9405820369720459,0.21132995188236237,-0.15379586815834045,-0.2647249698638916,-0.07360835304458005,-0.11009602891493951,0.13261915706042382,0.982279427209431,0.2804063118959925,0.2062224065743452,-3.021205204099237
1784373732441425152,3.1858091354370117,0.3047623336315155,-0.6469778418540955,0.08700764924287796,0.19130632281303406,-0.27835217118263245,-0.941234290599823,0.24216535687446594,-0.13613757491111755,-0.2464640736579895,-0.07345741671587078,-0.10735293613477008,0.13363459914149384,0.9824567385122348,0.28207804155853156,0.20051906540171466,-3.0208960428095133
1784373732451344128,3.195728302001953,0.3285364508628845,-0.6884552240371704,0.2067500501871109,0.18498754501342773,-0.28180965781211853,-0.9414684772491455,0.39171838760375977,-0.15305054187774658,-0.3830249309539795,-0.07354926316853876,-0.1042916137374122,0.13560608299489219,0.982509494077524,0.2856797024599593,0.19401665768603985,-3.0201436085432145
1784373732461264128,3.205648183822632,0.5685253143310547,-0.7465094923973083,0.1789618283510208,0.17888544499874115,-0.28613564372062683,-0.9413428902626038,0.46480655670166016,-0.15575891733169556,-0.32356494665145874,-0.0736823375051295,-0.10138975571203611,0.13801696969121746,0.9824674520753048,0.290191401844663,0.18779301217129524,-3.0193984540665557
1784373732471184128,3.2155683040618896,0.7387091517448425,-0.9423884153366089,0.3033497631549835,0.17122116684913635,-0.2924734354019165,-0.9408201575279236,0.5047584176063538,-0.1368020474910736,-0.38535165786743164,-0.07373869688825797,-0.09777430588772057,0.1415277350502678,0.9823301989829012,0.2968123542084605,0.18002115465362556,-3.018728933028972
1784373732481103104,3.225487232208252,0.4168519973754883,-1.1244179010391235,0.3174024522304535,0.16093355417251587,-0.2992149591445923,-0.9405162334442139,0.5509347319602966,-0.24328076839447021,-0.29623913764953613,-0.07438022633136752,-0.09292647014712589,0.14528092987881788,0.9822045631961247,0.3038698235647973,0.16947065527677904,-3.016434814829014
1784373732491023360,3.2354073524475098,0.4999876320362091,-1.3175526857376099,0.4220646917819977,0.14867645502090454,-0.3037377595901489,-0.9410837888717651,0.36513274908065796,-0.20431888103485107,-0.09918415546417236,-0.07514129418267723,-0.08699613839524842,0.14795194771610182,0.9822910888216065,0.3086133229705971,0.15668925846677673,-3.013318841324383
1784373732500943104,3.2453272342681885,0.10288581252098083,-1.3807133436203003,0.27871283888816833,0.135061576962471,-0.30730998516082764,-0.9419760704040527,0.3352143168449402,-0.20643815398216248,-0.160761296749115,-0.07559308762784932,-0.0802925767295111,0.1502167073535611,0.9824834828210283,0.3123649423168573,0.14241049910307707,-3.010475281064434
1784373732510862080,3.255246162414551,-0.1592469960451126,-1.3739135265350342,0.26879748702049255,0.12155808508396149,-0.30746981501579285,-0.9437615871429443,0.2372981309890747,-0.24541714787483215,-0.07410645484924316,-0.07592381771383976,-0.07347876347202566,0.15073178743019094,0.9829122283006265,0.3125328890762171,0.12809642458887247,-3.007620006708631
1784373732520782336,3.2651662826538086,-0.5111243724822998,-1.3967349529266357,0.2272452563047409,0.10796712338924408,-0.304360032081604,-0.9464185833930969,0.20480754971504211,-0.265494704246521,-0.11830919981002808,-0.07628916691791994,-0.06648695698939645,0.1495667272096111,0.9835595435630092,0.30926651600307953,0.11358861817555807,-3.004498451821186
1784373732530702080,3.2750861644744873,-0.5003963708877563,-1.359956979751587,0.190747931599617,0.09442277252674103,-0.29977673292160034,-0.9493251442909241,0.24888472259044647,-0.13668566942214966,-0.22149699926376343,-0.07635972912970831,-0.05942082349193499,0.1476705427217525,0.9842924704340268,0.3044586042982404,0.0991369883664653,-3.0019675986627554
1784373732540621312,3.2850053310394287,-0.5432440042495728,-1.247995376586914,0.20230790972709656,0.08163334429264069,-0.29507121443748474,-0.9519816040992737,0.2103893756866455,-0.16778889298439026,-0.3168324828147888,-0.07651430447690014,-0.05275783974898421,0.14569078328514382,0.984955041951256,0.2995300377461151,0.08554170609624516,-2.999453479232347
1784373732550541056,3.2949252128601074,-0.46479126811027527,-1.1845669746398926,0.12145727127790451,0.06977028399705887,-0.2903427481651306,-0.9543758034706116,0.19220787286758423,-0.07934719324111938,-0.2653355002403259,-0.07660219085283138,-0.04656391458370384,0.1436798360424259,0.9855556808410477,0.2945850008378898,0.07297584704540645,-2.9972867161750307
1784373732560461312,3.3048453330993652,-0.4947337210178375,-1.1205086708068848,0.08304676413536072,0.0586678571999073,-0.28591543436050415,-0.956457257270813,0.153459832072258,-0.11682504415512085,-0.2578829526901245,-0.07636343184688021,-0.040729731594739756,0.14181843405770583,0.9861020457929403,0.28996159138774524,0.061261961023766014,-2.99596907745398
1784373732570380288,3.3147642612457275,-0.4116348624229431,-1.0746830701828003,0.03555794060230255,0.04804408177733421,-0.28157490491867065,-0.9583356976509094,0.17886938154697418,-0.09221965074539185,-0.22374743223190308,-0.0759654754006588,-0.035127115933017504,0.13999366327700546,0.9866089388049409,0.2854350185014536,0.0500908946889179,-2.9951020783092024
1784373732580300032,3.3246841430664062,-0.24559074640274048,-0.97257399559021,0.026449929922819138,0.03807361423969269,-0.2785561680793762,-0.9596649408340454,0.1695222109556198,-0.014961868524551392,-0.19492179155349731,-0.0754328504245798,-0.029898187877604003,0.1388294391608941,0.9869865164683962,0.28229045935458946,0.03965306626164537,-2.994669387664844
1784373732590220288,3.334604263305664,-0.0380537323653698,-0.8241881132125854,0.02745264209806919,0.029592767357826233,-0.2771736681461334,-0.9603639841079712,0.14095471799373627,0.04122704267501831,-0.15751010179519653,-0.07493602953544481,-0.02549746690999738,0.13844809587511095,0.9872013810827874,0.2808512645702853,0.030804368734360363,-2.9944228669916826
1784373732600139264,3.3445231914520264,0.0158369317650795,-0.778353750705719,0.0560280978679657,0.02202747017145157,-0.2772407531738281,-0.960547924041748,0.16422131657600403,0.004413634538650513,-0.12723582983016968,-0.07458981771510964,-0.02164011769141899,0.13877222666201974,0.9872742091654608,0.2809210855974246,0.02292817335678111,-2.994018630842209
1784373732610059264,3.354443311691284,0.07393611967563629,-0.7805183529853821,0.1365738958120346,0.01447400450706482,-0.27764692902565,-0.9605741500854492,0.19556322693824768,-0.053056806325912476,-0.04362201690673828,-0.07451084234536019,-0.01784053719449386,0.13926463958774793,0.9872868512508968,0.2813438593064421,0.015066935837153215,-2.993071281365168
1784373732619979264,3.364363193511963,0.0002379310317337513,-0.8070327639579773,0.1941564977169037,0.006501422729343176,-0.277974933385849,-0.9605663418769836,0.19610477983951569,-0.0966741144657135,-0.012410342693328857,-0.0747662280647504,-0.013874444139484018,0.13972951030909328,0.9872654768173016,0.28168530091722555,0.0067682190048591285,-2.9913795711301017
1784373732629898240,3.3742823600769043,-0.04945166036486626,-0.8386083245277405,0.24751543998718262,-0.0018971068784594536,-0.27780312299728394,-0.9606361389160156,0.15028883516788483,-0.14080649614334106,0.028491973876953125,-0.07528552617655176,-0.00971197358169603,0.13995570181630038,0.9872437513084896,0.28150646023993414,-0.0019748417338512287,-2.9890908721418215
1784373732639819008,3.3842029571533203,-0.05091853067278862,-0.8255553841590881,0.25924211740493774,-0.010409973561763763,-0.27740293741226196,-0.9606972932815552,0.13602033257484436,-0.09709352254867554,0.011386990547180176,-0.07594311646512311,-0.005503157124485823,0.14007526307056573,0.987208841624139,0.2810898913162163,-0.010835427763033567,-2.9865078826078104
1784373732649738752,3.394122838973999,-0.0886513963341713,-0.8462996482849121,0.25836095213890076,-0.018900131806731224,-0.27667397260665894,-0.9607779383659363,0.12479612231254578,-0.07900840044021606,-0.01647120714187622,-0.07648415551330158,-0.0012766372807274586,0.14003352898597943,0.9871874582301559,0.2803312386900089,-0.01966915889335512,-2.984172686849756
1784373732659659008,3.404042959213257,-0.1062793955206871,-0.7471424341201782,0.2682119905948639,-0.027048466727137566,-0.275765985250473,-0.9608441591262817,0.11931837350130081,-0.1434692144393921,-0.036714375019073486,-0.07727638834407435,0.0027490686196479084,0.13989409795847568,0.9871426198693974,0.27938648694946405,-0.02814329961243689,-2.981388062752985
1784373732669577728,3.413961887359619,-0.14946061372756958,-0.6747370958328247,0.2801017165184021,-0.034469928592443466,-0.27456554770469666,-0.9609503746032715,0.07693514227867126,-0.11608996987342834,-0.041597843170166016,-0.07809233952462287,0.006417287682685201,0.13958380617268876,0.9871052484907747,0.2781378419603953,-0.03585529215924333,-2.9786772883186243
1784373732679497984,3.423882007598877,-0.11676924675703049,-0.613074779510498,0.28031104803085327,-0.041284896433353424,-0.273284375667572,-0.9610469341278076,0.11306224763393402,-0.09614616632461548,-0.05045819282531738,-0.07907593548335412,0.009760142956575764,0.13921663180794167,0.9870514854777869,0.27680573856226187,-0.04293185750841784,-2.9757265634329997
1784373732689417728,3.4338018894195557,-0.11632829904556274,-0.5890747904777527,0.3182096481323242,-0.04763108491897583,-0.2720967233181,-0.9610903263092041,0.11284714937210083,-0.11845195293426514,-0.07182282209396362,-0.08002781214862482,0.012868297425290307,0.13888568939766877,0.9869856407604611,0.2755712924967221,-0.04951891024091917,-2.972912638488669
1784373732699336704,3.443720817565918,-0.1440906822681427,-0.5645990371704102,0.271229088306427,-0.05382673442363739,-0.2707067131996155,-0.9611558318138123,0.1404966562986374,-0.12042182683944702,-0.08050066232681274,-0.08108633063383285,0.015894628389592654,0.1384537399462172,0.9869158861488355,0.27412708344058107,-0.05594365245674779,-2.9699200544517583
1784373732709256960,3.453640937805176,-0.15966472029685974,-0.5623501539230347,0.2514282763004303,-0.05986921489238739,-0.2691059112548828,-0.961247980594635,0.12943404912948608,-0.1410045623779297,-0.09644550085067749,-0.08199251390388464,0.018874778678352168,0.13791210114000815,0.986864393857592,0.27246456796764873,-0.06220244957462725,-2.967276209527488
1784373732719176704,3.4635608196258545,-0.16975730657577515,-0.5704839825630188,0.2036418467760086,-0.06591919809579849,-0.26736992597579956,-0.9613365530967712,0.1545575112104416,-0.10091620683670044,-0.07580333948135376,-0.08272625189783328,0.02188927664040222,0.13730468257874812,0.9868255903826902,0.2706625383396026,-0.06846319787433865,-2.9649966661508516
1784373732729095936,3.473479986190796,-0.12236035615205765,-0.5766952037811279,0.1549244374036789,-0.07183753699064255,-0.2659440040588379,-0.9613080620765686,0.14210426807403564,-0.07246541976928711,-0.0637163519859314,-0.08314930156219291,0.024868600791179665,0.13684856871366052,0.9867827367038042,0.2691830516513905,-0.07459030525697014,-2.963358871805553
1784373732739015936,3.4833998680114746,-0.13612143695354462,-0.5656087398529053,0.09337160736322403,-0.07751889526844025,-0.2645794153213501,-0.961243212223053,0.14801448583602905,-0.048271507024765015,-0.02749580144882202,-0.0833331319117947,0.027759739068640352,0.1364103509613152,0.9867507850858265,0.2677677847125428,-0.08047026415552898,-2.9622441086873885
1784373732748935936,3.4933199882507324,-0.17430278658866882,-0.4931841790676117,0.10348263382911682,-0.08275477588176727,-0.26301297545433044,-0.9612365961074829,0.14855068922042847,-0.024264216423034668,0.022744834423065186,-0.08345704293240519,0.030443572012305114,0.13584874399124724,0.9867387581227921,0.26614381191738795,-0.08588023191121007,-2.961333869211453
1784373732758854912,3.5032389163970947,-0.17880779504776,-0.49839577078819275,0.05780835449695587,-0.08760065585374832,-0.2613893747329712,-0.9612500667572021,0.14750665426254272,-0.05462014675140381,0.07955145835876465,-0.0834488726385327,0.03295177057109832,0.13523734501232906,0.9867428351076444,0.2644613532584895,-0.09088097757357275,-2.9607581581910933
1784373732768774656,3.5131587982177734,-0.20054064691066742,-0.44258007407188416,0.006919271778315306,-0.09205512702465057,-0.25956475734710693,-0.9613282680511475,0.15292245149612427,-0.051943421363830566,0.12807631492614746,-0.08327882163732388,0.03529324072127684,0.13450004183033007,0.9867770333316057,0.26257147362291194,-0.09546717841859376,-2.960586769784103
1784373732778694912,3.5230789184570312,-0.43984830379486084,-0.2958372235298157,-0.038259658962488174,-0.09551715850830078,-0.2565539479255676,-0.9617986083030701,0.10595418512821198,-0.09424561262130737,0.19573110342025757,-0.08288730453119408,0.0372125835460337,0.13310116715951012,0.9869291646148415,0.25945511871125004,-0.09898640785567785,-2.961091670370803
1784373732788613888,3.5329978466033936,-0.6385405659675598,-0.15941067039966583,-0.1353500783443451,-0.09742974489927292,-0.25160232186317444,-0.9629141688346863,0.07501458376646042,-0.08778366446495056,0.2722403407096863,-0.08217599790224407,0.03847030238933811,0.13062521540750238,0.987271036538067,0.25433547098553794,-0.10083897975089882,-2.962600692039749
1784373732798533888,3.5429179668426514,-0.8618535399436951,-0.005250933580100536,-0.19605204463005066,-0.09775633364915848,-0.24455270171165466,-0.9646956324577332,0.04798216372728348,-0.11659231781959534,0.31456440687179565,-0.08113494370776492,0.03905069395511213,0.1269930009572724,0.987808201270886,0.24705836266242437,-0.10098912910166329,-2.965138483022669
1784373732808453888,3.55283784866333,-0.9435340762138367,0.12939080595970154,-0.14973585307598114,-0.09661894291639328,-0.23602573573589325,-0.9669315814971924,0.05194120854139328,-0.11225612461566925,0.3372623920440674,-0.08019916033942939,0.03893066263777142,0.12255050599512786,0.9884502464222981,0.23827399891140175,-0.09959265988436736,-2.9677434640308595
1784373732818372864,3.5627570152282715,-0.9965991973876953,0.24734912812709808,-0.16290917992591858,-0.0943821519613266,-0.2268517166376114,-0.9693453311920166,0.0405644029378891,-0.05629037320613861,0.3198549747467041,-0.07932706812698354,0.03826693732929716,0.11774120201888616,0.9891309136770619,0.22884390190839077,-0.09706095194683471,-2.9703744491881365
1784373732828292864,3.57267689704895,-0.9412389993667603,0.4162720739841461,-0.15050897002220154,-0.09079762548208237,-0.21766607463359833,-0.9717907309532166,0.015541277825832367,-0.04516656696796417,0.34508174657821655,-0.07857278796434634,0.03690537231811407,0.11288319995828823,0.9898088918990802,0.21942256987224715,-0.09316284120794108,-2.9728917564367863
1784373732838212864,3.582597017288208,-0.7351726293563843,0.6098082661628723,-0.15553328394889832,-0.08538682758808136,-0.20958590507507324,-0.9740548729896545,-0.02919141948223114,0.014868497848510742,0.35544830560684204,-0.07790915266903427,0.03456908754364551,0.10852444623859858,0.9904330400655716,0.21115143228539462,-0.08743769773091659,-2.9753209433584598
1784373732848131840,3.5925159454345703,-0.6903818845748901,0.8249359130859375,-0.1282600611448288,-0.07809577882289886,-0.20297610759735107,-0.9760644435882568,-0.023466721177101135,0.06946170330047607,0.34062743186950684,-0.07752880737302908,0.031200436143204696,0.10485381716127869,0.9909700236272144,0.20439635147461557,-0.0798408000964607,-2.977247785551401
1784373732858051840,3.602435827255249,-0.5329602956771851,0.9387224316596985,-0.13287238776683807,-0.06917107850313187,-0.19710226356983185,-0.9779397249221802,0.0018493011593818665,0.10678550601005554,0.3839150667190552,-0.0771836980329934,0.02698159151757526,0.10149948246962343,0.991469827988537,0.19840132619895795,-0.0706138333361248,-2.9791796087630193
1784373732867971840,3.612355947494507,-0.35524195432662964,1.0235387086868286,-0.17388905584812164,-0.05913775414228439,-0.19299034774303436,-0.9794169068336487,0.03982013091444969,0.09801964461803436,0.4032908082008362,-0.07690555127248935,0.02213509159771819,0.09900298178195163,0.9918639301530194,0.19420888244191922,-0.060307356740007506,-2.980953172457197
1784373732877890816,3.622274875640869,-0.19842888414859772,1.128167986869812,-0.2145739048719406,-0.04816552996635437,-0.19023512303829193,-0.980556309223175,0.02840539813041687,0.15251539647579193,0.44243985414505005,-0.07638017068428143,0.01679287856944455,0.09715885483088184,0.9921916760497766,0.1914016427973473,-0.049081164836473755,-2.9832207581362
1784373732887811072,3.632194995880127,-0.09619353711605072,1.1772133111953735,-0.24293947219848633,-0.03614730015397072,-0.18923738598823547,-0.9812657833099365,0.043593596667051315,0.14568881690502167,0.3906896710395813,-0.07577306956081958,0.010868857942196072,0.0961715315203725,0.9924169372237053,0.19038543532617472,-0.03682077181444001,-2.985668168862856
1784373732897730816,3.6421148777008057,-0.03974943608045578,1.1755512952804565,-0.21543993055820465,-0.023793594911694527,-0.18874190747737885,-0.9817384481430054,0.09100855886936188,0.13466475903987885,0.37926042079925537,-0.07520296239992,0.004754956090886429,0.09543674231356182,0.9925793716925307,0.18988087244760424,-0.02423144104142109,-2.9880436497140974
1784373732907651072,3.6520349979400635,-0.015173382125794888,1.170024037361145,-0.2336762547492981,-0.011278280057013035,-0.18869660794734955,-0.9819706678390503,0.12191975861787796,0.12534211575984955,0.3428562879562378,-0.07460793461300498,-0.0014543663654511436,0.09493446276922886,0.992682684561631,0.18983474293405792,-0.01148484805719543,-2.9904655300477394
1784373732917569792,3.661953926086426,0.054844584316015244,1.2242974042892456,-0.2604026794433594,0.0026113176718354225,-0.18944071233272552,-0.9818887114524841,0.09258826076984406,0.15494059026241302,0.32425016164779663,-0.07383986353269337,-0.008366052277074926,0.0947927538035798,0.9927194524133817,0.19059251865018229,0.0026594781486125934,-2.993357485252027
1784373732927489792,3.6718738079071045,0.0830748900771141,1.2441283464431763,-0.24299664795398712,0.01604786142706871,-0.19036765396595,-0.9815816879272461,0.09094676375389099,0.1179341971874237,0.30995088815689087,-0.07309518630588833,-0.01506151790329193,0.094775020074983,0.9926972937670732,0.19153664245169655,0.016347524787374636,-2.996162538610449
1784373732937409024,3.681792974472046,0.16019365191459656,1.220167875289917,-0.24202673137187958,0.028927091509103775,-0.19153942167758942,-0.9810585379600525,0.10286306589841843,0.09510388970375061,0.31923913955688477,-0.07248064888263869,-0.021501757087867307,0.09491259741698775,0.9926106144902503,0.19273037337917148,0.029477050818455353,-2.9986605315609354
1784373732947328768,3.6917128562927246,0.1996907889842987,1.2168768644332886,-0.2192448228597641,0.041401125490665436,-0.19325032830238342,-0.9802756309509277,0.08924462646245956,0.08453145623207092,0.29971837997436523,-0.07193927153579938,-0.027769341065799327,0.09534705961966862,0.9924528087059524,0.19447384657855793,0.04220908398086377,-3.000990961125107
1784373732957249024,3.7016329765319824,0.22156307101249695,1.2440803050994873,-0.21223191916942596,0.053872041404247284,-0.19526906311511993,-0.9792690277099609,0.027670923620462418,0.09863515198230743,0.30441856384277344,-0.07136623829354287,-0.034047745465556285,0.09594918839131643,0.9922405487826992,0.19653179373418653,0.05495711017472655,-3.0034104744260546
1784373732967168768,3.711552858352661,0.2182500809431076,1.288300633430481,-0.2769433856010437,0.06681521981954575,-0.19748200476169586,-0.9780268669128418,0.011614948511123657,0.10548678040504456,0.3043208718299866,-0.0707776326032425,-0.04057375723722887,0.09664537483532008,0.9919697729495447,0.19878867892402222,0.06821035917651601,-3.0059376462673058
1784373732977088000,3.7214720249176025,0.11190074682235718,1.2279589176177979,-0.3298207223415375,0.07991749793291092,-0.1987602859735489,-0.9767842888832092,-0.017966821789741516,0.07743765413761139,0.32306724786758423,-0.06984324814907682,-0.04711595306255967,0.09689141144956868,0.9917227188825198,0.20009281049276978,0.08163510786657403,-3.0091716140482183
