time,seconds_elapsed,rotationRateX,rotationRateY,rotationRateZ,gravityX,gravityY,gravityZ,accelerationX,accelerationY,accelerationZ,quaternionW,quaternionX,quaternionY,quaternionZ,pitch,roll,yaw
1783165997221182464,0.19392943382263184,-0.22242967784404755,0.5025519132614136,-1.0670013427734375,0.07113689184188843,0.7174087762832642,-0.6930109262466431,-0.07411235570907593,-0.28122103214263916,0.09578192234039307,-0.2825846585977289,0.08295411973427289,-0.38290095212411684,0.8755862683315332,-0.8000755927567,0.10229074875465904,-2.4739405409590187
1783165997231101440,0.20384836196899414,-0.45451006293296814,0.6016510725021362,-0.8781132102012634,0.06635580956935883,0.7191681265830994,-0.691660463809967,-0.019023053348064423,-0.28800052404403687,0.047892093658447266,-0.27695802911617845,0.0833414847154399,-0.3836977678326252,0.8769974798405114,-0.8026043691923312,0.09564425920425292,-2.489201242354443
1783165997241020416,0.21376729011535645,-0.5872450470924377,0.5720217823982239,-0.8102307319641113,0.0631387010216713,0.7217727899551392,-0.6892442107200623,0.07911897450685501,-0.25502169132232666,-0.0008040070533752441,-0.27191423700356543,0.08336962959616949,-0.3852627606295659,0.877886576126955,-0.8063602640462424,0.09135074658869083,-2.5018731700392456
1783165997250939648,0.22368645668029785,-0.36892545223236084,0.5511796474456787,-0.8350988030433655,0.06032886728644371,0.7237464189529419,-0.687423825263977,0.07603892683982849,-0.1819525957107544,-0.02687060832977295,-0.26710520515875735,0.08314257923227501,-0.3864911185742661,0.8788439775391343,-0.8092160437188246,0.08753652787009542,-2.5139739077908647
1783165997260859392,0.23360633850097656,0.1535712480545044,0.46128344535827637,-0.7618517279624939,0.057700227946043015,0.7226958870887756,-0.6887534856796265,0.06798641383647919,-0.14013057947158813,-0.08237993717193604,-0.2627262502233207,0.08234700139530905,-0.385800758322785,0.880540544969791,-0.8076948552325212,0.08357969570264545,-2.525938937667005
1783165997270778368,0.24352526664733887,0.813422679901123,0.3924846649169922,-0.7804872393608093,0.05509563535451889,0.71699458360672,-0.6948980689048767,0.07818987965583801,-0.06019526720046997,-0.11062872409820557,-0.2590228612937075,0.08085897098068502,-0.3821162162951314,0.8833777737723756,-0.7994812660758869,0.07912041344313063,-2.537703346835026
1783165997280697600,0.2534444332122803,1.57742178440094,0.25094103813171387,-0.7794344425201416,0.05205783620476723,0.7060232162475586,-0.7062727808952332,0.06894433498382568,0.044083595275878906,-0.12546855211257935,-0.25578358166963705,0.078760084045353,-0.3750472709555525,0.8875309896976786,-0.7838669537306455,0.07357478700732338,-2.5499850725762276
1783165997290617344,0.263364315032959,2.5062336921691895,0.13722139596939087,-0.690425455570221,0.04890840873122215,0.6885989308357239,-0.7234911322593689,0.08427030593156815,0.12890595197677612,-0.12393617630004883,-0.25333392495312923,0.0758733341320892,-0.36400227774766997,0.8930663590782664,-0.7595551819697035,0.06749786621072595,-2.561829265895419
1783165997300536576,0.2732834815979004,3.113719940185547,-0.004835484549403191,-0.7076355218887329,0.04585007578134537,0.6644424200057983,-0.7459316253662109,0.08879348635673523,0.18118441104888916,-0.10535621643066406,-0.2516945755954754,0.0721570537789128,-0.3490380152747564,0.8997864291718028,-0.7267474794765386,0.06138962230609784,-2.57273125793208
1783165997310455552,0.2832024097442627,3.0050272941589355,-0.16075317561626434,-0.9848101735115051,0.04144958406686783,0.6377078294754028,-0.7691623568534851,0.04358764365315437,0.18970000743865967,0.015057742595672607,-0.24970721240759552,0.06876423458547821,-0.3327015329876706,0.9067676179669851,-0.691518784075336,0.053837175912105385,-2.5847527348139647
1783165997320375552,0.2931222915649414,2.69049334526062,-0.15915310382843018,-1.3792563676834106,0.03469014912843704,0.6128503680229187,-0.7894371747970581,-0.022025354206562042,0.0284002423286438,0.1416863203048706,-0.24614201777165562,0.06659379641989192,-0.3175636787985193,0.9133086559324924,-0.6596627296575753,0.04391463593686395,-2.6000545615834567
1783165997330294528,0.3030414581298828,2.3941352367401123,0.04618405923247337,-1.5893542766571045,0.026703370735049248,0.591141402721405,-0.8061257600784302,-0.0934605598449707,-0.18911808729171753,0.17183315753936768,-0.24059351894214284,0.06515351787228761,-0.3044538414055238,0.9193353998457696,-0.6324732602500368,0.03311345696974199,-2.618829891074547
1783165997340213504,0.3129603862762451,2.1329591274261475,0.2779506742954254,-1.6953685283660889,0.019234320148825645,0.5718234777450562,-0.820151150226593,-0.078774094581604,-0.23143047094345093,0.1837223768234253,-0.23374109706277668,0.06365891029174818,-0.29303920317799764,0.9249002919917324,-0.6087268926664516,0.023447867360819594,-2.6391521061380248
1783165997350133504,0.32288026809692383,2.3146772384643555,0.40653422474861145,-1.7965502738952637,0.012699459679424763,0.5527662038803101,-0.8332396149635315,-0.026630740612745285,-0.11505258083343506,0.180819571018219,-0.2560244424165588,0.07080686192123414,-0.279940307345402,0.9225353210628459,-0.5856800461752275,0.01523988590640059,-2.595577740787228
1783165997360052480,0.33279943466186523,2.899986982345581,0.396083265542984,-1.8156768083572388,0.006480784621089697,0.5303520560264587,-0.8477527499198914,0.06316033005714417,0.03906017541885376,0.14012640714645386,-0.2510315841824479,0.06879820807062878,-0.2671898840251594,0.927825148191357,-0.5590157545811388,0.007644514662825029,-2.6109326578098786
1783165997369971456,0.34271836280822754,3.8638007640838623,0.31844252347946167,-1.7799535989761353,0.0005168500356376171,0.5010531544685364,-0.8654163479804993,0.1527424156665802,0.14958161115646362,0.08349496126174927,-0.2502624786512381,0.06696236638567203,-0.2506149719887267,0.9327791479292459,-0.5248153055955691,0.0005972269517572849,-2.617183277856242
1783165997379890432,0.35263729095458984,4.87718391418457,0.21225954592227936,-1.7943798303604126,-0.005316141527146101,0.46261271834373474,-0.8865445256233215,0.20471800863742828,0.20135822892189026,0.026513397693634033,-0.2468282964168046,0.06317346382879492,-0.22964505379809594,0.9393337735617325,-0.48093995511534793,-0.005996402487845982,-2.6291420589224312
1783165997389810688,0.36255741119384766,5.750503063201904,0.14552578330039978,-1.8467018604278564,-0.011112702079117298,0.4150044023990631,-0.9097515344619751,0.23360110819339752,0.2311137616634369,0.012000679969787598,-0.2441405329555851,0.058559504065793584,-0.2041935867798552,0.946187690815536,-0.42794765423162184,-0.012214487872084361,-2.6392115351983674
1783165997399729408,0.37247633934020996,6.202342510223389,0.131541445851326,-1.7683976888656616,-0.015965009108185768,0.3601406514644623,-0.9327614307403564,0.27960634231567383,0.24102512001991272,-0.039055585861206055,-0.2423079621712155,0.05302002048052291,-0.17552256796764482,0.9527159638363072,-0.36841865715506383,-0.01711418311076142,-2.6466746552251323
1783165997409648384,0.38239526748657227,6.1450300216674805,0.07434368133544922,-1.6511828899383545,-0.01927393302321434,0.30286723375320435,-0.9528378248214722,0.31595057249069214,0.17500749230384827,-0.03191858530044556,-0.24086122867895765,0.046813838792811445,-0.14625163169013647,0.9583344392107488,-0.30769975242858083,-0.02022516672132963,-2.6522632064042084
1783165997419568640,0.3923153877258301,5.063483238220215,0.2007700502872467,-2.0061495304107666,-0.02077648416161537,0.24879758059978485,-0.9683326482772827,0.4117066562175751,-0.03801266849040985,-0.22650682926177979,-0.23833128491969466,0.04028991461973303,-0.11920739697406137,0.9629976699590564,-0.2514386052896411,-0.021452644958218414,-2.6590762006021778
1783165997429486592,0.402233362197876,3.9800925254821777,-0.4477482736110687,-1.7604914903640747,-0.02844734862446785,0.2066483050584793,-0.9780016541481018,0.49684637784957886,-0.3310989737510681,-0.1545209288597107,-0.23491844782313315,0.0384404716224042,-0.0975781905047145,0.9663406673714047,-0.20814807071827268,-0.029079019523214317,-2.6676801035488724
1783165997439405568,0.4121525287628174,2.7626559734344482,-0.12030981481075287,-1.8106759786605835,-0.030474618077278137,0.1732056885957718,-0.9844141006469727,0.44737523794174194,-0.6832001805305481,-0.0014257431030273438,-0.23060593294367496,0.03500943250105011,-0.0810388612254675,0.9690345866454074,-0.17408362361140034,-0.030947228932855883,-2.6770347932310434
1783165997449325568,0.4220724105834961,1.7511945962905884,-0.555027186870575,-1.0995960235595703,-0.03426109999418259,0.1507847160100937,-0.9879727363586426,0.5619710683822632,-1.0565617084503174,0.2562069892883301,-0.22788855043824588,0.0340124057876621,-0.06969062436004743,0.9705942621040712,-0.15136201648661,-0.03466429335502458,-2.6829901799048437
1783165997459244544,0.4319913387298584,1.5315051078796387,-0.16288802027702332,-0.5772331953048706,-0.03748800605535507,0.13210828602313995,-0.9905261397361755,0.5979890823364258,-1.2587562799453735,0.23037904500961304,-0.22788880189215577,0.033416435511293086,-0.06016866321229534,0.9712516366264109,-0.13249560999780596,-0.037828504454670404,-2.6831722109483414
1783165997469163776,0.4419105052947998,0.9071750044822693,0.23115357756614685,-0.5808545351028442,-0.03640982136130333,0.11706889420747757,-0.9924561381340027,0.15918204188346863,-0.7177311182022095,0.17933052778244019,-0.2274800868786747,0.031125155281913865,-0.052944802210755745,0.9718441040756877,-0.11733796387997658,-0.0366701335028824,-2.6838848531440647
1783165997479083520,0.4518303871154785,1.1849339008331299,0.4319987893104553,-0.6552854180335999,-0.032471079379320145,0.10401182621717453,-0.9940458536148071,-0.06423912942409515,-0.12493162602186203,0.01603376865386963,-0.22668227937713586,0.027659237714277134,-0.047032299589316144,0.9724392524220332,-0.10420028683698755,-0.03265396352993186,-2.685261311165945
1783165997489002496,0.4617493152618408,2.0935754776000977,0.24041470885276794,-0.5629062056541443,-0.028575317934155464,0.08463197201490402,-0.9960024356842041,0.049693480134010315,0.03560727834701538,-0.2784268260002136,-0.22637745547218535,0.023528490149446322,-0.038015585922294676,0.973013153031033,-0.0847333271447665,-0.02868213941656852,-2.6856295222628814
1783165997498921728,0.4716684818267822,3.103391170501709,0.022592678666114807,-0.4662685990333557,-0.026507461443543434,0.055452920496463776,-0.9981094002723694,0.17517384886741638,0.07487238943576813,-0.2685226798057556,-0.2273824083121441,0.019222801218778222,-0.023995737967981757,0.9733201084817268,-0.05548138150226191,-0.026551429948549057,-2.6833309568365182
1783165997508840448,0.48158740997314453,4.097635746002197,-0.23809485137462616,-0.4698697328567505,-0.026298819109797478,0.01594054140150547,-0.9995270371437073,0.22415953874588013,0.02386963739991188,-0.19703668355941772,-0.2284966626491202,0.014624578756025797,-0.004754975089328167,0.9734232919172264,-0.01594121704715829,-0.02630519482517578,-2.680680477691344
1783165997518760704,0.49150753021240234,4.931053638458252,-0.4360817074775696,-0.694362998008728,-0.027835305780172348,-0.03310128673911095,-0.9990643262863159,0.19435447454452515,-0.022379670292139053,-0.10115540027618408,-0.22957366821638203,0.009747553858522016,0.019308779657542918,0.9730508896696974,0.03310733486021349,-0.027854170367209424,-2.6777418067643817
1783165997528679680,0.5014264583587646,5.506695747375488,-0.498463898897171,-0.9776487350463867,-0.029970569536089897,-0.08907271921634674,-0.9955741167068481,0.08595506846904755,-0.01657913625240326,0.018843770027160645,-0.2295472860595859,0.004354530232613628,0.046839952199796746,0.972160069523286,0.0891909267760724,-0.03009471584515472,-2.6765018017907627
1783165997538598656,0.511345386505127,5.86884880065918,-0.4394911825656891,-1.201859951019287,-0.0313248410820961,-0.14903774857521057,-0.9883351922035217,-0.022401347756385803,0.017674848437309265,0.153298020362854,-0.2240576018457203,-0.0014879188557113414,0.07635559560654086,0.9715790379172113,0.1495950842983984,-0.03168394529541356,-2.685919391515369
1783165997548518656,0.5212655067443848,6.103698253631592,-0.3597375154495239,-1.3899835348129272,-0.0309501513838768,-0.21059198677539825,-0.9770839810371399,-0.0467323437333107,0.041524603962898254,0.2529781460762024,-0.2173886371735678,-0.007967556651082373,0.10674515218779602,0.9701980252701623,0.21218048494971475,-0.03166545167823692,-2.6973693118048048
1783165997558437632,0.5311844348907471,6.772671222686768,-0.499217689037323,-1.4537392854690552,-0.03026714362204075,-0.2746187150478363,-0.9610767364501953,0.0410703644156456,0.0831056535243988,0.2986316680908203,-0.20979531696330625,-0.014442545342455062,0.13875537363711268,0.9677418561564984,0.27819315732774225,-0.031482547547173736,-2.7102146845679003
1783165997568356608,0.5411033630371094,7.505098342895508,-0.6909520030021667,-1.5846885442733765,-0.030170854181051254,-0.34406793117523193,-0.9384598731994629,0.13917964696884155,0.11501827836036682,0.30529648065567017,-0.20133595170515986,-0.020737065108952697,0.17418388960565337,0.963687557813492,0.3512459238208118,-0.03213825876113179,-2.7239693361568187
1783165997578276608,0.5510234832763672,7.913994312286377,-0.8371350169181824,-1.7287839651107788,-0.029984332621097565,-0.41656818985939026,-0.9086098670959473,0.10936055332422256,0.19003620743751526,0.39458703994750977,-0.19163662170189807,-0.0267773954861949,0.21208026043188474,0.957904157356406,0.4296671009925632,-0.032988256063814454,-2.7394908603953882
1783165997588195584,0.5609424114227295,8.005889892578125,-0.7727954983711243,-1.6426652669906616,-0.02868659794330597,-0.4884297549724579,-0.8721315860748291,0.056900110095739365,0.23766681551933289,0.4539949893951416,-0.18134657242029048,-0.0327501183837616,0.25072224036036395,0.9503574789821644,0.5102893510440519,-0.032880656939470204,-2.7559105429914683
1783165997598114560,0.5708613395690918,8.11350154876709,-0.7065947651863098,-1.5084388256072998,-0.026055611670017242,-0.5575417280197144,-0.8297399282455444,0.07700470834970474,0.22383201122283936,0.5130895376205444,-0.17146777262545773,-0.03884829554253247,0.2891727003364954,0.9409934923901931,0.5914215930188064,-0.03139182666343127,-2.7715439043353762
1783165997608034560,0.5807814598083496,7.950775623321533,-0.6901329755783081,-1.6440967321395874,-0.02188679203391075,-0.6230615973472595,-0.7818664908409119,0.007986022159457207,0.2123408317565918,0.5755371451377869,-0.16136869281865265,-0.04500225415967187,0.3271720701837454,0.9299963726783284,0.6726508377891581,-0.027985697092098624,-2.7881983765073093
1783165997617953536,0.5907003879547119,7.396836280822754,-0.7043526768684387,-1.7544525861740112,-0.015471217222511768,-0.6815171241760254,-0.7316386103630066,-0.0608074814081192,0.2098374366760254,0.6327616572380066,-0.15032220593098494,-0.05095774033580722,0.3627451114652871,0.9182714188606949,0.7498337348641854,-0.021142832781303755,-2.808747869426329
1783165997627872512,0.6006193161010742,6.961885452270508,-0.5924914479255676,-1.643282413482666,-0.007661536801606417,-0.7323523163795471,-0.6808828115463257,-0.04426411911845207,0.13527590036392212,0.5547994375228882,-0.13937914151457342,-0.0565967615655111,0.39541799827650725,0.9060987108588234,0.8217701141478784,-0.011251882500648675,-2.8314362421518764
1783165997637791744,0.6105384826660156,6.682020664215088,-0.6250462532043457,-1.6680461168289185,0.001205313834361732,-0.7772639989852905,-0.6291734576225281,-0.04673752933740616,0.08108174800872803,0.4312517046928406,-0.1381970165988711,-0.06659240392516018,0.42541593464898597,0.8919015742610206,0.89030554787815,0.0019157075287866527,-2.835058580995666
1783165997647711488,0.6204583644866943,6.364415645599365,-0.6381245255470276,-1.7015599012374878,0.011151558719575405,-0.8165323734283447,-0.5771920084953308,-0.07473492622375488,0.16765236854553223,0.3514687418937683,-0.1269826974734385,-0.07195485297177712,0.45412168332831165,0.87890354865612,0.9553785931394314,0.01931795920933165,-2.864622062280258
1783165997657630720,0.6303775310516357,6.433960914611816,-0.662139892578125,-1.713546633720398,0.02209416776895523,-0.8512431383132935,-0.5243064165115356,-0.10057009011507034,0.2593393325805664,0.25889497995376587,-0.1257586470878762,-0.08275140377382775,0.48062356527635,0.8639086472203764,1.0183496356067157,0.042114886202905585,-2.8759987836510734
1783165997667549696,0.640296459197998,6.3724684715271,-0.521804928779602,-1.816361427307129,0.03482595458626747,-0.8826839327812195,-0.4686751067638397,-0.17549671232700348,0.297127902507782,0.1457686424255371,-0.12356616178305255,-0.09437181271137893,0.5067113616779819,0.8479794190013729,1.0815428322230674,0.07417092608448853,-2.8967440033644634
1783165997677469440,0.6502163410186768,6.088515758514404,-0.568516194820404,-2.086569309234619,0.04999910295009613,-0.9094977974891663,-0.41269102692604065,-0.20235811173915863,0.29647594690322876,0.21432679891586304,-0.11945691693391708,-0.1063506381943635,0.5313605421736913,0.8319107875719369,1.1420743384332892,0.12056622800913497,-2.933866418473834
1783165997687388672,0.6601355075836182,6.121873378753662,-0.6727150082588196,-2.286921262741089,0.06773444265127182,-0.9318618178367615,-0.35643476247787476,-0.18734806776046753,0.18154138326644897,0.21155256032943726,-0.11366904751598887,-0.11882024643764212,0.5546750127910662,0.8156572973692968,1.199511084291128,0.18779399945765124,-2.9932690892364007
1783165997697307648,0.6700544357299805,5.564119815826416,-0.5470494031906128,-2.039229393005371,0.0862010195851326,-0.9494765996932983,-0.3017672896385193,-0.04896958917379379,0.032270848751068115,0.10158726572990417,-0.10712212101396533,-0.13108248975929007,0.576136909516414,0.7996301915691549,1.2515639383093466,0.27824387740086054,-3.0769497665261922
1783165997707227392,0.6799743175506592,5.391479969024658,-0.5643114447593689,-1.8918046951293945,0.10355815291404724,-0.9626100659370422,-0.25031447410583496,-0.06275618821382523,0.05805391073226929,0.18763139843940735,-0.10120131677491874,-0.14286339238542076,0.5953426045659297,0.7841654103581883,1.2964780081483074,0.39227106937650674,3.099540402490511
1783165997717146624,0.6898934841156006,5.573535442352295,-0.5248614549636841,-1.828891396522522,0.12041378021240234,-0.9727979302406311,-0.19790127873420715,-0.07321830838918686,0.09509700536727905,0.03719571232795715,-0.09509285711508798,-0.15442881050108215,0.6141669991401293,0.7680547615260733,1.337017379161921,0.5466123223991838,2.9521780679473344
1783165997727065600,0.6998124122619629,5.3628315925598145,-0.612954318523407,-1.9450973272323608,0.1378568559885025,-0.9798087477684021,-0.14481210708618164,-0.11022314429283142,0.14496976137161255,-0.016320720314979553,-0.08812723740667333,-0.16591098479047034,0.6325088862052449,0.7514251774238778,1.3695027184091553,0.7607975004150858,2.743878694693158
1783165997736984576,0.7097313404083252,5.074592113494873,-0.6428260803222656,-1.9154729843139648,0.15609677135944366,-0.9832298159599304,-0.09430253505706787,-0.08807308971881866,0.20808333158493042,0.014987349510192871,-0.08021012987346256,-0.17696057866676632,0.6492562547532656,0.7353350433827572,1.3873991106921557,1.0273465548294274,2.481536060907472
1783165997746904576,0.719651460647583,4.626210689544678,-0.621049165725708,-1.9121203422546387,0.17461256682872772,-0.9834873676300049,-0.04756847023963928,-0.1266237199306488,0.15881097316741943,0.08827889710664749,-0.07224480972846824,-0.18785688221138958,0.6640222565215211,0.7201144129221679,1.3888167596289078,1.3048275705182137,2.208263527558891
1783165997756823552,0.7295703887939453,4.258957386016846,-0.6600910425186157,-1.9119839668273926,0.19321279227733612,-0.9811434149742126,-0.005150466691702604,-0.14830617606639862,0.11352866888046265,0.1617666482925415,-0.06423825081418491,-0.19841496168002765,0.6767985443783147,0.7060090268904463,1.3762911187678184,1.5441456742083064,1.9728595322274485
1783165997766742528,0.7394893169403076,3.844186782836914,-0.6215737462043762,-1.9752103090286255,0.21229149401187897,-0.9766268730163574,0.033651065081357956,-0.19002892076969147,0.12608671188354492,0.11815857887268066,-0.05123741506935557,-0.2040710075851212,0.6893334141279545,0.693216607321003,1.354164200437587,1.728001837583546,1.7788068681616889
1783165997776662528,0.7494094371795654,3.211484670639038,-0.6020880341529846,-2.0433759689331055,0.23232759535312653,-0.970346212387085,0.06672485917806625,-0.22933687269687653,0.23562026023864746,0.12727534770965576,-0.038529463187695866,-0.20984088575380977,0.6995207173378507,0.6820213094945393,1.3266588919499762,1.8504705304030793,1.6468773383875985
1783165997786581504,0.7593283653259277,2.9425604343414307,-0.6177974939346313,-2.12361741065979,0.2529449760913849,-0.9627906084060669,0.09514716267585754,-0.19587713479995728,0.29590529203414917,0.13481807708740234,-0.02617386894344943,-0.21573519000905864,0.7078360752996168,0.6721170336435642,1.297145241791937,1.9305814541436026,1.558088997979069
1783165997796500736,0.7692475318908691,2.5277316570281982,-0.67516028881073,-2.236943244934082,0.27470847964286804,-0.9540452361106873,0.11972181499004364,-0.16753068566322327,0.2659652829170227,0.12348808348178864,-0.013484821892400408,-0.22160860517071188,0.7146681270182811,0.6632928728966224,1.2664573850340552,1.9817907989984374,1.4977682357758746
1783165997806420480,0.7791674137115479,2.506959915161133,-0.738676130771637,-2.158811330795288,0.29661834239959717,-0.9444032311439514,0.14184542000293732,-0.09942901134490967,0.16509109735488892,0.1226656436920166,-0.000883946384297783,-0.2273849894328796,0.7205683702687006,0.6550393444643663,1.2357748791275487,2.0168592740520226,1.4536175459160128
1783165997816339456,0.7890863418579102,2.366763114929199,-0.8754565715789795,-2.11542010307312,0.31782814860343933,-0.9340770244598389,0.16274210810661316,-0.0720701813697815,0.0904950499534607,0.061760395765304565,0.011711827569859964,-0.23250459344663196,0.7261629737563459,0.6469092896674464,1.2056654580396116,2.044032899303657,1.4164332369371815
1783165997826258688,0.7990055084228516,2.264832019805908,-0.9472364783287048,-2.0561156272888184,0.3386264145374298,-0.9232744574546814,0.18137454986572266,-0.07698389887809753,0.17801982164382935,0.04401303827762604,0.024351693653224905,-0.2369882035522285,0.7311113886551519,0.6393120149110182,1.1765191245917477,2.062531007360108,1.3869296566476643
1783165997836178432,0.8089253902435303,2.3188767433166504,-1.0124552249908447,-2.1126132011413574,0.35955116152763367,-0.9115502834320068,0.19949620962142944,-0.09043198823928833,0.20949357748031616,-0.0640745460987091,0.03728962757265593,-0.24120421381098886,0.7359134669810177,0.631554649097357,1.1470387636766963,2.0773539116036477,1.3602934375541587
1783165997846097408,0.8188443183898926,2.074615716934204,-1.1249481439590454,-2.012660503387451,0.3805280029773712,-0.8992154002189636,0.215894415974617,-0.10463377833366394,0.21699482202529907,-0.1025216281414032,0.05038571802253635,-0.24509957531522428,0.7401847123260658,0.6241107120224105,1.1179728038162382,2.0868661013035945,1.338254645805767
1783165997856016640,0.828763484954834,1.829996943473816,-1.2494419813156128,-1.8471471071243286,0.40032297372817993,-0.8873271346092224,0.2288941740989685,-0.09226319193840027,0.2271553874015808,-0.08280640840530396,0.06305978214772123,-0.24812716767711232,0.7435590043016764,0.6177188306131849,1.0915161817915748,2.0902026023628015,1.321636357471821
1783165997865936640,0.8386833667755127,1.8272089958190918,-1.2833166122436523,-1.824026107788086,0.4195719063282013,-0.8753787875175476,0.2401488572359085,-0.1687174141407013,0.1701785922050476,-0.06699204444885254,0.07578539805280575,-0.2504609013532832,0.7465545959344329,0.6117043331553973,1.0662188255068117,2.090649117691855,1.3067446914862952
1783165997875855616,0.8486025333404541,1.6558384895324707,-1.308345913887024,-1.7781548500061035,0.4383196234703064,-0.8633232712745667,0.25009822845458984,-0.22390303015708923,0.1225242018699646,-0.012656182050704956,0.08822198377199872,-0.2526102988096856,0.7491576232119957,0.6059437809363997,1.0418182617655791,2.08930562110266,1.2937290242580497
1783165997885774592,0.8585214614868164,1.4690407514572144,-1.1929253339767456,-1.6374666690826416,0.4563453793525696,-0.8515990376472473,0.25793081521987915,-0.22766181826591492,0.09966105222702026,0.05990985035896301,0.10014692620564526,-0.25456411416311536,0.7511075281113387,0.6008371670084603,1.0190281978485969,2.085241772786347,1.2838027359131214
1783165997895693568,0.8684403896331787,1.298267126083374,-1.1406573057174683,-1.4668636322021484,0.4723750054836273,-0.84071284532547,0.2646958529949188,-0.15319165587425232,0.08828669786453247,0.06777787208557129,0.11082557762493207,-0.2562530672517921,0.7527830300814276,0.5961290395003151,0.998598381790576,2.0815518713797236,1.274833272121399
1783165997905613568,0.8783605098724365,1.2206460237503052,-1.113405466079712,-1.3554058074951172,0.4870823621749878,-0.8305341005325317,0.2701185941696167,-0.05097085237503052,0.1487865447998047,0.09214034676551819,0.12078680231566402,-0.2575607581210536,0.7541364256227046,0.5919048125287072,0.9800659036505563,2.0771371967676386,1.2669845171722884
1783165997915532544,0.8882794380187988,1.279476523399353,-1.1333212852478027,-1.5532314777374268,0.5020021200180054,-0.81989985704422,0.27524223923683167,0.01829206943511963,0.18192988634109497,0.04696238040924072,0.13084038488027425,-0.258975376426207,0.7553495092761813,0.5875880824911559,0.9612360883739139,2.072324972196467,1.2595199334119473
1783165997925451520,0.8981983661651611,1.215301513671875,-0.9526024460792542,-1.443996548652649,0.516987144947052,-0.8087361454963684,0.28048211336135864,0.04191184043884277,0.1683858036994934,0.04939758777618408,0.14063805856717135,-0.26087565661993434,0.7564290797457186,0.5830779511722847,0.9420001423878217,2.067887971071995,1.2527500499810322
1783165997935371520,0.908118486404419,0.8106577396392822,-0.9951205849647522,-1.5270534753799438,0.5314633846282959,-0.7980026006698608,0.2841450870037079,0.14999407529830933,0.14787143468856812,0.007496088743209839,0.1446931950931173,-0.26968318264573476,0.7545485577373867,0.5805095086599126,0.9239735380990578,2.0617755306065084,1.2665155607501126
1783165997945290496,0.9180374145507812,0.20542459189891815,-0.870868980884552,-1.6571478843688965,0.5468707084655762,-0.7877740263938904,0.28345048427581787,0.20558583736419678,0.14601999521255493,0.08619365096092224,0.1485995432467324,-0.27914962392768783,0.7508666568970316,0.5798213488790754,0.9071867904393286,2.0489872075421918,1.2881935530123112
1783165997955209472,0.9279563426971436,-0.2596209943294525,-0.6547696590423584,-1.5486985445022583,0.5615196228027344,-0.7789608240127563,0.2791343331336975,0.2897377610206604,0.1029353141784668,0.1095375120639801,0.15124555520902583,-0.2891341490295559,0.7456330277986617,0.5809971544308034,0.8930069226896813,2.032125450105708,1.3166016341393976
1783165997965129728,0.9378764629364014,-0.2182256132364273,-0.6928424835205078,-1.435397744178772,0.5752131938934326,-0.7708646059036255,0.2736741304397583,0.3227818012237549,-0.0012301206588745117,0.0284651517868042,0.15784839647600285,-0.29306189419653134,0.7422612709214353,0.581589879694998,0.8801973197223316,2.0148797694046596,1.3302798626222234
1783165997975048448,0.9477953910827637,0.12535785138607025,-0.8928707838058472,-1.1889286041259766,0.5873487591743469,-0.7633124589920044,0.26902735233306885,0.38208794593811035,-0.1103905439376831,-0.010635018348693848,0.16443040629866712,-0.29575165590626884,0.7396246606578332,0.5817637306832163,0.8684251335293853,2.000313556990222,1.3393913342011539
1783165997984967424,0.957714319229126,0.45528411865234375,-0.7424530386924744,-0.9504390358924866,0.5977617502212524,-0.7559270262718201,0.2669365704059601,0.2867291569709778,-0.14644724130630493,-0.007659196853637695,0.17104510189945682,-0.297184342445009,0.7383425707495012,0.5807540460217456,0.857069003297334,1.9907859645459036,1.3414777941542444
1783165997994886656,0.9676334857940674,0.81805819272995,-0.8569113612174988,-0.7796019911766052,0.6063994765281677,-0.748956561088562,0.26710209250450134,0.1415863037109375,-0.04733854532241821,0.013522237539291382,0.1773831868607994,-0.297611004578422,0.7382267498003569,0.5787780844766113,0.8464859408094855,1.9856987075167345,1.3379666726230894
1783165998004806400,0.9775533676147461,1.3643791675567627,-0.8074111938476562,-0.6619294285774231,0.6138986349105835,-0.7416201233863831,0.27042266726493835,0.058434247970581055,0.0026674270629882812,-0.08100005984306335,0.18402957007850992,-0.2969802455620985,0.7396039896623344,0.5752581372812305,0.83548229779232,1.9857224560388484,1.3272559461003008
1783165998014725632,0.9874725341796875,1.68421471118927,-0.8962846398353577,-0.700346827507019,0.6213306188583374,-0.7329813241958618,0.27692362666130066,0.010047554969787598,-0.07539880275726318,-0.16768598556518555,0.19145206184603702,-0.2957075010056332,0.7423064656514025,0.5699862400988863,0.822694357120888,1.9900640195300083,1.310086196473433
1783165998024644608,0.9973914623260498,1.6750192642211914,-0.9010272026062012,-0.569362461566925,0.6286536455154419,-0.7240156531333923,0.28389427065849304,0.059822916984558105,-0.16483932733535767,-0.14267420768737793,0.1990559259775135,-0.2941282530883642,0.7452755945925398,0.5642956648306592,0.8096062536145209,1.994972482131858,1.2915620024774355
1783165998034564608,1.0073113441467285,1.6732723712921143,-0.9718642234802246,-0.347852498292923,0.6346627473831177,-0.7161545753479004,0.2903894782066345,0.1246756911277771,-0.2639480233192444,-0.15185484290122986,0.20624035013570421,-0.29164846071874495,0.7484222809799936,0.5588114838756216,0.798276954830105,1.9999104460887889,1.2721669876416393
1783165998044483584,1.01723051071167,1.5610935688018799,-0.8782040476799011,-0.24680417776107788,0.6396183967590332,-0.7094139456748962,0.29600775241851807,0.15599024295806885,-0.30546343326568604,-0.09436282515525818,0.21295081364006593,-0.2885310159742488,0.751500986014149,0.553758277722569,0.7886663451108191,2.004233787014995,1.2530388314181642
1783165998054402560,1.0271494388580322,1.5381234884262085,-0.6410853266716003,-0.04504239931702614,0.6431545615196228,-0.7035555839538574,0.3022613525390625,0.12681925296783447,-0.3394589424133301,-0.026946991682052612,0.21850926920826078,-0.2854873873839548,0.7547367977759641,0.5487468549185321,0.7803885722469555,2.010130100566016,1.2341403620441886
1783165998064322560,1.037069320678711,1.665127158164978,-0.7026088833808899,0.09099985659122467,0.6451355218887329,-0.6987175941467285,0.3091830611228943,0.18134158849716187,-0.37594372034072876,0.023077160120010376,0.22326760279225433,-0.2818832810180583,0.7583754620848451,0.5436544596349382,0.7736033474142411,2.017708884637819,1.2138606994603605
1783165998074241536,1.0469884872436523,1.7837101221084595,-0.5257989764213562,0.24001644551753998,0.646063506603241,-0.6942282915115356,0.3172528147697449,0.22150558233261108,-0.42794889211654663,0.06542232632637024,0.22766164884498657,-0.2776912266235262,0.7625706441281794,0.5380928033280736,0.7673471281118813,2.0272624957281566,1.1912218160749
1783165998084160512,1.0569074153900146,1.743399739265442,-0.47017917037010193,0.47181931138038635,0.6452381610870361,-0.6905783414840698,0.326755553483963,0.20081591606140137,-0.4900398850440979,0.07719025015830994,0.2309098106525333,-0.27326544921293605,0.7672703360359567,0.5322620161257636,0.7622884154097984,2.0395593997836303,1.1671960779933093
1783165998094080768,1.0668275356292725,1.6984574794769287,-0.4539884328842163,0.656823992729187,0.6430705189704895,-0.688396155834198,0.3355158269405365,0.20095407962799072,-0.5323679447174072,0.08423814177513123,0.23366874939232582,-0.2678585848808814,0.7720166402912466,0.5269164318426294,0.7592755346121065,2.051684563495864,1.142538703667919
1783165998103999488,1.0767464637756348,1.6352511644363403,-0.25811347365379333,0.9113628268241882,0.6390202045440674,-0.6875653862953186,0.34482842683792114,0.1625238060951233,-0.5941117405891418,0.0878496766090393,0.2351990569098198,-0.26210093091474357,0.7769924809161227,0.5217921669924527,0.758130825148888,2.0656357397013814,1.1173769127507522
1783165998113918464,1.086665391921997,1.500325083732605,-0.17461204528808594,1.1019344329833984,0.6329570412635803,-0.6882562637329102,0.3544977009296417,0.1658710241317749,-0.6213750243186951,0.10170957446098328,0.23546975415658167,-0.25590168731820434,0.7821529116520866,0.5170155656861998,0.7590826752591342,2.081334885865195,1.0917089184130373
1783165998123838720,1.0965855121612549,1.5809404850006104,0.03227376192808151,1.3339277505874634,0.6250962615013123,-0.6902127265930176,0.36450085043907166,0.17188549041748047,-0.6403536200523376,0.16121014952659607,0.2346416765640041,-0.24930241230183062,0.7874634835971976,0.5125356388953951,0.7617829936356709,2.098705307990021,1.0654412104542113
1783165998133757696,1.1065044403076172,1.683258295059204,0.04175636172294617,1.483169674873352,0.615343451499939,-0.6926734447479248,0.37623900175094604,0.18246221542358398,-0.7027580142021179,0.061840832233428955,0.23295767712953555,-0.24201021763989453,0.7934422230345293,0.5075541025719781,0.7651891485819183,2.1195773489060707,1.035931288568075
1783165998143676416,1.1164233684539795,1.3163397312164307,0.04183945804834366,1.5454341173171997,0.6049531698226929,-0.6958620548248291,0.38705018162727356,0.2293822169303894,-0.7333981990814209,0.011463642120361328,0.23092787580501714,-0.23440843385306478,0.7991106144351764,0.5031374268272295,0.7696195138722344,2.1399689733404323,1.0069692273432866
1783165998153595648,1.126342535018921,0.5185407996177673,0.11659137904644012,1.5983197689056396,0.5938271880149841,-0.7014712691307068,0.3940906226634979,0.29626375436782837,-0.7368069291114807,0.012891769409179688,0.2278623249686538,-0.22724153603785588,0.8033720158948217,0.5010324014292543,0.7774597462453589,2.156704307698153,0.9839365530810604
1783165998163515648,1.1362624168395996,-0.6262354850769043,0.0676422119140625,1.4556336402893066,0.5830378532409668,-0.7102391123771667,0.3944966793060303,0.319275438785553,-0.841732382774353,0.002613365650177002,0.22366676920975417,-0.22171050051215277,0.8050421097319218,0.502717577909827,0.7898377957060262,2.16565997262958,0.9729412055491868
1783165998173434368,1.146181344985962,-1.8824524879455566,0.1639256477355957,1.5264537334442139,0.572207510471344,-0.7235599756240845,0.38605645298957825,0.349484384059906,-1.006115436553955,0.028860628604888916,0.2182612512729472,-0.21739881103871112,0.803595662015355,0.5092483000441215,0.808945906872799,2.164325498911768,0.9759533908649697
1783165998183353600,1.1561005115509033,-3.120175838470459,0.30831292271614075,1.627310037612915,0.5600525736808777,-0.7417341470718384,0.36901476979255676,0.3409332036972046,-1.0484423637390137,0.13762274384498596,0.2107113723046518,-0.2144403031873911,0.7990761839752469,0.5206663369356436,0.8356522328635042,2.1533979135009775,0.9938459926943254
1783165998193273600,1.166020393371582,-4.200570106506348,0.3683648705482483,1.7365708351135254,0.5464828610420227,-0.7639912366867065,0.3430359661579132,0.34394371509552,-0.9196329712867737,0.20078715682029724,0.2011400813386865,-0.21251815507629282,0.791425309405409,0.5366792481000107,0.8694764633487317,2.1313462482285437,1.027380116879304
1783165998203192576,1.1759393215179443,-4.666006088256836,0.3860090970993042,1.868825912475586,0.5318678617477417,-0.7883062362670898,0.3093380331993103,0.4123002290725708,-0.7026147842407227,0.22706949710845947,0.19036736424867678,-0.2108547244861159,0.7811589508033162,0.5559598142041712,0.9080513308205681,2.0975817365805463,1.0746527563455432
1783165998213111552,1.1858584880828857,-4.606013298034668,0.3389739394187927,1.9091200828552246,0.5163177251815796,-0.811743438243866,0.2729252874851227,0.47171926498413086,-0.5322505235671997,0.23844248056411743,0.17906017277644407,-0.20893735564562801,0.7699401390587582,0.5757383795729373,0.9471312524536724,2.0570608624678166,1.1289287157692585
1783165998223031552,1.1957783699035645,-4.10604190826416,0.1481965184211731,2.115039110183716,0.4995056986808777,-0.8329105973243713,0.23823076486587524,0.52345871925354,-0.4816645383834839,0.265217661857605,0.1679939033990549,-0.2057179394410877,0.7594705486262755,0.5938540483534,0.9843464711701913,2.01582065970693,1.1815076193399219
1783165998232950784,1.2056975364685059,-3.916518449783325,0.21781504154205322,2.1708080768585205,0.4811980426311493,-0.8521747589111328,0.20553980767726898,0.5328247547149658,-0.5035991668701172,0.3823508024215698,0.15690480760419578,-0.20142225751232107,0.7497992905296591,0.6104186862619436,1.0201275199982507,1.974479705666372,1.2325459144448903
1783165998242869504,1.2156164646148682,-3.9389495849609375,0.23325765132904053,2.217371702194214,0.462164968252182,-0.8697605729103088,0.1729746311903,0.4769830107688904,-0.5374202132225037,0.5200337171554565,0.1455264617157165,-0.196984728683622,0.7400569809185212,0.626366346511237,1.0547169678245123,1.928927143488356,1.287948393248689
1783165998252789504,1.2255363464355469,-4.1058783531188965,0.2551976144313812,2.3238112926483154,0.4421728253364563,-0.886073648929596,0.1391282081604004,0.5240289568901062,-0.581913411617279,0.6349501609802246,0.13374374532464897,-0.19224758648698,0.7297978950651121,0.6422993770358864,1.0888050662872124,1.8756356825895644,1.3511817926460057
1783165998262708736,1.2354555130004883,-4.62507438659668,0.37073591351509094,2.171354293823242,0.4218948483467102,-0.9008834958076477,0.10204866528511047,0.5446579456329346,-0.5679581761360168,0.6660025119781494,0.12121935880745992,-0.18801058844676166,0.7181060866750941,0.6590004846151577,1.121800599668554,1.8081198104470708,1.4303996294341308
1783165998272627712,1.2453744411468506,-5.239999294281006,0.307420015335083,2.206886053085327,0.40205100178718567,-0.9137151837348938,0.05898969992995262,0.553011953830719,-0.5055811405181885,0.6557778120040894,0.10825745360429662,-0.18427804781323195,0.7039434995539328,0.6773371419981921,1.1523348585893916,1.7164788093212082,1.5350761705818896
1783165998282546432,1.255293369293213,-5.660476207733154,0.22217890620231628,2.328246831893921,0.3813306987285614,-0.9243805408477783,0.010361512191593647,0.5543534159660339,-0.45788252353668213,0.6463156938552856,0.09472808835591225,-0.1800988798190066,0.6875646511995654,0.697026372629216,1.17940852806568,1.597961627336448,1.6667902869494227
1783165998292466688,1.2652134895324707,-5.961385250091553,0.1753273904323578,2.347602367401123,0.3598412275314331,-0.932046115398407,-0.04247577115893364,0.5007544755935669,-0.45903658866882324,0.7421980500221252,0.08068596134542215,-0.1755084823245336,0.6692973079603405,0.7174451976389004,1.2000194607276833,1.4532997114816735,1.824835902808941
1783165998302385664,1.275132417678833,-5.838097095489502,0.1286030411720276,2.469320774078369,0.3376687467098236,-0.9362772703170776,-0.0967712327837944,0.4864431619644165,-0.4350300431251526,0.8586730360984802,0.06648850574039043,-0.17031122387976766,0.6500834327337633,0.7375397739677818,1.2118779339781434,1.2916906631632596,1.9992648869932916
1783165998312304384,1.2850513458251953,-5.755842208862305,0.12455126643180847,2.547999858856201,0.31452053785324097,-0.9373289942741394,-0.1499699354171753,0.46889618039131165,-0.38092344999313354,0.9466313123703003,0.05205641533583854,-0.16447146491132048,0.6308440159440478,0.7564885765873895,1.214884031352506,1.125863426521445,2.177434566193787
1783165998322224640,1.2949714660644531,-5.562802791595459,0.17091023921966553,2.5845775604248047,0.29101279377937317,-0.9351586699485779,-0.20196542143821716,0.43236061930656433,-0.3003607392311096,1.0182037353515625,0.03737184479789145,-0.1583998579105394,0.6114955251109317,0.7743295147334005,1.2087067491434424,0.9641026989863183,2.3517141868007827
1783165998332143616,1.3048903942108154,-5.212968349456787,0.24902395904064178,2.70689058303833,0.2673589587211609,-0.9302905201911926,-0.25115475058555603,0.4235284626483917,-0.3050762414932251,1.0585278272628784,0.022336770747071934,-0.15233878091429529,0.5926343910402811,0.7906190252013374,1.1952040833718327,0.8166392530595001,2.5123684689148296
1783165998342062592,1.3148093223571777,-4.337027549743652,0.3280908167362213,3.074110746383667,0.2416548877954483,-0.9246780276298523,-0.2942337393760681,0.4412217140197754,-0.2910354733467102,1.1092209815979004,0.006541655759197191,-0.14552276267106418,0.5759394527998721,0.8044091776314004,1.1801891388363313,0.6875959267601784,2.654691519962262
1783165998351982592,1.3247294425964355,-3.574061155319214,0.43999311327934265,3.188889741897583,0.21406127512454987,-0.9198287725448608,-0.32877475023269653,0.43574953079223633,-0.27498018741607666,1.0799496173858643,-0.00990478182444706,-0.1381566609490463,0.5626058717374619,0.8150394331647227,1.1676437934414863,0.5771396661225917,2.7785796685509547
1783165998361901568,1.3346483707427979,-3.73539137840271,0.5705929398536682,3.1206607818603516,0.1869964301586151,-0.9138866066932678,-0.36033815145492554,0.4338989555835724,-0.16036266088485718,0.950838029384613,-0.0265292226073203,-0.13113303240191074,0.5501227551531456,0.824296830064869,1.152756831330434,0.47869010245494653,2.891327836033848
1783165998371820800,1.3445675373077393,-4.0402607917785645,0.5591583847999573,3.084303617477417,0.1616019606590271,-0.904755175113678,-0.3940850496292114,0.4358711838722229,-0.10536140203475952,0.7098198533058167,-0.04320086795299015,-0.12468781880959164,0.5361067323085849,0.8337723366209381,1.130804559308556,0.38915607830725446,2.9963350258615007
1783165998381740544,1.354487419128418,-4.4378662109375,0.510995626449585,3.349663496017456,0.1350620687007904,-0.8923863172531128,-0.43058669567108154,0.4207088053226471,-0.1777583360671997,0.44956862926483154,-0.060477898228973676,-0.1173686259180851,0.5205105809860178,0.8435850383790795,1.1026057528871418,0.30395028801938645,3.096933525119297
1783165998391659520,1.3644063472747803,-4.730271816253662,0.4918869137763977,3.3674583435058594,0.10797791928052902,-0.8761318325996399,-0.4698231518268585,0.2892846465110779,-0.1789981722831726,0.3974354863166809,-0.07847457903558133,-0.10949047696833109,0.5030907015555356,0.8536705082416634,1.0677786727867649,0.22590381518215663,-3.0921699494850596
1783165998401578752,1.3743255138397217,-5.253364086151123,0.4272969961166382,3.256119966506958,0.08180032670497894,-0.8553177118301392,-0.5116055607795715,0.13768208026885986,-0.06641989946365356,0.3655942678451538,-0.09632452082423865,-0.10125981779345385,0.483677238774741,0.8640163938881844,1.026163792979163,0.15854746547994292,-3.008995796265502
1783165998411497472,1.384244441986084,-6.5280537605285645,0.5117106437683105,2.7326900959014893,0.059190548956394196,-0.826643705368042,-0.5596040487289429,0.0326063334941864,0.08654665946960449,0.37855851650238037,-0.11319885079311277,-0.0932370769923674,0.45989652263652625,0.8757785481273835,0.9731168858058633,0.10538036555924261,-2.9402886225905327
1783165998421417472,1.3941643238067627,-8.128339767456055,0.435570627450943,2.316861152648926,0.04222307726740837,-0.7854894995689392,-0.6174329519271851,-0.048509713262319565,0.14172124862670898,0.33413833379745483,-0.1284384010687189,-0.085609985349995,0.42889912944358183,0.8900674045797095,0.9034866644095528,0.06827857928102925,-2.8881065020317647
1783165998431337216,1.4040839672088623,-9.667892456054688,0.3234727680683136,2.183178424835205,0.02775382623076439,-0.7289021015167236,-0.6840551495552063,-0.0773143619298935,0.22888684272766113,0.3265112042427063,-0.14277272652725337,-0.07673422432400559,0.38997983851728113,0.9064455727061914,0.8167169176677691,0.04055025627754655,-2.846690258281181
1783165998441255936,1.4140028953552246,-10.255756378173828,0.2307116687297821,2.159109354019165,0.014737124554812908,-0.6582273840904236,-0.7526748776435852,-0.17597676813602448,0.4368833899497986,0.3604171872138977,-0.15661138765749436,-0.06657671653539231,0.3452971286700751,0.922935644449773,0.7184617137809175,0.019577167321612115,-2.8127701202495854
1783165998451176192,1.4239230155944824,-9.67623233795166,0.27821022272109985,1.9797214269638062,0.004085618536919355,-0.5809661746025085,-0.8139174580574036,-0.34820181131362915,0.5889007449150085,0.36187583208084106,-0.1696393227503963,-0.05644324384425794,0.29975894143441073,0.9371132735803669,0.6199152141894463,0.005019653966215668,-2.7850325131133666
1783165998461095168,1.4338419437408447,-7.977414608001709,0.1766417771577835,1.752571940422058,-0.0038215401582419872,-0.5074005722999573,-0.8617018461227417,-0.49044114351272583,0.6532593369483948,0.3166579008102417,-0.1808510345426787,-0.04734497131475164,0.2586648990616881,0.9477045464442349,0.5321655146722948,-0.0044348460150580955,-2.7632570059964965
1783165998471014144,1.4437611103057861,-4.729737281799316,-0.045267254114151,1.8305926322937012,-0.011692916974425316,-0.4518371820449829,-0.8920238018035889,-0.5436506867408752,0.6807800531387329,0.16399645805358887,-0.1907524298617253,-0.03965964572939046,0.22894368678233656,0.9537429190284454,0.4688236633585934,-0.013107550343440987,-2.7436636923338256
1783165998480934144,1.4536809921264648,-0.9069738984107971,-0.26821908354759216,1.6262842416763306,-0.020351467654109,-0.4272162616252899,-0.9039204120635986,-0.5905341506004333,0.7451484203338623,0.04813122749328613,-0.1994583978654136,-0.034546928089607416,0.21644007830227927,0.9550793544427538,0.44141166929569975,-0.022510863902513934,-2.7247807993978594
1783165998490853120,1.4635999202728271,1.8375873565673828,-0.7751972079277039,0.799835205078125,-0.03025619499385357,-0.4327319264411926,-0.9010148048400879,-0.6157398819923401,0.9069445729255676,0.05442667007446289,-0.2046758815392482,-0.0314196366128398,0.22023945455724192,0.9532130228820098,0.44752091637653435,-0.03356751887484311,-2.7109319145723427
1783165998500772352,1.4735190868377686,2.8994457721710205,-1.4190776348114014,0.3181186616420746,-0.04243219643831253,-0.45499518513679504,-0.8894823789596558,-0.6530176401138306,1.1498804092407227,0.17424190044403076,-0.20546253383404994,-0.028141724987161037,0.23338135947293331,0.9500138125840636,0.4723667906619993,-0.047668232289030915,-2.7041324084475695
1783165998510692096,1.4834389686584473,3.375016450881958,-0.977253258228302,0.6483080983161926,-0.05528551712632179,-0.4826831817626953,-0.8740482926368713,-0.820492684841156,1.4382038116455078,0.3515721559524536,-0.20581106670745866,-0.025105407073060047,0.2496909285668324,0.9458678577822324,0.5037158525344292,-0.06316809180690863,-2.6968329283712387
1783165998520611072,1.4933578968048096,3.0330984592437744,-1.1685041189193726,-0.24693264067173004,-0.0653231218457222,-0.5115480422973633,-0.8567680716514587,-0.9552762508392334,1.4333162307739258,0.48716968297958374,-0.2053426856345182,-0.02345365396224179,0.2665818787621091,0.9413917749852434,0.5369854440430343,-0.07609642620259995,-2.6911208923700096
1783165998530530304,1.503277063369751,1.8739210367202759,-0.841625452041626,-0.8717052340507507,-0.07104223966598511,-0.5336424112319946,-0.8427210450172424,-1.2415034770965576,1.3454099893569946,0.7398616075515747,-0.2007487951360977,-0.021948190147026987,0.2795670597755409,0.9386482480319999,0.5629016631266274,-0.08410216101565803,-2.6958715871466423
1783165998540450048,1.5131969451904297,0.645037055015564,-0.2010478675365448,-1.0744116306304932,-0.07065677642822266,-0.5471388697624207,-0.8340543508529663,-1.1511297225952148,0.9956709742546082,0.8530057668685913,-0.19544722630537403,-0.022190732079842488,0.28719398306742594,0.9374580292604534,0.5789422294733546,-0.08451304363457568,-2.7053237619305435
1783165998550369280,1.523116111755371,-0.8146410584449768,0.10930611193180084,-1.2313810586929321,-0.06594260782003403,-0.5493488311767578,-0.8329870104789734,-0.9290067553520203,0.5505543351173401,0.8686926364898682,-0.19016296524847293,-0.023237757353641628,0.2880390467909237,0.9382598254734462,0.5815847750987319,-0.07899927697243991,-2.718003777417578
1783165998560288256,1.5330350399017334,-1.4382658004760742,0.1868341863155365,-1.1537259817123413,-0.05994198098778725,-0.5400868654251099,-0.8394719958305359,-0.7876226902008057,0.37858784198760986,0.8333073854446411,-0.18440661906640035,-0.0234753446056854,0.28233476767606513,0.9411324905132553,0.5705403177520582,-0.07128340201906559,-2.7336997859185526
1783165998570207232,1.5429539680480957,-1.2404913902282715,0.9174422025680542,-0.5667029619216919,-0.0508231557905674,-0.5296733975410461,-0.8466777205467224,-0.7013741135597229,0.27035027742385864,0.3630504012107849,-0.18128418315788197,-0.026026273895865124,0.27565155380387124,0.9436498077377867,0.5582154397483049,-0.05995462755558837,-2.744811152139562
1783165998580127232,1.5528740882873535,-1.3793365955352783,0.42608368396759033,-0.8318896293640137,-0.04220845550298691,-0.5194748044013977,-0.8534426689147949,-0.8924076557159424,0.3543441891670227,0.15187406539916992,-0.17976144938417174,-0.028845621313726574,0.269159072907294,0.9457309812768668,0.5462362084266553,-0.049416433205671594,-2.75207560097874
1783165998590046208,1.5627930164337158,-1.5609954595565796,-0.5296381711959839,-1.4804487228393555,-0.03713148459792137,-0.5067536234855652,-0.8612908720970154,-0.9410637021064758,0.74784255027771,0.07375431060791016,-0.17344177214602957,-0.028289621058216644,0.2618286820904654,0.948980129388367,0.5314149194149845,-0.04308475475649034,-2.7683231170679186
1783165998599965184,1.5727119445800781,-0.9674351215362549,-0.38960060477256775,-1.35427725315094,-0.033889200538396835,-0.49885293841362,-0.86602383852005,-0.47543391585350037,0.7635624408721924,-0.02568453550338745,-0.166674388943241,-0.027278630736747404,0.2573790058114598,0.9514366338469981,0.5222747566599012,-0.03911199158077219,-2.7842950458329114
1783165998609885184,1.582632064819336,-1.7514654397964478,0.047443732619285583,-1.264230489730835,-0.030937490984797478,-0.48668983578681946,-0.8730268478393555,-0.6351696848869324,0.5163071155548096,0.26960277557373047,-0.16013956527184164,-0.025846792328048474,0.2506362455286145,0.9543943929329376,0.5082965274288153,-0.035422222795746604,-2.799903830198258
1783165998619804160,1.5925509929656982,-2.3738973140716553,0.5818304419517517,-1.7557392120361328,-0.020889753475785255,-0.4696769118309021,-0.882591187953949,-0.2192683219909668,-0.0848885178565979,-0.0034103989601135254,-0.15349377485551352,-0.027664216558760665,0.24070540790455136,0.957985001820369,0.4889247765365858,-0.02366424550735524,-2.8179387601974115
1783165998629723136,1.6024699211120605,-1.970406413078308,1.2882475852966309,-1.2578845024108887,-0.0056457845494151115,-0.4504913091659546,-0.8927629590034485,-0.06733699142932892,-0.4253479242324829,-0.371809184551239,-0.14798787407292313,-0.03235419739388594,0.22928524011528809,0.9614994509846737,0.46731559122655497,-0.006323861264019576,-2.8346570851272928
1783165998639643136,1.6123900413513184,-2.1550099849700928,1.2781137228012085,-0.9769620299339294,0.011754026636481285,-0.43150433897972107,-0.9020342826843262,0.30335521697998047,-0.31913653016090393,-0.32460451126098633,-0.14439977774677706,-0.038719240609071476,0.21790751536719166,0.9644509938833798,0.4461596898297995,0.013029839099953817,-2.8473119395978324
1783165998649562112,1.6223089694976807,-0.4808449149131775,0.6194937825202942,-0.6095520257949829,0.022862205281853676,-0.4192797839641571,-0.907569169998169,0.6952316761016846,0.2113330066204071,-0.49742960929870605,-0.14219655079193927,-0.04283454528597534,0.21066707099217155,0.966211579158057,0.4326518513466357,0.02518526653947403,-2.8548872703527137
1783165998659481088,1.632227897644043,-0.1573195904493332,0.08658326417207718,-0.43821755051612854,0.029581744223833084,-0.41747257113456726,-0.908207893371582,0.9385579228401184,0.46816226840019226,-0.47017955780029297,-0.13950909456776675,-0.045508622790391834,0.20934425879990923,0.9667684376104244,0.4306621443402142,0.032560044935583524,-2.862084398015508
1783165998669401088,1.6421480178833008,0.5135478973388672,-0.7684482336044312,-0.4879460036754608,0.028131606057286263,-0.41859230399131775,-0.907738447189331,1.2020777463912964,0.42893776297569275,-0.29148030281066895,-0.13792507326436398,-0.044520830243665335,0.2101158517188497,0.9668743096636285,0.4318947497275053,0.0309809555398407,-2.865000393822297
1783165998679320064,1.652066946029663,-0.0008429614827036858,-1.0485416650772095,-1.608940601348877,0.023439325392246246,-0.4212733507156372,-0.9066307544708252,0.932188093662262,0.1737910509109497,-0.2641913890838623,-0.13181851397083413,-0.041018828757400566,0.2121369141787,0.9674395071692824,0.4348488746630146,0.025847462980945354,-2.8764608644801712
1783165998689239296,1.6619861125946045,0.29779931902885437,-0.785383403301239,-1.6111513376235962,0.02195371314883232,-0.42178499698638916,-0.9064300656318665,0.8124426603317261,0.22067415714263916,0.08265382051467896,-0.12287279828787027,-0.03833840570077926,0.2128735187202358,0.9685645716525663,0.4354130977040755,0.024215240425340318,-2.894576290721253
1783165998699159040,1.6719059944152832,0.7446745038032532,-1.071410894393921,-0.3212900757789612,0.016401518136262894,-0.42675870656967163,-0.9042167663574219,0.5370500087738037,0.012986153364181519,-0.05540841817855835,-0.11733987344785193,-0.034640814976548855,0.21608243719815337,0.9686794261691745,0.44090569601240515,0.01813693312014654,-2.9045641049645385
1783165998709078016,1.6818249225616455,0.2111547738313675,-0.7000588774681091,-0.7079938054084778,0.01088581420481205,-0.43109315633773804,-0.9022417664527893,0.2010282576084137,-0.14808470010757446,0.1929674744606018,-0.11442087122642017,-0.0314729509806646,0.21883456247657215,0.968518919320124,0.4457039350287893,0.012064710902315647,-2.9091368263153297
1783165998718997248,1.691744089126587,0.7668704986572266,-0.12575988471508026,-0.9269616007804871,0.01122291386127472,-0.43461549282073975,-0.9005461931228638,-0.21428686380386353,0.022353529930114746,0.41694939136505127,-0.10967303290275936,-0.030799803082379403,0.22085804291294928,0.9686304917332682,0.4496112862109377,0.012461696150683398,-2.9189529684863293
1783165998728916224,1.7016630172729492,1.319643259048462,-0.13741470873355865,-0.5447754263877869,0.014242253266274929,-0.4440338611602783,-0.8958967924118042,-0.1032315120100975,0.16611027717590332,0.1321791410446167,-0.10643712719075957,-0.03219859706005513,0.22586466772398595,0.9677910217718684,0.4600956891768565,0.01589586423639624,-2.9262369722322434
1783165998738835968,1.711582899093628,1.0001722574234009,0.36466172337532043,-0.3885282874107361,0.01683737523853779,-0.4545600414276123,-0.8905569314956665,0.09938882291316986,-0.1968224048614502,0.242531418800354,-0.10445520786535296,-0.03372372528027681,0.23148269673877123,0.9666269125331489,0.47187821934435686,0.01890431468496416,-2.930849987072496
1783165998748755200,1.7215020656585693,-0.2921595573425293,0.14194004237651825,-0.49404850602149963,0.021508105099201202,-0.45713040232658386,-0.8891395926475525,0.2160559743642807,-0.6034164428710938,0.3943275809288025,-0.10262812346863186,-0.03583698851153672,0.23269275990328,0.9664560239333979,0.4747660727106776,0.02418507859278529,-2.9358569794449356
1783165998758674176,1.7314209938049316,-1.2416131496429443,0.9789313673973083,-0.1933821737766266,0.027942432090640068,-0.45059967041015625,-0.8922887444496155,0.22869515419006348,-0.7966537475585938,0.2534337639808655,-0.10173622879144775,-0.038510412453060854,0.2288505679207139,0.9673645948432138,0.4674369677794167,0.031305228906261535,-2.9394795459329472
1783165998768594176,1.7413411140441895,-1.8424159288406372,0.1428225338459015,-0.11937901377677917,0.03460538387298584,-0.43715110421180725,-0.8987221121788025,0.28035128116607666,-0.6654795408248901,0.20022052526474,-0.10153577552934752,-0.04103850091075626,0.22125731061893575,0.9690467238475402,0.4524286232802513,0.03848608781054305,-2.9416552231843816
1783165998778513152,1.7512600421905518,-2.074828624725342,0.5403360724449158,-0.11861521750688553,0.037197329103946686,-0.4184691309928894,-0.9074689745903015,0.5429418087005615,-0.2487824559211731,-0.010576069355010986,-0.10204698259508607,-0.0413276983816173,0.21108654072742475,0.971247133725508,0.4317591119664887,0.04096725801249251,-2.9412100512846586
1783165998788432128,1.761178970336914,-1.7777345180511475,0.2591807544231415,-0.8616713881492615,0.04233990237116814,-0.4017287790775299,-0.9147794246673584,0.41800251603126526,0.07239833474159241,-0.1341555118560791,-0.10074307049299551,-0.04265725541765869,0.20196697599851443,0.9732629060230539,0.41340387539163787,0.046251267818435,-2.9450064538194893
1783165998798352128,1.7710990905761719,-0.6980290412902832,-0.34567028284072876,-0.7553606629371643,0.044948041439056396,-0.3901214301586151,-0.9196656942367554,0.4138684868812561,0.1773681342601776,-0.19355452060699463,-0.09631425622194008,-0.04240165936942325,0.19588073264595818,0.9749648480691567,0.40076346443187094,0.048835466942696394,-2.9545775446815172
1783165998808271104,1.7810180187225342,-0.4688093662261963,0.28864073753356934,-0.2827146649360657,0.04596186429262161,-0.3860774636268616,-0.9213206171989441,0.3491339683532715,-0.00257912278175354,-0.20470166206359863,-0.09436323679200002,-0.04229953821907993,0.1937793274291881,0.9755798338968622,0.39637554841444406,0.04984561291655789,-2.95875422064629
1783165998818190080,1.7909369468688965,-0.6276245713233948,0.08936170488595963,-0.1932327300310135,0.05101510509848595,-0.3802682161331177,-0.9234682321548462,0.013483788818120956,-0.08239352703094482,0.06636679172515869,-0.0930695539709192,-0.04429244345108765,0.19053628296131025,0.9762541127689432,0.39008628086096053,0.05518685438539558,-2.9624055548466695
1783165998828110336,1.8008570671081543,-0.2248956263065338,-0.09068602323532104,0.09854858368635178,0.050962239503860474,-0.3767026960849762,-0.9249312877655029,0.3645040690898895,-0.2691560685634613,-0.13007664680480957,-0.09326471136312392,-0.04410718991590907,0.18865020750058653,0.9766101091459465,0.3862341817567045,0.05504275076647672,-2.961939752903233
1783165998838029056,1.8107759952545166,-0.7300261855125427,-0.025621268898248672,-0.27706363797187805,0.05137910321354866,-0.3736375868320465,-0.9261507391929626,0.38912686705589294,-0.2410779595375061,-0.10979896783828735,-0.0929330051617151,-0.04408703564192973,0.18703202293097532,0.9769538625555886,0.38292755828101416,0.05541915833495467,-2.96265785715018
1783165998847948032,1.820694923400879,-0.8471080660820007,0.5018790364265442,0.004597458057105541,0.05470562353730202,-0.36521661281585693,-0.9293137788772583,0.20133686065673828,-0.12182867527008057,0.0316544771194458,-0.092851018552463,-0.04530123098388989,0.18245794597968315,0.9777707164638507,0.37386546917536956,0.058798828940870906,-2.963360929125631
1783165998857868288,1.8306150436401367,-0.70033860206604,0.055944737046957016,0.0794951394200325,0.0565645806491375,-0.3592234253883362,-0.9315358400344849,0.1696927547454834,-0.2697743773460388,-0.20597636699676514,-0.09327458670832245,-0.04599627448979433,0.17921058156932715,0.9782984415677395,0.36743565034758086,0.06064738792380749,-2.9627523720801894
1783165998867787008,1.840533971786499,-0.794481635093689,0.34895533323287964,0.03353842720389366,0.0585593581199646,-0.3527332544326782,-0.9338897466659546,0.3212471604347229,-0.14903676509857178,-0.06386721134185791,-0.0940691692728327,-0.04679719230119458,0.17568480147172208,0.9788237154184134,0.36049049783538606,0.06262279646479084,-2.9613874569307104
1783165998877705984,1.8504528999328613,-0.7066657543182373,0.02461983636021614,0.07494978606700897,0.06100060045719147,-0.34585386514663696,-0.9363033771514893,0.10303138941526413,-0.06866639852523804,-0.03845858573913574,-0.09447022840976287,-0.04772855289761732,0.1719601313881021,0.9794014315867017,0.35314864316246325,0.06505851870678636,-2.960885953757683
1783165998887626240,1.8603730201721191,-0.18362295627593994,0.2466387152671814,0.28343483805656433,0.06124458834528923,-0.3421397805213928,-0.9376510381698608,0.3669170141220093,-0.08507579565048218,-0.11136019229888916,-0.09574430626571881,-0.04786954062535076,0.16994996640158547,0.9796215811846783,0.34919316967134817,0.0652243860823607,-2.958248528136063
1783165998897545216,1.8702919483184814,-0.4233658015727997,-0.11398258805274963,0.31987887620925903,0.060496680438518524,-0.3408551812171936,-0.9381673336029053,0.3138777017593384,-0.052043378353118896,-0.06392312049865723,-0.09700420049048991,-0.04763712343805925,0.16925439987219362,0.9796294239675526,0.34782640439187873,0.06439473693079464,-2.9555106838762844
1783165998907464192,1.8802111148834229,-0.6997432112693787,0.17661835253238678,0.1368381232023239,0.05934789776802063,-0.33556225895881653,-0.9401466846466064,0.19016382098197937,0.07846692204475403,0.13391804695129395,-0.09814621777053116,-0.04695332561132763,0.16649937020950537,0.9800207207105834,0.34220202175323106,0.06304255870836722,-2.952860743625894
1783165998917383168,1.8901300430297852,-0.8827546238899231,0.38348284363746643,0.3357062041759491,0.061681993305683136,-0.32906728982925415,-0.9422897696495056,0.18587660789489746,-0.030078798532485962,0.11845254898071289,-0.09964982565526086,-0.04801831555872685,0.16293969605448713,0.9804156701788308,0.335315691887481,0.06536642744556746,-2.9500744813373454
1783165998927303168,1.9000499248504639,-1.2134089469909668,0.10578252375125885,0.3287964463233948,0.0629744753241539,-0.31963491439819336,-0.9454457759857178,0.2480301558971405,-0.09186410903930664,0.18593955039978027,-0.10180080881471965,-0.04848092866132634,0.1578819577223232,0.9809991532519643,0.32534417980307595,0.06650999427706208,-2.945707392089485
1783165998937222144,1.9099690914154053,-1.5134642124176025,0.42962557077407837,0.2474808394908905,0.06418643146753311,-0.3068287670612335,-0.949597954750061,0.26126828789711,-0.03438827395439148,0.15337908267974854,-0.10391560546561567,-0.04867916282097215,0.15110054685966018,0.9818353227713142,0.31185927458761703,0.06749061464855038,-2.941315383678175
1783165998947141120,1.9198880195617676,-0.8674472570419312,0.07566392421722412,0.2807721793651581,0.06658834964036942,-0.29583945870399475,-0.9529139399528503,0.23761087656021118,-0.02369484305381775,-0.012128174304962158,-0.10568301045558116,-0.04950941503963594,0.1452302803379527,0.982490828841653,0.3003341805829048,0.06976524690956626,-2.9378439781931536
1783165998957061120,1.9298079013824463,-0.7682458162307739,-0.052556898444890976,0.42697012424468994,0.06595537811517715,-0.28862592577934265,-0.9551675319671631,0.21695783734321594,0.01900312304496765,-0.15646576881408691,-0.1074970164280361,-0.04902485735675443,0.14146663358361616,0.9828673517164421,0.2927913720902671,0.068941681152803,-2.933886431225699
1783165998966980096,1.9397270679473877,-0.4948232173919678,0.2305799275636673,0.2280111461877823,0.06594628095626831,-0.2830994129180908,-0.9568206667900085,0.1750510185956955,0.2543824017047882,-0.17133784294128418,-0.10943993666409507,-0.04896330989569155,0.138536122530907,0.9830733651335334,0.28702420659450845,0.06881347771595135,-2.929804851202575
1783165998976899072,1.94964599609375,-0.016858745366334915,-0.05987134575843811,0.2871266305446625,0.06568372249603271,-0.2815156579017639,-0.957305908203125,0.10875475406646729,0.18109756708145142,-0.251495361328125,-0.11107111439801334,-0.04896335437806313,0.13765768921462157,0.9830138073098136,0.2853732725286521,0.06850572705285483,-2.926411759665202
1783165998986819328,1.9595661163330078,0.11524229496717453,-0.004722871817648411,0.23975621163845062,0.06439925730228424,-0.28240135312080383,-0.9571322798728943,0.15264177322387695,-0.03925392031669617,-0.1721859574317932,-0.11212952853620113,-0.04852012461876504,0.13812911669863936,0.9828495033001436,0.28629642587712784,0.06718228925462702,-2.9240894364269203
1783165998996738304,1.9694850444793701,0.058591268956661224,0.03502827137708664,0.2718677818775177,0.06455972790718079,-0.28410574793815613,-0.9566169381141663,0.1914674937725067,-0.13758614659309387,-0.13128894567489624,-0.11324833540374177,-0.04886508341956802,0.13893787671460336,0.9825900736787692,0.28807360113751834,0.06738536157647204,-2.9218727103297852
1783165999006657024,1.9794039726257324,0.056845035403966904,-0.10666003823280334,0.30778971314430237,0.06326576322317123,-0.28547754883766174,-0.9562949538230896,0.22964194416999817,-0.09294041991233826,-0.1076546311378479,-0.11480905136997648,-0.04852186207475881,0.1396358107255774,0.9823270396883891,0.2895046908414749,0.0660609018192415,-2.918532450002967
1783165999016577280,1.9893240928649902,-0.028522858396172523,-0.0764629915356636,0.24548959732055664,0.061964016407728195,-0.2856917381286621,-0.9563162326812744,0.1213856041431427,-0.02102518081665039,-0.055417776107788086,-0.11581607103707418,-0.04802373909914575,0.13976984872641735,0.9822142767603833,0.28972815769386057,0.06470403445588596,-2.91629274688749
1783165999026496256,1.9992430210113525,0.03556850925087929,-0.08616834878921509,0.15183207392692566,0.061220429837703705,-0.28684884309768677,-0.9560176730155945,0.09115384519100189,-0.020661532878875732,-0.09018594026565552,-0.11676212370992252,-0.047859044522459565,0.1403590775187765,0.9820262677876618,0.29093582616006747,0.06394960412615708,-2.914277407626171
1783165999036414976,2.009161949157715,0.05072615668177605,0.010981903411448002,0.05463549122214317,0.0611511692404747,-0.2877388894557953,-0.9557546377182007,0.027090411633253098,-0.010417848825454712,-0.06939184665679932,-0.1170243356653888,-0.04791935167070492,0.14080635994601876,0.9819280483434024,0.2918650390808815,0.06389498751995397,-2.9137496526309525
1783165999046335232,2.0190820693969727,0.22296130657196045,-0.12583544850349426,0.2631392776966095,0.06075432896614075,-0.2898164391517639,-0.9551520347595215,0.15587469935417175,-0.032708585262298584,-0.09866571426391602,-0.11768294789889469,-0.047949580684723644,0.14186202528393493,0.9816958687982127,0.2940350245586563,0.06352139923016632,-2.9123866609345606
1783165999056254208,2.029000997543335,0.0939098447561264,-0.11644966900348663,0.05932598188519478,0.06028098613023758,-0.2926308512687683,-0.9543235301971436,0.21427039802074432,-0.12217932939529419,-0.09311604499816895,-0.11834739394012833,-0.04799213683200417,0.14330036164639653,0.9814048870547827,0.29697695877118124,0.06308238606324035,-2.9110115802382914
1783165999066173184,2.0389199256896973,-0.2152775675058365,-0.1030368059873581,0.17208196222782135,0.059965990483760834,-0.2926540970802307,-0.9543362259864807,0.15042218565940857,-0.1364230513572693,0.03404814004898071,-0.11865379505549188,-0.047879896861317876,0.143315720951454,0.9813711371732561,0.29700127102295726,0.06275278310963682,-2.9103393744624495
1783165999076093184,2.048840045928955,-0.27090591192245483,-0.03658215329051018,0.13248154520988464,0.06015501916408539,-0.2918764352798462,-0.9545624852180481,0.2090405374765396,-0.1744779348373413,-0.029034316539764404,-0.11932674038410068,-0.0480218093161967,0.14287290918183176,0.9813471822187283,0.29618810454601074,0.06293519446397416,-2.9089831063266347
1783165999086012160,2.0587589740753174,-0.2961859107017517,-0.13452881574630737,0.19914530217647552,0.060475535690784454,-0.290539026260376,-0.9549501538276672,0.16242484748363495,-0.10980582237243652,0.013208210468292236,-0.11995559306475134,-0.048185689013147175,0.14213748972190737,0.981369272319833,0.29479010477642886,0.06324401743631551,-2.907726602071613
1783165999095931136,2.0686779022216797,-0.4459242820739746,-0.1886109560728073,0.30410951375961304,0.059796348214149475,-0.2882442772388458,-0.9556880593299866,0.20465372502803802,-0.13605687022209167,0.016265451908111572,-0.12116044068954795,-0.047864733456486445,0.1409430543306012,0.981409353166294,0.29239279761048254,0.062487440883829036,-2.9051286490792596
1783165999105851136,2.0785980224609375,-0.3848502039909363,-0.1174289882183075,0.23885732889175415,0.05939994379878044,-0.2853237986564636,-0.9565887451171875,0.16433969140052795,-0.10389739274978638,-0.02337646484375,-0.12222626813831296,-0.04762139704161231,0.13941965167110124,0.9815066072412927,0.28934424439622375,0.06201596643838733,-2.9028477273502697
1783165999115770112,2.0885169506073,-0.23926904797554016,-0.23766085505485535,0.4021570384502411,0.05783083662390709,-0.2835499346256256,-0.9572120904922485,0.1963042914867401,-0.11641344428062439,-0.09456098079681396,-0.12381595422891739,-0.0469376915594257,0.1385308594012592,0.9814659952368187,0.28749395323507954,0.06034255731576443,-2.8993471696488022
1783165999125689344,2.098436117172241,-0.19656698405742645,-0.1554330289363861,0.01192517951130867,0.05685615539550781,-0.2823217213153839,-0.9576334357261658,0.1547069549560547,-0.014675348997116089,-0.10990196466445923,-0.12457373438532715,-0.04647086226770294,0.1379265541358499,0.9814774664197384,0.2862134104624297,0.05930190920418026,-2.89764072938076
1783165999135608320,2.1083550453186035,0.20661215484142303,-0.17264556884765625,0.31845155358314514,0.05524558201432228,-0.2826646864414215,-0.9576265215873718,0.15401345491409302,0.05717030167579651,-0.09646588563919067,-0.1253253751422153,-0.04579114768765839,0.13816618822753723,0.9813800964463322,0.2865709453759009,0.057626239251451584,-2.8958774780664323
1783165999145528064,2.1182749271392822,0.1955481916666031,-0.13137783110141754,0.24832913279533386,0.05298704653978348,-0.2851499319076538,-0.957017183303833,0.15405946969985962,-0.05165731906890869,-0.132887601852417,-0.12663424156263306,-0.04501393224124348,0.13951756853104041,0.9810568038544302,0.2891628488834782,0.055310398092136344,-2.892908502099497
1783165999155447296,2.1281940937042236,-0.08222617208957672,-0.3395448923110962,0.22907954454421997,0.05016561597585678,-0.28638148307800293,-0.9568014740943909,0.12183146178722382,-0.15659642219543457,-0.07164090871810913,-0.127510157634569,-0.043807923443668906,0.14028587321411337,0.9808883715875659,0.2904479835766445,0.05238257542165326,-2.890716213013976
1783165999165366272,2.138113021850586,-0.23155340552330017,-0.2031472772359848,0.334410160779953,0.04715682193636894,-0.2848893105983734,-0.9573997855186462,0.17552994191646576,-0.1655959188938141,-0.02683788537979126,-0.12874094407038827,-0.042368507600981466,0.1396604029704993,0.9808800112732144,0.2888909599335854,0.04921532493483352,-2.8877438903509938
1783165999175286016,2.1480329036712646,-0.2749408185482025,-0.16459962725639343,0.3076254427433014,0.04461739957332611,-0.28300559520721436,-0.9580799341201782,0.1362602710723877,-0.22781288623809814,-0.09123647212982178,-0.13032414488818034,-0.04118585272767368,0.13879398601104295,0.9808442841651939,0.28692637614229705,0.04653598149221213,-2.8841249525774235
1783165999185205248,2.157952070236206,-0.5256326794624329,-0.3782700300216675,0.05575581640005112,0.042278409004211426,-0.2792268693447113,-0.9592939615249634,0.12759768962860107,-0.1782774031162262,-0.09997117519378662,-0.13111815100015145,-0.039855609991086706,0.13698377526126412,0.98104791216323,0.28298887161681335,0.04404391951581078,-2.8821400343758197
1783165999195124224,2.1678709983825684,-0.5429035425186157,-0.3971443772315979,0.2840886116027832,0.03849153220653534,-0.2740268409252167,-0.9609514474868774,0.16725797951221466,-0.07106593251228333,-0.11969125270843506,-0.13178314098485694,-0.03767914653626109,0.1345531713031595,0.9813811877767904,0.27757767838906655,0.0400342450346896,-2.880216020920266
1783165999205044224,2.177791118621826,-0.36339306831359863,-0.2633904814720154,0.13313625752925873,0.034826092422008514,-0.2699613869190216,-0.9622411131858826,0.1970617175102234,-0.0911073386669159,-0.15075021982192993,-0.13299662237030585,-0.035718018831291096,0.1326787750506574,0.9815459248780456,0.2733529154509985,0.036176898091033555,-2.8772149321971727
1783165999214963200,2.1877100467681885,-0.5551843047142029,-0.3873361349105835,0.12854044139385223,0.03141763433814049,-0.2657070457935333,-0.9635417461395264,0.07948324084281921,-0.058786362409591675,-0.12730908393859863,-0.1333142917249339,-0.033749956372126765,0.13072898308632006,0.9818341277225971,0.268937269167964,0.03259485891226891,-2.8760915714771524
1783165999224882176,2.197628974914551,-0.4413805902004242,-0.42168989777565,0.06563428044319153,0.027038181200623512,-0.2611367404460907,-0.964923083782196,0.16951029002666473,-0.025270730257034302,-0.13389283418655396,-0.13362269479047495,-0.031273068670032475,0.12868743375690606,0.9821438583949573,0.2641996047182311,0.028013743876826723,-2.8748715662718145
1783165999234802176,2.2075490951538086,-0.28051820397377014,-0.3527584969997406,0.2876044809818268,0.023452341556549072,-0.2576611340045929,-0.9659506678581238,0.11837810277938843,-0.0968463122844696,-0.16402369737625122,-0.13414114685520143,-0.029299316323524272,0.12714640289861212,0.9823346925110408,0.2606008211334617,0.024274256461164805,-2.8733457363296044
1783165999244721152,2.217468023300171,-0.6074396967887878,-0.3581892251968384,0.17441332340240479,0.01933063566684723,-0.2534250319004059,-0.9671618938446045,0.13322673738002777,-0.15517482161521912,-0.1514294147491455,-0.13516095857974078,-0.02706720894021659,0.12524549132490462,0.982503175761355,0.2562192514894642,0.019984310161523463,-2.870747306571862
1783165999254640128,2.227386951446533,-0.5933944582939148,-0.4310663640499115,0.2514846622943878,0.015596532262861729,-0.24758031964302063,-0.9687418341636658,0.06919655948877335,-0.14055749773979187,-0.08472496271133423,-0.13598781646040908,-0.024886978794868224,0.1225141697803054,0.982791070643153,0.2501820193701554,0.016098391051947446,-2.868625173547786
1783165999264560128,2.237307071685791,-0.6650421619415283,-0.43970122933387756,0.2160019427537918,0.01076391153037548,-0.24196387827396393,-0.9702255725860596,0.18137475848197937,-0.13854454457759857,-0.15166163444519043,-0.13703167969806646,-0.022199435855335237,0.11997670488202375,0.9830234195185221,0.24438935836303283,0.01109378155712233,-2.865943750337687
1783165999274479104,2.2472259998321533,-0.7294142246246338,-0.3584130108356476,0.10164634138345718,0.006890139542520046,-0.23502524197101593,-0.9719648361206055,0.14342418313026428,-0.030965954065322876,-0.08900922536849976,-0.13756417429304976,-0.019831368918787954,0.1167231601175422,0.9833912676865749,0.23724454008319704,0.0070887588236568655,-2.864466209577101
1783165999284398080,2.2571449279785156,-0.41168150305747986,-0.4874635934829712,0.4000853896141052,0.0020937712397426367,-0.2294721156358719,-0.9733129739761353,0.19739964604377747,-0.0013018101453781128,-0.13574159145355225,-0.1384364616658799,-0.01714211820962762,0.11423508741924557,0.9836116359863231,0.23153528618300678,0.002151176522119667,-2.8621936255620746
1783165999294318080,2.2670650482177734,-0.3670482635498047,-0.5674231052398682,0.26845040917396545,-0.0037379872519522905,-0.2262444794178009,-0.9740633964538574,0.22418171167373657,-0.1062750518321991,-0.16068696975708008,-0.14002814799590835,-0.014185967979500294,0.11299146512833129,0.9835770099707112,0.2282204592975886,-0.0038375007362755594,-2.858320975809443
1783165999304237056,2.2769839763641357,-0.43464627861976624,-0.5199235081672668,0.2339552491903305,-0.009453603997826576,-0.22169992327690125,-0.9750691056251526,0.14031298458576202,-0.11977651715278625,-0.07810777425765991,-0.1408748696502056,-0.01110458508153693,0.1110951419507865,0.9837118056029006,0.2235574275127154,-0.009695013469946485,-2.8560237402081077
1783165999314156032,2.286902904510498,-0.5087460875511169,-0.5625234246253967,0.2897639274597168,-0.015133682638406754,-0.21757255494594574,-0.9759268164634705,0.19085389375686646,-0.18937934935092926,-0.17002350091934204,-0.14204648306506204,-0.008106314590570205,0.10941150787656759,0.9837613023002683,0.21932676146693839,-0.01550574226794236,-2.8530851564529747
1783165999324076288,2.296823024749756,-0.47155576944351196,-0.5439494252204895,0.4655817151069641,-0.02115844376385212,-0.21230937540531158,-0.9769734144210815,0.17630980908870697,-0.16595600545406342,-0.12916672229766846,-0.14362493747745042,-0.00489499998478848,0.10718830032757652,0.9837980437687376,0.2139376001176632,-0.021653747863009398,-2.8493350975065255
1783165999333995008,2.306741952896118,-0.6305113434791565,-0.6008595824241638,0.5581438541412354,-0.02776532620191574,-0.20721085369586945,-0.9779022336006165,0.18496137857437134,-0.23459212481975555,-0.18823546171188354,-0.1458746161265796,-0.0014732605092853807,0.1051033737272408,0.9837030924534592,0.20872306686254702,-0.028385117435910098,-2.844182489517773
1783165999343914240,2.3166611194610596,-0.9442985653877258,-0.5445792078971863,0.36844345927238464,-0.03444824740290642,-0.19911068677902222,-0.9793713688850403,0.19883118569850922,-0.15995913743972778,-0.11886471509933472,-0.14804704360772988,0.002228374110502059,0.10153500370899862,0.9837518587251196,0.200450355340589,-0.035159342281573344,-2.8393138978463646
1783165999353833216,2.326580047607422,-0.8021427392959595,-0.7495691180229187,0.38375717401504517,-0.04130105674266815,-0.19014370441436768,-0.9808871746063232,0.16233377158641815,-0.15389621257781982,-0.13668179512023926,-0.14928182345543342,0.006185709947333425,0.09756107746453531,0.9839504873478229,0.19130852632240827,-0.042080961360811256,-2.8364174354131877
1783165999363752960,2.3364999294281006,-0.9806020259857178,-0.6510552763938904,0.3232869803905487,-0.04861055314540863,-0.18173202872276306,-0.9821458458900452,0.23769746720790863,-0.21034255623817444,-0.20454543828964233,-0.1507521953390545,0.010311311475297978,0.09391883396689296,0.9840461408612573,0.18274752207676215,-0.04945387461475732,-2.833031553600509
1783165999373672192,2.346419095993042,-0.8884377479553223,-0.7088669538497925,0.4900434911251068,-0.055809542536735535,-0.17226359248161316,-0.9834686517715454,0.11092428863048553,-0.12278035283088684,-0.1555694341659546,-0.1522201986051783,0.01447126773316992,0.08975670536327522,0.9841561869325076,0.17312715718909502,-0.05668686144013065,-2.829762495009401
1783165999383591168,2.3563380241394043,-0.8632277846336365,-0.6625845432281494,0.6040488481521606,-0.06365444511175156,-0.16367562115192413,-0.9844584465026855,0.23729947209358215,-0.16589896380901337,-0.20378923416137695,-0.1546336609992241,0.018810275638945963,0.08612175695605256,0.9840313625967857,0.16441537297037442,-0.06456947057099248,-2.8245340223203894
1783165999393511168,2.366257905960083,-1.1282107830047607,-0.8196212649345398,0.31953856348991394,-0.07142752408981323,-0.15365062654018402,-0.9855402708053589,0.20311087369918823,-0.17249073088169098,-0.1478520631790161,-0.15649688027894265,0.023288207288236478,0.08177733130610625,0.9840116229928012,0.154261717265349,-0.072349006182659,-2.8205612821907686
1783165999403430144,2.3761770725250244,-0.9784436821937561,-0.6899019479751587,0.5013585090637207,-0.07927791774272919,-0.1429470330476761,-0.9865501523017883,0.178307443857193,-0.1280032843351364,-0.11846083402633667,-0.15791821886022941,0.027907067315035353,0.07711116432917631,0.9840410829767761,0.14343839681469808,-0.0801864258532632,-2.817583662096929
1783165999413349120,2.3860960006713867,-0.866974949836731,-0.7847533226013184,0.4379614591598511,-0.08711259067058563,-0.13357755541801453,-0.9872023463249207,0.22308366000652313,-0.08213596045970917,-0.19593364000320435,-0.15979041942398,0.032390290452387546,0.07314167847845987,0.9839045762723531,0.13397800849074146,-0.0880139081400271,-2.813686566995233
1783165999423269376,2.3960161209106445,-0.7544896602630615,-0.8811952471733093,0.4504159688949585,-0.09601505845785141,-0.1254884898662567,-0.9874379634857178,0.174903005361557,-0.01744060218334198,-0.18904519081115723,-0.16144981334894765,0.037329111236017426,0.06991101928707909,0.9836935704242704,0.12582019232068242,-0.09693181492729443,-2.810130303143718
1783165999433188096,2.405935049057007,-0.6414791941642761,-0.9288594722747803,0.42145514488220215,-0.10530996322631836,-0.1182195395231247,-0.9873874187469482,0.21441030502319336,-0.002691105008125305,-0.22068142890930176,-0.16317080294674133,0.04240315222525603,0.06714353408860572,0.9833966668577689,0.11849665880721666,-0.10625348644649582,-2.806428673273276
1783165999443107072,2.415853977203369,-0.5692269802093506,-0.9285477995872498,0.3894434869289398,-0.11500252783298492,-0.11178550869226456,-0.9870554208755493,0.17414559423923492,-0.04647865146398544,-0.22966516017913818,-0.1646379544238079,0.04763386325095229,0.06483286733590697,0.9830676862217063,0.1120196410826021,-0.11598775765675855,-2.803214590467706
1783165999453027328,2.425774097442627,-0.33361443877220154,-0.9712004065513611,0.34438440203666687,-0.12452079355716705,-0.10711609572172165,-0.9864181280136108,0.15671683847904205,-0.06643737107515335,-0.22737276554107666,-0.16597961847199397,0.052650043036775084,0.06339488614836453,0.9826799042461725,0.10732199723140429,-0.1255711132994064,-2.800187464250283
1783165999462946304,2.4356930255889893,-0.1943935751914978,-1.058181643486023,0.339715838432312,-0.13478466868400574,-0.10393206030130386,-0.985409140586853,0.16453930735588074,-0.0073808059096336365,-0.19357645511627197,-0.16729502379305608,0.057921659094552325,0.06277339846621481,0.9822000288237953,0.10412008243420129,-0.13593685175967288,-2.797082863283746
1783165999472865024,2.4456119537353516,-0.07028841227293015,-1.0438368320465088,0.2933320999145508,-0.14496630430221558,-0.1022656112909317,-0.9841374754905701,0.17037218809127808,-0.010679952800273895,-0.15256601572036743,-0.168520098346457,0.06303735919939721,0.0629091904356068,0.9816668448568204,0.1024447064885472,-0.14625115560042976,-2.794061082855384
1783165999482785280,2.4555320739746094,-0.09016851335763931,-1.116851568222046,0.17074938118457794,-0.15578193962574005,-0.10143743455410004,-0.9825692772865295,0.15881845355033875,-0.06494439393281937,-0.08963525295257568,-0.16922028727899782,0.06843629092515668,0.0634966384267749,0.9811468527589566,0.10161220438343575,-0.15723674746501068,-2.7919973852312405
1783165999492704256,2.4654510021209717,-0.15290327370166779,-0.9569718241691589,0.1982385367155075,-0.1660931259393692,-0.09982571750879288,-0.9810442924499512,0.1182568222284317,-0.07949556410312653,-0.06117677688598633,-0.1695840059309012,0.07367726534478988,0.0636358166442785,0.980695296564978,0.09999226526050163,-0.16771204999667275,-2.7907231441774565
1783165999502622976,2.475369930267334,-0.09382842481136322,-0.7959905862808228,0.21636657416820526,-0.17505459487438202,-0.09850741177797318,-0.9796183705329895,0.1198483258485794,-0.12314175814390182,-0.10520517826080322,-0.17040214919379798,0.07819733428558656,0.06384343969024155,0.9801899553955815,0.09866742322513192,-0.17683028272682175,-2.7885875588264675
1783165999512543232,2.485290050506592,-0.2738722264766693,-0.7592993974685669,0.24239231646060944,-0.18287543952465057,-0.09673081338405609,-0.9783658385276794,0.11060982942581177,-0.17695081233978271,-0.10960102081298828,-0.17119518728372207,0.08219364186957596,0.06372819262126073,0.9797322035692808,0.09688230135867998,-0.18478688973266635,-2.7866284721130063
1783165999522462208,2.495208978652954,-0.292073130607605,-0.8040844202041626,0.20710912346839905,-0.19067040085792542,-0.09339281171560287,-0.9772014021873474,0.19698753952980042,-0.16562512516975403,-0.09410291910171509,-0.1718964173454233,0.08631996723755614,0.06283440657957313,0.9793121706126001,0.09352911302865455,-0.19269776536247785,-2.7850314190672076
1783165999532381184,2.5051279067993164,-0.3584529757499695,-0.7964555621147156,0.21149107813835144,-0.19867199659347534,-0.09005289524793625,-0.9759200215339661,0.21013136208057404,-0.16606587171554565,-0.13128817081451416,-0.17248853340007658,0.09056192976299815,0.061955796733214004,0.9788808300037699,0.09017505524141955,-0.20082978186271372,-2.7836622382388816
1783165999542301184,2.515048027038574,-0.2843424677848816,-0.866184651851654,0.2791503369808197,-0.20686829090118408,-0.08625782281160355,-0.97455894947052,0.23419678211212158,-0.09608470648527145,-0.08360755443572998,-0.17333226312350106,0.09493024486246267,0.06089978662241236,0.9783841659038262,0.08636515088315766,-0.20916401267561846,-2.7818369915105348
1783165999552220160,2.5249669551849365,-0.36000552773475647,-0.8464261293411255,0.1844554990530014,-0.21515041589736938,-0.08273730427026749,-0.9730697870254517,0.17059476673603058,-0.06954540312290192,-0.06329184770584106,-0.17398177127344056,0.0993367082058753,0.05997764412125975,0.9778881850143483,0.08283199402828781,-0.21760387259014435,-2.7803926910595713
1783165999562139392,2.534886121749878,-0.29938825964927673,-0.7724606394767761,0.23126283288002014,-0.22305573523044586,-0.07908224314451218,-0.9715926051139832,0.13742341101169586,-0.08983255177736282,0.008122146129608154,-0.17464157271384811,0.10357211841538115,0.05896209108453545,0.977392725569867,0.07916490544408054,-0.22566701982893655,-2.778987240264687
1783165999572059136,2.5448060035705566,-0.5220167636871338,-0.6744105219841003,0.15158984065055847,-0.2302320897579193,-0.07487571239471436,-0.9702509045600891,0.10425552725791931,-0.15066444873809814,0.04042607545852661,-0.17509896647893924,0.10750847040526568,0.05758888760640668,0.9769676120932728,0.07494585252316088,-0.23298223460946257,-2.7781301592028074
1783165999581978112,2.554724931716919,-0.5979582667350769,-0.6212988495826721,0.1836021989583969,-0.23641753196716309,-0.0691647082567215,-0.9691867828369141,0.14498686790466309,-0.181064173579216,0.08835792541503906,-0.17549154447346665,0.11108820409210016,0.05537171694851337,0.976624852671909,0.0692199723704662,-0.23926132353923862,-2.777679894519461
1783165999591897344,2.5646440982818604,-0.632928729057312,-0.5147034525871277,0.0901007428765297,-0.24164985120296478,-0.0627150908112526,-0.9683347344398499,0.14426825940608978,-0.182218998670578,0.09699684381484985,-0.17558028594580036,0.11427586567531649,0.05266552651652358,0.9763907736428824,0.06275627460049937,-0.2445569597264465,-2.7780294782641506
1783165999601817088,2.574563980102539,-0.8255767822265625,-0.4797298014163971,0.02659367024898529,-0.2465265989303589,-0.05587464198470116,-0.967523992061615,0.1433314085006714,-0.15411680936813354,0.1582435965538025,-0.1753344853102883,0.11733999133193448,0.049692388424853504,0.976227352699828,0.055903757764576296,-0.24949262458162244,-2.7791617069864127
1783165999611736064,2.5844829082489014,-1.0794074535369873,-0.3045033812522888,0.0438632071018219,-0.2501243054866791,-0.046614062041044235,-0.9670909643173218,0.11276468634605408,-0.028154000639915466,0.2753642797470093,-0.17473002143758068,0.11999073722872905,0.04535124868075726,0.9762248171522951,0.04663095830709176,-0.2530897884964088,-2.7814389041619836
1783165999621655296,2.5944020748138428,-0.985411524772644,-0.16827227175235748,0.11562414467334747,-0.25226208567619324,-0.0362883023917675,-0.9669782519340515,0.10795974731445312,0.0523100383579731,0.3337996006011963,-0.1744967760325052,0.1219818108190364,0.04038932944399027,0.9762376448779913,0.03629627130732223,-0.2551890556504624,-2.783183134622819
1783165999631575040,2.6043219566345215,-0.9154202342033386,-0.029823582619428635,0.13610970973968506,-0.2530677318572998,-0.02688167802989483,-0.9670750498771667,0.09715345501899719,0.05512569844722748,0.36867111921310425,-0.17445599615142846,0.12321477585845719,0.0357855966772556,0.9762697522337599,0.026884916891061813,-0.2559444723216655,-2.7844728886692067
1783165999641494272,2.614241123199463,-0.964123010635376,0.21344119310379028,0.1342267543077469,-0.2522096335887909,-0.01768084056675434,-0.9675110578536987,0.09580707550048828,0.011241627857089043,0.426937997341156,-0.17465594640568882,0.12358542576380176,0.031162477042729092,0.9763456930145294,0.017681762828489846,-0.25500376381859524,-2.7852957646109733
1783165999651413248,2.624160051345825,-1.3029670715332031,0.45532652735710144,-0.0001177352387458086,-0.24887000024318695,-0.006895095109939575,-0.9685123562812805,0.051024556159973145,-0.043519940227270126,0.523398220539093,-0.1743237611949684,0.1228642286107294,0.025459902939000262,0.9766613042079266,0.00689514975933213,-0.25151948864212703,-2.787462019939251
1783165999661332992,2.634079933166504,-1.5279566049575806,0.8391490578651428,-0.01610459014773369,-0.24257084727287292,0.007022380363196135,-0.9701082706451416,0.061998337507247925,-0.03293181210756302,0.6292116641998291,-0.1733422347389972,0.12094170779548867,0.017859518438299107,0.977244474006113,-0.007022438118387714,-0.24502113551526386,-2.7913521041935105
1783165999671252224,2.6439990997314453,-1.1461799144744873,0.9364731907844543,-0.04096733033657074,-0.23346230387687683,0.019833765923976898,-0.9721635580062866,0.14990517497062683,0.02415732853114605,0.5586045980453491,-0.17254845524141268,0.11749914332020779,0.010591372191962656,0.977910353765011,-0.01983506688239072,-0.2356841137824909,-2.7946440910747428
1783165999681171200,2.6539180278778076,-0.7140434384346008,0.8964313268661499,-0.11284124851226807,-0.22494222223758698,0.028607437387108803,-0.973952054977417,0.21468831598758698,0.14085666835308075,0.5026233196258545,-0.17169857931545085,0.11399549308823169,0.0053848267580460865,0.9785171302069127,-0.028611341394475583,-0.22697825961541676,-2.7974542940123177
1783165999691090944,2.6638379096984863,-0.4024498462677002,1.0181548595428467,0.03646194562315941,-0.21563974022865295,0.033650562167167664,-0.9758930206298828,0.22033944725990295,0.15972405672073364,0.5191669464111328,-0.17114467551618118,0.10977015301624359,0.0020031418540152218,0.9791098732260891,-0.033656916503960625,-0.2174720713719088,-2.7991714432899895
1783165999701010176,2.6737570762634277,0.12486443668603897,1.0869380235671997,0.30259743332862854,-0.20519357919692993,0.0354028083384037,-0.9780808687210083,0.17037302255630493,0.0663733184337616,0.5415879487991333,-0.17193575591681842,0.10468744175926348,0.00030434102108508015,0.9795297220759156,-0.03541020629313199,-0.20679299944905563,-2.797749835331861
1783165999710929152,2.68367600440979,0.21618317067623138,1.1629712581634521,0.239450141787529,-0.194082111120224,0.03373397886753082,-0.9804050922393799,0.1494806706905365,-0.12295211851596832,0.5161869525909424,-0.1734502661099836,0.09898159783905434,0.0003075913455941149,0.97985590466459,-0.033740379962772765,-0.1954343501647922,-2.794498163607979
1783165999720849152,2.6935958862304688,0.16931292414665222,1.3754725456237793,0.17123398184776306,-0.18128064274787903,0.0318572074174881,-0.9829152822494507,0.09723523259162903,-0.2170073539018631,0.6121114492416382,-0.1744405304768227,0.0924246766333767,0.00019790012924684604,0.9803204064906871,-0.03186259918393949,-0.18238211914051397,-2.7923082198094713
1783165999730768128,2.70351505279541,-0.09768547862768173,1.471278429031372,0.16510283946990967,-0.16554933786392212,0.03049665503203869,-0.9857298731803894,0.18443971872329712,-0.23511701822280884,0.6090971827507019,-0.17533166571411246,0.08446814286893718,-0.0004469334162914148,0.9808790482203046,-0.030501384820941717,-0.16639312788620483,-2.7903734291461517
1783165999740687104,2.7134339809417725,-0.42812445759773254,1.4787399768829346,0.029094111174345016,-0.15020215511322021,0.03288070857524872,-0.9881083965301514,0.2511237859725952,-0.12730209529399872,0.6443278789520264,-0.17562760628450702,0.07705213820378612,-0.002962885950948154,0.9814321166354044,-0.03288663570843754,-0.1508549403323878,-2.7899260425275125
1783165999750606080,2.7233529090881348,-0.4547046720981598,1.5245956182479858,0.13813991844654083,-0.13539375364780426,0.03722937032580376,-0.9900921583175659,0.24659980833530426,-0.030454464256763458,0.5794323682785034,-0.1758025847617476,0.07009171709492534,-0.006408331848739725,0.981906055002112,-0.03723797527484898,-0.13590567229331926,-2.7897972467421526
1783165999760526080,2.7332730293273926,-0.2627527415752411,1.5985721349716187,0.05835416167974472,-0.11973795294761658,0.040850888937711716,-0.9919647574424744,0.21863016486167908,0.009854070842266083,0.5161499381065369,-0.1761462406452031,0.06266017477433823,-0.009557047745415454,0.9823211420617511,-0.04086225906262846,-0.12012669190180494,-2.7891889331273463
1783165999770445056,2.743191957473755,-0.09660343825817108,1.6594264507293701,0.16534985601902008,-0.10363828390836716,0.04253873601555824,-0.9937049746513367,0.14782774448394775,0.027605917304754257,0.46672743558883667,-0.17652286208538184,0.054849655501649226,-0.011791181007034832,0.9826963189444028,-0.04255157643522847,-0.10391911892119853,-2.7883346364657533
1783165999780364288,2.7531111240386963,-0.16373014450073242,1.6942280530929565,0.0835191085934639,-0.08689276874065399,0.043805789202451706,-0.9952540993690491,0.1285340040922165,0.03848486393690109,0.4363246560096741,-0.17699430670479954,0.046695536587577566,-0.013873827877399337,0.9830055639299907,-0.04381981051894745,-0.08708629467406975,-2.7872112511241287
1783165999790284032,2.763031005859375,0.002895850222557783,1.763384461402893,0.06185455620288849,-0.06964333355426788,0.044921696186065674,-0.9965600371360779,0.11004861444234848,0.04220598563551903,0.4334954619407654,-0.1771830932686572,0.0382858049423403,-0.01594344601235599,0.9833037832611305,-0.04493681835172831,-0.0697703026805382,-2.786604181279125
1783165999800203008,2.7729499340057373,0.4244394898414612,1.7356979846954346,0.13913848996162415,-0.05230864882469177,0.04274462163448334,-0.9977157711982727,0.13420256972312927,-0.008275017142295837,0.3681839108467102,-0.17766988429318578,0.029554003639451112,-0.01639176001979696,0.9835096381597795,-0.04275764792750139,-0.05238045239213852,-2.7852701801664983
1783165999810122240,2.7828691005706787,0.38799598813056946,1.7179983854293823,0.03529278561472893,-0.03509879484772682,0.03848561272025108,-0.9986425638198853,0.12616324424743652,0.027264509350061417,0.33902037143707275,-0.17803526747714893,0.02070292776983403,-0.015815070540088363,0.9836791280101412,-0.03849511894544456,-0.0351320438844857,-2.7841671857298222
1783165999820042240,2.7927889823913574,0.24114149808883667,1.7445896863937378,-0.05026635900139809,-0.017866306006908417,0.03546484187245369,-0.9992111921310425,0.10740488767623901,0.10561791807413101,0.33025068044662476,-0.17790691644489215,0.01194828826409103,-0.015862974784777415,0.9838468941335525,-0.03547228174999473,-0.017878505503197285,-2.784120403842006
1783165999829960960,2.8027079105377197,0.4612523019313812,1.7112038135528564,0.027922188863158226,-0.0005075000808574259,0.03203172981739044,-0.9994867444038391,0.14799895882606506,0.04655103385448456,0.2580469250679016,-0.1775489421454219,0.003094079054374729,-0.015718296421147398,0.9839816282236782,-0.032037210863018355,-0.0005077606656659658,-2.7845640159799077
1783165999839880192,2.812627077102661,0.49280503392219543,1.771183967590332,0.07522385567426682,0.01747029460966587,0.026962190866470337,-0.9994837641716003,0.19322305917739868,-0.13864126801490784,0.19491839408874512,-0.17764973749617513,-0.00620174608239936,-0.014820515502736047,0.98396267820332,-0.026965458932811135,0.017477538091331374,-2.784115066452788
1783165999849800192,2.82254695892334,0.19388864934444427,1.7182663679122925,-0.07938489317893982,0.035003915429115295,0.023264335468411446,-0.9991163611412048,0.1688077300786972,-0.1967872828245163,0.18541091680526733,-0.17751297580418549,-0.015161908290950014,-0.014558075550033054,0.9838939878709764,-0.023266434165964533,0.035020549855733225,-2.7841880749999373
1783165999859718912,2.832465887069702,0.17372086644172668,1.8058204650878906,-0.0029617249965667725,0.05256934463977814,0.021962787955999374,-0.9983757138252258,0.16293053328990936,-0.15901723504066467,0.2005699872970581,-0.1770509098495624,-0.023933744121161588,-0.01546966285949996,0.9837890393389853,-0.02196455324113757,0.05260629001655986,-2.7848901704404625
1783165999869638144,2.8423850536346436,0.22063270211219788,1.5621588230133057,0.0020431536249816418,0.06931769847869873,0.01969842053949833,-0.9974001049995422,0.13977348804473877,-0.09229974448680878,0.08861720561981201,-0.17700963230463115,-0.0323873567890453,-0.015842722196234324,0.9835484424366588,-0.01969969539203325,0.06938681412487782,-2.7847802813023446
1783165999879558144,2.8523049354553223,0.376391738653183,1.4549188613891602,-0.009384437464177608,0.08399942517280579,0.0169815756380558,-0.9963210821151733,0.11267110705375671,0.087525874376297,0.04591214656829834,-0.17682635144060144,-0.039870562430223175,-0.015804780613290575,0.9833071797886435,-0.016982392615153368,0.08411067812967966,-2.78502498972772
1783165999889477376,2.8622241020202637,0.6544875502586365,1.3564071655273438,-0.07196073234081268,0.09818796813488007,0.011747371405363083,-0.9950985312461853,0.06877370178699493,0.12605474889278412,-0.13322782516479492,-0.17649269969105705,-0.04734150539399622,-0.014474365876434496,0.9830562411117539,-0.011747641440827293,0.09835323121686161,-2.785730068117676
1783165999899396096,2.872143030166626,0.8528540730476379,1.2103878259658813,-0.11170924454927444,0.11068100482225418,0.004102223552763462,-0.9938474893569946,-0.005502179265022278,0.12517023086547852,-0.2942078709602356,-0.1758301743819361,-0.05419786894502679,-0.01178272630067786,0.9828567869375783,-0.004102235036650896,0.11090917525065787,-2.7873161326939897
1783165999909316096,2.8820629119873047,0.7061775326728821,0.9854442477226257,-0.27176493406295776,0.12165626883506775,-0.0031212212052196264,-0.9925673604011536,-0.005597926676273346,0.13700182735919952,-0.29394686222076416,-0.17462943708722253,-0.060275092673422855,-0.009122603672312605,0.9827451917247035,0.0031212262857857917,0.12195896933665261,-2.7900633617115433
1783165999919235328,2.891982078552246,1.211767315864563,0.8690431118011475,-0.026408828794956207,0.1306854635477066,-0.011987547390162945,-0.9913514256477356,0.007208213210105896,0.14939294755458832,-0.3716551661491394,-0.17351513304633898,-0.06553133103737677,-0.005471933255704915,0.9826333360297037,0.011987834311032843,0.1310698170796088,-2.79281939528412
1783165999929154048,2.9019010066986084,1.5340344905853271,0.7126085162162781,-0.13518750667572021,0.13883553445339203,-0.025841960683465004,-0.9899782538414001,-0.07371103763580322,0.0027859285473823547,-0.47753578424453735,-0.1726953923268486,-0.07078407046810499,0.0007093621248819109,0.9824282847310238,0.025844837575863856,0.13933230340596522,-2.79538318690785
1783165999939074048,2.911820888519287,1.4007529020309448,0.7037356495857239,-0.15049739181995392,0.1459781974554062,-0.040415771305561066,-0.9884619116783142,-0.09058879315853119,-0.014363288879394531,-0.4121575951576233,-0.17148823694404167,-0.07559536278326263,0.0073750486056574915,0.9822538299598045,0.040426781295488295,0.14662235681132713,-2.798873254226698
1783165999948993280,2.9217400550842285,1.0277254581451416,0.36273622512817383,-0.22331033647060394,0.15196067094802856,-0.05174136534333229,-0.9870312809944153,-0.15904074907302856,0.05186343193054199,-0.3089739680290222,-0.16984955896472223,-0.07953581659560587,0.012585909966802079,0.9821744487769362,0.05176447969551318,0.15275790046037366,-2.8030777541853196
1783165999958912256,2.931658983230591,0.9753859043121338,0.45248541235923767,-0.14306996762752533,0.15625008940696716,-0.06134117767214775,-0.9858109354972839,-0.19544991850852966,0.07087792456150055,-0.30586081743240356,-0.16860341019320715,-0.08248127107220467,0.01706988298512638,0.9820785575974139,0.06137971305048411,0.1571914361640358,-2.806382933329948
1783165999968832256,2.9415791034698486,1.2658462524414062,0.45379170775413513,0.02164042368531227,0.16146045923233032,-0.07245136052370071,-0.9842160940170288,-0.22502857446670532,0.004030950367450714,-0.3561769723892212,-0.16785774750797677,-0.08602059570701251,0.02219031484861637,0.9818002624195739,0.07251489622337154,0.16260146239474133,-2.8088394961710024
1783165999978751232,2.951498031616211,0.7270410656929016,0.2744462490081787,0.16984084248542786,0.16489101946353912,-0.08271195739507675,-0.9828375577926636,-0.09479214251041412,-0.10922835022211075,-0.3260003328323364,-0.16806708148875296,-0.08862420704274031,0.02696230254790299,0.981413408307536,0.08280655475623157,0.16622235508000324,-2.809284961914457
1783165999988670208,2.9614169597625732,0.2585090398788452,0.17624245584011078,-0.013765736483037472,0.16685932874679565,-0.08702601492404938,-0.982132613658905,-0.021717727184295654,0.020451918244361877,-0.19814997911453247,-0.16829462493008157,-0.08998767632897492,0.028912266399157928,0.9811948205335835,0.08713624161420967,0.16828801366599325,-2.809212278954797
1783165999998590208,2.971337080001831,0.6461156010627747,-0.025813281536102295,0.19098727405071259,0.1678837239742279,-0.09161879867315292,-0.9815401434898376,-0.0773228108882904,0.09087112545967102,-0.35340553522109985,-0.16838655038881287,-0.09090202085978563,0.03109260809923395,0.9810281369911232,0.09174746359477369,0.16940186016412057,-2.8094148430582684
1783166000008509184,2.9812560081481934,0.6067541241645813,-0.10365375131368637,0.17468607425689697,0.1669120490550995,-0.09837313741445541,-0.981052041053772,0.05023577809333801,0.041198454797267914,-0.4072688817977905,-0.16925108603664193,-0.09103726928150345,0.034441239471239234,0.9807548599105061,0.09853249830876984,0.16852212164561856,-2.808143299660541
1783166000018428160,2.9911749362945557,0.24254658818244934,-0.2155420035123825,0.03613298013806343,0.16546709835529327,-0.10299652814865112,-0.9808222651481628,-0.05648884177207947,0.03854341059923172,-0.3457310199737549,-0.1694001595400686,-0.0907281478942325,0.036841019425840345,0.9806705237108254,0.10317950667891786,0.16712875257177498,-2.8081402638456803
1783166000028348160,3.0010950565338135,0.14209960401058197,-0.21668078005313873,0.12569960951805115,0.16342303156852722,-0.10475745052099228,-0.9809784889221191,-0.010148480534553528,0.06563391536474228,-0.30483388900756836,-0.1696812247862236,-0.08987380704931475,0.037860990999718194,0.9806618241416626,0.10495000828366792,0.16507588520656324,-2.8076208788276555
1783166000038267136,3.011013984680176,0.048728253692388535,-0.4935761094093323,-0.0437183752655983,0.1606076955795288,-0.10611917823553085,-0.9812970757484436,0.021689042448997498,0.03725627064704895,-0.3648027777671814,-0.1699389825572831,-0.08859927176840071,0.038751076371046675,0.9806983999335573,0.10631936648513729,0.16223040504388309,-2.8070842224964454
1783166000048186112,3.020932912826538,-0.28523188829421997,-0.4396367073059082,-0.1043042242527008,0.15650686621665955,-0.10481728613376617,-0.9820992350578308,0.10145820677280426,0.02679910510778427,-0.3441946506500244,-0.1695243674123056,-0.08642268124248349,0.038490182645231116,0.9809746012738833,0.10501017107524131,0.1580307043244799,-2.807670838877712
1783166000058106112,3.030853033065796,-0.30413153767585754,-0.47342804074287415,-0.04210276901721954,0.15303994715213776,-0.10196565836668015,-0.982945442199707,0.23738670349121094,0.014624349772930145,-0.33080577850341797,-0.16909389973560449,-0.08442714228857195,0.03740756232902075,0.981264538227243,0.10214317945041525,0.15445516773730683,-2.8082105273460303
1783166000068025088,3.040771961212158,-0.10262398421764374,-0.4810454845428467,0.1829141080379486,0.14974837005138397,-0.10090280324220657,-0.9835619330406189,0.34489578008651733,-0.09860585629940033,-0.4035688042640686,-0.16941979539021582,-0.08270615551975533,0.037131270118377094,0.9813653705742927,0.10107481603818093,0.15109076727153062,-2.807345880475961
1783166000077944064,3.0506908893585205,-0.5367034077644348,-0.6454986929893494,0.007039943244308233,0.14419442415237427,-0.0985436737537384,-0.9846304655075073,0.39941519498825073,-0.1634649932384491,-0.3716164827346802,-0.17006992067983728,-0.07975779123341763,0.0363795433161873,0.9815251161466563,0.09870386498904059,0.14541158635612686,-2.805652245741336
1783166000087864064,3.0606110095977783,-0.8947063088417053,-0.8441412448883057,-0.03448992222547531,0.13656316697597504,-0.09102160483598709,-0.9864408373832703,0.35824882984161377,-0.10332959145307541,-0.32187825441360474,-0.17010477635365692,-0.07530327949038991,0.033301445296007,0.9819800303859333,0.0911477591014368,0.1375658925005807,-2.804827968252612
1783166000097783040,3.0705299377441406,-0.8051669001579285,-0.8211780786514282,-0.11620146036148071,0.12891362607479095,-0.08261182904243469,-0.9882087707519531,0.35175347328186035,-0.1884605586528778,-0.4269065856933594,-0.16995706800154478,-0.07076337737711816,0.02980203622807293,0.9824556555522145,0.08270608714854417,0.12971928466741298,-2.804374030568091
1783166000107702272,3.080449104309082,-0.988126814365387,-0.9185057282447815,-0.054241690784692764,0.12052704393863678,-0.0740405023097992,-0.9899450540542603,0.23163053393363953,-0.3422955572605133,-0.44329768419265747,-0.16966308718246786,-0.065847938306064,0.02629669847699593,0.9829480486344959,0.07410832162948519,0.12115495442246314,-2.804245034225686
1783166000117622016,3.0903689861297607,-1.178449034690857,-0.8850792050361633,0.006743000820279121,0.11174151301383972,-0.06298961490392685,-0.9917389750480652,0.14549115300178528,-0.30944690108299255,-0.3262999653816223,-0.1698712831911791,-0.060541662859068035,0.021569252512902,0.9833682913429087,0.06303134633875802,0.11219910729919164,-2.8030212081273937
1783166000127540992,3.100287914276123,-1.1945337057113647,-0.9570303559303284,-0.08730173856019974,0.10285625606775284,-0.05142930522561073,-0.9933658242225647,0.07637348026037216,-0.23387953639030457,-0.3170284628868103,-0.16990658930049912,-0.055145756099799374,0.016614585711564607,0.983775712865011,0.05145200502441198,0.10317550866071289,-2.8022067770962398
1783166000137460224,3.1102070808410645,-1.1046836376190186,-0.9991010427474976,-0.029404684901237488,0.0933041200041771,-0.03983636200428009,-0.9948403835296631,0.0778537169098854,-0.08939032256603241,-0.2885458469390869,-0.16975861817703286,-0.04942261358355017,0.011713624089645748,0.984175963589771,0.039846907552152755,0.09351447852630697,-2.8018427318702437
1783166000147380224,3.120126962661743,-1.0722625255584717,-0.9668975472450256,0.08914247155189514,0.08375149965286255,-0.029257796704769135,-0.9960570335388184,0.11917512863874435,-0.09784790873527527,-0.28998416662216187,-0.1701641648907385,-0.04379877116823432,0.00728952450004143,0.9844149484836023,0.029261972220514604,0.0838857145875747,-2.8004873739335348
1783166000157298944,3.1300458908081055,-0.9563775062561035,-1.041237235069275,0.11088638007640839,0.0739051029086113,-0.01913231611251831,-0.9970817565917969,0.1667565107345581,-0.09153968095779419,-0.24460220336914062,-0.1708449246200396,-0.03807178249456072,0.003109811586460839,0.9845571914333195,0.019133483752554418,0.0739861143233426,-2.7986732355138626
1783166000167218176,3.139965057373047,-0.7389301061630249,-1.0697277784347534,0.17155079543590546,0.06335290521383286,-0.010849560610949993,-0.9979321956634521,0.23652806878089905,-0.11079350858926773,-0.27074456214904785,-0.17162547945352882,-0.03215409386998953,-9.514325712588247e-05,0.9846373690801535,0.010849773207816089,0.06339909486243138,-2.7967976345107544
1783166000177138176,3.1498849391937256,-0.6383769512176514,-1.0783708095550537,0.22871990501880646,0.0526423454284668,-0.004365518689155579,-0.998603880405426,0.2739872932434082,-0.14460603892803192,-0.24639123678207397,-0.17284297999154322,-0.026311335287063954,-0.002401972615034701,0.9845950036114387,0.004365532592278618,0.052667193316186876,-2.7941543857139566
1783166000187057152,3.159804105758667,-0.4839879274368286,-1.0710234642028809,0.2581323981285095,0.041981879621744156,0.00104527547955513,-0.9991178512573242,0.23964959383010864,-0.10939793288707733,-0.18351459503173828,-0.17417258690507617,-0.020583443983937532,-0.004172418582195659,0.984491214224739,-0.0010452756906279954,0.04199424616507399,-2.7913618267115097
1783166000196976128,3.1697230339050293,-0.4512994587421417,-1.1611343622207642,0.24146711826324463,0.030804570764303207,0.005418999120593071,-0.9995107650756836,0.2224608063697815,-0.08911345899105072,-0.1761636734008789,-0.1755131782137963,-0.014689323539189168,-0.00537172164179808,0.9843528189318493,-0.005419025483225748,0.030809896400062826,-2.7886115074344073
1783166000206896128,3.179642915725708,-0.36723092198371887,-1.1205248832702637,0.19343115389347076,0.019848043099045753,0.00953464861959219,-0.9997575283050537,0.1676977276802063,-0.053968243300914764,-0.1393110752105713,-0.17654980708196497,-0.008926932684235145,-0.0064450096629266465,0.984230124533564,-0.009534793310835852,0.019850248390911346,-2.78651609581379
1783166000216815360,3.1895620822906494,-0.4208945035934448,-1.1385090351104736,0.17005829513072968,0.008735733106732368,0.013166767545044422,-0.9998751282691956,0.14340965449810028,-0.10607753694057465,-0.14093291759490967,-0.17764690652242385,-0.003128931786255377,-0.007254852759893452,0.9840625625558952,-0.013167148360420999,0.008736602032928906,-2.784334237926014
1783166000226734080,3.1994810104370117,-0.5671930909156799,-1.0286331176757812,0.2513909637928009,-0.0019726247992366552,0.018362732604146004,-0.9998294711112976,0.14696164429187775,-0.12723419070243835,-0.1295192837715149,-0.17855964648799055,0.0026100623995018238,-0.008858054309201308,0.9838858315560969,-0.01836376400999587,-0.0019729586752964346,-2.7825506213634483
1783166000236654080,3.2094008922576904,-0.7416249513626099,-0.9271330237388611,0.17271582782268524,-0.011666513979434967,0.024483075365424156,-0.9996321797370911,0.17942163348197937,-0.2042010873556137,-0.19633644819259644,-0.17976241652858474,0.00793971643569222,-0.010994400191891233,0.9836166070004844,-0.02448552105613535,-0.0116702770417386,-2.780212107698955
1783166000246573312,3.219320058822632,-0.9008952975273132,-0.9484779834747314,0.13574662804603577,-0.020843304693698883,0.0328645221889019,-0.9992424249649048,0.15525798499584198,-0.2113160640001297,-0.13360053300857544,-0.1804783909113421,0.01321918511758621,-0.014283787504329685,0.9833864510885049,-0.0328704396335495,-0.020856082367153923,-2.7789204076027687
1783166000256492032,3.229238986968994,-0.9903953671455383,-0.9306996464729309,0.13523618876934052,-0.030087534338235855,0.04202475771307945,-0.9986634254455566,0.19328027963638306,-0.18667808175086975,-0.14678335189819336,-0.18117356360544898,0.018609021699862744,-0.01794396604924675,0.9831112892862773,-0.04203713643775591,-0.030118691243130373,-2.7777433802079057
1783166000266412288,3.239159107208252,-1.224678635597229,-0.946904718875885,0.14556924998760223,-0.039291977882385254,0.0531347319483757,-0.9978140592575073,0.13116514682769775,-0.1391790509223938,-0.11525356769561768,-0.18179988830014865,0.02416403331766084,-0.02256288904938922,0.9827795934402519,-0.053159765332922604,-0.03935772076897869,-2.7768038052694357
1783166000276331264,3.2490780353546143,-1.4319205284118652,-0.9063104391098022,0.18707865476608276,-0.04838475584983826,0.06628523766994476,-0.9966269135475159,0.09989842772483826,-0.12895308434963226,-0.14058011770248413,-0.18263053874958218,0.029867969682449542,-0.02818604379430383,0.9823235856320076,-0.06633387415959023,-0.04851042786409623,-2.7755662104735612
1783166000286250240,3.2589969635009766,-1.8020198345184326,-0.8756769299507141,0.2233509123325348,-0.057022035121917725,0.08240773528814316,-0.9949660301208496,0.03242487087845802,-0.14802053570747375,-0.13726657629013062,-0.19531182272290135,0.03606369251174295,-0.034876667663573335,0.9794571730305068,-0.08250129416211291,-0.05724790949985313,-2.7503031904757416
1783166000296170240,3.2689170837402344,-1.9836117029190063,-0.7926915884017944,0.22067250311374664,-0.06512942165136337,0.10109446942806244,-0.9927427172660828,0.052815571427345276,-0.13786815106868744,-0.13585835695266724,-0.20770249155721526,0.0424468903527827,-0.04274238229039783,0.976335578421072,-0.10126746275800139,-0.0655116572892622,-2.725689957808787
1783166000306089216,3.2788360118865967,-1.877372145652771,-0.7743110060691833,0.1964140236377716,-0.0723801776766777,0.12046399712562561,-0.9900755286216736,0.0837327167391777,-0.10175672173500061,-0.19499832391738892,-0.21961681417561196,0.04868393197047255,-0.05091281400773646,0.9730396937779763,-0.12075727090351557,-0.07297589219485241,-2.702041507199525
1783166000316008192,3.288754940032959,-1.660631775856018,-0.7603497505187988,0.11826679855585098,-0.07974530011415482,0.13785596191883087,-0.987236738204956,0.1647520214319229,-0.07233473658561707,-0.26959913969039917,-0.2308884661492663,0.054929535275734215,-0.05800315980424794,0.9696952413555556,-0.13829638726776636,-0.0806012651109312,-2.679674741000934
1783166000325928192,3.298675060272217,-1.397010326385498,-0.9389229416847229,0.024156279861927032,-0.08795112371444702,0.152917742729187,-0.984317421913147,0.22747749090194702,0.009695172309875488,-0.24236714839935303,-0.24130127158444972,0.06142937558706166,-0.06377874339572616,0.9664017350176471,-0.1535200766524944,-0.08911574439793087,-2.6590765444668336
1783166000335847168,3.308593988418579,-1.0100370645523071,-1.043041467666626,0.029186591506004333,-0.09762702137231827,0.1646483689546585,-0.9815089702606201,0.29260385036468506,0.0792328268289566,-0.2554599642753601,-0.2514353757237534,0.06834268536028744,-0.06763717163870125,0.9630860806791163,-0.16540151005315595,-0.09914016429908698,-2.639072144781042
1783166000345766144,3.3185129165649414,-0.8455255627632141,-1.0392131805419922,-0.0012221813667565584,-0.10785972326993942,0.1734430342912674,-0.9789196848869324,0.19356834888458252,0.07216240465641022,-0.23601555824279785,-0.26094071407801767,0.07518786100439814,-0.06990658773272143,0.9598801548713599,-0.17432462758919054,-0.1097397410631327,-2.6203263292134387
1783166000355686144,3.328433036804199,-0.7570168375968933,-1.0201797485351562,0.013476436957716942,-0.1179203987121582,0.18115711212158203,-0.9763590097427368,0.1530613899230957,0.004313468933105469,-0.19644677639007568,-0.27015973739586513,0.08184280471369439,-0.07156995768638774,0.956657364582101,-0.1821629070545412,-0.12019350478376452,-2.60211852057523
1783166000365605120,3.3383519649505615,-0.6542108058929443,-0.9358790516853333,-0.10448135435581207,-0.12726932764053345,0.1881352663040161,-0.9738622307777405,0.17391544580459595,-0.024667859077453613,-0.16574043035507202,-0.269931635579639,0.08737282384870124,-0.07372160330478641,0.9560690663941251,-0.1892631636758994,-0.12994869901216538,-2.6035989653611415
1783166000375524096,3.348270893096924,-0.5682094097137451,-0.906152069568634,-0.029593702405691147,-0.13628023862838745,0.19378429651260376,-0.9715324640274048,0.18834322690963745,-0.02116161584854126,-0.18418347835540771,-0.2697359212394827,0.09256169723202948,-0.07527347710994607,0.955514930617597,-0.1950180999708005,-0.139364159578924,-2.6049781460978454
1783166000385444096,3.3581910133361816,-0.48521092534065247,-0.8197879195213318,-0.038064148277044296,-0.14472214877605438,0.1988247036933899,-0.9692906141281128,0.13491074740886688,-0.024416744709014893,-0.1549464464187622,-0.2697294872466357,0.09740989838370784,-0.07658993366379457,0.9549300323553224,-0.2001585313247964,-0.14821240875613864,-2.6059257209674573
1783166000395363072,3.368109941482544,-0.35106995701789856,-0.8385516405105591,-0.11845622956752777,-0.15273582935333252,0.20292243361473083,-0.96720951795578,0.11994469165802002,0.004429250955581665,-0.12142878770828247,-0.2695997038733291,0.10191197496140783,-0.07751895988864897,0.9544217395581358,-0.20434153418662362,-0.1566205780886046,-2.6070797546795244
1783166000405282304,3.3780291080474854,-0.27305877208709717,-0.729161262512207,-0.19610361754894257,-0.16060976684093475,0.2057647854089737,-0.9653317332267761,0.13515810668468475,0.00021360814571380615,-0.08593779802322388,-0.2689562221505322,0.10613033753784312,-0.07791331861671898,0.9541113261002822,-0.20724515511410113,-0.16486760539670714,-2.609252259325293
1783166000415202048,3.387948989868164,-0.0607885867357254,-0.7842831015586853,-0.13578195869922638,-0.16832531988620758,0.2070063352584839,-0.9637504816055298,0.1414545774459839,-0.020574450492858887,-0.002329230308532715,-0.2684087787619383,0.11005450514744923,-0.0775420417385879,0.953851200781802,-0.20851401391440855,-0.17291238375055912,-2.61112708651719
1783166000425121024,3.3978679180145264,-0.06741879135370255,-0.7488114237785339,-0.09733549505472183,-0.1759420931339264,0.2075062096118927,-0.9622814655303955,0.1542745977640152,-0.0566578209400177,0.11425900459289551,-0.26814224063364456,0.1138517378925341,-0.07679233399923861,0.9535411007664502,-0.2090249926494627,-0.18084098125550588,-2.6123584550515737
1783166000435040256,3.4077870845794678,0.07315769791603088,-0.6156392693519592,-0.03858020529150963,-0.18226246535778046,0.20733703672885895,-0.9611408710479736,0.11957937479019165,-0.07597412168979645,0.22726941108703613,-0.2680100485392664,0.11692960202825234,-0.07587516965705882,0.9532790820172717,-0.2088520588285155,-0.1874061511466679,-2.6131501472448715
1783166000444960000,3.4177069664001465,0.11142119765281677,-0.3974209129810333,-0.06150336563587189,-0.18723267316818237,0.2061842679977417,-0.9604332447052002,0.12869995832443237,-0.126060351729393,0.3113853931427002,-0.2681517867393273,0.11922439782031462,-0.07462528782669955,0.9530535777473127,-0.2076738238418989,-0.19253131022961759,-2.6131781530994096
1783166000454878976,3.427625894546509,0.18022722005844116,-0.4944782257080078,-0.0169418565928936,-0.19163072109222412,0.20473724603652954,-0.9598751664161682,0.09756027162075043,-0.11979156732559204,0.4023342728614807,-0.26821758066496054,0.12118978631259378,-0.07331746228805365,0.9528887977356906,-0.206195252758367,-0.19705062010202753,-2.6132878463372586
1783166000464798208,3.43754506111145,0.20892731845378876,-0.28444480895996094,-0.15041257441043854,-0.19570158421993256,0.20295514166355133,-0.9594321846961975,0.10540007054805756,-0.09344281256198883,0.415715754032135,-0.2682153332352863,0.1229411763989807,-0.07189839885253849,0.9527730882699734,-0.2043749276493387,-0.20121614285883713,-2.613478318192474
1783166000474718208,3.447464942932129,0.39726001024246216,-0.058936234563589096,-0.23909220099449158,-0.19743429124355316,0.1994897723197937,-0.9598038792610168,0.07573020458221436,-0.05253240466117859,0.4346727132797241,-0.267373011652284,0.12323388335431311,-0.07008179174219557,0.9531074026017963,-0.20083720534761804,-0.20287290237155975,-2.615107432012893
1783166000484637184,3.4573841094970703,0.33952295780181885,0.07637977600097656,-0.16355456411838531,-0.19768977165222168,0.1954333484172821,-0.9605855345726013,0.10105584561824799,-0.055937498807907104,0.4592885375022888,-0.26668460642168496,0.12272724397150621,-0.06815611066552103,0.9535052322399834,-0.19669930108695755,-0.20296747427289766,-2.6162475090970783
1783166000494556160,3.4673030376434326,0.25781455636024475,0.14816825091838837,-0.1762305200099945,-0.19689986109733582,0.19245003163814545,-0.9613497853279114,0.129456028342247,0.05567312240600586,0.5725406408309937,-0.2660242374297635,0.1218636070960517,-0.06689066997258732,0.9538899791777038,-0.1936582353689859,-0.20202205903827028,-2.617335789431642
1783166000504476160,3.4772229194641113,0.6070995926856995,0.2298458069562912,-0.17155399918556213,-0.19547118246555328,0.18803924322128296,-0.9625135064125061,0.15981140732765198,0.08040863275527954,0.5697064995765686,-0.2654131183689154,0.12048781902880412,-0.06500718314465669,0.9543649558845761,-0.189165401969488,-0.20035927143219628,-2.6181629275799505
1783166000514395136,3.4871420860290527,0.7905619740486145,0.32509341835975647,-0.2444961816072464,-0.19303971529006958,0.18090283870697021,-0.9643701910972595,0.14057999849319458,0.036122918128967285,0.583922803401947,-0.2647725697887317,0.11823466067925344,-0.06193122215717708,0.9550291272182247,-0.18190435160737264,-0.19756074432421467,-2.6187736896760705
1783166000524314112,3.497061014175415,0.9942339062690735,0.3894476592540741,-0.34335219860076904,-0.19018179178237915,0.17176415026187897,-0.9666064381599426,0.08417899906635284,0.016483530402183533,0.6475909352302551,-0.2637699099213582,0.11547780404348656,-0.05797991148213279,0.9558915310777413,-0.17262015746322149,-0.19427059368966335,-2.6199724242135836
