time,seconds_elapsed,rotationRateX,rotationRateY,rotationRateZ,gravityX,gravityY,gravityZ,accelerationX,accelerationY,accelerationZ,quaternionW,quaternionX,quaternionY,quaternionZ,pitch,roll,yaw
1783423276738053632,0.16794848442077637,0.045017585158348083,-0.05672849714756012,0.08576467633247375,0.10841675847768784,0.5577204823493958,-0.8229177594184875,-0.008273318409919739,0.00047653913497924805,0.009227573871612549,0.6943962450411573,-0.17348316023484958,0.2417533936326964,-0.655189072848353,-0.5916369361667999,0.1309923546080482,-1.4727369347179584
1783423276747973376,0.17786836624145508,0.08197853714227676,-0.06276695430278778,0.07045762985944748,0.1081009954214096,0.5572283267974854,-0.82329261302948,-0.002723798155784607,-0.009407341480255127,0.01584327220916748,0.6947349489749827,-0.17348984837805365,0.24136064144532024,-0.6549730538810515,-0.5910441603212169,0.13055637697446595,-1.4720967179971784
1783423276757892608,0.18778753280639648,0.11321594566106796,-0.07675915956497192,0.03807578608393669,0.10760489106178284,0.5565281510353088,-0.8238310217857361,0.013092145323753357,-0.017435193061828613,0.023614346981048584,0.6950437557974423,-0.17345152695618787,0.24082992037010786,-0.654850886770686,-0.5902011740070072,0.12987997635618198,-1.4717334100688448
1783423276767812608,0.1977074146270752,0.1517079472541809,-0.083870068192482,0.016795264557003975,0.10733316838741302,0.5554686188697815,-0.8245812654495239,0.027798637747764587,-0.026446402072906494,0.022976040840148926,0.6953451855683626,-0.17316781587668623,0.24025460691830594,-0.6548173980971537,-0.5889264033205384,0.12943910824677776,-1.4714744395979116
1783423276777731328,0.2076263427734375,0.15312127768993378,-0.06359276175498962,0.03909631073474884,0.10789576172828674,0.5540028810501099,-0.8254933953285217,0.013136953115463257,-0.012910962104797363,0.01648765802383423,0.6957626582299502,-0.17245351839197154,0.2398188716578315,-0.654722136681175,-0.58716477351311,0.1299678036160685,-1.4706941753607745
1783423276787650560,0.2175455093383789,0.15394413471221924,-0.05067730322480202,0.05535047873854637,0.10886698216199875,0.5525003671646118,-0.8263723850250244,-0.009883224964141846,-0.004664063453674316,0.008592844009399414,0.696237578880376,-0.1716037316121795,0.23951192114203165,-0.6545528362593178,-0.5853610377279984,0.13098651577307674,-1.4695747239271033
1783423276797570560,0.22746539115905762,0.12403497099876404,-0.040352534502744675,0.0750255137681961,0.10957865417003632,0.5511351823806763,-0.8271895051002502,-0.009725145995616913,-0.01523125171661377,0.0008193254470825195,0.6966996765637244,-0.17090201501366906,0.239160487661536,-0.65437324597053,-0.5837241077971757,0.13170420481511377,-1.4685392546404674
1783423276807489280,0.23738431930541992,0.10532679408788681,-0.0370347686111927,0.06313503533601761,0.11003801226615906,0.549822986125946,-0.8280013799667358,-0.003989420831203461,-0.02467656135559082,0.005293309688568115,0.697144903075559,-0.1703053523279498,0.23873706560605515,-0.6542091559613209,-0.582152276565275,0.1321217435273417,-1.4676386343484376
1783423276817409536,0.24730443954467773,0.05716519430279732,-0.0304100401699543,0.04189768806099892,0.11031219363212585,0.548645555973053,-0.8287456035614014,-0.005591131746768951,-0.02397209405899048,0.019068479537963867,0.6975142746889593,-0.16980650675554368,0.2383126998804233,-0.6540998575201389,-0.5807433033922027,0.13232956518884353,-1.4669825042912648
1783423276827328512,0.25722336769104004,0.032362375408411026,-0.010993730276823044,0.018399553373456,0.11046727001667023,0.5478307008743286,-0.8292638063430786,-0.015572860836982727,-0.01589411497116089,0.02604120969772339,0.6977462131088944,-0.16946470424676838,0.23801219211267005,-0.6540504857654956,-0.5797689901104374,0.132431575976157,-1.46661504196796
1783423276837248512,0.26714348793029785,0.02312253788113594,0.008969324640929699,-0.00019383931066840887,0.11050724238157272,0.5473247766494751,-0.8295925259590149,-0.021655328571796417,-0.006477057933807373,0.024218380451202393,0.6978399305191293,-0.16925350770138298,0.23781715212316307,-0.6540761451488959,-0.5791643605346152,0.13242706881306818,-1.4665651741692938
1783423276847167488,0.27706241607666016,0.049215126782655716,0.018977217376232147,0.0014384121168404818,0.11049395054578781,0.5469011068344116,-0.8298736214637756,-0.024312302470207214,0.007832169532775879,0.021279871463775635,0.6978622025662911,-0.16907230995097408,0.23765047562294464,-0.6541597972720227,-0.5786582536724864,0.13236699412949493,-1.4667153810342064
1783423276857087488,0.28698253631591797,0.07863133400678635,0.021489378064870834,0.012628216296434402,0.11041916906833649,0.5463438034057617,-0.8302505612373352,-0.01138962060213089,0.00021070241928100586,0.01567542552947998,0.6978902400630712,-0.16885318434403596,0.2374095829923839,-0.6542739944761979,-0.5779927104091196,0.13221908275502026,-1.466941717122506
1783423276867006464,0.2969014644622803,0.12399561703205109,0.03507682681083679,0.03795567899942398,0.1104862242937088,0.5455309152603149,-0.830776035785675,-0.010190196335315704,-0.0029894113540649414,0.02099210023880005,0.6979912026694313,-0.16849535013866665,0.23711031774153,-0.6543670475042754,-0.5770224494122668,0.13221573990333757,-1.4670101300562477
1783423276876926464,0.306821346282959,0.18469199538230896,0.03718498349189758,0.09010037034749985,0.1108752116560936,0.5442445278167725,-0.8315675854682922,-0.01982603222131729,0.0043852925300598145,0.023965656757354736,0.6982587094817808,-0.16787175576860158,0.23671773839853083,-0.6543841468831453,-0.5754882978990008,0.1325509857515334,-1.4666648037464662
1783423276886845696,0.3167405128479004,0.20211119949817657,0.032689034938812256,0.13313865661621094,0.11147844791412354,0.542599618434906,-0.832561194896698,-0.024289727210998535,0.009539604187011719,0.03577780723571777,0.6987165882733728,-0.16708081463958582,0.23622741881339085,-0.65427494590419,-0.5735288642916813,0.13310649368965896,-1.4658209014259684
1783423276896765440,0.3266603946685791,0.20069758594036102,0.044295623898506165,0.17964543402194977,0.11232401430606842,0.5409472584724426,-0.8335222601890564,-0.04179789870977402,0.023734748363494873,0.043712079524993896,0.6992965636744696,-0.1662483871869762,0.23579723870845437,-0.6540225275995374,-0.5715629805059724,0.13395131388480455,-1.4645011292004848
1783423276906684416,0.3365793228149414,0.20061422884464264,0.02284013293683529,0.17594470083713531,0.11320217698812485,0.5393509864807129,-0.834437370300293,-0.050137609243392944,0.033647000789642334,0.052195608615875244,0.6999423169208379,-0.16545479580407177,0.23538484004348084,-0.6536813871073265,-0.5696662137738883,0.1348396885575315,-1.4629364883769918
1783423276916604416,0.3464994430541992,0.21218274533748627,-0.004161732271313667,0.13949188590049744,0.11369042843580246,0.5378017425537109,-0.8353704214096069,-0.04049402475357056,0.03469270467758179,0.06120055913925171,0.7005384160964971,-0.16479806991572427,0.23485395482205482,-0.6533996516142404,-0.5678274945818725,0.13526478692034827,-1.4616673743656698
1783423276926523392,0.3564183712005615,0.1933579295873642,-0.012462805025279522,0.059344854205846786,0.11370401829481125,0.5364466309547424,-0.8362394571304321,-0.05150918662548065,0.04726308584213257,0.08594954013824463,0.7009561847321294,-0.1643274430963904,0.23425789869136018,-0.653284138284127,-0.5662209463924429,0.1351418806180024,-1.4610502683581823
1783423276936443648,0.36633849143981934,0.21431772410869598,-0.010793307796120644,-0.06436553597450256,0.11314066499471664,0.5353097915649414,-0.8370439410209656,-0.08054789900779724,0.0769796371459961,0.11101555824279785,0.7010207025841373,-0.16402616300201514,0.23360957807888802,-0.653522671496477,-0.5648744612157084,0.13435267293291997,-1.4616512667691344
1783423276946362368,0.37625741958618164,0.3139761686325073,-0.006146358326077461,-0.17965111136436462,0.11189167201519012,0.5338926911354065,-0.8381162285804749,-0.09350482374429703,0.104000985622406,0.12838417291641235,0.7007264810373374,-0.1637044736973124,0.23268589225620095,-0.6542480400303415,-0.5631976435414274,0.13271897978449734,-1.4637735501680094
1783423276956282368,0.38617730140686035,0.49706023931503296,0.032746292650699615,-0.3416934311389923,0.11005306988954544,0.5316048264503479,-0.8398122787475586,-0.11421873420476913,0.1788291335105896,0.1574697494506836,0.700042929802471,-0.16305603430414858,0.23131493295075548,-0.6556264444956519,-0.5604941711190717,0.13030235039368335,-1.4677401440679676
1783423276966201600,0.39609646797180176,1.200223445892334,0.16841918230056763,-0.5848680138587952,0.1079995408654213,0.5260581970214844,-0.8435631990432739,-0.1547219455242157,0.3029975891113281,0.21349728107452393,0.6989144126741309,-0.1608723749235017,0.228776059070688,-0.6582554221707922,-0.5539589260120003,0.12733509913768334,-1.4746521568503805
1783423276976121344,0.40601634979248047,1.5983076095581055,0.19897069036960602,-0.804478645324707,0.1049974337220192,0.5162150859832764,-0.8499985337257385,-0.1922014057636261,0.5722095370292664,0.2991562485694885,0.6972935702066803,-0.15697452731762254,0.22440976263714282,-0.6624053450450798,-0.54242580356987,0.12290401293775999,-1.4852749214663714
1783423276986040576,0.4159355163574219,1.704304575920105,0.32164305448532104,-0.8312471508979797,0.10187873989343643,0.5051198601722717,-0.8570149540901184,-0.15836678445339203,0.7694162726402283,0.5212605595588684,0.6952172154095199,-0.15249886680709418,0.21962837270366845,-0.6672184354679054,-0.5295208550140988,0.11832100178001688,-1.4975864326817143
1783423276995960576,0.4258553981781006,2.1375515460968018,0.45174264907836914,-1.1823523044586182,0.09895142912864685,0.4929571747779846,-0.8644083738327026,-0.15650755167007446,0.8518913984298706,0.6271036863327026,0.6924857243751239,-0.14738764072580743,0.21464553672728148,-0.6728057789323769,-0.5154853520548337,0.11397688530591725,-1.5118940125184939
1783423277005879296,0.4357743263244629,2.4894416332244873,0.6860315203666687,-1.659769892692566,0.09543368220329285,0.4784093499183655,-0.8729357719421387,-0.33919283747673035,0.9869073629379272,0.628688395023346,0.688151417364052,-0.14110842780892152,0.20885525200467478,-0.6803789070511849,-0.49884241975296106,0.10889251869807028,-1.531674097974762
1783423277015799552,0.4456944465637207,2.882751941680908,0.9128740429878235,-1.9609227180480957,0.09180459380149841,0.46272552013397217,-0.8817352056503296,-0.3784714639186859,1.0661288499832153,0.6198944449424744,0.682167051285832,-0.13410484914355664,0.20285037690764515,-0.68957645324185,-0.4810671915630944,0.10374429242621887,-1.5561309548362623
1783423277025718528,0.455613374710083,3.4091551303863525,1.0008063316345215,-2.269533157348633,0.08714283257722855,0.44650161266326904,-0.8905292749404907,-0.28593432903289795,0.9798442125320435,0.456706702709198,0.6746952833899561,-0.12708050723093414,0.1964329463808946,-0.7000362978684597,-0.4628517575916158,0.09754453793167428,-1.5846554951980363
1783423277035638528,0.4655334949493408,3.8637020587921143,0.8892166614532471,-2.6053247451782227,0.07621420919895172,0.4381009638309479,-0.895689070224762,-0.12000694125890732,0.775628924369812,0.28672611713409424,0.6672291798356605,-0.12569546728645767,0.19067276182689938,-0.7089780505506433,-0.4534850317079509,0.08488555174107755,-1.6118551316070842
1783423277045557504,0.4754524230957031,4.151597023010254,0.6869179010391235,-2.9290812015533447,0.06373879313468933,0.42329373955726624,-0.9037476181983948,0.034268416464328766,0.5870059728622437,0.16658025979995728,0.6601608119836978,-0.12273353342917048,0.18183144179671143,-0.7183741251587309,-0.4370777548662657,0.07041061874269888,-1.6395594808642255
1783423277055477504,0.48537230491638184,3.9857916831970215,0.42481786012649536,-3.2597107887268066,0.052640222012996674,0.39697322249412537,-0.9163194298744202,0.11551161855459213,0.45712223649024963,0.12470871210098267,0.6501653587925073,-0.11458382260948122,0.16944271886413798,-0.7317409485949773,-0.4082167244904902,0.0573843870595563,-1.6768408256274145
1783423277065396480,0.49529147148132324,3.1824450492858887,0.2550855875015259,-3.5382840633392334,0.04042106121778488,0.3717309534549713,-0.9274601340293884,0.14594978094100952,0.3460119664669037,0.22366374731063843,0.6372683715131336,-0.10724391311618375,0.15738070705571286,-0.7467390369568152,-0.3808728823545624,0.0435549703496039,-1.7202640554536106
1783423277075316480,0.505211353302002,2.621155261993408,0.2580811083316803,-3.6881282329559326,0.027516312897205353,0.35232895612716675,-0.9354715943336487,0.15891556441783905,0.09798839688301086,0.38528549671173096,0.6244064940701444,-0.10285842370795438,0.14725603400625717,-0.760165913679614,-0.3600584872847259,0.029405896058473078,-1.7609221376479214
1783423277085235712,0.5151305198669434,2.153449296951294,0.36772599816322327,-3.8107094764709473,0.012245585210621357,0.3455256223678589,-0.9383293986320496,0.18300586938858032,-0.14435377717018127,0.44063353538513184,0.6096051829052532,-0.10378433114271361,0.14164781746517083,-0.7730112086479719,-0.3527988598193207,0.01304967050331786,-1.803751034376336
1783423277095155456,0.5250504016876221,1.931731104850769,0.5050650835037231,-3.8546435832977295,0.0015207352116703987,0.33218976855278015,-0.9432113766670227,0.20505273342132568,-0.18367597460746765,0.5455673336982727,0.5953703864145106,-0.10116308387409323,0.13476034740732173,-0.785582541208653,-0.3386242275124239,0.0016122938666158116,-1.8442778317435953
1783423277105074432,0.5349693298339844,2.1662142276763916,0.6325668096542358,-3.764439582824707,-0.0060752518475055695,0.31512168049812317,-0.9490318298339844,0.2526725232601166,-0.13013938069343567,0.5534172058105469,0.5802053850374432,-0.09629776510588903,0.1273217196883588,-0.798672464949315,-0.3205848500559764,-0.006401438622955898,-1.8860957591124452
1783423277114994432,0.5448894500732422,2.8469398021698,0.7387428879737854,-3.6367998123168945,-0.011092928238213062,0.29256749153137207,-0.9561805129051208,0.3210599720478058,-0.06689000129699707,0.49002450704574585,0.5651753719685416,-0.08913019607781687,0.11817588634446849,-0.8115831417458378,-0.2969107183299791,-0.011600769965386944,-1.9267346894145105
1783423277124913408,0.5548083782196045,3.8770408630371094,0.7471584677696228,-3.46248197555542,-0.013979346491396427,0.2611435353755951,-0.9651987552642822,0.40143051743507385,-0.012135356664657593,0.3613016605377197,0.5512182682600456,-0.07910863094407457,0.10555777290881316,-0.823867702503843,-0.2642066449565642,-0.014482373657357552,-1.9641995978969904
1783423277134833664,0.5647284984588623,5.043926239013672,0.6475218534469604,-3.2548017501831055,-0.015364831313490868,0.21845906972885132,-0.9757251143455505,0.4729911684989929,0.024170920252799988,0.2220172882080078,0.5377404611949709,-0.06595931037346739,0.08824283776321726,-0.8358813868512123,-0.22023512115187172,-0.01574578805905674,-2.0000015994251146
1783423277144752384,0.5746474266052246,5.922886371612549,0.4407196044921875,-3.085855722427368,-0.016217950731515884,0.1651207059621811,-0.9861400127410889,0.5205056667327881,0.03077162802219391,0.08933520317077637,0.5248144214773931,-0.050548569589666296,0.06614252673931441,-0.8471362834198425,-0.16588039515883823,-0.016444408259095624,-2.0336677888567127
1783423277154672384,0.5845673084259033,6.476881980895996,0.22630730271339417,-2.9159765243530273,-0.016973024234175682,0.10416798293590546,-0.9944148659706116,0.5378165245056152,-0.03933339565992355,0.03965723514556885,0.5124808611515084,-0.034060708314546405,0.04040333493800561,-0.8570710730058992,-0.10435729462756695,-0.017066695513059296,-2.064670678234889
1783423277164591616,0.5944864749908447,6.623740196228027,0.0026633022353053093,-2.6422948837280273,-0.01799163594841957,0.03925512358546257,-0.9990672469139099,0.5606247186660767,-0.19414709508419037,0.027830064296722412,0.5001526162892116,-0.017612381100968813,0.012497498222632089,-0.8656679763840515,-0.03926521375797777,-0.018006487062614446,-2.094126819250626
1783423277174511360,0.6044063568115234,6.656947135925293,-0.20744888484477997,-2.4027392864227295,-0.01902001164853573,-0.026204202324151993,-0.9994756579399109,0.5695266127586365,-0.3935650885105133,0.1458379626274109,0.4908444402283789,-0.0018535283095543597,-0.01608534779070181,-0.8710968157937385,0.026207202175987713,-0.019027693940038736,-2.1150782676564845
1783423277184430592,0.6143255233764648,6.552719593048096,-0.7382251620292664,-2.3135735988616943,-0.021688709035515785,-0.09211892634630203,-0.9955117702484131,0.538870096206665,-0.6235182881355286,0.15641570091247559,0.4809812433792405,0.012688522333591173,-0.045641119852966705,-0.8754501113966382,0.09224971475197812,-0.021783045141690126,-2.1358065377506916
1783423277194350592,0.6242454051971436,5.290987968444824,-0.7899460792541504,-2.580533981323242,-0.025813473388552666,-0.15121109783649445,-0.9881643652915955,0.5086473226547241,-0.715091347694397,-0.15537500381469727,0.47018849662277723,0.02434523410463831,-0.07297336842509415,-0.8792070676273167,0.15179334671371808,-0.026116710866343047,-2.1574298767421154
1783423277204269312,0.6341643333435059,5.676438808441162,-0.8090390563011169,-2.426372766494751,-0.027895959094166756,-0.2030753493309021,-0.9787656664848328,0.3836851418018341,-0.7989998459815979,-0.07644063234329224,0.4573382685449585,0.03448288202176757,-0.09709840786272778,-0.8833031502591445,0.20449769009842336,-0.028493448627390238,-2.1831612429490397
1783423277214189568,0.6440844535827637,5.6825971603393555,-1.1123340129852295,-2.112276554107666,-0.032552070915699005,-0.26029685139656067,-0.9649797677993774,0.3561452031135559,-0.6914396286010742,0.17437613010406494,0.4449556268303961,0.04426939451556387,-0.12470104580116473,-0.8857224497043477,0.2633296527338947,-0.03372063732824149,-2.2060514557024127
1783423277224108544,0.654003381729126,5.484068393707275,-0.9455780386924744,-1.9920940399169922,-0.0362560860812664,-0.3118762969970703,-0.9494307041168213,0.1608441025018692,0.0055866241455078125,0.2594282627105713,0.4332334655257868,0.052810740318779435,-0.1499855611330842,-0.887143819644848,0.31716717823420143,-0.03816863761984931,-2.22692514784107
1783423277234028544,0.6639235019683838,6.223278045654297,-1.038284420967102,-1.7308335304260254,-0.03905024379491806,-0.3678005635738373,-0.9290844202041626,0.19362176954746246,0.03747829794883728,-0.016182303428649902,0.42212621270781375,0.06253219327463531,-0.17761622525818282,-0.8867647299821396,0.3766426836746441,-0.04200616316774893,-2.2450099817889004
1783423277243947520,0.6738424301147461,5.895716190338135,-0.9285297393798828,-1.8771216869354248,-0.04078994318842888,-0.42355939745903015,-0.9049494862556458,0.07582412660121918,0.04584339261054993,0.18397176265716553,0.41059848264538784,0.07233712717873951,-0.20565161558049605,-0.8853720441535404,0.4373710089892708,-0.04504378584779641,-2.2631083434961576
1783423277253867264,0.6837623119354248,5.703134536743164,-0.7162994146347046,-1.7730591297149658,-0.039317913353443146,-0.4753971993923187,-0.8788922429084778,0.020290203392505646,-0.035100847482681274,0.3363202214241028,0.39849680822532707,0.0823385316178708,-0.23189271760819416,-0.8835420077647348,0.49541545616578375,-0.044705951607215445,-2.282877876473812
1783423277263786496,0.6936814785003662,5.356021404266357,-0.6464545726776123,-1.474772334098816,-0.03682129457592964,-0.5233644843101501,-0.8513129949569702,0.16432374715805054,-0.11210304498672485,0.3294166326522827,0.3872884788626661,0.09196924121083624,-0.25668104995998675,-0.8807180016187611,0.5507946210942998,-0.043225416213368,-2.3007954390567424
1783423277273706496,0.7036013603210449,5.237640380859375,-0.6053945422172546,-1.3762527704238892,-0.03401954472064972,-0.5676330327987671,-0.822578489780426,0.252296507358551,-0.06044924259185791,0.3842392563819885,0.3772530744387542,0.10112556386361751,-0.28015062205591346,-0.8769089328196982,0.6036279482008431,-0.04133364831504877,-2.3161758608681144
1783423277283625728,0.7135205268859863,5.026949405670166,-0.5298739671707153,-1.3961468935012817,-0.03022773377597332,-0.6091910004615784,-0.7924472689628601,0.2683563828468323,-0.04744046926498413,0.40086090564727783,0.3670729808830877,0.11003947971658372,-0.3027667298633638,-0.8726287980264132,0.6550400126549679,-0.03812630644368082,-2.3322735293978933
1783423277293543936,0.7234389781951904,4.699663162231445,-0.440475732088089,-1.475748062133789,-0.024812959134578705,-0.6470255255699158,-0.7620644569396973,0.2821982204914093,-0.04502159357070923,0.48137903213500977,0.35669768146424347,0.11875246572641654,-0.3238296068918186,-0.8682159934436986,0.703676862923119,-0.032548685436152934,-2.3500107734818925
1783423277303462912,0.7333579063415527,4.504790306091309,-0.3393126130104065,-1.4429231882095337,-0.017781974747776985,-0.6814398169517517,-0.7316581606864929,0.28871703147888184,-0.10450989007949829,0.5366965532302856,0.3459545720811023,0.12726945359086209,-0.343472583808172,-0.863796615773689,0.7497281288238583,-0.024298882317390236,-2.3701487613526457
1783423277313383168,0.7432780265808105,4.174219608306885,-0.3554520010948181,-1.4090256690979004,-0.010189048014581203,-0.7124032378196716,-0.7016963362693787,0.3349723517894745,-0.12255769968032837,0.5421199798583984,0.33553628997584606,0.1353252503946941,-0.36171659668298045,-0.8592226528874456,0.7929168409314237,-0.014519574283684524,-2.390914437845515
1783423277323302144,0.7531969547271729,3.9716074466705322,-0.2938035726547241,-1.529559850692749,-0.0016928253462538123,-0.740300714969635,-0.6722738146781921,0.33471590280532837,-0.160822331905365,0.47995197772979736,0.3249864588132183,0.14300338781848765,-0.3786992689175347,-0.8547050777448418,0.8335175428551236,-0.0025180540478494636,-2.413778080204172
1783423277333222144,0.7631170749664307,3.7138047218322754,-0.1576761156320572,-1.5451476573944092,0.008672353811562061,-0.7652692198753357,-0.6436519026756287,0.2959235906600952,-0.1423540711402893,0.45053672790527344,0.3151667029010668,0.1512235409564391,-0.394088155675776,-0.8499975654045229,0.8714594198297163,0.013472855069639918,-2.4377241192677355
1783423277343141120,0.773036003112793,3.7973361015319824,-0.16995276510715485,-1.4645676612854004,0.019456759095191956,-0.7884331941604614,-0.6148126721382141,0.33862125873565674,-0.057575106620788574,0.3703668713569641,0.3056239891791663,0.15940222980480023,-0.4088821195305293,-0.8449854451360697,0.9082576310279344,0.031636087420319564,-2.462932832904751
1783423277353060864,0.7829558849334717,3.8613851070404053,0.09560240805149078,-1.5317111015319824,0.03118707612156868,-0.8109176754951477,-0.5843285918235779,0.3188647925853729,-0.01629173755645752,0.3292321562767029,0.296039562756857,0.16804651623684835,-0.4237877837991759,-0.8393597870755473,0.945718673499677,0.053321906003157955,-2.4907245226656345
1783423277362980096,0.7928750514984131,3.9308228492736816,-0.014572561718523502,-1.4122512340545654,0.043529968708753586,-0.8322693109512329,-0.5526599884033203,0.3246951699256897,0.03394472599029541,0.3290424346923828,0.2865498414875039,0.17695805320721567,-0.43858391590603263,-0.833198228634543,0.9831886364366177,0.07860218998667835,-2.5212065122613394
1783423277372900096,0.8027949333190918,3.9562299251556396,0.07936558127403259,-1.5263445377349854,0.05595365911722183,-0.8527459502220154,-0.5193203091621399,0.39273104071617126,0.05091184377670288,0.2871425747871399,0.27694890060468164,0.18587777861156804,-0.45364004358068083,-0.8264136910652217,1.0212201616133438,0.10732997500697179,-2.555036463611166
1783423277382818816,0.8127138614654541,4.075108528137207,0.08042098581790924,-1.383989691734314,0.06921105831861496,-0.8717529773712158,-0.4850326478481293,0.24222084879875183,0.10379338264465332,0.3774123787879944,0.2673024593231416,0.19509228554395766,-0.4684257421955667,-0.8191860748920218,1.0587689299908605,0.1417367926061626,-2.593793952768353
1783423277392739072,0.8226339817047119,3.946380853652954,0.06613366305828094,-1.3887999057769775,0.08165080100297928,-0.8895741701126099,-0.44943422079086304,0.4251088500022888,-0.04902446269989014,0.25131410360336304,0.2578364533202005,0.20394812886342376,-0.48341292611072073,-0.8113184188963374,1.0964120483789426,0.17971454862165387,-2.6361081842274525
1783423277402658048,0.8325529098510742,3.8599178791046143,0.05904192477464676,-1.4272522926330566,0.09477970004081726,-0.9049366116523743,-0.4148571193218231,0.40760064125061035,0.000883936882019043,0.3034832775592804,0.24820639197159813,0.21258609439136136,-0.4973716850424132,-0.8036305587835326,1.1312307722399535,0.22460857664297457,-2.6854088253066237
1783423277412578048,0.842473030090332,4.038001537322998,0.05997947230935097,-1.408290982246399,0.10803935676813126,-0.9191187024116516,-0.3788779079914093,0.43299156427383423,0.009450733661651611,0.19465851783752441,0.23841674326966616,0.22124028472358281,-0.511481943842488,-0.7953593811974847,1.1658377071731225,0.27778353589086213,-2.7429434931608907
1783423277422497024,0.8523919582366943,4.146053314208984,0.0805278941988945,-1.4525226354599,0.12166646122932434,-0.9321211576461792,-0.3410973846912384,0.42229411005973816,0.0586470365524292,0.1620660424232483,0.2283292363710459,0.23004161583595292,-0.5258632530275651,-0.7863933062966003,1.200226503537716,0.3426233886827871,-2.8121143867926834
1783423277432417280,0.8623120784759521,4.278111934661865,0.07135965675115585,-1.5338431596755981,0.13608339428901672,-0.9436478018760681,-0.30167901515960693,0.40798401832580566,0.10984653234481812,0.16224420070648193,0.21776128303635253,0.2390755488963475,-0.540373368231805,-0.7768008580693714,1.2334846799884653,0.4237572540875008,-2.897652170842119
1783423277442336000,0.8722310066223145,4.3265862464904785,0.05466882511973381,-1.6587669849395752,0.15157078206539154,-0.9534040689468384,-0.2608585059642792,0.40297940373420715,0.14719069004058838,0.1792392134666443,0.2065058322399555,0.2483136742372911,-0.5548973526395213,-0.7666711658266145,1.2643248460279308,0.5263661501944449,-3.0050488715717467
1783423277452256000,0.8821508884429932,4.227082252502441,0.062325794249773026,-1.78915274143219,0.1684151589870453,-0.960856556892395,-0.219979390501976,0.3848074674606323,0.1966964602470398,0.2181788831949234,0.19465968865471733,0.25772928414615676,-0.5688461316905497,-0.7563711200559514,1.2900776363034787,0.6534075206003637,-3.1370687677621327
1783423277462175232,0.8920700550079346,4.117917060852051,0.08631981164216995,-1.8880820274353027,0.1865146905183792,-0.9658558964729309,-0.17981813848018646,0.3594447374343872,0.21419274806976318,0.25483036041259766,0.1824583087269909,0.2673133785786135,-0.5819230942122787,-0.7460683520525495,1.3087269073912455,0.8036761062539418,2.9910361959370597
1783423277472094976,0.9019899368286133,3.9865994453430176,0.08624828606843948,-1.978936791419983,0.20558007061481476,-0.9684921503067017,-0.14057019352912903,0.33987587690353394,0.18153536319732666,0.2553315758705139,0.17001507763190474,0.27698516104314097,-0.5941330846428887,-0.7357853392348025,1.3191031475034347,0.9710438855870587,2.8190459705530526
1783423277482013952,0.9119088649749756,3.7900853157043457,0.04573121666908264,-2.0421054363250732,0.2253890037536621,-0.9688260555267334,-0.10283774137496948,0.3404831290245056,0.10827630758285522,0.22506065666675568,0.15735384801560617,0.28654821837637984,-0.60536868695033,-0.7257124070193971,1.320447507488934,1.1427423547404731,2.642632381965468
1783423277491933952,0.9218289852142334,3.5347940921783447,-0.021849915385246277,-2.0918397903442383,0.24563086032867432,-0.9670106768608093,-0.06749486178159714,0.3369191288948059,0.03923064470291138,0.20357275009155273,0.14457793396062646,0.295750862340161,-0.6154542995825071,-0.7161316121843248,1.3132217212632074,1.302633081281841,2.4776798009952454
1783423277501852928,0.9317479133605957,3.3935675621032715,-0.11362830549478531,-2.1206369400024414,0.26618170738220215,-0.9633101224899292,-0.034362390637397766,0.31165334582328796,0.006431519985198975,0.17590290307998657,0.13163905708256626,0.3045357899376707,-0.624561252371441,-0.7070023057632026,1.2990741158056964,1.4424126324485314,2.332281299003108
1783423277511773184,0.9416680335998535,3.2893173694610596,-0.2268645167350769,-2.1335158348083496,0.2868257462978363,-0.9579786062240601,-0.0028275407385081053,0.2787260115146637,0.007096648216247559,0.13890546560287476,0.11842262245080595,0.312804416664654,-0.6330399881497888,-0.698133133902955,1.2798701432166042,1.5609386027130163,2.2072091799788534
1783423277521692160,0.9515869617462158,3.2152225971221924,-0.316485196352005,-2.1308906078338623,0.3074702024459839,-0.9511660933494568,0.027301667258143425,0.2154180407524109,-0.022741496562957764,0.11115658283233643,0.10495873984438663,0.3205686518413243,-0.6410043472338305,-0.6894439230068663,1.256991768922311,1.6593585740624746,2.1013459029989314
1783423277531611904,0.9615068435668945,3.250389337539673,-0.3996877074241638,-2.080768585205078,0.3278643786907196,-0.943021297454834,0.05670774728059769,0.1562512218952179,-0.06836175918579102,0.08832705020904541,0.0912791899605606,0.32783720239128483,-0.6487500611492387,-0.6806719124977854,1.2315968219833509,1.7420628796365532,2.010328400139415
1783423277541531136,0.9714260101318359,3.2655537128448486,-0.47309374809265137,-2.040210008621216,0.3477538824081421,-0.9336557388305664,0.08575765788555145,0.12110292911529541,-0.0749959945678711,0.08477461338043213,0.07744019274396573,0.33456562972201703,-0.6564637603499194,-0.6716578362988904,1.2044873187059943,1.8125766359074056,1.9306235086670076
1783423277551450880,0.9813458919525146,3.2723538875579834,-0.504487156867981,-1.9806883335113525,0.36719661951065063,-0.9230907559394836,0.11432472616434097,0.09033817052841187,-0.05859869718551636,0.08587062358856201,0.06352120862073862,0.34084150311011474,-0.6640703514692288,-0.6624218631386081,1.1760412038953734,1.8726283365074634,1.8607397808634367
1783423277561370112,0.991265058517456,3.1989707946777344,-0.5537844300270081,-1.8966538906097412,0.38593077659606934,-0.9115277528762817,0.14203837513923645,0.05716928839683533,-0.05288887023925781,0.09581567347049713,0.04974321409670965,0.3466167299789329,-0.6714730320727624,-0.6530746848262479,1.1469838671225878,1.9234521196265568,1.799663068559249
1783423277571290112,1.0011849403381348,3.0438387393951416,-0.5927541255950928,-1.8124797344207764,0.40390244126319885,-0.899235725402832,0.16804291307926178,0.013242453336715698,-0.05755162239074707,0.135668084025383,0.03624786653109292,0.35180432375146115,-0.6784210899040227,-0.6439447405337119,1.1180192471297532,1.9650604082283498,1.7474122553039335
1783423277581208832,1.011103868484497,2.8120176792144775,-0.5836101770401001,-1.7213836908340454,0.421038419008255,-0.8865389823913574,0.19176851212978363,-0.04327660799026489,-0.0759548544883728,0.16435633599758148,0.02330942901009147,0.3565058812598551,-0.684680809294061,-0.6352734683873803,1.0898099475896557,1.9981861267389218,1.703765671352225
1783423277591128064,1.0210230350494385,2.5550849437713623,-0.5671533346176147,-1.6277467012405396,0.4372505843639374,-0.8737752437591553,0.21290524303913116,-0.11016321182250977,-0.08072298765182495,0.2009284347295761,0.011148323438474748,0.3608203321984824,-0.6901168812104885,-0.6272344395352568,1.062911705488714,2.0239237883652055,1.6680621200355403
1783423277601048064,1.0309429168701172,2.3057546615600586,-0.5438980460166931,-1.5294710397720337,0.45244699716567993,-0.8612037301063538,0.23155909776687622,-0.1757442057132721,-0.07286286354064941,0.23368139564990997,-0.00020339764759738052,0.36473392395673204,-0.6948012036002348,-0.6198550900660854,1.0376333228739103,2.043833568530574,1.6387318504767965
1783423277610968064,1.040863037109375,2.00057053565979,-0.5031998753547668,-1.4670244455337524,0.4667728543281555,-0.8489988446235657,0.24763719737529755,-0.24268227815628052,-0.055862605571746826,0.2515082359313965,-0.010687280252651274,0.368401739321371,-0.6986406473303853,-0.6132431954434784,1.014087643488672,2.0585689009986257,1.615425729225432
1783423277620887040,1.0507819652557373,1.6578785181045532,-0.4575071632862091,-1.3973716497421265,0.48033735156059265,-0.8373834490776062,0.2608921527862549,-0.2958891689777374,-0.05270737409591675,0.24041995406150818,-0.02022682047124113,0.3719381015937495,-0.701504189236108,-0.6075727987243953,0.9924787552733548,2.0683602760276196,1.5981778755160427
1783423277630806016,1.0607008934020996,1.2480095624923706,-0.4086127281188965,-1.3310279846191406,0.4930984377861023,-0.8266894817352295,0.2709957957267761,-0.31824788451194763,-0.07458627223968506,0.202743798494339,-0.028707987755404795,0.37535299557571855,-0.7032837465991014,-0.6030572655552376,0.9731982983001913,2.073315102988623,1.587034014878403
1783423277640726016,1.0706210136413574,0.8218276500701904,-0.3633880019187927,-1.2440177202224731,0.5049828290939331,-0.8172385692596436,0.27769315242767334,-0.3219689130783081,-0.07680439949035645,0.15460360050201416,-0.03598586106312493,0.37867711141168986,-0.7038822527146776,-0.5998820277513892,0.9566029725674605,2.0735674975082246,1.5820920892068078
1783423277650644992,1.0805399417877197,0.48103171586990356,-0.31634965538978577,-1.1349884271621704,0.5158557891845703,-0.8091539740562439,0.28135907649993896,-0.31707948446273804,-0.058567702770233154,0.11697164177894592,-0.04208923421402713,0.3818336925496588,-0.7034789052135741,-0.5979540758731182,0.9427108905571182,2.0701179268828773,1.5821854888773044
1783423277660565248,1.0904600620269775,0.2979677617549896,-0.2725609838962555,-1.0227490663528442,0.5255812406539917,-0.8022871613502502,0.28301891684532166,-0.3161391019821167,-0.041294991970062256,0.10821640491485596,-0.047159094274617126,0.384771863824514,-0.7024671369380215,-0.5968807097931151,0.9311169333032787,2.0647578311729053,1.5852571825990351
1783423277670483968,1.1003789901733398,0.3344818949699402,-0.2142874300479889,-0.9050537347793579,0.5341406464576721,-0.7961297631263733,0.28437814116477966,-0.3209601640701294,-0.025754272937774658,0.11282333731651306,-0.051563949414445746,0.3874499025232841,-0.7014781882122224,-0.5959463177988342,0.9208723297646926,2.0600291568301614,1.5882132250262282
1783423277680403968,1.1102988719940186,0.4366713762283325,-0.18210366368293762,-0.8611502051353455,0.5418318510055542,-0.7901087999343872,0.28661173582077026,-0.341422975063324,0.020333468914031982,0.10000023245811462,-0.055719022494139445,0.3899244331157128,-0.7009028513417775,-0.5946339284751422,0.9109864997028647,2.0573489324495298,1.5891689080417166
1783423277690323200,1.12021803855896,0.5252512097358704,-0.1606989949941635,-0.8451676368713379,0.549236536026001,-0.7838951349258423,0.2895653247833252,-0.3814812898635864,0.10458898544311523,0.07743909955024719,-0.059870809084055385,0.3923756587372553,-0.7005883282150103,-0.5929865014063316,0.9009146654545002,2.0559775724230764,1.5888089193126032
1783423277700242944,1.1301379203796387,0.6850414276123047,-0.1652122437953949,-0.8234594464302063,0.5563594698905945,-0.7773573994636536,0.293564110994339,-0.40525156259536743,0.1591779589653015,0.015868932008743286,-0.06417083739173161,0.3947131658212077,-0.7007022000310136,-0.5908469627411982,0.8904539429220805,2.056319954311165,1.5863713744650438
1783423277710161920,1.140056848526001,0.8429716229438782,-0.17936517298221588,-0.7897678017616272,0.5632413029670715,-0.7704210877418518,0.2986814081668854,-0.4169858694076538,0.1583147644996643,-0.02399265766143799,-0.06872876933104756,0.3968632697516724,-0.7013132358658196,-0.588162943694946,0.8795013478062567,2.05838152480764,1.5815758686639338
1783423277720081920,1.1499769687652588,0.8796284198760986,-0.21244828402996063,-0.7763462662696838,0.5699740648269653,-0.7631945013999939,0.30440762639045715,-0.40118128061294556,0.10656291246414185,-0.04226168990135193,-0.07350884616048678,0.3988182058920463,-0.7022448689608252,-0.5851433417564896,0.8682425184222444,2.061329178618792,1.5752802825831527
1783423277730000896,1.159895896911621,0.8650677800178528,-0.22988665103912354,-0.7495430707931519,0.5765396356582642,-0.7560331225395203,0.3098646104335785,-0.37553560733795166,0.07622355222702026,-0.02490675449371338,-0.07830539311442206,0.4005729204116869,-0.7031881996923098,-0.5821821069493499,0.8572311143100549,2.063957756657032,1.5689466729536017
1783423277739921152,1.169816017150879,0.9624581933021545,-0.23389020562171936,-0.7149637937545776,0.5828104019165039,-0.7488371729850769,0.31555524468421936,-0.33866971731185913,0.0796324610710144,-0.024509042501449585,-0.08306536453710775,0.402203092560679,-0.7042799854193873,-0.5790704744313498,0.84630583474294,2.0670416630282284,1.562014501863076
1783423277749840128,1.1797349452972412,1.0261304378509521,-0.1929204910993576,-0.7405558824539185,0.5889976024627686,-0.7413030862808228,0.3217940926551819,-0.28929978609085083,0.10954350233078003,-0.026582270860671997,-0.08795672469831634,0.4037868800665447,-0.7055871334521074,-0.575644453591406,0.8350098114241084,2.0708266972977674,1.5541392235680578
1783423277759760128,1.189655065536499,1.2125918865203857,-0.21502366662025452,-0.7503882646560669,0.5952574014663696,-0.7331290245056152,0.3289230465888977,-0.2457854151725769,0.11993938684463501,-0.010350137948989868,-0.09310279592534745,0.40541945479840885,-0.7071750760664626,-0.571725727876861,0.8229114788334204,2.0756126520160696,1.5450181668865954
1783423277769679104,1.1995739936828613,1.2425309419631958,-0.23585404455661774,-0.7025975584983826,0.6013611555099487,-0.7245316505432129,0.33677682280540466,-0.2003602385520935,0.09550338983535767,-0.016357451677322388,-0.0985328593970182,0.4068027498067179,-0.7091543764181464,-0.567364833216883,0.8103546112180818,2.0813030813757805,1.534201075402721
1783423277779598848,1.20949387550354,1.0927611589431763,-0.2345525622367859,-0.7259561419487,0.607358455657959,-0.7161283493041992,0.34391239285469055,-0.18624645471572876,0.0787840485572815,0.014043539762496948,-0.10379033020081613,0.40814471835387456,-0.7108966794714143,-0.5632684108913477,0.7982393682364013,2.086024493791665,1.5245124283831974
1783423277789518080,1.2194130420684814,0.7744860053062439,-0.2136872261762619,-0.7616480588912964,0.6134905815124512,-0.7082211971282959,0.3493596911430359,-0.18288755416870117,0.0285642147064209,-0.0004980564117431641,-0.10862702764046898,0.40971807250942643,-0.7119065597961897,-0.559928910996145,0.7869754578553545,2.08845884992779,1.5180496008709006
1783423277799438080,1.2293329238891602,0.46284937858581543,-0.2508852183818817,-0.7320492267608643,0.6196660399436951,-0.701327383518219,0.35235491394996643,-0.14897817373275757,-0.033413827419281006,-0.05026137828826904,-0.11286890586230658,0.4114284393940628,-0.7119719769053249,-0.5577483016223985,0.7772578784514581,2.087823160337408,1.5156550693143933
1783423277809356800,1.2392518520355225,0.27558860182762146,-0.31779399514198303,-0.688606321811676,0.6256870627403259,-0.6955145597457886,0.3532353341579437,-0.10832256078720093,-0.09855282306671143,-0.1408482789993286,-0.11661706792751943,0.4130356835040637,-0.7113502631004975,-0.5565813634669068,0.7691358245036144,2.084746174464885,1.5161598737046778
1783423277819277056,1.2491719722747803,0.2302538901567459,-0.3690822124481201,-0.7111126780509949,0.631763219833374,-0.6901819109916687,0.35288065671920776,-0.05614042282104492,-0.10504531860351562,-0.19971278309822083,-0.12026786800241032,0.4144992203863148,-0.7103736542182366,-0.5559635998807049,0.7617404101872846,2.0801913802421796,1.5179970143379669
1783423277829196032,1.2590909004211426,0.46553629636764526,-0.4991232752799988,-0.6244645714759827,0.6380382776260376,-0.6845793724060059,0.35250324010849,-0.009757578372955322,-0.09618240594863892,-0.21737143397331238,-0.12441713867527443,0.41556637177128114,-0.7096169482988325,-0.5552196471533016,0.7540265189161363,2.07554142231988,1.5185439066375575
1783423277839116032,1.2690110206604004,0.6848058104515076,-0.48603731393814087,-0.5142171382904053,0.6435840725898743,-0.6788915991783142,0.3534199595451355,0.03868210315704346,-0.10634088516235352,-0.2095753252506256,-0.1288972619948143,0.4158783113600883,-0.709757146733758,-0.5537828888942773,0.7462519537495105,2.0729816395697145,1.5152824617723075
1783423277849035008,1.2789299488067627,1.0139808654785156,-0.5425488948822021,-0.5003344416618347,0.6489240527153015,-0.6724614500999451,0.3559398353099823,0.060014545917510986,-0.07100778818130493,-0.1510753631591797,-0.13393306266882143,0.41577070439030006,-0.7107071431947707,-0.5514453819065629,0.7375294826994616,2.072493110527596,1.508489539007584
1783423277858955264,1.2888500690460205,1.3889131546020508,-0.5231184959411621,-0.38666805624961853,0.6538282036781311,-0.6652008295059204,0.3605780303478241,0.1053118109703064,-0.04056394100189209,-0.12190008163452148,-0.13954009161600262,0.41512060219012936,-0.712715859558675,-0.5479411925320111,0.7277627450408215,2.0747807688189317,1.4972423021658652
1783423277868873984,1.2987689971923828,1.494370460510254,-0.5608301162719727,-0.21528030931949615,0.6579826474189758,-0.6578155755996704,0.36652040481567383,0.13370424509048462,-0.06574088335037231,-0.0870862603187561,-0.14538209933449733,0.41375768411723196,-0.7155870172539168,-0.5436945153732478,0.7179147699422472,2.079025839176593,1.482519790305988
1783423277878793984,1.3086888790130615,1.6065685749053955,-0.5486573576927185,-0.12839387357234955,0.6610926985740662,-0.6508142352104187,0.37335923314094543,0.16510963439941406,-0.14270377159118652,-0.06706956028938293,-0.15094855424226628,0.4118755794361405,-0.7190536270893357,-0.5390128542424666,0.7086564017753234,2.0849015258441863,1.4656985473093258
1783423277888713216,1.318608045578003,1.5889368057250977,-0.6211283206939697,0.031606703996658325,0.663779079914093,-0.644314169883728,0.3798110783100128,0.17179208993911743,-0.2052951455116272,-0.05089262127876282,-0.1565694894775844,0.4092975673697062,-0.7227593249059583,-0.5343972446195628,0.7001261424385735,2.090520017028769,1.4478469306027206
1783423277898632960,1.3285279273986816,1.4676079750061035,-0.5479227900505066,0.05589233338832855,0.6657297015190125,-0.6387442350387573,0.3857589662075043,0.16083896160125732,-0.22484225034713745,-0.027619898319244385,-0.1616510810512202,0.40641897064667243,-0.726431765886759,-0.5300844343424381,0.6928650323279327,2.0959706111667615,1.4304011553918634
1783423277908551936,1.338446855545044,1.3635547161102295,-0.6335604190826416,0.1635889708995819,0.6675963997840881,-0.6338294744491577,0.3906092047691345,0.14908456802368164,-0.17879265546798706,-0.02064460515975952,-0.16655927542579707,0.40329047573851595,-0.729836554251211,-0.5262637137611416,0.6864942133746245,2.10018629423439,1.4139670117497927
1783423277918471936,1.3483669757843018,1.1748158931732178,-0.5963443517684937,0.2413676530122757,0.6686884164810181,-0.6301887035369873,0.3946115970611572,0.1647924780845642,-0.1173546314239502,-0.03392428159713745,-0.17072535833019525,0.39998516598269995,-0.7330195535116557,-0.5230173871977013,0.6817962472280242,2.103925183950402,1.3987455835588312
1783423277928390912,1.358285903930664,1.0425246953964233,-0.5327646732330322,0.25943323969841003,0.6695019602775574,-0.627287745475769,0.3978405296802521,0.13175225257873535,-0.10270798206329346,-0.042707592248916626,-0.17445938550553589,0.39667502418098516,-0.7359138466343943,-0.5202341861601777,0.6780656107851087,2.106964996773878,1.384809472820923
1783423277938311168,1.3682060241699219,0.8330279588699341,-0.47080567479133606,0.31422245502471924,0.6698649525642395,-0.6251703500747681,0.40055352449417114,0.1424519419670105,-0.16039788722991943,-0.03705859184265137,-0.1774722389265367,0.39365789570916404,-0.7384512360559574,-0.517906250909244,0.6753497439612897,2.109715668292533,1.3726862751575237
1783423277948230144,1.3781249523162842,0.5811214447021484,-0.34889811277389526,0.33972063660621643,0.6694805026054382,-0.6245163083076477,0.402212530374527,0.20518362522125244,-0.23304277658462524,-0.032263219356536865,-0.17956810645854765,0.3907134785203926,-0.7405735928423558,-0.5163805991680406,0.6745120702237197,2.1117913905919536,1.3626569204290349
1783423277958150144,1.388045072555542,0.23367692530155182,-0.30246615409851074,0.37433958053588867,0.6687597632408142,-0.6251094341278076,0.4024900496006012,0.26153790950775146,-0.31921112537384033,0.012854158878326416,-0.18077056381003923,0.3882155320388441,-0.741979600857279,-0.5158264063990852,0.675271763176814,2.112571692568783,1.3559299825086137
1783423277968069120,1.3979640007019043,-0.15025636553764343,-0.2753520905971527,0.36465445160865784,0.6677972078323364,-0.6272108554840088,0.4008156955242157,0.2909277081489563,-0.36265724897384644,0.014864146709442139,-0.18105658932425678,0.38616072430487,-0.742487537861375,-0.5165371307388376,0.6779669449744808,2.111367058222355,1.3532025963300016
1783423277977988864,1.407883882522583,-0.4552258551120758,-0.2803622782230377,0.5229818224906921,0.6662666201591492,-0.6311436295509338,0.3971732258796692,0.26432114839553833,-0.39824479818344116,-0.023622870445251465,-0.18046216647076918,0.38413128041743005,-0.7423137997368757,-0.5185044029207642,0.6830267016270775,2.108356196973285,1.3535440953978404
1783423277987908096,1.4178030490875244,-0.806169331073761,-0.26506733894348145,0.5625022649765015,0.6639650464057922,-0.6370754241943359,0.3915165066719055,0.245550274848938,-0.4576053023338318,-0.04666787385940552,-0.17889132834767565,0.38204331618208304,-0.7414857762206518,-0.5217658563444416,0.6906981200343512,2.1035813911988677,1.3569141806471396
1783423277997828096,1.4277229309082031,-1.2108752727508545,-0.2516487240791321,0.6454197764396667,0.6612911820411682,-0.6446393132209778,0.3835810422897339,0.21167945861816406,-0.5001665949821472,-0.005468189716339111,-0.1764017878390759,0.3802364304379545,-0.7397369699987419,-0.5263952883293506,0.7005514205305579,2.0964165233793914,1.3644172339272347
1783423278007746816,1.4376418590545654,-1.3894745111465454,-0.20083831250667572,0.842240035533905,0.6573939323425293,-0.6542578339576721,0.3738711476325989,0.2749484181404114,-0.5087975263595581,0.016570746898651123,-0.17283100532140308,0.3781370294946345,-0.7375282741886353,-0.5321595393531763,0.713200819670507,2.0878959633295544,1.374317390289729
1783423278017667072,1.4475619792938232,-1.6474189758300781,-0.135849729180336,0.9681859612464905,0.6521351933479309,-0.6655716896057129,0.36295196413993835,0.31888842582702637,-0.5098738670349121,0.03136563301086426,-0.16823053781857245,0.3757185170393596,-0.7350588988084906,-0.5387230593426575,0.7282595691680535,2.0786616175545296,1.385877326355478
1783423278027586048,1.4574809074401855,-1.8976821899414062,-0.16061179339885712,1.1003273725509644,0.6460195779800415,-0.6783010363578796,0.35009509325027466,0.32091468572616577,-0.5374582409858704,0.06482183933258057,-0.16284259281153038,0.3730682532570345,-0.732029793251136,-0.5462918664959318,0.7454479715159329,2.0674198998322124,1.400163813267731
1783423278037506048,1.4674010276794434,-2.195556163787842,-0.1492355763912201,1.2388585805892944,0.6387470364570618,-0.6924909353256226,0.33534854650497437,0.34338492155075073,-0.6049944162368774,0.07827150821685791,-0.15654757173368222,0.37008572492187775,-0.7284990223006276,-0.5548140347924277,0.7649361275195781,2.0542511289924645,1.4171122082781242
1783423278047425024,1.4773199558258057,-2.7758564949035645,-0.06623271107673645,1.2996844053268433,0.6304093599319458,-0.7083584070205688,0.31750962138175964,0.3312605023384094,-0.6283572316169739,0.10077950358390808,-0.14899282316845489,0.3670986094139065,-0.7238738954927563,-0.5648418455318824,0.7871698150726963,2.0373646631612172,1.4395360855072694
1783423278057345024,1.4872400760650635,-3.5255472660064697,-0.052724361419677734,1.28207528591156,0.6216951012611389,-0.725679337978363,0.29476258158683777,0.30739736557006836,-0.6250745058059692,0.14934459328651428,-0.13999800338901572,0.364661620712173,-0.7172190703968776,-0.5770783054734104,0.8120212374451636,2.0135323353056536,1.4717948845437776
1783423278067264000,1.4971590042114258,-4.315016746520996,-0.09405947476625443,1.3469306230545044,0.6125457286834717,-0.7444369792938232,0.265708863735199,0.36156004667282104,-0.680855929851532,0.21062466502189636,-0.12949371927318382,0.3625021413983789,-0.7081289625961708,-0.5919264300634374,0.8396912369779816,1.9800784778383511,1.5162072908815036
1783423278077184000,1.5070788860321045,-5.03165340423584,-0.11172208935022354,1.395140290260315,0.6028891801834106,-0.7639653086662292,0.2299598604440689,0.3791816830635071,-0.734234094619751,0.2363487333059311,-0.11753694961380468,0.3604043041884975,-0.6964830730172438,-0.6092660357446493,0.8694362841188166,1.9351920762943335,1.5741945586709991
1783423278087103232,1.516998052597046,-5.36303186416626,-0.18900680541992188,1.475817322731018,0.5927808284759521,-0.7828737497329712,0.1889961063861847,0.38777947425842285,-0.6872190237045288,0.20587074756622314,-0.1044111273279804,0.35835547320279015,-0.68270008710245,-0.6281721237629071,0.899271291682581,1.879437288664039,1.644858171474381
1783423278097022976,1.5269179344177246,-5.460854530334473,-0.3425598740577698,1.5052098035812378,0.5831352472305298,-0.7993512153625488,0.14488257467746735,0.4706214666366577,-0.5322985649108887,0.18624842166900635,-0.09106397071442189,0.35643338600399876,-0.6673803496573851,-0.6475075774732305,0.9262146430034022,1.8143198793745685,1.7255608133511635
1783423278106941952,1.536836862564087,-5.332111358642578,-0.3912915885448456,1.6004987955093384,0.573084831237793,-0.8133933544158936,0.09982706606388092,0.5405169129371643,-0.463401198387146,0.23504234850406647,-0.07770458150572249,0.3540229671478862,-0.6515990123633514,-0.6663697523626789,0.9499618826926909,1.7432583561669643,1.811657882239156
1783423278116861952,1.5467569828033447,-4.795210838317871,-0.4929066300392151,1.8758808374404907,0.5597796440124512,-0.8267395496368408,0.05611143633723259,0.5494732856750488,-0.4967315196990967,0.3084820508956909,-0.06428261933654744,0.3493275753824487,-0.6372016653711606,-0.6839678805393875,0.9732872996977644,1.6707010422977104,1.8958813528779248
1783423278126780928,1.556675910949707,-4.496155261993408,-0.5223996639251709,2.044834613800049,0.5440208911895752,-0.8389368653297424,0.015046495944261551,0.5424048900604248,-0.5294255614280701,0.42803823947906494,-0.05078737838271145,0.3433332863597768,-0.624215910207473,-0.6999267787406254,0.995326804717295,1.598447215227355,1.978024603410452
1783423278136701184,1.5665960311889648,-4.347156524658203,-0.5281068086624146,2.139115810394287,0.5266132354736328,-0.8497509956359863,-0.024535899981856346,0.5264569520950317,-0.5440632104873657,0.5763395428657532,-0.03765120282133067,0.3361485630233064,-0.6121570004400941,-0.7147380237030551,1.0155127437880322,1.5242381147886215,2.0599062982730443
1783423278146620160,1.5765149593353271,-4.432795524597168,-0.4964727759361267,2.2035980224609375,0.5082007646560669,-0.8588411211967468,-0.06421903520822525,0.5631340742111206,-0.5437467694282532,0.619913637638092,-0.024184205106998678,0.32863262728887976,-0.5999092239065078,-0.7290574363285108,1.033003003126424,1.4450970793946147,2.1468973058620424
1783423278156540160,1.586435079574585,-4.483953475952148,-0.5306627154350281,2.2163820266723633,0.48898735642433167,-0.8659753203392029,-0.10477591305971146,0.557338297367096,-0.49269771575927734,0.6270079612731934,-0.010379150536589322,0.3207941099940672,-0.58711428349877,-0.7431555603945116,1.0470974483467146,1.359716854419059,2.240366122307078
1783423278166459136,1.5963540077209473,-4.626363754272461,-0.46032899618148804,2.2394585609436035,0.4692392647266388,-0.8709231019020081,-0.1459711790084839,0.5332021713256836,-0.42735570669174194,0.6229304075241089,0.003972781563027603,0.31296558625777543,-0.5736435776093437,-0.7569477179195493,1.057077604671708,1.2692052012971866,2.3400601788207123
1783423278176378880,1.606273889541626,-4.792490005493164,-0.39510577917099,2.1541452407836914,0.4496369957923889,-0.8730825781822205,-0.18855631351470947,0.5022825598716736,-0.33812958002090454,0.620151162147522,0.01869047593293911,0.3052771282068467,-0.5590417859937269,-0.7706678224467852,1.0614892785741867,1.1737190392272139,2.445837562361137
1783423278186298112,1.6161930561065674,-4.9351420402526855,-0.43471139669418335,2.1196417808532715,0.43061360716819763,-0.8720953464508057,-0.23242580890655518,0.49350443482398987,-0.29791808128356934,0.6090279817581177,0.0335378032684633,0.29776061414946353,-0.5432547363379309,-0.7842755766978827,1.0594680778739205,1.0758528327456298,2.5548689238019704
1783423278196218112,1.626112937927246,-4.768976211547852,-0.33864879608154297,2.3049027919769287,0.41050535440444946,-0.8691145777702332,-0.2759080231189728,0.511049211025238,-0.27282267808914185,0.6425157189369202,0.04904457540012586,0.2898998775996168,-0.5272608916837932,-0.7972130538762785,1.0534093282925805,0.9790292388611275,2.663627538791816
1783423278206136832,1.6360318660736084,-4.6403021812438965,-0.2548677325248718,2.3934109210968018,0.3895808756351471,-0.8645300269126892,-0.3175133466720581,0.4142521619796753,-0.2672906517982483,0.7314690351486206,0.06538426127354699,0.28212061428546237,-0.5115186074942609,-0.8090004257599505,1.0442145222999255,0.8869681052169415,2.769272055520536
1783423278216057088,1.6459519863128662,-4.507821559906006,-0.10263876616954803,2.4500584602355957,0.3681849539279938,-0.858489990234375,-0.3569802939891815,0.3528233766555786,-0.2579498291015625,0.7343911528587341,0.08256153097192057,0.27459999324243867,-0.4960894048109499,-0.8195570898981355,1.0323178723740605,0.8008481006452902,2.8709118100993685
1783423278225976064,1.6558709144592285,-4.357731342315674,-0.13510385155677795,2.507664203643799,0.3470394015312195,-0.8506042957305908,-0.39501386880874634,0.33186987042427063,-0.24413752555847168,0.6684361696243286,0.09826605226889472,0.2662402187595131,-0.4812579492252087,-0.8293676156305004,1.0171334458217733,0.7208370319625588,2.9632776087099235
1783423278235896064,1.6657910346984863,-4.161982536315918,-0.13664501905441284,2.6740026473999023,0.3249818682670593,-0.8419509530067444,-0.43070343136787415,0.3276670575141907,-0.2562851309776306,0.573785126209259,0.11421673410145176,0.25757381053833744,-0.467230146406106,-0.8380372092602507,1.0008889885718615,0.6463987472475673,3.0501738174856725
1783423278245815040,1.6757099628448486,-4.04577112197876,-0.005842949263751507,2.6619694232940674,0.3024747371673584,-0.8321351408958435,-0.46482279896736145,0.2585604190826416,-0.214694082736969,0.5351048111915588,0.13038387216767947,0.24872371735462778,-0.45356930558829267,-0.8458200132978895,0.9829466532418866,0.5768891581091529,3.132460618447908
1783423278255735040,1.6856298446655273,-3.8347277641296387,-0.026501089334487915,2.509429693222046,0.2812802791595459,-0.8208921551704407,-0.49700847268104553,0.1754457950592041,-0.20056170225143433,0.4055168032646179,0.14597888279189128,0.240276962653244,-0.4401848969766809,-0.8527569031430529,0.9629714658008449,0.5150038254091015,-3.0759922427599564
1783423278265654016,1.6955490112304688,-3.951626777648926,-0.3189040422439575,2.4849650859832764,0.26051950454711914,-0.8080517053604126,-0.5283768177032471,0.21233510971069336,-0.1234821081161499,0.26943516731262207,0.16066135810173485,0.2314115434415801,-0.4269195454241763,-0.8592882661919018,0.9408373863988198,0.45807722058000466,-3.007908322308965
1783423278275574016,1.7054688930511475,-5.163235187530518,-0.47458788752555847,2.2526695728302,0.2394978553056717,-0.7898187041282654,-0.5646478533744812,0.1916544884443283,-0.09065920114517212,0.2355157732963562,0.17506725379096494,0.22108114862533876,-0.41085178782760123,-0.8669921666768416,0.9105133508227673,0.40115417149413396,-2.941511521452197
1783423278285493248,1.7153880596160889,-6.58074951171875,-0.5927749872207642,2.141127109527588,0.21980947256088257,-0.7602938413619995,-0.6112585663795471,0.03737740218639374,-0.1434231400489807,0.3262091875076294,0.18966646470101078,0.20917883155798592,-0.38809138928924725,-0.8773003376681693,0.8637653383904385,0.3452027173578202,-2.8761187338427274
1783423278295413504,1.7253084182739258,-6.851485252380371,-0.6867701411247253,2.2894303798675537,0.19966457784175873,-0.7220376133918762,-0.6624166369438171,-0.035739392042160034,-0.16777867078781128,0.33542072772979736,0.2049757018830109,0.1957242584537067,-0.36122527922247355,-0.8883655765877384,0.8067430015933071,0.29275759526974177,-2.813738272812014
1783423278305333248,1.7352283000946045,-6.082075119018555,-0.7485801577568054,2.1643309593200684,0.179041787981987,-0.6821123957633972,-0.7089899778366089,-0.0686749517917633,0.05262631177902222,0.2919367551803589,0.21979661893975022,0.18179369073370438,-0.3353446903144568,-0.8978778096232882,0.7506475048003014,0.247359137684973,-2.759325039908335
1783423278315252224,1.7451472282409668,-4.21877908706665,-0.8338063955307007,1.973014235496521,0.16000033915042877,-0.6482576727867126,-0.7444205284118652,-0.10157443583011627,0.34500449895858765,0.23605871200561523,0.23216929877632608,0.16924955312025833,-0.3148719310345708,-0.9046036485214093,0.7052939738280254,0.2117118649302622,-2.7173007392359567
1783423278325172480,1.7550673484802246,-1.7765755653381348,-0.9199191927909851,1.9908808469772339,0.140961155295372,-0.6288260817527771,-0.7646618485450745,-0.05255173146724701,0.4961966872215271,0.11549192667007446,0.2422764648134212,0.1588281434720198,-0.30404391041969403,-0.9075423181837157,0.6800425032400592,0.18229782138488493,-2.6844888151952238
1783423278335091456,1.764986276626587,0.4401414692401886,-1.0479058027267456,1.7322473526000977,0.12217910587787628,-0.6266691088676453,-0.7696480751037598,-0.06628614664077759,0.47931498289108276,0.062281131744384766,0.24967665135590303,0.15103006027167273,-0.3039175514581512,-0.906909992171745,0.6772715114659598,0.15743302610544824,-2.6598424894130983
1783423278345011456,1.7749063968658447,1.9346578121185303,-1.1987782716751099,1.7078126668930054,0.10297476500272751,-0.6383116245269775,-0.7628594040870667,-0.09189687669277191,0.35960984230041504,0.08150875568389893,0.254687882262142,0.14500432884248846,-0.3123203953849051,-0.9036392542430719,0.6923029441594344,0.13417423683271065,-2.6406080750305274
1783423278354930432,1.784825325012207,2.4200382232666016,-1.2000176906585693,1.666072964668274,0.08311954140663147,-0.6568378210067749,-0.7494365572929382,-0.14085882902145386,0.24604076147079468,0.263566255569458,0.25866047041666523,0.1398190363367925,-0.3251651259212584,-0.8987841665546633,0.7166174031569815,0.11045794506393831,-2.622558310175286
1783423278364850432,1.7947454452514648,2.241828203201294,-0.9691537022590637,2.0668509006500244,0.06306883692741394,-0.676027774810791,-0.7341721653938293,-0.21791502833366394,0.14885187149047852,0.38700419664382935,0.2636458247733655,0.13525582633216274,-0.33855542329357735,-0.8930716428792168,0.7423585694975436,0.08569431361127045,-2.6008464887614027
1783423278374769408,1.8046643733978271,1.5446217060089111,-1.0961521863937378,1.9371130466461182,0.042147357016801834,-0.6908736228942871,-0.721746027469635,-0.27635449171066284,0.09353780746459961,0.37505102157592773,0.26942031560325314,0.12984266321804855,-0.3496682383653864,-0.8878545997487273,0.7626967099788191,0.058330139635475856,-2.575747762594062
1783423278384689408,1.8145842552185059,0.6910553574562073,-0.9210962653160095,1.9475467205047607,0.02154557965695858,-0.6998977065086365,-0.7139180302619934,-0.4001314043998718,0.06861108541488647,0.1890462040901184,0.2754150720794039,0.12357907721221509,-0.3574481661469433,-0.8838017294729318,0.7752542521202153,0.03017018847035003,-2.5497356133440383
1783423278394608384,1.8245034217834473,-0.4777796268463135,-0.8193672299385071,1.708940029144287,0.0026550928596407175,-0.7012403607368469,-0.7129200100898743,-0.4585419297218323,0.13289624452590942,0.04690438508987427,0.28181899138061745,0.11673825897343701,-0.3604333121334065,-0.8814976327170422,0.7771358012484972,0.003724233534484069,-2.5242470833552724
1783423278404528384,1.834423303604126,-1.6950994729995728,-0.8322983384132385,1.4877560138702393,-0.013867690227925777,-0.6936622858047485,-0.7201668620109558,-0.49573010206222534,0.1530281901359558,0.03518456220626831,0.2879326161465058,0.10900254279086001,-0.35781980941883496,-0.8815771277140771,0.7665610861746199,-0.01925383908231859,-2.502452628693242
1783423278414447360,1.8443422317504883,-2.5582807064056396,-0.7792180776596069,1.3536474704742432,-0.029244689270853996,-0.6782451272010803,-0.7342535257339478,-0.46823763847351074,0.0953289270401001,0.11424320936203003,0.29366523946419304,0.09994740303169547,-0.35054778941292375,-0.8836783466364647,0.7453718935576259,-0.039808102653818164,-2.4843485126495053
1783423278424367360,1.854262351989746,-3.0678887367248535,-0.5903747081756592,1.1649080514907837,-0.04280148446559906,-0.6572333574295044,-0.7524707913398743,-0.529052197933197,0.1987982988357544,0.19857674837112427,0.29944652925694476,0.09064129806656394,-0.33992464775732845,-0.8868861612358298,0.7171420729761385,-0.05682003308787556,-2.469053465351581
1783423278434286336,1.8641812801361084,-3.260387897491455,-0.6526151895523071,1.0211594104766846,-0.054201215505599976,-0.6329163908958435,-0.772320568561554,-0.6612223982810974,0.4721192717552185,0.25831300020217896,0.30444678656795937,0.08147990735535543,-0.3274152510146832,-0.8907706893483488,0.6853143380481834,-0.07006481113091127,-2.4579248005941583
1783423278444206592,1.8741014003753662,-2.751788377761841,-0.35359886288642883,0.5694012641906738,-0.06304572522640228,-0.6092188358306885,-0.7904919981956482,-0.704303503036499,0.6750910878181458,0.25698375701904297,0.3084879926543934,0.07346809176763215,-0.3152085477519142,-0.8944725374088999,0.6550751351038414,-0.07958657948335426,-2.4503211559010114
1783423278454125312,1.8840203285217285,-2.4196717739105225,-0.2282467931509018,0.3852924406528473,-0.0682416632771492,-0.5894441604614258,-0.8049215078353882,-0.7497362494468689,0.6361513137817383,0.19481408596038818,0.31094629092422826,0.06760871526640638,-0.30490702611080356,-0.8976487291362665,0.6303705938184707,-0.08457826090788313,-2.4470711636643263
1783423278464045568,1.8939404487609863,-2.6809558868408203,-0.3091891407966614,-0.02766011841595173,-0.07117389142513275,-0.5695306658744812,-0.8188828229904175,-0.727654218673706,0.596996545791626,0.24959272146224976,0.3122227517516055,0.0625035104289118,-0.2943669600446641,-0.9010872558451125,0.6059347585332712,-0.08669796703385921,-2.4473773889103945
1783423278473964544,1.9038593769073486,-3.19792103767395,-0.15212520956993103,-0.2668042480945587,-0.07237754017114639,-0.5465360283851624,-0.8343020081520081,-0.6527200937271118,0.6216245293617249,0.38398462533950806,0.31190075340935725,0.057204095477884756,-0.28209339650475534,-0.905466140821616,0.5782222368774936,-0.08653555561264123,-2.452368949027509
1783423278483884288,1.9137792587280273,-3.5431270599365234,-0.12545472383499146,-0.5731756091117859,-0.07198123633861542,-0.5206390619277954,-0.8507371544837952,-0.7864324450492859,0.6687256097793579,0.5818925499916077,0.3108256067046715,0.052032824591017685,-0.26818652628147577,-0.9103603870086534,0.5475992756336756,-0.0844093853461377,-2.459831038405425
1783423278493803520,1.9236984252929688,-3.6737396717071533,0.07635536789894104,-1.0603421926498413,-0.06857987493276596,-0.49312490224838257,-0.8672512173652649,-0.931633710861206,0.5437230467796326,0.5765865445137024,0.3079789710993392,0.04769763050357713,-0.2531784573848057,-0.915846422325662,0.5156781251702339,-0.07891307389537544,-2.4719758409768606
1783423278503723264,1.9336183071136475,-3.2481753826141357,0.3497852385044098,-0.831785261631012,-0.062439702451229095,-0.4638461470603943,-0.883712649345398,-0.8210136890411377,0.3759707808494568,0.35893237590789795,0.3044043043828127,0.044410966099632784,-0.23700495206440622,-0.9215173677814618,0.48233171491904925,-0.07053888767201487,-2.4861473880831455
1783423278513642240,1.9435372352600098,-2.49273943901062,0.40645596385002136,-0.49093180894851685,-0.056074358522892,-0.43950530886650085,-0.8964880108833313,-0.6663225293159485,0.39661288261413574,0.013156712055206299,0.3027708281159111,0.042801154495161524,-0.22343694451423157,-0.9255126512652205,0.45504787750337716,-0.062467541918646764,-2.494795015070148
1783423278523562496,1.9534573554992676,-1.185709834098816,0.0676240399479866,-0.5208885073661804,-0.05252136290073395,-0.4234672486782074,-0.9043876528739929,-0.6596215963363647,0.6705070734024048,-0.24649125337600708,0.30079569507984755,0.04128479162072495,-0.21471316757204703,-0.9282865120121707,0.43726927271937777,-0.05800879511209074,-2.501985998501431
1783423278533481472,1.9633762836456299,-0.6194320321083069,0.3766484558582306,-0.5415328145027161,-0.04906248301267624,-0.4166369140148163,-0.9077481031417847,-0.5274450778961182,0.5453600883483887,-0.21226227283477783,0.3001582631195351,0.04165039665501287,-0.21069219746008142,-0.929397226763025,0.4297426975042055,-0.053996027785989616,-2.5050342784549176
1783423278543401472,1.9732964038848877,-0.06375716626644135,-0.3070264160633087,-0.8199654817581177,-0.047040145844221115,-0.41411885619163513,-0.9090064764022827,-0.7329433560371399,0.714579701423645,-0.05383831262588501,0.2960261285415892,0.04127425333971746,-0.20926821586709093,-0.9310595137357572,0.4269745204944649,-0.05170284693677781,-2.514705352270228
1783423278553320448,1.98321533203125,-0.10604629665613174,-0.16108785569667816,-0.21309103071689606,-0.04818126559257507,-0.414390504360199,-0.9088228940963745,-0.2826903164386749,0.47449490427970886,0.1385592818260193,0.2931902335405812,0.040126705501234955,-0.2097102544042222,-0.9319072126655453,0.4272730085106858,-0.052965435110390625,-2.5204818143584036
1783423278563240448,1.9931354522705078,-1.7766921520233154,-0.09202980250120163,-0.4449106454849243,-0.05049540847539902,-0.40544137358665466,-0.9127253293991089,-0.023769106715917587,0.31753548979759216,0.4222620725631714,0.29203335592605434,0.03726317056076333,-0.20554511115738225,-0.9333163085590936,0.41746163215321574,-0.05526743163132263,-2.52338747236219
1783423278573159424,2.00305438041687,-2.1339054107666016,0.14899852871894836,-2.1409928798675537,-0.04299459978938103,-0.38790610432624817,-0.9206955432891846,0.29249104857444763,0.30302149057388306,0.39756327867507935,0.2854533716737618,0.03666517787062395,-0.1957240125654255,-0.9374774913810799,0.39835873129051363,-0.046664055965315886,-2.5410279716849953
1783423278583079424,2.012974262237549,-1.1219602823257446,0.9094055891036987,-1.3273600339889526,-0.031757909804582596,-0.3744836747646332,-0.9266895055770874,0.8098035454750061,0.4822870194911957,0.2820667028427124,0.27863484893100926,0.03864462719680153,-0.18751493541409806,-0.9411202376224874,0.38383987353861226,-0.03425687519137528,-2.5592458002447014
1783423278592998400,2.0228934288024902,-1.0307645797729492,0.7201696634292603,-0.5949127078056335,-0.019603127613663673,-0.36520475149154663,-0.9307208061218262,1.2676652669906616,0.5644997954368591,0.18171262741088867,0.27518156649488507,0.04247525055366461,-0.18120555710458466,-0.9432049269483264,0.37385274684390796,-0.021059192997365552,-2.5698647083631423
1783423278602918400,2.032813310623169,-0.5798565745353699,-0.10003438591957092,-0.8933458924293518,-0.014451899565756321,-0.35830438137054443,-0.9334929585456848,1.3264483213424683,0.029630064964294434,-0.08480232954025269,0.2719004580610575,0.04332452443089238,-0.17713412820539146,-0.9448897883844285,0.36645104508252957,-0.015480293633838559,-2.57834618616625
1783423278612837376,2.0427322387695312,-0.7297741770744324,-0.769597589969635,-1.3154617547988892,-0.013716095127165318,-0.35157909989356995,-0.9360576868057251,1.1460860967636108,-0.09280261397361755,-0.1676105260848999,0.26659100513500417,0.041702063081571886,-0.17387377616871436,-0.947078739022024,0.3592573615085452,-0.014651995699034567,-2.590156636268448
1783423278622757376,2.052652359008789,-0.8471088409423828,-0.4772932529449463,-1.0848902463912964,-0.016287237405776978,-0.34556835889816284,-0.9382522106170654,0.5783905386924744,-0.23115283250808716,-0.16709446907043457,0.26079783485012653,0.038520537200963344,-0.17143528437765496,-0.9492684858276699,0.35284440273271894,-0.017357381974309447,-2.602257468011426
1783423278632676352,2.0625712871551514,-1.8659980297088623,-0.5634654760360718,-1.3718372583389282,-0.01826299913227558,-0.33279865980148315,-0.9428210258483887,-0.009858937934041023,-0.019572556018829346,0.09241819381713867,0.2545273686181507,0.034649042094600915,-0.16549597672257466,-0.9521693515135505,0.33926985180089364,-0.0193681667800827,-2.615863547339482
1783423278642596608,2.072491407394409,-1.3797534704208374,-0.11314494162797928,-1.077161431312561,-0.01715809293091297,-0.3174448013305664,-0.9481215476989746,-0.03804820030927658,0.1714639663696289,0.04922628402709961,0.24898887310042045,0.03216117287224167,-0.15781286306202214,-0.955021151206565,0.32303368791321396,-0.01809495949216776,-2.6285679201942354
1783423278652515328,2.0824103355407715,-0.9934055805206299,-0.500015139579773,-0.7404392957687378,-0.016811029985547066,-0.30581074953079224,-0.9519438743591309,0.3380085527896881,0.029916614294052124,-0.12799686193466187,0.24478673576691876,0.030107667721910095,-0.15205782217451458,-0.9571057823932618,0.31078986601851155,-0.017657850401398587,-2.638046658359036
1783423278662435584,2.0923304557800293,1.687305212020874,-0.9316729307174683,-0.4879235327243805,-0.020397989079356194,-0.30769723653793335,-0.9512656331062317,0.45177921652793884,0.26005929708480835,-0.2961251139640808,0.24137799255907277,0.028050655067127842,-0.15355891682701267,-0.9577939887024092,0.3127719020803391,-0.021439713816395044,-2.644464409555291
1783423278672354560,2.1022493839263916,3.480111837387085,-0.3574783205986023,-1.33372962474823,-0.02522127330303192,-0.33315008878707886,-0.9425364136695862,0.11088413000106812,0.6357166767120361,-0.8682392835617065,0.23695942038924894,0.02821873086946253,-0.16713912770885064,-0.9566182881578275,0.33964254734860755,-0.026752553606145143,-2.651369538291643
1783423278682274304,2.1121692657470703,3.7792694568634033,-0.5408682227134705,-0.015696199610829353,-0.026773348450660706,-0.3716530203819275,-0.9279856085777283,-0.0381222739815712,0.20531699061393738,-0.43227440118789673,0.23255987009452367,0.03158358761257664,-0.18710875439860705,-0.9538914129866432,0.380788944003,-0.02884303902236231,-2.657761376969482
1783423278692193536,2.1220884323120117,2.847839593887329,-0.3436337113380432,-0.02770252898335457,-0.029512396082282066,-0.40111324191093445,-0.9155529141426086,0.4518146514892578,-0.38108280301094055,0.16193664073944092,0.23144263620783842,0.03381340506056372,-0.20268246634808149,-0.9508999800118602,0.4127318059334946,-0.032223347762151064,-2.6573443691619523
1783423278702113280,2.1320083141326904,1.9451771974563599,-0.3147135078907013,-0.533333957195282,-0.03146274387836456,-0.4208308160305023,-0.906593382358551,0.35909944772720337,-0.6025456190109253,0.420753538608551,0.2287365580262312,0.034823905842152225,-0.2132852896129493,-0.9491976917015608,0.43436098286265973,-0.03469043922975859,-2.660996491112157
1783423278712032256,2.1419272422790527,1.0899851322174072,0.5594744086265564,-0.09538989514112473,-0.03063478320837021,-0.4355515241622925,-0.8996423482894897,0.4347790777683258,-0.42533406615257263,0.4327234625816345,0.22839296716540233,0.037086997717754006,-0.22091484912463646,-0.9474481177924764,0.4506508910543514,-0.03403902690066308,-2.660693379152394
1783423278721952512,2.1518473625183105,0.4810156524181366,0.022662196308374405,-0.04430877044796944,-0.027193697169423103,-0.4419475197792053,-0.8966286182403564,0.17708079516887665,-0.15807384252548218,0.46289753913879395,0.22676041813838368,0.039260472506869516,-0.2239292168305908,-0.9470449959325966,0.4577685765539355,-0.030319535889738222,-2.6644980431548686
1783423278731871488,2.161766290664673,-0.26093968749046326,0.20307724177837372,-0.6690275073051453,-0.024386830627918243,-0.4432808458805084,-0.8960509896278381,0.5141176581382751,-0.3991874158382416,0.20313411951065063,0.22603837936701887,0.04066482124584729,-0.22432316059005458,-0.9470649943364997,0.45925547021801494,-0.02720917883847907,-2.666653272318009
1783423278741791488,2.1716864109039307,-0.20789304375648499,0.033983103930950165,-0.018167346715927124,-0.022204263135790825,-0.4411207437515259,-0.8971730470657349,0.4075344502925873,-0.2739518880844116,0.24737751483917236,0.22411713767354458,0.041017415184734465,-0.22300460662171678,-0.9478174748912621,0.4568470961143473,-0.024744090355086575,-2.671457168412984
1783423278751710464,2.181605339050293,-0.24374105036258698,0.8263422250747681,-0.109864242374897,-0.017448334023356438,-0.4386711120605469,-0.8984782695770264,0.3573226034641266,-0.15082168579101562,0.14577746391296387,0.22462253266416463,0.04318914779260566,-0.2211234051986174,-0.9480421427073371,0.4541193893187112,-0.01941743249581155,-2.6718201234726178
1783423278761630208,2.1915252208709717,-0.7775517702102661,-0.38633671402931213,0.09901636838912964,-0.016431834548711777,-0.43521085381507874,-0.9001786112785339,0.05117609351873398,-0.060425132513046265,0.09840553998947144,0.2250006305364742,0.04333211387915344,-0.21916439157597906,-0.948400733025454,0.45027245040023794,-0.01825194561253643,-2.671541062054984
1783423278771549440,2.201444387435913,-0.5230169892311096,0.38464123010635376,-0.5521140098571777,-0.015530949458479881,-0.42858919501304626,-0.903365969657898,0.4989904463291168,-0.038329750299453735,0.12423694133758545,0.22415272236540118,0.04272625490089925,-0.21561880700216882,-0.9494412294085902,0.44293069484127157,-0.01719061751356589,-2.6740343783128995
1783423278781469440,2.211364269256592,-0.9093907475471497,-0.09533809870481491,-0.14340493083000183,-0.013643569312989712,-0.42291200160980225,-0.9060680270195007,0.2645896077156067,-0.20750486850738525,-0.05204659700393677,0.22238252922626925,0.042537354024535345,-0.2125007058841608,-0.9505682871716162,0.436656433840148,-0.015056858423897467,-2.6786244943815802
1783423278791388416,2.221283435821533,-1.0090619325637817,0.16971062123775482,-0.3285313844680786,-0.011422721669077873,-0.41364505887031555,-0.9103665351867676,0.22915038466453552,-0.16988152265548706,0.022152483463287354,0.22145564940187096,0.04225921502762519,-0.20743885415982719,-0.9519141605459125,0.4264540587751409,-0.012546728992488727,-2.6817227104550985
1783423278801308416,2.231203317642212,-1.1457960605621338,0.0690617710351944,-0.11219450831413269,-0.008878729306161404,-0.4042110741138458,-0.9146226644515991,0.13163568079471588,-0.2623691260814667,-0.06050550937652588,0.22070175760770003,0.0421737609248596,-0.20226234212167718,-0.9532061851875521,0.4161161404821569,-0.009707227906268729,-2.684489434333303
1783423278811227392,2.241122245788574,-1.1778175830841064,0.12536658346652985,-0.1143047958612442,-0.0071905190125107765,-0.3936968147754669,-0.9192122220993042,0.3116186261177063,-0.14063546061515808,0.0353926420211792,0.22036313171674646,0.041628015278898305,-0.19662398961674957,-0.9544874596984119,0.4046497540941637,-0.007822320284620144,-2.686197834129908
1783423278821147392,2.251042366027832,-1.2265139818191528,0.4032866060733795,-0.06748439371585846,-0.004594884812831879,-0.38276031613349915,-0.9238362908363342,0.18022355437278748,-0.07147857546806335,0.06403404474258423,0.2206558736495531,0.041618557707329404,-0.1906561388022432,-0.9556302915912863,0.39278230728607005,-0.004973659467544265,-2.686755507974866
1783423278831066368,2.2609612941741943,-1.288588285446167,0.41973909735679626,0.18661712110042572,-0.0005315511953085661,-0.3715534210205078,-0.9284114241600037,0.19868218898773193,-0.0037670135498046875,0.08357805013656616,0.22155381882352115,0.04242382611665284,-0.1843759953506887,-0.9566188152046596,0.3806816568722708,-0.0005725383330118939,-2.686305587705491
1783423278840986368,2.270881414413452,-1.0631370544433594,0.41837364435195923,0.3986046612262726,0.0030340137891471386,-0.3603200912475586,-0.9328237771987915,0.21971377730369568,-0.02679535746574402,0.083443284034729,0.22340390322811396,0.04315008700741418,-0.17811844573458985,-0.957341358427014,0.36861102622436276,0.003252493307791806,-2.683687018753643
1783423278850905344,2.2808003425598145,-1.4865812063217163,-0.09078093618154526,0.429514080286026,0.002018236555159092,-0.348768025636673,-0.9372069239616394,0.2527882754802704,-0.07664701342582703,-0.1180298924446106,0.2260144464209151,0.04168879291365307,-0.17221668298075934,-0.9578731777373156,0.3562562634726896,0.0021534555440881667,-2.678547850649523
1783423278860825344,2.290720224380493,-1.5448261499404907,0.18080362677574158,-0.1483650952577591,0.002820975612848997,-0.3342103660106659,-0.94249427318573,0.3607959747314453,-0.0785856544971466,-0.02314293384552002,0.22710304835361927,0.040466267314254664,-0.16466735605559016,-0.958994956787255,0.3407672827906042,0.002993086660806401,-2.677047708427667
1783423278870744576,2.3006393909454346,-1.023425817489624,0.10916432738304138,-0.0382298044860363,0.004464531783014536,-0.3225366473197937,-0.9465464353561401,0.2619691789150238,-0.10278680920600891,-0.1884937882423401,0.2266620779583384,0.03975937661012803,-0.15857480973420182,-0.9601549351624702,0.3284081470344542,0.004716618497119609,-2.678726077076704
1783423278880664320,2.3105592727661133,-1.1191362142562866,0.2707946002483368,0.2593322992324829,0.006199912633746862,-0.3126239478588104,-0.9498567581176758,0.3183545172214508,0.016389816999435425,-0.19360637664794922,0.22757638090739968,0.03954275283094369,-0.15332318593137587,-0.9608003812795947,0.3179541855657145,0.006527115239874234,-2.677489012726697
1783423278890583552,2.3204784393310547,-0.5742965936660767,0.387367308139801,0.14955388009548187,0.008989902213215828,-0.30462098121643066,-0.9524312019348145,0.15273800492286682,0.030390053987503052,-0.19303077459335327,0.2291470950545503,0.040177176183623924,-0.14889653775797798,-0.9610969186213024,0.309540465045425,0.009438618787527312,-2.6749596308090955
1783423278900503296,2.3303983211517334,-0.5003336071968079,0.13126468658447266,0.6144267916679382,0.010200011543929577,-0.30033090710639954,-0.9537805318832397,0.23270465433597565,0.024223119020462036,-0.20735228061676025,0.23137471995596393,0.040583018048691716,-0.14650170633228798,-0.9609141717019886,0.3050395508775507,0.010693888762524811,-2.670660322704721
1783423278910422272,2.3403172492980957,-0.3353334665298462,0.24862779676914215,0.1709018051624298,0.011107927188277245,-0.29577144980430603,-0.9551941752433777,0.2491917610168457,0.09008297324180603,-0.11765128374099731,0.23354427939483133,0.040787634784144086,-0.14401143464285165,-0.960757109374692,0.30026300726697097,0.011628448560883591,-2.6664345932003752
1783423278920342528,2.3502373695373535,-0.31653642654418945,0.24273155629634857,0.3363744914531708,0.012186296284198761,-0.29357093572616577,-0.9558596014976501,0.23169493675231934,-0.02179768681526184,-0.15818452835083008,0.23495989043123944,0.041252123281973495,-0.1427180934112013,-0.9605851227361848,0.2979602475349365,0.012748353672354861,-2.663724876534149
1783423278930261248,2.360156297683716,-0.11396228522062302,0.26184746623039246,0.07268266379833221,0.013885177671909332,-0.29179587960243225,-0.9563798308372498,0.18978914618492126,0.03795066475868225,-0.10412126779556274,0.23613574029307932,0.042036420898003496,-0.14157339953779507,-0.960432107124071,0.2961038926299496,0.014517456103380663,-2.6615933862020023
1783423278940181504,2.3700764179229736,-0.03031931445002556,0.04707778990268707,0.44009315967559814,0.014912315644323826,-0.29123592376708984,-0.9565350413322449,0.12087565660476685,0.019400596618652344,-0.14122802019119263,0.23704002068224325,0.04260292208397488,-0.14112928629254032,-0.9602497865343348,0.29551851693981773,0.015588668846146243,-2.6598848636545602
1783423278950100480,2.379995346069336,0.03887573629617691,0.2436867207288742,0.29891499876976013,0.015343057923018932,-0.2915962040424347,-0.9564184546470642,0.2643963098526001,-0.12490770220756531,-0.1667657494544983,0.23929230706805635,0.043191608462586815,-0.14115687692355997,-0.959660572622327,0.2958951531186135,0.01604082615076851,-2.655247913528616
1783423278960020224,2.3899152278900146,-0.052385199815034866,-0.11578641086816788,0.06447160243988037,0.015867456793785095,-0.2911336421966553,-0.9565507769584656,0.0369889959692955,-0.06106972694396973,-0.14754468202590942,0.23988900911067979,0.043477181067529604,-0.14083442756324896,-0.9595460948787871,0.29541160053259025,0.016586678867850976,-2.6540984517972173
1783423278969939456,2.399834394454956,-0.10090932995080948,-0.12166427075862885,0.046269699931144714,0.014927786774933338,-0.29165926575660706,-0.9564058184623718,0.23618610203266144,-0.09005457162857056,-0.21853619813919067,0.24038037136623783,0.04315600571005648,-0.14119016957810554,-0.9593853263888213,0.29596106755408064,0.015606946930348888,-2.652914250292669
1783423278979859456,2.4097542762756348,0.19040660560131073,-0.2352270632982254,0.011461485177278519,0.013339001685380936,-0.2924286127090454,-0.9561943411827087,0.28254419565200806,-0.05754697322845459,-0.13459545373916626,0.2401139821383105,0.042436267360551304,-0.1417815205049752,-0.9593969699761116,0.2967654731423609,0.013949190161497737,-2.653201167122104
1783423278989778432,2.419673442840576,0.31223902106285095,0.020637735724449158,0.005701600573956966,0.012245968915522099,-0.2951236665248871,-0.9553805589675903,0.23334424197673798,-0.12885704636573792,-0.19822967052459717,0.2403910188301382,0.04228863528778277,-0.1432528532002415,-0.9591154618385163,0.29958495036464733,0.012817194413825688,-2.652368544582237
1783423278999698432,2.429593324661255,0.24840188026428223,0.28244560956954956,0.27810803055763245,0.013790089637041092,-0.29818207025527954,-0.9544094204902649,0.0910988301038742,-0.19826263189315796,-0.12167090177536011,0.24086580151416573,0.043513404064516814,-0.14457484265004839,-0.9587431978232652,0.3027875212356802,0.014447814671580291,-2.6515235245231077
1783423279009617408,2.439512252807617,-0.2745305895805359,-0.19336673617362976,0.17901232838630676,0.013720445334911346,-0.29891592264175415,-0.9541808366775513,0.12473780661821365,-0.28801339864730835,-0.13947761058807373,0.24222502556195152,0.043779871039752415,-0.14488933290863448,-0.9583409924043694,0.30355644780163477,0.01437830204917025,-2.6486529745805028
1783423279019537408,2.449432373046875,-0.5262697339057922,-0.2828311026096344,-0.15830890834331512,0.012544983066618443,-0.29507675766944885,-0.9553911685943604,0.24154438078403473,-0.23234328627586365,-0.04816412925720215,0.2418422149562466,0.04264597346959535,-0.14312834900908797,-0.9587533144736126,0.29953584577989323,0.01312997451514773,-2.6493900716675647
1783423279029456384,2.4593513011932373,-0.5957369804382324,-0.35954636335372925,-0.04244435578584671,0.01110067032277584,-0.290007084608078,-0.956960141658783,0.3107072114944458,-0.229707270860672,-0.10235077142715454,0.24112918673123915,0.04117534242741996,-0.14079961014797643,-0.9593418849765727,0.29423423616409616,0.01159940958204762,-2.6508166432274494
1783423279039376384,2.469271421432495,-0.4710777997970581,-0.40325412154197693,0.2736128568649292,0.008908581919968128,-0.2860151529312134,-0.9581837058067322,0.25516003370285034,-0.13125169277191162,-0.09526783227920532,0.24159663720002336,0.03965331133869878,-0.13905312966841996,-0.9595430564754276,0.2900656607037145,0.009297095698092745,-2.649638400883335
1783423279049295360,2.4791903495788574,-0.6385147571563721,-0.26052093505859375,0.07707314938306808,0.007550133392214775,-0.2826959490776062,-0.9591798782348633,0.009036161005496979,-0.1219976544380188,-0.12395000457763672,0.24226156615739142,0.03865482116343332,-0.1375350152955247,-0.9596348862930034,0.2866035478725419,0.007871284505059807,-2.6481585100130314
1783423279059215360,2.489110231399536,-0.5219080448150635,-0.4755408465862274,0.053196679800748825,0.006429965142160654,-0.2773056626319885,-0.960760235786438,0.14022226631641388,-0.031272828578948975,-0.05300319194793701,0.24153365824154674,0.037308434229836276,-0.13501097503050746,-0.9602299854789644,0.2809886474835534,0.006692480478782856,-2.6496891362740196
1783423279069134592,2.4990293979644775,-0.590312123298645,-0.485919713973999,0.1899651736021042,0.003918855916708708,-0.2738558053970337,-0.9617627859115601,0.3791530430316925,-0.1861509084701538,-0.17706167697906494,0.2421902921338329,0.035727355496279166,-0.13357457869669886,-0.9603256041982272,0.2773998338026972,0.004074637160335341,-2.6480726019783423
1783423279079054336,2.5089492797851562,-0.5503227710723877,-0.3831769526004791,0.2582782804965973,0.0009790045442059636,-0.26873844861984253,-0.9632126688957214,0.10806030035018921,-0.08784419298171997,-0.07473593950271606,0.24265833543974738,0.03369581087125104,-0.13137064656301753,-0.9605848273751957,0.2720830488999231,0.0010163945810990702,-2.6468547192828424
1783423279088973568,2.5188684463500977,-0.684942901134491,-0.26641252636909485,0.22381508350372314,-0.0016989203868433833,-0.263608455657959,-0.964628279209137,0.18231721222400665,-0.037096500396728516,-0.09419435262680054,0.2440923975430694,0.031920977154529226,-0.12910041476255704,-0.9605899413699573,0.2667610687592586,-0.0017612158787089279,-2.643676141784378
1783423279098893312,2.5287883281707764,-0.483847051858902,-0.5199753642082214,0.08679386228322983,-0.005998183507472277,-0.2576804757118225,-0.9662115573883057,0.07365565001964569,0.09096294641494751,-0.026265859603881836,0.24425745788090591,0.02907946009346933,-0.12668308202176026,-0.9609599225940983,0.26062084364551474,-0.006207860551676414,-2.642959951073978
1783423279108812288,2.5387072563171387,-0.37362200021743774,-0.41591691970825195,0.21801525354385376,-0.01073526032269001,-0.2539399266242981,-0.9671604037284851,0.33370277285575867,-0.028500229120254517,-0.09567523002624512,0.2449301183678875,0.026373331989577923,-0.12539633888001844,-0.9610355669906153,0.2567515483892409,-0.01109931626205519,-2.641063626638743
1783423279118732544,2.5486273765563965,-0.3654598891735077,-0.5081667304039001,-0.05511424317955971,-0.01382010243833065,-0.2502080202102661,-0.9680934548377991,0.2110857218503952,0.04029285907745361,-0.07038921117782593,0.2446367623589836,0.02435051275433952,-0.12393676776526905,-0.9613529930418928,0.2528951099302264,-0.014274617525396634,-2.6414129191033364
1783423279128651264,2.558546304702759,-0.2321508377790451,-0.23888282477855682,0.2917206883430481,-0.01732945628464222,-0.2474210411310196,-0.9687530994415283,0.12908482551574707,-0.019165262579917908,-0.08784174919128418,0.24524623528992898,0.022358861153171584,-0.1229778270120121,-0.9613692065007966,0.2500176339712371,-0.017886507321740994,-2.639797265108964
1783423279138571520,2.5684664249420166,-0.09229347109794617,-0.49318212270736694,0.2539651095867157,-0.020806115120649338,-0.24578234553337097,-0.9691017270088196,0.11498336493968964,-0.04323437809944153,-0.07337874174118042,0.24610116468867757,0.020561466425423038,-0.12258207522382068,-0.9612414767346694,0.24832671979728618,-0.02146618656932028,-2.637632516381313
1783423279148490496,2.578385353088379,-0.17773620784282684,-0.3126469850540161,-0.14736074209213257,-0.024222221225500107,-0.24458420276641846,-0.9693254828453064,0.2999790608882904,0.04559433460235596,-0.017963945865631104,0.24633200258011173,0.018770656750300926,-0.12241294900001269,-0.9612405319758871,0.24709084857520017,-0.024983540199391047,-2.636757951759588
1783423279158410240,2.5883052349090576,0.1039976105093956,-0.36962148547172546,0.02950276993215084,-0.02671203762292862,-0.24428127706050873,-0.9693364500999451,0.10686646401882172,0.009555324912071228,0.006751000881195068,0.24562268264941975,0.017426884001591467,-0.12258908409472019,-0.9614249164929148,0.24677844469822674,-0.027550062860935986,-2.637920741842874
1783423279168329472,2.598224401473999,-0.05407191440463066,-0.27078306674957275,0.16784361004829407,-0.030093085020780563,-0.24505269527435303,-0.9690425992012024,0.19813813269138336,-0.05156290531158447,-0.03526037931442261,0.24632068751244454,0.015965620436739353,-0.12338474315083509,-0.9611697900360021,0.2475740500876408,-0.031044473238521466,-2.635984179777001
1783423279178249472,2.6081442832946777,0.025240685790777206,-0.2786403298377991,-0.16143792867660522,-0.03234187513589859,-0.24450792372226715,-0.9691077470779419,0.1406029909849167,-0.0020893514156341553,0.05908888578414917,0.2459517177539191,0.014751607841385178,-0.12340381801432104,-0.9612812656673405,0.2470121799584637,-0.03336045327291792,-2.6364817122240143
1783423279188168448,2.618063449859619,-0.07175137847661972,-0.3785160779953003,0.15418580174446106,-0.03574461117386818,-0.24458876252174377,-0.968967854976654,0.18906491994857788,-0.062479108572006226,-0.015330851078033447,0.24576041995246228,0.013077493515340356,-0.1238751890538985,-0.9612937760268419,0.24709554492592092,-0.036872648046828126,-2.6364238177596033
1783423279198088448,2.627983331680298,0.052971646189689636,-0.2687901258468628,0.06656648218631744,-0.03864589333534241,-0.24427171051502228,-0.9689364433288574,0.1546737253665924,0.020410016179084778,0.06720304489135742,0.24595154058832364,0.011646463056304625,-0.1240811739786868,-0.9612368204545939,0.2467685875773788,-0.039863729628213065,-2.6356572790127393
1783423279208007424,2.63790225982666,-0.05025247484445572,-0.34862953424453735,-0.10063821822404861,-0.04117169976234436,-0.24457363784313202,-0.9687561988830566,0.13742414116859436,-0.008584931492805481,0.03989267349243164,0.24567667071302382,0.010417402650572465,-0.12455266305813388,-0.961260108531485,0.24707995271168892,-0.042473986261693804,-2.6358750192713556
1783423279217927424,2.647822380065918,0.038540177047252655,-0.177215576171875,-0.056119654327631,-0.04272189363837242,-0.24455033242702484,-0.9686949849128723,0.17554965615272522,-0.05566634237766266,0.09973746538162231,0.24501019348362654,0.00957176585558301,-0.1247432964537761,-0.9614142965921492,0.24705592221161018,-0.0440739633028567,-2.6370554492032525
1783423279227846400,2.6577413082122803,-0.20120343565940857,-0.15900540351867676,0.11619698256254196,-0.04390843212604523,-0.24381062388420105,-0.9688283801078796,0.18261082470417023,-0.11249735951423645,0.09738367795944214,0.2450820183400069,0.00890818531082392,-0.12452492073242635,-0.9614306532673983,0.24629311817173466,-0.04529017549203177,-2.636789733092846
1783423279237766400,2.667661428451538,-0.190804123878479,-0.2190847396850586,-0.06242751702666283,-0.045350126922130585,-0.2421790212392807,-0.9691711068153381,0.16894632577896118,-0.044884562492370605,0.11928713321685791,0.24503254952499362,0.007991243400497304,-0.12389742908781634,-0.9615324081213638,0.24461109602198375,-0.04675858552863021,-2.63679512363305
1783423279247685376,2.6775803565979004,-0.04173235595226288,-0.16189388930797577,-0.04627944156527519,-0.04641929641366005,-0.24124109745025635,-0.9693543910980225,0.18237511813640594,0.04470790922641754,0.06299763917922974,0.2446310186781998,0.007299060948083584,-0.12356988249663407,-0.9616823215981859,0.24364451563683012,-0.04785026261362909,-2.6375432065935835
1783423279257605376,2.687500238418579,0.09270548075437546,-0.09531804919242859,0.1428896188735962,-0.04731190949678421,-0.2417854517698288,-0.9691756367683411,0.2254430055618286,0.041941091418266296,0.0009291768074035645,0.2447700238987394,0.006950459874221247,-0.12395112929495232,-0.9616004358681015,0.24420547337116533,-0.048777932096768284,-2.637103428325541
1783423279267524608,2.6974194049835205,-0.04506703466176987,-0.30647847056388855,0.10026838630437851,-0.04860031604766846,-0.24264362454414368,-0.9688973426818848,0.21899521350860596,-0.019151419401168823,-0.011403560638427734,0.24518859406027055,0.006484880773048023,-0.12453622448045802,-0.9614214224194522,0.2450899892785301,-0.05011843391147334,-2.6360096455660837
1783423279277444352,2.707339286804199,-0.3076455295085907,-0.2092326432466507,-0.1461261361837387,-0.05040737986564636,-0.24101771414279938,-0.9692108035087585,0.13967129588127136,-0.018732666969299316,0.005038440227508545,0.24494783581405555,0.005366017732755273,-0.12395889229318166,-0.9615644098811367,0.24341433437956567,-0.051961870570920436,-2.636368214483347
1783423279287363584,2.7172584533691406,-0.3176976442337036,-0.31838229298591614,-0.047498367726802826,-0.05154190585017204,-0.2385598123073578,-0.9697590470314026,0.16274796426296234,-0.08654393255710602,-0.014692187309265137,0.24394263801899652,0.004372890792564035,-0.12288753303609756,-0.9619622640766227,0.2408825705646235,-0.05309922602571591,-2.6384580957641823
1783423279297283328,2.7271783351898193,-0.2886032462120056,-0.2988485097885132,0.35349318385124207,-0.054494570940732956,-0.2359779179096222,-0.9702292084693909,0.22110529243946075,-0.1430046260356903,-0.06575101613998413,0.24464233838273697,0.0026958741346703226,-0.12197588253024287,-0.961906850837705,0.2382247900907421,-0.05610774486543675,-2.636775341134398
1783423279307202560,2.7370975017547607,-0.7065022587776184,-0.05468965694308281,-0.15908728539943695,-0.05548536777496338,-0.23115143179893494,-0.9713343381881714,0.10173476487398148,-0.11941924691200256,-0.05539906024932861,0.24504736242436423,0.0016542470966658487,-0.11970837166832976,-0.9620910098959028,0.2332610023699641,-0.05706082315976038,-2.6361055829062985
1783423279317122560,2.7470173835754395,-0.6293217539787292,-0.24465009570121765,0.2216247320175171,-0.05661604925990105,-0.22434073686599731,-0.9728647470474243,0.13066695630550385,-0.09331671893596649,-0.04355365037918091,0.24480304241114542,0.00021465208139442594,-0.11647991761080385,-0.9625506855536701,0.22626648405318728,-0.05812962653382675,-2.6368914597795996
1783423279327041280,2.7569363117218018,-0.538471519947052,-0.18389566242694855,0.15664920210838318,-0.058720123022794724,-0.2188854068517685,-0.9739820957183838,0.28262758255004883,-0.145875945687294,-0.1745622158050537,0.24587230478083247,-0.001369960041969863,-0.11404855511457052,-0.9625684087663384,0.22067202575304748,-0.0602158227961562,-2.634747523574308
1783423279336961536,2.7668564319610596,-0.45472782850265503,-0.21282252669334412,0.053945593535900116,-0.060365960001945496,-0.21415019035339355,-0.9749336838722229,0.035707760602235794,-0.036490678787231445,-0.1591452956199646,0.24595085606996392,-0.00275940862805085,-0.11191762033122077,-0.9627954608291699,0.21582175954778798,-0.0618390727173454,-2.6346792621733757
1783423279346880512,2.776775360107422,-0.4251806139945984,-0.29515308141708374,0.1171991378068924,-0.06316831707954407,-0.20996764302253723,-0.9756655693054199,0.18410947918891907,-0.032296136021614075,-0.1660580039024353,0.24654573932176155,-0.004582722886233573,-0.11020981107457041,-0.9628332568477069,0.2115418629223505,-0.06465358043168073,-2.633372947601605
1783423279356800512,2.7866954803466797,-0.2674929201602936,-0.3586735725402832,-0.11213868856430054,-0.0661679357290268,-0.2064807415008545,-0.9762107729911804,0.1403714269399643,0.018141508102416992,-0.17067033052444458,0.24603398701227888,-0.006540515676791034,-0.10886609386326856,-0.9631057620091413,0.20797682440086648,-0.06767686327323313,-2.6343071917994547
1783423279366719488,2.796614408493042,-0.34596216678619385,-0.4173147678375244,0.14595651626586914,-0.06996254622936249,-0.2036079466342926,-0.9765495657920837,0.2018595188856125,-0.027898401021957397,-0.16276317834854126,0.24601575632356068,-0.008751131329745932,-0.10792884687770458,-0.9631983977552437,0.20504166508049718,-0.07152039897417628,-2.6340934220459107
1783423279376639488,2.8065345287323,-0.2920227646827698,-0.4525585174560547,-0.04389917477965355,-0.07411137223243713,-0.2007492631673813,-0.976835310459137,0.15156498551368713,-0.05334009230136871,-0.11653321981430054,0.24594823408417038,-0.011137394874964868,-0.10704344768649252,-0.9632897289186314,0.20212269309464304,-0.07572377939173723,-2.63394911475048
1783423279386558464,2.816453456878662,-0.2106195092201233,-0.5378755331039429,0.03094230778515339,-0.07899394631385803,-0.19820180535316467,-0.9769728779792786,0.12217631191015244,-0.09816965460777283,-0.08571022748947144,0.24556617419171758,-0.013876223090331775,-0.10640024443816522,-0.9634228924954825,0.1995229837077801,-0.0806803060758266,-2.634362656826421
1783423279396478464,2.826373338699341,-0.29115402698516846,-0.5160589218139648,0.10566900670528412,-0.0838625431060791,-0.19591180980205536,-0.9770289659500122,0.1798708438873291,-0.15191228687763214,-0.07646834850311279,0.24560706704649873,-0.016528901462237813,-0.10588816118094725,-0.9634270380671337,0.19718718748384126,-0.08562437404838683,-2.633890347539821
1783423279406397696,2.8362925052642822,-0.5657896399497986,-0.4633331298828125,0.12700200080871582,-0.08892054110765457,-0.19162119925022125,-0.9774326086044312,0.11286158114671707,-0.21020375192165375,-0.05821192264556885,0.24586731324687647,-0.01949926033088659,-0.10441976072650938,-0.9634654273855269,0.1928136880156221,-0.09072384424130613,-2.6330972694951496
1783423279416317440,2.846212387084961,-0.5438363552093506,-0.539365291595459,0.19367796182632446,-0.093889020383358,-0.18625959753990173,-0.9780042171478271,0.1730058491230011,-0.23355546593666077,-0.05150628089904785,0.24621656522205812,-0.022550092716429063,-0.10241774022720562,-0.9635245113145983,0.18735373514944992,-0.09570733563378649,-2.632226910430936
1783423279426236416,2.8561313152313232,-0.5323485732078552,-0.5359207391738892,0.18894606828689575,-0.09980981796979904,-0.18080256879329681,-0.9784418344497681,0.23393458127975464,-0.17175176739692688,-0.09130609035491943,0.2469262484685244,-0.026039439200525438,-0.10050386173268026,-0.9634565423462426,0.18180240267506695,-0.10165730781676946,-2.630534975194889
1783423279436156416,2.866051435470581,-0.6091115474700928,-0.495609313249588,0.0680454671382904,-0.10470118373632431,-0.17523187398910522,-0.9789440631866455,0.1881972849369049,-0.17410284280776978,-0.04644656181335449,0.24709078040347832,-0.029099396607831826,-0.09839308546104564,-0.9635446066148036,0.17614127568307794,-0.10654814695815763,-2.6301157067138177
1783423279446075392,2.8759703636169434,-0.692394495010376,-0.8104832172393799,0.2718082666397095,-0.1111987754702568,-0.16874779760837555,-0.979366660118103,0.2079852819442749,-0.16441258788108826,-0.05009806156158447,0.24743641388437035,-0.03303731345256065,-0.09604799921343385,-0.9635654753229634,0.1695591152063144,-0.11305734388092617,-2.629251755107344
1783423279455995648,2.885890483856201,-0.6403816938400269,-0.4534950852394104,0.1946837455034256,-0.11771035194396973,-0.16177281737327576,-0.9797825217247009,0.19583535194396973,-0.21551600098609924,-0.10729938745498657,0.24831340426058757,-0.03699265985595394,-0.09348942416067366,-0.9634478130301367,0.16248686853118585,-0.1195662062175306,-2.627356672031503
1783423279465914368,2.8958094120025635,-0.7608137130737305,-0.3700520992279053,0.33217188715934753,-0.12221761047840118,-0.15471188724040985,-0.9803708791732788,0.08295675367116928,-0.25092774629592896,-0.09966140985488892,0.24915926159911786,-0.03998966055499724,-0.09063873435804222,-0.9633821050518606,0.1553358161609271,-0.12402480285647656,-2.625759892296126
1783423279475834624,2.9057295322418213,-0.8120986223220825,-0.5067026615142822,0.5104544758796692,-0.12724757194519043,-0.1466199904680252,-0.9809743165969849,0.14043115079402924,-0.1758897751569748,-0.11703288555145264,0.25082124165819714,-0.04330074713620513,-0.0873949738411311,-0.9631073229333723,0.1471504573970505,-0.12899521161215963,-2.6225313994475887
1783423279485753600,2.9156484603881836,-0.8262245655059814,-0.6601753234863281,0.40790146589279175,-0.133417010307312,-0.13811811804771423,-0.9813884496688843,0.1583651304244995,-0.12715592980384827,-0.14654123783111572,0.2526581423385019,-0.04721361914356253,-0.08412283066425617,-0.9627346581049876,0.1385610694505516,-0.13511885686346997,-2.6189016631713176
1783423279495673344,2.9255683422088623,-0.7336462736129761,-0.7085882425308228,0.3987535536289215,-0.1405458003282547,-0.1299036592245102,-0.981515109539032,0.1969575434923172,-0.1308690458536148,-0.16599160432815552,0.25409431902689716,-0.05160295374809296,-0.08111460249483383,-0.9623895234163942,0.1302718082082707,-0.14222588953419743,-2.616032036680291
1783423279505592576,2.9354875087738037,-0.8030184507369995,-0.6894182562828064,0.4535430371761322,-0.14755657315254211,-0.12181247025728226,-0.9815236926078796,0.2090495079755783,-0.14312587678432465,-0.15868926048278809,0.25563761774245775,-0.055920127032100767,-0.0781734398308696,-0.9619830488230632,0.12211574919485019,-0.1492167689842459,-2.6129790569065445
1783423279515512576,2.9454073905944824,-0.8244087100028992,-0.7934621572494507,0.4410240650177002,-0.1551264375448227,-0.11310974508523941,-0.9813979864120483,0.1921290010213852,-0.10693725198507309,-0.14906466007232666,0.25725022772413153,-0.060593437960334444,-0.07502966319149507,-0.9615203293485592,0.11335232487299847,-0.15676975445804617,-2.6098348449139395
1783423279525431296,2.9553263187408447,-0.6819987893104553,-0.8432486057281494,0.4228336215019226,-0.16310250759124756,-0.10524680465459824,-0.9809794425964355,0.20803962647914886,-0.07663796097040176,-0.17086076736450195,0.25875556899707813,-0.06537650787933169,-0.07236149959494677,-0.9610074222182047,0.10544208155989146,-0.16475779372283075,-2.6068450114217647
1783423279535351552,2.9652464389801025,-0.5248094797134399,-0.7710385918617249,0.3535212278366089,-0.17148031294345856,-0.09878592193126678,-0.9802223443984985,0.18579305708408356,-0.05155891925096512,-0.18748700618743896,0.26012352028098995,-0.07019423430566614,-0.07043861726713982,-0.9604409597775928,0.09894730306091049,-0.17318766783488254,-2.6040112307451926
1783423279545270528,2.975165367126465,-0.5322610139846802,-0.78059321641922,0.3324601352214813,-0.17926287651062012,-0.09322047233581543,-0.9793747067451477,0.1381099373102188,-0.06408236920833588,-0.1968795657157898,0.2613104622436482,-0.07462690142078807,-0.06887297563772739,-0.9598979417998412,0.09335602084200774,-0.18103412277601957,-2.6015396782172866
1783423279555190528,2.9850854873657227,-0.4985172748565674,-0.8453130722045898,0.35734280943870544,-0.1873115748167038,-0.0877477154135704,-0.9783735275268555,0.1714271754026413,-0.042806476354599,-0.18986988067626953,0.26240708510735017,-0.07919105602808565,-0.06739455781544477,-0.9593378770916593,0.0878607122616359,-0.18916299614971352,-2.599255482295179
1783423279565109504,2.995004415512085,-0.5608251094818115,-0.9139456152915955,0.336786150932312,-0.19610059261322021,-0.08184260874986649,-0.9771624207496643,0.22382581233978271,-0.08099918812513351,-0.1917371153831482,0.2636250697062794,-0.08417293083275472,-0.06583099734028157,-0.9586881596774375,0.08193424888565769,-0.19805289872447213,-2.596742909707055
1783423279575029504,3.0049245357513428,-0.6923279762268066,-0.9089762568473816,0.3211682140827179,-0.2049351930618286,-0.07532940804958344,-0.9758724570274353,0.1704045534133911,-0.11242999136447906,-0.1844058632850647,0.26462890444793574,-0.08928155228446942,-0.0639732609317432,-0.9580750047416219,0.07540083137130532,-0.2069941375890566,-2.594777548552758
1783423279584948480,3.014843463897705,-0.7436481714248657,-0.8731013536453247,0.319399356842041,-0.2137083262205124,-0.06745737791061401,-0.9745656847953796,0.1364835947751999,-0.08107166737318039,-0.14574986696243286,0.2655262248100247,-0.09455798433381993,-0.06144877465384015,-0.9574855562130047,0.06750864497043363,-0.21586889400744896,-2.593238422094459
1783423279594868480,3.024763345718384,-0.6771306991577148,-0.8154703378677368,0.2540661096572876,-0.22177539765834808,-0.060030803084373474,-0.9732481837272644,0.11871753633022308,-0.030667446553707123,-0.1779664158821106,0.26631771639349183,-0.09944739440656555,-0.059043499548472586,-0.956921668165519,0.0600669162732497,-0.22404576831626274,-2.59195791168512
1783423279604788480,3.0346834659576416,-0.5210327506065369,-0.8374747037887573,0.2703966200351715,-0.2297789752483368,-0.05382353067398071,-0.9717534184455872,0.1536833941936493,0.034658487886190414,-0.19183605909347534,0.2670833016249704,-0.10415414200995808,-0.05722952031485232,-0.9563175962585978,0.05384955183723173,-0.23219331606119115,-2.590623720729365
1783423279614707456,3.044602394104004,-0.42634907364845276,-0.7904718518257141,0.1934494972229004,-0.2376990169286728,-0.04865982383489609,-0.970119297504425,0.16776800155639648,0.018249064683914185,-0.16348665952682495,0.2676563883350925,-0.10869999721766088,-0.055898806172889885,-0.9557299115727029,0.04867904793084955,-0.24028652867644323,-2.5895963954447363
1783423279624627712,3.0545225143432617,-0.3664117157459259,-0.8299772143363953,0.1487981379032135,-0.24545809626579285,-0.04452625662088394,-0.9683840870857239,0.15096041560173035,0.00750843808054924,-0.12629669904708862,0.2680031816199245,-0.11304865292079824,-0.05502690674220736,-0.955178671685542,0.044540984066809196,-0.24824359949562586,-2.5889433907587316
1783423279634546432,3.064441442489624,-0.33030810952186584,-0.7488527894020081,0.045531369745731354,-0.2528306245803833,-0.04076516255736351,-0.9666513800621033,0.1354600191116333,-0.014532685279846191,-0.05548912286758423,0.2681317491421123,-0.11717592456217175,-0.05425973229441689,-0.9546889500184912,0.04077646151683712,-0.255822239328891,-2.588739757968805
1783423279644466432,3.0743613243103027,-0.3280465304851532,-0.7304319739341736,0.08686389774084091,-0.2600385248661041,-0.03757159411907196,-0.9648669958114624,0.18208137154579163,-0.01378948986530304,-0.016669869422912598,0.26800584608577876,-0.12116553864771133,-0.053716003294271494,-0.9542569665290469,0.03758044043084669,-0.2632523836315955,-2.5890178729313673
1783423279654385664,3.084280490875244,-0.29653915762901306,-0.7213256359100342,-0.02287881262600422,-0.26680129766464233,-0.03460254520177841,-0.9631301760673523,0.20091384649276733,-0.016499146819114685,0.051081836223602295,0.2677545510406268,-0.12491754143577727,-0.05320261856462874,-0.953872447654038,0.03460945240366457,-0.27023836350520686,-2.589566797831494
1783423279664305408,3.094200372695923,-0.23517511785030365,-0.6127198338508606,0.018199915066361427,-0.273077130317688,-0.03217422217130661,-0.9614539742469788,0.204412579536438,-0.04099167510867119,0.12569957971572876,0.2674634825101167,-0.1283627448241389,-0.052877481414578875,-0.9535147405593117,0.032179776043651125,-0.2767373338554834,-2.5901613805005423
1783423279674224640,3.1041195392608643,-0.27426278591156006,-0.43221592903137207,-0.021586347371339798,-0.27809369564056396,-0.0299155805259943,-0.9600880146026611,0.18472516536712646,-0.06659626960754395,0.17981457710266113,0.26722838892921014,-0.13116290630671207,-0.052462298392834256,-0.9532224908025788,0.029920045131564113,-0.2819385857320984,-2.590694644647849
1783423279684144384,3.114039421081543,-0.3165953457355499,-0.3209298849105835,0.03287689387798309,-0.28156471252441406,-0.027201566845178604,-0.9591565728187561,0.15146827697753906,-0.0831194818019867,0.2161298394203186,0.26687165543896835,-0.1332684885443827,-0.0515869233482218,-0.9530780827719706,0.02720492332900021,-0.28553304325722456,-2.5916454062154677
1783423279694063360,3.1239583492279053,-0.4017358720302582,-0.15278849005699158,-0.003823495004326105,-0.2838190793991089,-0.023656273260712624,-0.9585859775543213,0.1876581907272339,-0.09003697335720062,0.2594130039215088,0.26672513485979443,-0.13487340651200522,-0.05016138116310485,-0.9529694487657754,0.023658479404138604,-0.2878574885398873,-2.5923531822590906
1783423279703983616,3.133878469467163,-0.4220360815525055,-0.014114498160779476,0.015910260379314423,-0.2845856547355652,-0.019830195233225822,-0.9584454894065857,0.16167610883712769,-0.04286816716194153,0.3090924620628357,0.2663834004378708,-0.13578918233468149,-0.04835857518061583,-0.9530281191213527,0.01983149551957625,-0.28863257667142783,-2.5935970748074655
1783423279713902592,3.1437973976135254,-0.43059420585632324,0.20802649855613708,0.0673220232129097,-0.28347519040107727,-0.015671381726861,-0.9588515162467957,0.16001632809638977,0.009232169017195702,0.38477009534835815,0.2663606414615107,-0.13580282936644172,-0.04617178181702743,-0.9531410240175514,0.015672022851311182,-0.2874523211421977,-2.5943168061798665
1783423279723822592,3.153717517852783,-0.3081412613391876,0.32721948623657227,0.16753970086574554,-0.28095948696136475,-0.011786414310336113,-0.9596472382545471,0.11407414078712463,0.025717690587043762,0.4678260087966919,0.26667088046313564,-0.13506777246097854,-0.04396672476382482,-0.9532629354565478,0.011786687523821823,-0.2848140640337331,-2.5943575514779753
1783423279733741568,3.1636364459991455,-0.23708434402942657,0.42542558908462524,0.12722720205783844,-0.2770519554615021,-0.008846338838338852,-0.9608142375946045,0.09310725331306458,-0.02530282735824585,0.5299670696258545,0.2672777636327023,-0.1335040482720186,-0.04206615797941271,-0.9533989981394135,0.008846454216612147,-0.28073587563541896,-2.5936910508023803
1783423279743661312,3.173556327819824,-0.25019481778144836,0.6607965230941772,0.13402411341667175,-0.2718604803085327,-0.006080325227230787,-0.9623174667358398,0.08814465999603271,0.022315677255392075,0.6181554794311523,0.26790584108578314,-0.1312844682354389,-0.040070639279162094,-0.953616893453596,0.006080362793880392,-0.27533103221384286,-2.592996349082285
1783423279753580544,3.1834754943847656,-0.18537434935569763,0.7527929544448853,0.1308089792728424,-0.26501500606536865,-0.003896761918440461,-0.9642364382743835,0.11793553829193115,0.11812405288219452,0.691149890422821,0.2684693914505137,-0.12817597869633424,-0.03811444130435118,-0.9539614578840564,0.003896771849875332,-0.26822157361220195,-2.592406171826654
1783423279763500544,3.1933953762054443,-0.1438460797071457,0.9765464663505554,0.07425889372825623,-0.25614500045776367,-0.0024250480346381664,-0.9666353464126587,0.13476133346557617,0.06106456741690636,0.7258669137954712,0.2690951818837138,-0.1239760606193468,-0.03622525981280429,-0.9544137082698859,0.002425050315678188,-0.2590328024641251,-2.591648223317099
1783423279773419264,3.2033143043518066,-0.23978732526302338,1.0697201490402222,0.08718450367450714,-0.24428103864192963,-0.0013263860018923879,-0.9697035551071167,0.10139775276184082,-0.007889929227530956,0.7936477065086365,0.26945627205162076,-0.1182711559930428,-0.03406091108106349,-0.9551153143498285,0.00132638640713975,-0.24677841866022782,-2.591482918983443
1783423279783339520,3.2132344245910645,-0.19816477596759796,1.3639591932296753,0.05152877792716026,-0.23222914338111877,0.000888042151927948,-0.9726607203483582,0.11685743927955627,-0.04631345719099045,0.7830244898796082,0.2699514683337216,-0.11263596795304703,-0.03134946158608836,-0.9557492327371465,-0.0008880422736980898,-0.23436895366566743,-2.5911387514767137
1783423279793258496,3.2231533527374268,-0.19438575208187103,1.4199823141098022,0.11995057761669159,-0.21853888034820557,0.002794095315039158,-0.975824236869812,0.059496521949768066,-0.012407129630446434,0.725610613822937,0.2704520513941969,-0.10617032292724163,-0.028561205379681806,-0.9564349128942753,-0.0027940989423525403,-0.2203177809811402,-2.590748880872651
1783423279803178496,3.2330734729766846,-0.1711004078388214,1.5660897493362427,-0.016858935356140137,-0.20390452444553375,0.00477001816034317,-0.9789791703224182,0.09451426565647125,0.07712390273809433,0.6447811722755432,0.2707541094906472,-0.0992752194885557,-0.025590089897996632,-0.9571738380751541,-0.004770036254464927,-0.2053469671500146,-2.590751190860635
1783423279813097472,3.242992401123047,-0.026974450796842575,1.7927323579788208,0.02978416532278061,-0.18758754432201385,0.005450570024549961,-0.9822327494621277,0.09919339418411255,0.007809310220181942,0.53928542137146,0.27092474708631725,-0.0914024143346731,-0.023004658949036198,-0.957975125727759,-0.00545059686394173,-0.18870834541358272,-2.5908839287796384
1783423279823017472,3.2529125213623047,-0.22256232798099518,1.8206950426101685,-0.012129461392760277,-0.16953830420970917,0.006647050380706787,-0.9855011701583862,0.07142429053783417,-0.05338472127914429,0.5298889875411987,0.27118082203711574,-0.0827742092910168,-0.019945918829392062,-0.9587551776866018,-0.0066470992842799686,-0.17036497384900043,-2.590867068598471
1783423279832936448,3.262831449508667,-0.32600775361061096,1.83833646774292,-0.02029324881732464,-0.1516680270433426,0.00941730197519064,-0.9883866310119629,0.1425432711839676,-0.054110292345285416,0.5486435890197754,0.2711020503366502,-0.07447395682407851,-0.016134356744587474,-0.9595294991061729,-0.009417441494358305,-0.15226241377959301,-2.5915925554200934
1783423279842856448,3.2727513313293457,-0.23929710686206818,1.8604884147644043,0.11344537138938904,-0.1332213580608368,0.012284822762012482,-0.9910101890563965,0.1595732867717743,-0.08020169287919998,0.4862189292907715,0.27134656932154383,-0.06591885577497887,-0.012231963312413935,-0.9601438051580276,-0.012285132156464259,-0.13362875701916968,-2.5915594560180413
1783423279852775680,3.282670497894287,-0.18743015825748444,1.806300163269043,0.0846940204501152,-0.11519394814968109,0.014413838274776936,-0.9932384490966797,0.1359764188528061,-0.03208351507782936,0.4363689422607422,0.2719655066459674,-0.05747906607390037,-0.008771448890763377,-0.9605487330866859,-0.01441433756074931,-0.11546229695940047,-2.5905978176467888
1783423279862695424,3.292590379714966,0.0550389289855957,1.7364568710327148,0.07690773904323578,-0.09773986041545868,0.015330539084970951,-0.9950939416885376,0.11038939654827118,0.042790189385414124,0.4226452112197876,0.27228693098268264,-0.04916886350501024,-0.00595538330079151,-0.9609406036159293,-0.015331139214271781,-0.09790769605819907,-2.5901104249936697
1783423279872614400,3.302509307861328,0.40538686513900757,1.7212539911270142,0.08631512522697449,-0.0808001235127449,0.013057428412139416,-0.9966447949409485,0.1128893569111824,0.1259043663740158,0.3473528027534485,0.2727630489062868,-0.040681939255583395,-0.004752156076157419,-0.9612090427073737,-0.013057799857366612,-0.08089521117374457,-2.5891173209940166
1783423279882534400,3.312429428100586,0.7369893193244934,1.8578919172286987,-0.09357448667287827,-0.06291436403989792,0.007589917629957199,-0.997990071773529,0.07348870486021042,0.16579569876194,0.31189388036727905,0.27288033766541603,-0.03131392107442606,-0.004940060418784093,-0.9615255834880847,-0.007589990633326402,-0.06295775787579327,-2.588774997282056
1783423279892453376,3.3223483562469482,1.1682672500610352,1.8580089807510376,-0.07622849196195602,-0.04452607408165932,-0.002322318498045206,-0.9990054965019226,0.11573883891105652,0.15104973316192627,0.2626163363456726,0.2726099701140344,-0.0211080137463032,-0.007189580080427076,-0.9618662193374863,0.0023223205155216225,-0.04454091919331344,-2.589190613952301
1783423279902373632,3.332268476486206,1.1377453804016113,1.9792976379394531,-0.054011598229408264,-0.02538401633501053,-0.013797077350318432,-0.9995825886726379,0.14772897958755493,0.059191975742578506,0.29897528886795044,0.2724600169061949,-0.010333036897431183,-0.010096970732222002,-0.9620586432685929,0.013797514883238323,-0.025389160531013137,-2.589460675031575
1783423279912292608,3.3421874046325684,1.023498773574829,1.8812495470046997,-0.1762930005788803,-0.005901196505874395,-0.02483629435300827,-0.9996741414070129,0.14731965959072113,-0.10823560506105423,0.35045844316482544,0.2720206973509335,0.0005389953121733058,-0.012753526791792029,-0.9622067086600167,0.024838847889417526,-0.0059030518694952235,-2.5904886505005766
1783423279922212608,3.352107524871826,1.0094457864761353,1.8732932806015015,-0.20692680776119232,0.012878431007266045,-0.03471420705318451,-0.9993143081665039,0.2278289645910263,-0.1440577656030655,0.4005289077758789,0.2712258989338758,0.010908135172556822,-0.014962041011075684,-0.9623375927412079,0.03472118258790412,0.012886554466761166,-2.5923868576181186
1783423279932131584,3.3620264530181885,0.7796359062194824,1.7712774276733398,-0.1692855954170227,0.0309914480894804,-0.04386235401034355,-0.9985567927360535,0.24087439477443695,-0.16676996648311615,0.35890835523605347,0.2703277575587423,0.0208566401079534,-0.01692971453979863,-0.9623935252186011,0.04387642951265834,0.031026280226900713,-2.5946038613815303
1783423279942051328,3.371946334838867,0.6738266348838806,1.9126979112625122,0.05881362408399582,0.04962792992591858,-0.05096978321671486,-0.9974663853645325,0.22820410132408142,-0.16965705156326294,0.39298945665359497,0.2699997627281693,0.030795984290763155,-0.017844462365762138,-0.9622022818726832,0.05099187678192202,0.04971299616078532,-2.595719454909603
1783423279951970560,3.3818655014038086,0.3219798803329468,2.0042641162872314,0.056042566895484924,0.06908558309078217,-0.05608697608113289,-0.9960328340530396,0.24638988077640533,-0.2042127102613449,0.36058056354522705,0.2705273765895356,0.040886796305426326,-0.017659161680694656,-0.9616815295420117,0.0561164223407097,0.06924983535436424,-2.5950971354268484
1783423279961890560,3.3917853832244873,0.018141696229577065,1.679447889328003,0.03300915285944939,0.08712130039930344,-0.0578451007604599,-0.994516909122467,0.25177639722824097,-0.1348734050989151,0.28791290521621704,0.27075140757836963,0.04983900986123479,-0.01605095474179438,-0.9612243147647173,0.0578774075805859,0.08737856915280526,-2.5950039168956485
1783423279971809280,3.4017043113708496,0.02404332533478737,1.7312878370285034,0.0008517843671143055,0.10363852977752686,-0.05782277509570122,-0.9929327964782715,0.33022987842559814,-0.048225805163383484,0.12495189905166626,0.27115909191461735,0.05782654326674161,-0.013772490800346962,-0.9606972250672776,0.057855043367120676,0.10399959286282229,-2.5944124099498427
1783423279981729536,3.4116244316101074,0.2726174592971802,1.5260350704193115,-0.0015170974656939507,0.11965319514274597,-0.05950529873371124,-0.9910308718681335,0.15219739079475403,0.06493742763996124,-0.11320191621780396,0.2712187773741165,0.06580921688409645,-0.01239755851566363,-0.9601853800629147,0.059540472491111204,0.1201545026768125,-2.5945890299266225
1783423279991648512,3.4215433597564697,0.36314481496810913,1.3340049982070923,0.11267159134149551,0.13349634408950806,-0.06300999224185944,-0.9890442490577698,0.10167211294174194,0.11257053911685944,-0.2574614882469177,0.27153521580665163,0.07300472912971959,-0.012173719768540231,-0.9595784933003447,0.06305175809981256,0.13416427970509068,-2.594302473776814
1783423280001568512,3.4314634799957275,0.4079706072807312,1.24355149269104,-0.20532502233982086,0.14684781432151794,-0.06645434349775314,-0.9869242906570435,-0.044369786977767944,0.14921802282333374,-0.30078017711639404,0.27099080283027877,0.07995371904605172,-0.012052432097944021,-0.9591799286172017,0.0665033568003236,0.14770967932709353,-2.595820722962147
1783423280011487488,3.44138240814209,0.5796295404434204,1.465350866317749,-0.16095365583896637,0.16041317582130432,-0.0709969699382782,-0.9844933152198792,-0.09548702836036682,0.1976296603679657,-0.36828988790512085,0.27018937045982117,0.08716700456900592,-0.012460607961254352,-0.9587723078127892,0.07105674776908558,0.16152039199481333,-2.597977821983846
1783423280021407488,3.4513025283813477,0.4502723515033722,1.2478771209716797,-0.2067488431930542,0.17329713702201843,-0.0760892778635025,-0.981925904750824,-0.23475953936576843,0.198480024933815,-0.4752731919288635,0.26926619140926655,0.09413557682697411,-0.013248756062060553,-0.9583625207202232,0.07616289176195623,0.17468808751166814,-2.6004588319276176
1783423280031326464,3.46122145652771,0.532662570476532,1.0409907102584839,-0.16368523240089417,0.18493594229221344,-0.0806259736418724,-0.9794376492500305,-0.22462405264377594,0.1237320527434349,-0.4663631319999695,0.2678508964615316,0.10042483944444358,-0.014000587914099468,-0.9581099780472687,0.08071358118204677,0.1866213557180668,-2.6039455690649365
