time,seconds_elapsed,rotationRateX,rotationRateY,rotationRateZ,gravityX,gravityY,gravityZ,accelerationX,accelerationY,accelerationZ,quaternionW,quaternionX,quaternionY,quaternionZ,pitch,roll,yaw
1782985494938659072,0.18372702598571777,0.32035964727401733,0.18215353786945343,-0.0676802545785904,0.10787443071603775,0.5969610214233398,-0.7949846982955933,0.010182812809944153,0.00026798248291015625,-0.004408001899719238,-0.4764051140273311,0.10922727430349441,-0.3009602139266723,0.8188593089082399,-0.639707757891862,0.13486996533561926,-2.0430136366139053
1782985494948579072,0.19364714622497559,0.35482972860336304,0.22467783093452454,-0.04106994718313217,0.1097697764635086,0.5932750105857849,-0.797480583190918,0.004076048731803894,0.024766921997070312,-0.0005387663841247559,-0.4762639116034801,0.10713711194955713,-0.29963533558679367,0.8197029684263895,-0.6351211296812169,0.13678615590496118,-2.04387695942711
1782985494958499072,0.2035670280456543,0.40105554461479187,0.2535052001476288,-0.03863395377993584,0.11210428923368454,0.5897950530052185,-0.7997339367866516,0.00013935565948486328,0.03876018524169922,0.015706896781921387,-0.47610319318577893,0.10491752443281976,-0.2985386649873453,0.8204831960598952,-0.6308050293154949,0.13926951626978804,-2.0445097588838537
1782985494968419072,0.2134871482849121,0.481173574924469,0.2750645577907562,-0.06602003425359726,0.11449012905359268,0.5866067409515381,-0.801738440990448,-0.020709596574306488,0.058962106704711914,0.0362507700920105,-0.4757615264807623,0.1027092112941651,-0.2976266156037771,0.8212917698951319,-0.6268626062369841,0.14184334986390332,-2.0454536211676744
1782985494978339072,0.22340703010559082,0.5456886887550354,0.2805194556713104,-0.10830114781856537,0.11635921895503998,0.5838789939880371,-0.8034586906433105,-0.04059933125972748,0.08192300796508789,0.07033491134643555,-0.4751152044610866,0.10077331055061299,-0.2968423796279058,0.8221891118364183,-0.6234985693407914,0.14382296647925497,-2.0472018801303014
1782985494988259072,0.23332715034484863,0.6449766755104065,0.2515605092048645,-0.19242587685585022,0.1172298789024353,0.5818514823913574,-0.804801881313324,-0.042583905160427094,0.07377290725708008,0.10594934225082397,-0.47407580252483494,0.09936735774588842,-0.29618437528158936,0.8231969616675696,-0.6210033530791195,0.1446457315770026,-2.050091385478239
1782985494998179072,0.24324703216552734,0.9960916042327881,0.16163703799247742,-0.39046287536621094,0.11623769253492355,0.5792840719223022,-0.8067953586578369,-0.019573263823986053,0.057785630226135254,0.13186860084533691,-0.4723743643524117,0.09838886601504926,-0.29482527644664397,0.8247788605118739,-0.617850106628161,0.14308870875521357,-2.055605834748305
1782985495008099072,0.25316715240478516,1.2663830518722534,0.1448977291584015,-0.3511756658554077,0.11458642780780792,0.5744950771331787,-0.810447633266449,-0.03318079560995102,0.07328629493713379,0.19408410787582397,-0.4706387766896548,0.09700967931359088,-0.29217340591399593,0.8268754212845676,-0.6119870990254427,0.14045561793640404,-2.0622599374653223
1782985495018018048,0.26308608055114746,1.3454148769378662,0.1264631748199463,-0.5434814095497131,0.11263331770896912,0.5680236220359802,-0.8152686357498169,-0.11779079586267471,0.15388494729995728,0.2989417314529419,-0.4688139703917373,0.09523833439732304,-0.2886093342129853,0.8293659347413626,-0.6041024662206597,0.13728580560268877,-2.06977652508127
1782985495027937792,0.27300596237182617,1.771406650543213,0.13574029505252838,-0.8017600774765015,0.10912149399518967,0.5593541264533997,-0.8217149376869202,-0.14119547605514526,0.15695440769195557,0.31982290744781494,-0.46611533672796013,0.0932333919084739,-0.28363720284207605,0.8328228970319324,-0.5936064468614922,0.13202478636025458,-2.0806701283247975
1782985495037858048,0.282926082611084,2.211535930633545,0.12599903345108032,-1.0025559663772583,0.10439787805080414,0.5467525124549866,-0.8307603597640991,-0.10839566588401794,0.17967265844345093,0.3800462484359741,-0.4626914698158088,0.09042764407150507,-0.2764826771027093,0.8374345806359762,-0.5784807495853053,0.12501016261942932,-2.0948097313158214
1782985495047777792,0.2928459644317627,2.570892572402954,0.11075562983751297,-1.1975033283233643,0.09865131974220276,0.5308133959770203,-0.8417274355888367,-0.08645956218242645,0.23514729738235474,0.46457594633102417,-0.45862799636007673,0.0870324876981527,-0.267510063115555,0.8429259561843306,-0.5595600803768211,0.1166687839576482,-2.1114473195493706
1782985495057698048,0.3027660846710205,3.060192346572876,0.165880486369133,-1.3678631782531738,0.09240799397230148,0.5111851096153259,-0.8544884920120239,-0.08792190253734589,0.2791286110877991,0.5606805086135864,-0.4538958568652213,0.08279774865772437,-0.2567105376377378,0.8492483814796069,-0.536563129563762,0.10772556799335109,-2.130271273256125
1782985495067617792,0.3126859664916992,3.595048189163208,0.24819771945476532,-1.5094940662384033,0.0865953266620636,0.48666560649871826,-0.8692858219146729,-0.0911119282245636,0.35264408588409424,0.6347124576568604,-0.4152463241017063,0.06766444184853541,-0.24653317276744136,0.8730483908275242,-0.5082687773817064,0.09928906143061758,-2.2278612449679427
1782985495077538048,0.32260608673095703,4.211618423461914,0.3382014334201813,-1.6919289827346802,0.08127257972955704,0.4568004310131073,-0.8858488202095032,-0.11026428639888763,0.4420032799243927,0.6749113202095032,-0.4089435522753334,0.061100430107866525,-0.23095956257124603,0.8807324906364461,-0.47439510568096444,0.09148930559690585,-2.2500605572398356
1782985495087457792,0.33252596855163574,4.871701240539551,0.3913743793964386,-1.8793188333511353,0.07633334398269653,0.4208875298500061,-0.903895378112793,-0.12729769945144653,0.5363115072250366,0.6663771271705627,-0.40173086146745657,0.05316096073785912,-0.2126645462440465,0.889134440856484,-0.43442352331444856,0.0842494062623731,-2.274252102410433
1782985495097378048,0.34244608879089355,5.574902534484863,0.4273695647716522,-2.072392225265503,0.07175786793231964,0.3782050907611847,-0.9229364991188049,-0.12514838576316833,0.6015770435333252,0.5644159913063049,-0.393588424684384,0.04389769093347746,-0.19132369054917436,0.898084920452659,-0.38785659526860206,0.07759342444281454,-2.3002617192422132
1782985495107297024,0.35236501693725586,6.224574565887451,0.4107477068901062,-2.2402594089508057,0.06756535172462463,0.32874974608421326,-0.9419971108436584,-0.08964481949806213,0.6165322065353394,0.43922001123428345,-0.3844284851455778,0.03351085820091044,-0.1669684952682358,0.9073109633859305,-0.334979436583715,0.07160302898840107,-2.3279417675267915
1782985495117217024,0.36228513717651367,6.885648250579834,0.2816087305545807,-2.332749128341675,0.06345423310995102,0.27235186100006104,-0.9601031541824341,-0.02877100557088852,0.559862494468689,0.3190966844558716,-0.37449463234225355,0.022368351958641324,-0.13945640237825552,0.9164089666771325,-0.27583643779934447,0.06599507972928938,-2.356539752240159
1782985495127137024,0.3722050189971924,7.251041889190674,0.09964534640312195,-2.4769811630249023,0.05889194458723068,0.2100067436695099,-0.9759246706962585,0.028250999748706818,0.4905547797679901,0.23840636014938354,-0.3637949318858648,0.01109588731624307,-0.10915383582242087,0.9249949410596753,-0.21158186065027473,0.060271678407332635,-2.38576673460418
1782985495137057024,0.3821251392364502,7.103262424468994,-0.11657891422510147,-2.6053338050842285,0.0536498948931694,0.14591027796268463,-0.9878420233726501,0.0853881984949112,0.37874794006347656,0.22787803411483765,-0.35212881160409265,0.0006741206949595353,-0.07796492965431513,0.932698352646497,-0.1464330350878992,0.05425689178690528,-2.415624672592849
1782985495146977024,0.3920450210571289,6.631162166595459,-0.3555808365345001,-2.7636516094207764,0.04757088050246239,0.08411569148302078,-0.9953198432922363,0.12203055620193481,0.21015006303787231,0.22270631790161133,-0.3395132468932033,-0.008082727851600878,-0.04769438836628286,0.9393566032814897,-0.08421520083089352,0.047758224675012645,-2.4459353305623273
1782985495156897024,0.4019651412963867,5.8328776359558105,-0.504377543926239,-2.963486433029175,0.04097244516015053,0.027928099036216736,-0.9987698793411255,0.12919357419013977,0.06571508944034576,0.19569987058639526,-0.3257647380882692,-0.01482217408607624,-0.019883699344904398,0.9451254867575406,-0.027931730554251768,0.04099991918973254,-2.4771668700504224
1782985495166817024,0.41188502311706543,4.905183792114258,-0.5270322561264038,-3.1302645206451416,0.035086922347545624,-0.020098231732845306,-0.9991821646690369,0.11600560694932938,-0.024808384478092194,0.18582767248153687,-0.31095344920906626,-0.01980287720269426,0.004095245295262182,0.9502100005100507,0.02009958533148212,0.03510121881327836,-2.509419546432648
1782985495176737024,0.42180514335632324,4.353376865386963,-0.48871728777885437,-3.208305835723877,0.03065522201359272,-0.06099671125411987,-0.997667133808136,0.11712615191936493,-0.04238158464431763,0.09248524904251099,-0.295422171455665,-0.023671632950846126,0.024619093103665952,0.9547561503553221,0.06103459904732439,0.03071724023755613,-2.542374651009811
1782985495186657024,0.43172502517700195,4.387075901031494,-0.45143941044807434,-3.2334165573120117,0.027983753010630608,-0.09960290044546127,-0.994633674621582,0.14514246582984924,0.03646203875541687,-0.014536798000335693,-0.2795016490432305,-0.027407794980222985,0.04395417068967717,0.9587469324191834,0.0997683290592172,0.028127312164498795,-2.5756642635471283
1782985495196577024,0.44164514541625977,4.8945794105529785,-0.5297530889511108,-3.1860902309417725,0.02634776383638382,-0.14106661081314087,-0.9896494150161743,0.23384511470794678,0.17399509251117706,-0.11696368455886841,-0.26340595834400665,-0.03141473414006435,0.0647178204833449,0.9619989431596692,0.14153871203665316,0.026617041951356335,-2.6089584896342406
1782985495206496000,0.45156407356262207,5.652081489562988,-0.6414048075675964,-3.0596110820770264,0.02506217733025551,-0.1885777711868286,-0.9817383885383606,0.3402484953403473,0.2448827177286148,-0.13383162021636963,-0.2474056829863096,-0.035736242882697285,0.08862119306573321,0.9641885214137138,0.18971373456392707,0.025522821890691074,-2.6416695001723074
1782985495216416000,0.4614839553833008,6.351720809936523,-0.768496036529541,-2.8901681900024414,0.024118680506944656,-0.24295704066753387,-0.96973717212677,0.42682433128356934,0.17960254848003387,-0.02173316478729248,-0.21327734028311823,-0.03817436088577451,0.11693645836905579,0.9692169263308124,0.24541307321399197,0.02486623112798668,-2.711461236938777
1782985495226336000,0.4714040756225586,6.408203125,-0.9023273587226868,-2.8158631324768066,0.023473860695958138,-0.30054375529289246,-0.9534791111946106,0.4864290952682495,0.0005559623241424561,0.2046540379524231,-0.19781360608886414,-0.04206926395745744,0.1465967753318967,0.9683023427376182,0.3052627075093314,0.024614193154976437,-2.742346692580058
1782985495236256000,0.4813239574432373,5.816987037658691,-1.0755852460861206,-2.729480266571045,0.02315090224146843,-0.35469675064086914,-0.934694766998291,0.5351071357727051,-0.28229665756225586,0.362734317779541,-0.17562245645930516,-0.04377774277858628,0.17531725442165813,0.9677314409476286,0.36258970710143085,0.024763346847727206,-2.7870828452729373
1782985495246176000,0.4912440776824951,4.892183780670166,-1.1544054746627808,-2.635883092880249,0.022740397602319717,-0.40098267793655396,-0.9158033728599548,0.527491569519043,-0.5347930788993835,0.42399734258651733,-0.1605956100426996,-0.04507297999370407,0.20016679973698015,0.965458871795883,0.41258927891249936,0.024825991254280214,-2.8171242967473016
1782985495256096000,0.5011639595031738,3.847712755203247,-1.1494954824447632,-2.503619909286499,0.023150181397795677,-0.4379633963108063,-0.8986946940422058,0.41816452145576477,-0.5659276247024536,0.4841744303703308,-0.1460527284410287,-0.04543497873901009,0.2204275895643145,0.9633357997003233,0.45333197552419796,0.02575408908488756,-2.8466014779133957
1782985495266016000,0.5110840797424316,3.2134532928466797,-1.0454587936401367,-2.0939180850982666,0.023798851296305656,-0.46677711606025696,-0.8840547204017639,0.3519488275051117,-0.5317580699920654,0.4859834313392639,-0.12369882964715866,-0.04280667954798545,0.2369392939400235,0.9626660841087608,0.4856430088590733,0.026913610084563888,-2.892668176982514
1782985495275936000,0.5210039615631104,3.25168776512146,-0.9124104380607605,-1.8724218606948853,0.024736423045396805,-0.4932323694229126,-0.8695458173751831,0.2743358314037323,-0.5174182653427124,0.4433983564376831,-0.10709043583242298,-0.040966842519533246,0.2520888929300324,0.9608873489994425,0.5158016606442674,0.02843985058875223,-2.9271118509980143
1782985495285856000,0.5309240818023682,3.3254077434539795,-0.7670337557792664,-1.7387257814407349,0.026708977296948433,-0.5199477076530457,-0.8537804484367371,0.2773376405239105,-0.40403300523757935,0.4359489679336548,-0.09670188586943686,-0.04092393374694533,0.2672733045107079,0.9578825240588,0.5467897204529135,0.03127299275032713,-2.9491369194570667
1782985495295774976,0.5408430099487305,2.956540584564209,-0.7204371690750122,-1.9242442846298218,0.03174617141485214,-0.5459842085838318,-0.8371937870979309,0.30361151695251465,-0.3454647660255432,0.2509663701057434,-0.08232611728062854,-0.040966243420642735,0.2823559259714075,0.9548923670041388,0.5775634398612145,0.03790158192474879,-2.9808491323074944
1782985495305694976,0.5507631301879883,3.6496315002441406,-0.6307631731033325,-1.9689534902572632,0.03782398998737335,-0.5714325308799744,-0.8197769522666931,0.27948254346847534,-0.5427642464637756,0.12052768468856812,-0.06906583445441096,-0.04146185919945562,0.2973086554788474,0.951377146825777,0.6082503862321827,0.04610666769833184,-3.0111290777813613
1782985495315614976,0.560683012008667,3.6368470191955566,-0.874535083770752,-1.396583914756775,0.040627993643283844,-0.5994654893875122,-0.7993688583374023,0.41805121302604675,-0.6799992322921753,0.28806209564208984,-0.057514703782931116,-0.040538384822899565,0.3141213401269938,0.9467716424712987,0.6428331018866745,0.05078139553568759,-3.037156838409423
1782985495325534976,0.5706031322479248,3.5190365314483643,-0.6001450419425964,-1.1380261182785034,0.04285658523440361,-0.6270004510879517,-0.777839183807373,0.16556322574615479,-0.47720181941986084,0.35427045822143555,-0.04844251888381837,-0.03978221566281628,0.33090449665052024,0.9415800515223081,0.67769679377322,0.05504132528310958,-3.0581902183119287
1782985495335454976,0.5805230140686035,3.410064697265625,-0.7139008045196533,-1.05234956741333,0.045201342552900314,-0.6527823209762573,-0.7561957836151123,0.02714058756828308,-0.23656094074249268,0.3041846752166748,-0.04080212899652489,-0.0392618518968211,0.3469302538283886,0.9361800838776999,0.7112514635076986,0.059703612657455794,-3.0766611367687235
1782985495345374976,0.5904431343078613,3.4322032928466797,-0.6689143776893616,-0.9776378273963928,0.04690268263220787,-0.6777282357215881,-0.73381507396698,0.03117653727531433,-0.13646548986434937,0.2674607038497925,-0.03405147861662291,-0.03848076123109843,0.36278326486183154,0.9304558294683297,0.7446687302643983,0.06382939241542093,-3.0933680089671265
1782985495355294976,0.60036301612854,3.39589786529541,-0.6076872944831848,-0.9674605131149292,0.04933619871735573,-0.7017046213150024,-0.7107577919960022,0.07491612434387207,5.9723854064941406e-05,0.2627596855163574,-0.027220157684063506,-0.037825437290955354,0.37840501136651633,0.9244663540033383,0.7777872588298985,0.06930235976428434,-3.1111282383150622
1782985495365214976,0.6102831363677979,3.750509738922119,-0.6471982002258301,-0.9445914030075073,0.05196224898099899,-0.7260966300964355,-0.6856264472007751,0.1897522360086441,0.08960676193237305,0.22659629583358765,-0.019694224259356616,-0.036777306228359584,0.3947584047987875,0.917837344169222,0.8126279122533604,0.07564338024005479,-3.13124348310168
1782985495375134976,0.6202030181884766,4.160353183746338,-0.6964553594589233,-0.9858199954032898,0.054805584251880646,-0.751983642578125,-0.6568995118141174,0.21344393491744995,0.2006683349609375,0.29242807626724243,-0.012268284180924521,-0.03567182427289618,0.4126472601781786,0.9101094722941171,0.8510661583538932,0.08323792008448846,3.130808169422825
1782985495385053952,0.6301219463348389,4.754871845245361,-0.7170594334602356,-1.0054606199264526,0.05810709670186043,-0.7798555493354797,-0.6232567429542542,0.22311240434646606,0.23546773195266724,0.3019982576370239,-0.004517096560491347,-0.03441904324003805,0.4326510694541649,0.9008929721835088,0.8944350407610522,0.09296266585858133,3.1070084184905755
1782985495394973952,0.6400420665740967,5.238472938537598,-0.7332835793495178,-1.0591062307357788,0.06205708160996437,-0.809374213218689,-0.5840055346488953,0.20704694092273712,0.24319684505462646,0.38962382078170776,0.0027727686793213623,-0.033448703928137626,0.45483890472229216,0.889941122464525,0.9430857646222157,0.1058638627705942,3.0813431532693127
1782985495404893952,0.6499619483947754,5.552249908447266,-0.6963844299316406,-1.182199478149414,0.06751035153865814,-0.8389462232589722,-0.5400106906890869,0.18070437014102936,0.22833526134490967,0.4908316135406494,0.011159090741604274,-0.0323852501735186,0.47848285974534344,0.8774284934959031,0.9953439708885637,0.12437142763267042,3.048527710636506
1782985495414813952,0.6598820686340332,5.721168518066406,-0.647874653339386,-1.287726879119873,0.07469791918992996,-0.8672885298728943,-0.49216943979263306,0.18041375279426575,0.19916725158691406,0.5988284349441528,0.019634817339890646,-0.03181642836008389,0.5028946148675979,0.8635387041485774,1.049729314548534,0.15062326115785826,3.008798654589738
1782985495424733952,0.6698019504547119,5.623946666717529,-0.4014701843261719,-1.3139976263046265,0.08396675437688828,-0.8927000164985657,-0.44275975227355957,0.15332265198230743,0.19374072551727295,0.6415359973907471,0.028176701188410615,-0.0319691494241265,0.5268757940647354,0.8488732897810837,1.1033014089821986,0.18741839148300746,2.959687465667624
1782985495434653952,0.6797220706939697,5.617751598358154,-0.41659635305404663,-1.3185290098190308,0.09435850381851196,-0.9150058627128601,-0.39225107431411743,0.17837712168693542,0.1654788851737976,0.5839777588844299,0.036592630638003165,-0.03244312850509081,0.5502925642636911,0.8335386273937855,1.1555224418626868,0.2360710119910838,2.8995246866330504
1782985495444573952,0.6896419525146484,5.534235954284668,-0.3058142066001892,-1.2793631553649902,0.105185367166996,-0.9341709017753601,-0.34097033739089966,0.1800471842288971,0.1602146029472351,0.5801213383674622,0.04390667065602209,-0.033549480895068345,0.5730525869641885,0.8176536006755873,1.2059284945670643,0.29922595260836743,2.8274721826087488
1782985495454493952,0.6995620727539062,5.286536693572998,-0.14484162628650665,-1.203230857849121,0.11644310504198074,-0.9499203562736511,-0.28998705744743347,0.16042765974998474,0.10752826929092407,0.5492339134216309,0.05000044427634081,-0.03553472768467214,0.5947636149251693,0.8015569739968573,1.2529808882655373,0.3818383273876843,2.739035551624325
1782985495464413952,0.709481954574585,5.190695762634277,0.04372641444206238,-1.2570728063583374,0.1285352110862732,-0.9623180031776428,-0.2396307736635208,0.092808797955513,-0.004509389400482178,0.4949713945388794,0.05562644827940003,-0.038245597201557645,0.6154038389528593,0.7853159750609913,1.295401829533276,0.49233297160373846,2.6244442592985417
1782985495474333952,0.7194020748138428,4.902479648590088,0.05803641676902771,-1.2847425937652588,0.14102163910865784,-0.9715687036514282,-0.19017720222473145,0.16346754133701324,-0.11209535598754883,0.39043352007865906,0.06060985239633775,-0.04164418476843482,0.634962327529157,0.7690352262878791,1.331768900253993,0.6380566399775138,2.4765216498021494
1782985495484252928,0.7293210029602051,3.953505754470825,0.03998124971985817,-1.3781654834747314,0.1542438268661499,-0.9771389365196228,-0.1463158130645752,0.12400016188621521,0.018856525421142578,0.3766167163848877,0.06591986665322172,-0.045290574902429596,0.6517598180995413,0.75419655220708,1.3565594403543533,0.8117695914230232,2.30047936000438
1782985495494172928,0.7392411231994629,3.0035009384155273,0.05012834817171097,-1.5413248538970947,0.16881360113620758,-0.9792740345001221,-0.11191192269325256,0.03243456780910492,0.17684483528137207,0.29399508237838745,0.07154075516791586,-0.04967375449201595,0.664512269797575,0.7421844967424904,1.3668454527443186,0.9853837810795419,2.1251210658873574
1782985495504092928,0.7491610050201416,2.378051280975342,0.09726070612668991,-1.6504443883895874,0.18471483886241913,-0.9791091084480286,-0.0850040465593338,-0.06392627954483032,0.24044644832611084,0.2002841830253601,0.07757040571796733,-0.054695391369635825,0.6741708911710836,0.7324512503635329,1.3660330049398253,1.1395002101518759,1.9695703686955444
1782985495514012928,0.7590811252593994,1.9416732788085938,0.19477154314517975,-1.7178353071212769,0.20149870216846466,-0.9774556756019592,-0.06307462602853775,-0.13352085649967194,0.24265354871749878,0.13459259271621704,0.08368932373580962,-0.06032707588028029,0.6817795330887174,0.7242466991323395,1.3580545478838848,1.2674310165289606,1.8409319354087725
1782985495523932928,0.7690010070800781,1.6162394285202026,0.23295435309410095,-1.765869379043579,0.2187892347574234,-0.9747483134269714,-0.044686079025268555,-0.1435329169034958,0.1876695156097412,0.10321879386901855,0.08953912640117288,-0.06665149866511241,0.6879059079898774,0.7171650573754498,1.3455912203723046,1.3693247106575424,1.7396916460887155
1782985495533852928,0.7789211273193359,1.3262730836868286,0.21421347558498383,-1.7540167570114136,0.23617522418498993,-0.9712721109390259,-0.029186274856328964,-0.11833159625530243,0.10599195957183838,0.06686019897460938,0.09538020154312059,-0.0731415317890569,0.6928615870171386,0.7109822675594812,1.3305193370386816,1.4478408078269402,1.6620722064691207
1782985495543772928,0.7888410091400146,0.9528138041496277,0.12458131462335587,-1.7565799951553345,0.2533240020275116,-0.9672315716743469,-0.01703193411231041,-0.1303229033946991,0.06392651796340942,0.04651188850402832,0.10110639240225681,-0.07967093077178657,0.6965174623142072,0.7058990528678438,1.3140903112696851,1.503663562464167,1.6073622109362051
1782985495553693184,0.7987611293792725,0.4371397793292999,-0.03703341633081436,-1.8364043235778809,0.27073219418525696,-0.9626087546348572,-0.009417220018804073,-0.20670628547668457,0.08806651830673218,-0.014737486839294434,0.10742888929757562,-0.08590314959397383,0.6985070069648159,0.7022590190166661,1.2964730194506426,1.5360260803190826,1.574835386335702
1782985495563612928,0.8086810111999512,-0.07308778166770935,-0.17622219026088715,-1.8340535163879395,0.2885547876358032,-0.9574347138404846,-0.00742854829877615,-0.29856452345848083,0.17427724599838257,-0.08038580417633057,0.11400916763367522,-0.09229398074632471,0.6984035702383552,0.7005114599509603,1.277979819795356,1.545058034096712,1.5654921999904559
1782985495573531904,0.8185999393463135,-0.09297580271959305,-0.2466563731431961,-1.7247014045715332,0.3056177794933319,-0.9521151781082153,-0.008639803156256676,-0.3451990783214569,0.23583710193634033,-0.18858003616333008,0.12063495979339191,-0.09817501665424806,0.697166956114139,0.6998336865618688,1.2600811768910345,1.542533893197252,1.5669075390549834
1782985495583451904,0.8285200595855713,0.5175448060035706,-0.35956910252571106,-1.6139171123504639,0.32152262330055237,-0.9468740820884705,-0.0072443317621946335,-0.30066391825675964,0.2499290108680725,-0.301288366317749,0.12741776435090263,-0.10306965328553595,0.696960888938014,0.698130930311086,1.2433728224213332,1.548268810210597,1.5584214799695664
1782985495593371904,0.83843994140625,1.1870207786560059,-0.48374465107917786,-1.5503348112106323,0.33650654554367065,-0.9416810870170593,9.293603216065094e-05,-0.18195033073425293,0.2556917667388916,-0.3048415184020996,0.1346779533424333,-0.10676527453085788,0.6990333641334103,0.6941291985690147,1.2275915677465512,1.5710725057609292,1.5304543337569103
1782985495603291904,0.8483600616455078,1.66608726978302,-0.6627271771430969,-1.5293048620224,0.3511238396167755,-0.9362521171569824,0.012002772651612759,-0.06792071461677551,0.22540616989135742,-0.2176913022994995,0.1427019544796281,-0.10935495041554046,0.7028818400906934,0.6882112993873281,1.2118062568250814,1.6049668927508964,1.488691496599527
1782985495613211904,0.8582799434661865,2.061575174331665,-0.8530260920524597,-1.4418630599975586,0.365171879529953,-0.9305461049079895,0.027084335684776306,0.003938227891921997,0.137897789478302,-0.138336181640625,0.15115235396954818,-0.11099373270127258,0.7079707331824495,0.6808897597782266,1.1959014402585393,1.644829506128454,1.4389500217663338
1782985495623131904,0.8682000637054443,2.2068517208099365,-1.0235735177993774,-1.4914098978042603,0.37900006771087646,-0.9243519902229309,0.043960340321063995,-0.04231482744216919,0.09622687101364136,-0.0296628437936306,0.16035700931755362,-0.11156973030978838,0.7138153577599594,0.6725366497290475,1.1793337129110162,1.686270641206579,1.3849692482915965
1782985495633051904,0.878119945526123,2.0383806228637695,-1.1325935125350952,-1.6061725616455078,0.39377671480178833,-0.9172635674476624,0.05973072722554207,-0.09265968203544617,0.1246761679649353,0.036262281239032745,0.17024925560911092,-0.11207381994451181,0.7192390586060412,0.6641912052439702,1.1611545260725649,1.7213355433410968,1.336204105074179
1782985495642971904,0.8880400657653809,1.7811520099639893,-1.2176942825317383,-1.7032966613769531,0.4098113179206848,-0.9092787504196167,0.07257279008626938,-0.1058562695980072,0.1260756254196167,0.005475878715515137,0.18067706540786063,-0.11297856908276946,0.7235483656505189,0.6565587687418099,1.141547836738465,1.7460675114762507,1.2974976322120972
1782985495652891904,0.8979599475860596,1.6896287202835083,-1.204667568206787,-1.7919102907180786,0.42671704292297363,-0.9005231857299805,0.0834905132651329,-0.07181286811828613,0.11081981658935547,-0.09214222431182861,0.1915476420681572,-0.11409118458103984,0.7271371653167216,0.6492798355975551,1.120971317595991,1.7640132199052043,1.2651503258780594
1782985495662811136,0.907879114151001,1.4582972526550293,-1.3440924882888794,-1.8068870306015015,0.44385191798210144,-0.8913277983665466,0.09235963225364685,0.06292298436164856,0.04643338918685913,-0.10787785053253174,0.20240335866371187,-0.11544582713859658,0.7299671746807926,0.6425364625434626,1.100265605108246,1.7759552188463374,1.2390930103665532
1782985495672730880,0.9177989959716797,1.480586290359497,-1.4268207550048828,-1.7156805992126465,0.4606773853302002,-0.8819750547409058,0.09948047250509262,0.1918800175189972,-0.03248417377471924,-0.1463707685470581,0.213372289088157,-0.11647415100372992,0.7322390370508987,0.6361855242903975,1.0800365618782288,1.7834745099042104,1.2167340990166347
1782985495682651136,0.9277191162109375,1.8389841318130493,-1.3986320495605469,-1.629118800163269,0.4769980311393738,-0.8723405599594116,0.10721353441476822,0.19386982917785645,0.024287641048431396,-0.13794469833374023,0.224574691439785,-0.11676573893635935,0.734828231849983,0.6292530483813243,1.0599694569052667,1.791889219809876,1.1919629411079047
1782985495692570880,0.9376389980316162,2.3361809253692627,-1.4492992162704468,-1.6007713079452515,0.4925244450569153,-0.8622214198112488,0.11829642951488495,0.20631283521652222,0.11850804090499878,-0.11355090141296387,0.23561267542443898,-0.11635133513680607,0.7386545748527985,0.6207564153836032,1.0396390156422868,1.8065151619504227,1.160065534114074
1782985495702489856,0.9475579261779785,2.9159135818481445,-1.4100301265716553,-1.6984342336654663,0.508581817150116,-0.850568950176239,0.13370554149150848,0.1766599416732788,0.17036253213882446,-0.08264969289302826,0.24717295066026887,-0.11540831228952357,0.743998447478006,0.6099613274979979,1.017066255526495,1.82787769841976,1.119690169551594
1782985495712409856,0.9574778079986572,3.0974833965301514,-1.4688960313796997,-1.8086121082305908,0.5250423550605774,-0.837339460849762,0.152293860912323,0.18374371528625488,0.2195720076560974,-0.04923592507839203,0.2590312577154165,-0.11407927958905681,0.7504217797418006,0.5972905425308993,0.9923982441500251,1.8531092280052657,1.0741993603892581
1782985495722329856,0.967397928237915,2.6459262371063232,-1.3260678052902222,-1.6585662364959717,0.541833758354187,-0.8231853246688843,0.16965234279632568,0.1570492386817932,0.22072267532348633,0.05886326730251312,0.27071811612408286,-0.11316260339351414,0.7563203003840396,0.5847097169457419,0.9669986237386808,1.8742347676997348,1.0334530812131497
1782985495732249856,0.9773178100585938,1.8027265071868896,-1.2012676000595093,-1.555446982383728,0.5572656989097595,-0.8105406761169434,0.18021823465824127,0.1156163215637207,0.06058657169342041,0.15362881124019623,0.28116319943599427,-0.11300179805990658,0.7598287388681372,0.5751852543310428,0.9450746865784145,1.8835779832768123,1.007409779042764
1782985495742169856,0.9872379302978516,2.0484812259674072,-1.33936607837677,-1.5547103881835938,0.5718514323234558,-0.79831862449646,0.18887338042259216,0.10095429420471191,0.046624958515167236,-0.09948743879795074,0.2909232809770271,-0.11306089554932017,0.7626623925337849,0.5665040957422952,0.9244981711837054,1.8897999917382573,0.985743005628287
1782985495752089856,0.9971578121185303,2.005286931991577,-1.28468656539917,-1.610226035118103,0.5870925784111023,-0.7850335240364075,0.19759659469127655,0.15167683362960815,0.19918763637542725,-0.10460963845252991,0.30118411675764556,-0.11303265757825637,0.7655206830357304,0.5572160206334967,0.9027501973030302,1.895455293521898,0.9635445771046993
1782985495762008832,1.0070769786834717,1.9454141855239868,-1.3338834047317505,-1.5115114450454712,0.6019366383552551,-0.7716694474220276,0.2054235339164734,0.21620917320251465,0.17910951375961304,-0.10253354907035828,0.3112807753122379,-0.11289545357439501,0.7680926927916508,0.5480808482000191,0.8814617651860359,1.8996737098827419,0.94271387230768
1782985495771928832,1.0169968605041504,1.7595385313034058,-1.2714178562164307,-1.4069586992263794,0.615848958492279,-0.7588799595832825,0.2117338329553604,0.20991086959838867,0.09674012660980225,-0.05806256830692291,0.3208395290336127,-0.1127141443497484,0.7701703932580296,0.539624926902888,0.8615915328970116,1.9019443239683294,0.9244848257009448
1782985495781848832,1.0269169807434082,1.6316779851913452,-1.3134629726409912,-1.3082072734832764,0.628810703754425,-0.7467280030250549,0.21678102016448975,0.19310390949249268,0.08663278818130493,-0.025085285305976868,0.3299656777853596,-0.1123059083769006,0.7718664984457475,0.531725485937586,0.8431290377295356,1.902784343779876,0.9079217902701773
1782985495791768832,1.036836862564087,1.7787833213806152,-1.2571250200271606,-1.295951247215271,0.6410755515098572,-0.7348065376281738,0.22154341638088226,0.15949207544326782,0.042591631412506104,0.013548716902732849,0.3387342046571379,-0.11171502155619593,0.7734930278244312,0.5239154701658735,0.8253813974847926,1.9035288354005648,0.8916133030516946
1782985495801688832,1.0467569828033447,1.3829419612884521,-1.1755952835083008,-1.30176842212677,0.6531273126602173,-0.7227053642272949,0.2261001616716385,0.1313878893852234,0.018924355506896973,0.11096639931201935,0.34712965705828297,-0.11146728296343196,0.7750000791596307,0.516188691757777,0.8077085955527081,1.904064718992407,0.876470087052025
1782985495811608832,1.0566768646240234,1.1226277351379395,-0.9878743886947632,-1.1176116466522217,0.6645585894584656,-0.7117179036140442,0.22763869166374207,0.16709113121032715,-0.055814385414123535,0.08071087300777435,0.3548031213805154,-0.11203616499516152,0.7754142407183047,0.5101914718126482,0.7919407240872919,1.9008109459044455,0.8675075639118125
1782985495821528832,1.0665969848632812,0.841508150100708,-1.0070585012435913,-1.0488040447235107,0.6744365692138672,-0.7020724415779114,0.22853772342205048,0.19966310262680054,0.0025485754013061523,0.04799722135066986,0.36164017348776356,-0.11230765129295356,0.7756647799587874,0.5049232409667884,0.7783036254064013,1.8975101334414486,0.8594908464284131
1782985495831448832,1.07651686668396,0.2546115219593048,-1.0174875259399414,-1.0688207149505615,0.6842824816703796,-0.6934426426887512,0.22559913992881775,0.15543925762176514,0.06595540046691895,0.10603538155555725,0.3682513057441546,-0.11346495862447828,0.7745484339522426,0.5015889668798098,0.7662562094544911,1.8892617395151663,0.8582048159395135
1782985495841368832,1.0864369869232178,0.029343517497181892,-0.9143131375312805,-0.8278567790985107,0.6931152939796448,-0.6864063739776611,0.22008465230464935,0.17437732219696045,0.03726702928543091,0.004570454359054565,0.3741693198077594,-0.11500504473387378,0.7725387809687907,0.4999548930519065,0.7565358399402695,1.8782567853010734,0.8614986440753681
1782985495851287808,1.09635591506958,-0.2795628011226654,-0.9033141136169434,-0.824310839176178,0.7007846832275391,-0.6807345747947693,0.21331040561199188,0.16036033630371094,0.05661958456039429,0.0028914213180541992,0.3793473219536551,-0.11664720626369537,0.7700965105704142,0.4994401225763868,0.7487649672055049,1.866273883474519,0.867226442606826
1782985495861207808,1.1062757968902588,-0.4709911048412323,-0.8762547969818115,-0.696692168712616,0.7080520987510681,-0.6758415102958679,0.20469550788402557,0.18895095586776733,0.007613420486450195,-0.015440836548805237,0.38421888513953945,-0.11866503121338841,0.7669852438527182,0.5000280084147365,0.7421058453122497,1.8522202953812532,0.8761723738826719
1782985495871127808,1.1161959171295166,-0.7956519722938538,-0.7528114318847656,-0.6035111546516418,0.714136004447937,-0.6722642779350281,0.1951160877943039,0.2497311234474182,-0.06459784507751465,0.011731952428817749,0.38825409920579246,-0.12085104446873578,0.7635136351781291,0.501697736240111,0.737263132096376,1.8375067481501237,0.8875150946096125
1782985495881047808,1.1261157989501953,-1.3383817672729492,-0.6688017845153809,-0.574743390083313,0.7196043729782104,-0.6697428822517395,0.18334196507930756,0.2509157061576843,-0.107860267162323,0.08176423609256744,0.39161016716780545,-0.1237767684821878,0.7591773789799402,0.5049461472460737,0.7338625184374372,1.820270245571198,0.903752240463572
1782985495890967808,1.1360359191894531,-1.71238112449646,-0.5371134877204895,-0.47349363565444946,0.7243574857711792,-0.6683971881866455,0.16897130012512207,0.271827757358551,-0.12823361158370972,0.09708093106746674,0.3939993279285906,-0.12779491228912832,0.7537599828391244,0.510175281250132,0.7320518326999632,1.7999687682388767,0.9264604046102876
1782985495900887808,1.1459558010101318,-1.6815464496612549,-0.4868508279323578,-0.2601747214794159,0.7279770374298096,-0.6680622696876526,0.1540856659412384,0.28848719596862793,-0.12038987874984741,0.042005062103271484,0.395669207631903,-0.1317015559229806,0.7481293563709732,0.5161425257446831,0.7316016001276394,1.7793805646540752,0.9505457063907795
1782985495910807808,1.1558759212493896,-1.756436824798584,-0.3532468378543854,-0.20343852043151855,0.7300536036491394,-0.668880820274353,0.1400729864835739,0.23439347743988037,-0.07612955570220947,0.03674592077732086,0.39630262946850003,-0.13524986893126942,0.7427947010028384,0.522405847233213,0.7327022332108811,1.760359326471632,0.974278456161738
1782985495920727808,1.1657958030700684,-1.7939038276672363,-0.2152988314628601,-0.1966346651315689,0.7321956157684326,-0.6692556738853455,0.12643752992153168,0.16076397895812988,-0.09209686517715454,-0.001635909080505371,0.39646073221004174,-0.139464739333926,0.7374065015956766,0.5287722812697015,0.7332065624741889,1.741792680660091,0.9993010673172145
1782985495930647808,1.1757159233093262,-1.7429263591766357,-0.1322266161441803,-0.013707964681088924,0.7332563400268555,-0.6703373193740845,0.11394306272268295,0.16383832693099976,-0.13610488176345825,-0.10141564160585403,0.39591049192032063,-0.1432622771784142,0.7324257300340389,0.5350545275107585,0.734663280272048,1.7249565974611714,1.0231314649073486
1782985495940566784,1.1856348514556885,-2.083484411239624,-0.06554053723812103,0.11195249110460281,0.7331738471984863,-0.67249995470047,0.10099510103464127,0.16204404830932617,-0.18348759412765503,-0.04040253162384033,0.3944581755198624,-0.14705440082005902,0.7272362443809278,0.5421302669781074,0.7375814759322683,1.707685386127807,1.0489270279258849
1782985495950486784,1.1955549716949463,-2.26910662651062,-0.03011166676878929,0.2669394612312317,0.7321807742118835,-0.6756444573402405,0.08611484616994858,0.19613337516784668,-0.30258119106292725,-0.04899025708436966,0.39230567124505866,-0.1510022736340008,0.7212875549713975,0.5504895778844215,0.7418385284435909,1.6878726525517584,1.0787033159212012
1782985495960406784,1.205474853515625,-2.092428207397461,-0.09759750217199326,0.3901759088039398,0.7301304340362549,-0.6795713901519775,0.07136200368404388,0.2186306118965149,-0.35862135887145996,-0.10372590273618698,0.38969312319026517,-0.15431613812314743,0.7154491826848196,0.5589798050641201,0.7471782604835823,1.6682255771793464,1.1080993720445034
1782985495970326784,1.2153949737548828,-2.1203014850616455,-0.007524295710027218,0.48582544922828674,0.7274371385574341,-0.6837989091873169,0.057047612965106964,0.2507428526878357,-0.2989128828048706,-0.03649401664733887,0.3868745615791368,-0.15707542298312932,0.7098247087739007,0.5672780114907033,0.7529563791894693,1.649058887247748,1.1364684527495272
1782985495980246784,1.2253148555755615,-2.099813461303711,0.012082695960998535,0.5825469493865967,0.7240044474601746,-0.6884530782699585,0.04301419481635094,0.32967597246170044,-0.2856680750846863,0.01196325197815895,0.38346327539468505,-0.15969357339670529,0.7042762670934736,0.575716052085536,0.7593540074145169,1.6301380773765184,1.1653107731064645
1782985495990166784,1.2352349758148193,-2.13118839263916,0.03775769844651222,0.6736595034599304,0.7199155688285828,-0.6934531331062317,0.029056021943688393,0.37471938133239746,-0.33718645572662354,0.04346907138824463,0.37969117662404794,-0.16199398404383172,0.6987746131703847,0.584214480705519,0.7662707318468961,1.611134751567503,1.194300138231746
1782985496000086784,1.245154857635498,-2.187025308609009,0.005406416952610016,0.7145822048187256,0.7153275609016418,-0.6986366510391235,0.014603418298065662,0.33058613538742065,-0.38400495052337646,0.0628502368927002,0.37561417720772966,-0.16414636859105222,0.6930784075067847,0.592969034888382,0.773490223848863,1.591208499781998,1.2244362076387099
1782985496010006784,1.2550749778747559,-2.334542751312256,-0.033318229019641876,0.8994173407554626,0.709943950176239,-0.7042578458786011,-0.000786841381341219,0.3180864453315735,-0.4216119050979614,0.06154733896255493,0.37119069170457397,-0.16596371854447126,0.6870681359420985,0.6021718760687855,0.7813772278589204,1.5696880124473003,1.2561849006292092
1782985496019926784,1.2649948596954346,-2.6229395866394043,-0.06978222727775574,0.9445049166679382,0.703622579574585,-0.7103406190872192,-0.018208306282758713,0.31966227293014526,-0.41337764263153076,0.054798901081085205,0.36633584705579314,-0.16754889470504702,0.6803111161571225,0.6122926187085351,0.789982020003779,1.5449241570660457,1.2914835864571765
1782985496029845760,1.2749137878417969,-2.870889663696289,-0.03167547285556793,0.9087862372398376,0.697514533996582,-0.7155889272689819,-0.03749291971325874,0.3529614210128784,-0.4088616967201233,0.03216756135225296,0.36109986190914395,-0.1699076840272099,0.6725956576879922,0.6231799075173564,0.7974668334299828,1.5170958331128688,1.3315096391846972
1782985496039765760,1.2848339080810547,-2.930203676223755,-0.19100014865398407,1.1248286962509155,0.6904171109199524,-0.721031904220581,-0.05862852931022644,0.4081851840019226,-0.42864155769348145,-0.04607731103897095,0.35563548779041737,-0.17171245772939292,0.6642293027211486,0.6346949631653451,0.8052904089695224,1.4860820072078396,1.3741880716095045
1782985496049685760,1.2947537899017334,-3.3730828762054443,-0.1695566028356552,1.0906232595443726,0.6825853586196899,-0.7262037992477417,-0.08188669383525848,0.35960525274276733,-0.4315110445022583,0.011894643306732178,0.3497582644004206,-0.17343665570762035,0.654962884962623,0.6470027650413489,0.8127837950394651,1.4514014139044051,1.4209748726011295
1782985496059605760,1.3046739101409912,-3.751702308654785,-0.20256489515304565,1.092882513999939,0.6749448180198669,-0.7298720479011536,-0.10833407938480377,0.37795740365982056,-0.5030075907707214,-0.019473552703857422,0.34348402995722677,-0.17599712176405963,0.6440946928395214,0.6604435934256493,0.8181347209317041,1.411645732571771,1.4745681543872589
1782985496069525760,1.31459379196167,-4.133570194244385,-0.3340320289134979,1.079792857170105,0.6671199202537537,-0.7320424914360046,-0.13807587325572968,0.4101811647415161,-0.5218790173530579,-0.002106606960296631,0.33693731755689904,-0.17889604050619567,0.6316314357125782,0.674915721139582,0.8213152196508852,1.366704945589625,1.5341354626150852
1782985496079445760,1.3245139122009277,-4.411895275115967,-0.46841591596603394,1.0955350399017334,0.6591529250144958,-0.7322845458984375,-0.1711052507162094,0.4542046785354614,-0.4512634873390198,-0.04381479322910309,0.3307427781629843,-0.1815782400810506,0.6176380166224322,0.6900448816051783,0.8216705901418591,1.3168183923139323,1.5976207178193236
1782985496089365760,1.3344337940216064,-4.3411946296691895,-0.5873761773109436,1.1042572259902954,0.6509195566177368,-0.7308646440505981,-0.20528192818164825,0.4885762929916382,-0.33425986766815186,-0.10070252418518066,0.32440788602935255,-0.18416716777164469,0.602861087164236,0.7052662922119993,0.8195879291410362,1.2652969499564406,1.6626972251269696
1782985496099285760,1.3443539142608643,-4.0702362060546875,-0.7849201560020447,1.1526644229888916,0.6424458622932434,-0.7281919717788696,-0.23874607682228088,0.5050455331802368,-0.1931031346321106,-0.1256185621023178,0.3185710045513017,-0.185954651399889,0.5882583031346689,0.7196426222502225,0.815680225629877,1.2149917653949822,1.724498824262954
1782985496109205760,1.354273796081543,-3.6363577842712402,-0.8030059337615967,1.243248701095581,0.6337880492210388,-0.7252241969108582,-0.26900261640548706,0.4688425064086914,-0.12308812141418457,-0.10236576199531555,0.3130857085899294,-0.18688600553335277,0.5749541772023723,0.7324469739621057,0.8113599962998264,1.1694032686122506,1.7797311220676115
1782985496119125760,1.3641939163208008,-3.3204874992370605,-0.8357617259025574,1.242896556854248,0.6279644966125488,-0.7210594415664673,-0.29280349612236023,0.40702390670776367,-0.16688001155853271,-0.013211548328399658,0.3081742810021972,-0.1888176617031901,0.5638671345604249,0.7425835752852268,0.8053301743614166,1.1344916900993558,1.824887911827607
1782985496129044736,1.374112844467163,-3.0044381618499756,-0.8432334065437317,1.3062031269073486,0.6185433268547058,-0.7182736992835999,-0.31857022643089294,0.3548300266265869,-0.33095109462738037,0.07584866881370544,0.30297326148626713,-0.18834330583342732,0.5524868231702096,0.7533208389122856,0.8013179654101983,1.0951947915877605,1.8712772747956314
1782985496138964992,1.384032964706421,-2.884439706802368,-0.7909459471702576,1.4379429817199707,0.6067863702774048,-0.7166153192520142,-0.34390774369239807,0.29491645097732544,-0.49897605180740356,0.15924593806266785,0.29725410290903476,-0.18641710549663612,0.5415669742839616,0.7639330744770028,0.7989373755944413,1.05516982299947,1.9170286422536496
1782985496148884736,1.3939528465270996,-2.9865212440490723,-0.8068817853927612,1.4690908193588257,0.5941352844238281,-0.7147611379623413,-0.3689439296722412,0.2535971999168396,-0.5897737145423889,0.2070482075214386,0.29088939559440335,-0.1842612233759217,0.5306372009729414,0.7745032001520893,0.7962825227780662,1.0150956987835662,1.9634615109419338
1782985496158804992,1.4038729667663574,-3.1613268852233887,-0.7916653156280518,1.5111395120620728,0.5808788537979126,-0.7117373943328857,-0.39498063921928406,0.2952502965927124,-0.5674068927764893,0.22286152839660645,0.28415737417044934,-0.18203607839497726,0.5190111193622058,0.7853311474981952,0.7919684901254903,0.973639668327854,2.0116853574636884
1782985496168724736,1.4137928485870361,-3.3129827976226807,-0.861495316028595,1.5525758266448975,0.5670215487480164,-0.7071914076805115,-0.4223352372646332,0.3739880323410034,-0.4743272066116333,0.2590356469154358,0.2770696947845042,-0.17976563361572093,0.5064747779825152,0.7964923934647042,0.7855178365382983,0.9306115840629753,2.0619004558486242
1782985496178644992,1.423712968826294,-3.082878351211548,-0.854176938533783,1.7555510997772217,0.5519593954086304,-0.7024608850479126,-0.44932135939598083,0.4824797511100769,-0.4035266637802124,0.26264530420303345,0.2695008932002097,-0.1768995967291189,0.49400997756528753,0.8074837822613068,0.7788492804769382,0.8875481150593513,2.1119841755085598
1782985496188564736,1.4336328506469727,-2.6988208293914795,-0.810702383518219,1.9094351530075073,0.5354817509651184,-0.699133038520813,-0.4737851619720459,0.4976298213005066,-0.339349627494812,0.3191831111907959,0.26123692585271074,-0.173179120181758,0.48282130085674396,0.817708969058634,0.7741842510203563,0.8464522779354571,2.1599286750001205
1782985496198484992,1.4435529708862305,-2.2531394958496094,-0.7932363152503967,1.9222761392593384,0.5185514092445374,-0.6973429918289185,-0.49479010701179504,0.39917320013046265,-0.33293044567108154,0.34658145904541016,0.2528930822356389,-0.1688099945287647,0.4734006046727939,0.8267044142078102,0.7716836748209758,0.8088423340044697,2.2035821629000636
1782985496208404736,1.4534728527069092,-2.0583741664886475,-0.7340433597564697,2.0408318042755127,0.5012579560279846,-0.6966769695281982,-0.513207197189331,0.3257073163986206,-0.35462307929992676,0.34250712394714355,0.24438894470350922,-0.16401321919144704,0.46529138446774027,0.8347919718654293,0.7707548980020534,0.7736198858868295,2.244482908061128
1782985496218323712,1.4633917808532715,-1.9556316137313843,-0.7348598837852478,2.15592360496521,0.4831623435020447,-0.696705162525177,-0.5302416086196899,0.2496715784072876,-0.3894307017326355,0.34799057245254517,0.23540188143133664,-0.15881807970869422,0.45788210744831725,0.8424410182017675,0.77079420615658,0.738975003805673,2.284961850615827
1782985496228243712,1.4733119010925293,-1.9882609844207764,-0.7027837634086609,2.23512864112854,0.4642680883407593,-0.696566104888916,-0.5470381379127502,0.21923407912254333,-0.3812078833580017,0.3747512102127075,0.22589705616881853,-0.15337229521452744,0.4505084518387007,0.8499938466055753,0.7706003681442548,0.7037354672367973,2.3264390261217445
1782985496238163712,1.483231782913208,-1.9313374757766724,-0.6299604177474976,2.4109420776367188,0.444826602935791,-0.6962857246398926,-0.5633077025413513,0.24305486679077148,-0.4030642509460449,0.3678883910179138,0.21569783863350292,-0.14789496417111808,0.44325299747420205,0.857396287561369,0.7702096046330462,0.6684096969840735,2.369017372985713
1782985496248083712,1.4931519031524658,-1.8107571601867676,-0.602424144744873,2.479499578475952,0.42461732029914856,-0.696334719657898,-0.5786346793174744,0.25468873977661133,-0.40177929401397705,0.37488406896591187,0.20476231442132609,-0.14221517125750938,0.43641436734211053,0.8645170386842443,0.7702778702438898,0.6330692805314364,2.4124398297526057
1782985496258003712,1.5030717849731445,-1.5409743785858154,-0.48215606808662415,2.4844024181365967,0.40448006987571716,-0.6968929171562195,-0.5922299027442932,0.20372000336647034,-0.3654544949531555,0.3505764603614807,0.19369272796298892,-0.13648096788212888,0.43041608016383087,0.8709754204040261,0.7710559257637226,0.599210313073391,2.4545151252115955
1782985496267923712,1.5129919052124023,-1.2862521409988403,-0.5712868571281433,2.5525918006896973,0.3842177987098694,-0.6984748840332031,-0.6037462949752808,0.150846928358078,-0.2728691101074219,0.26255977153778076,0.18247713991852269,-0.13055804485659367,0.42553665881263547,0.8766842627399902,0.7732641118915821,0.566747610616368,2.495148035772397
1782985496277843712,1.522911787033081,-1.0337793827056885,-0.5860024690628052,2.6298694610595703,0.3630087673664093,-0.7012671828269958,-0.6135544180870056,0.0581338107585907,-0.13967519998550415,0.1498398780822754,0.17115662936382353,-0.12398488656257026,0.42172328267907105,0.8817497828019202,0.777173415528397,0.5342563012951395,2.5349894548302117
1782985496287763712,1.5328319072723389,-0.7603974342346191,-0.5693525671958923,2.5725088119506836,0.3414630591869354,-0.705051839351654,-0.6215343475341797,-0.014162033796310425,-0.017604410648345947,0.11718559265136719,0.15987127205481996,-0.11708641644637069,0.4189553700918938,0.8861198605281189,0.782496243560681,0.5023726641111865,2.573676672599003
1782985496297683712,1.5427517890930176,-0.5159211158752441,-0.6364123225212097,2.4879863262176514,0.3201863467693329,-0.7095719575881958,-0.6276848912239075,-0.07970783114433289,0.0278245210647583,0.11057984828948975,0.14913701137651603,-0.11000443775549097,0.4172008720364403,0.8897194060778423,0.7888905553701662,0.4717003276374248,2.610025058608848
1782985496307602944,1.552670955657959,-0.3947596848011017,-0.6562769412994385,2.540527820587158,0.29863855242729187,-0.7147216200828552,-0.6324461102485657,-0.12215539813041687,0.026534974575042725,0.0932614803314209,0.13856291043834712,-0.10265522963697411,0.41621972914663846,0.8927616595456472,0.7962260001847082,0.44115807850421124,2.6455848096075827
1782985496317522688,1.5625908374786377,-0.4357800781726837,-0.673126757144928,2.5042624473571777,0.2767397165298462,-0.7195686101913452,-0.6368957757949829,-0.1751466691493988,0.031183600425720215,0.10465395450592041,0.12801652627573507,-0.09513450419464285,0.41533302702413116,0.895577906432625,0.8031808650491339,0.40990083112577563,2.6815358027857696
1782985496327442944,1.5725109577178955,-0.5276632905006409,-0.6654906272888184,2.549591541290283,0.25436142086982727,-0.7233810424804688,-0.6418879628181458,-0.22030383348464966,-0.007911622524261475,0.09617263078689575,0.11800662977263054,-0.0871800110413327,0.4140720658439926,0.8983420162478041,0.8086866981206801,0.3772874000984356,2.7173368887987803
1782985496337362688,1.5824308395385742,-0.8088760375976562,-0.544998049736023,2.559457778930664,0.2323155701160431,-0.7255069017410278,-0.6478187441825867,-0.23623710870742798,-0.06154137849807739,0.12901997566223145,0.1075947664512052,-0.07969573758680935,0.411994189986491,0.9012949818131932,0.8117706567663426,0.34432627722247816,2.7547854039712387
1782985496347282944,1.592350959777832,-1.1521389484405518,-0.44247952103614807,2.528996706008911,0.21111361682415009,-0.7251824140548706,-0.6553941965103149,-0.21616427600383759,-0.0961676836013794,0.08653128147125244,0.09682509285354673,-0.07294936445527778,0.4086334556109104,0.9046115129220174,0.8112992578526214,0.31162212934397354,2.7936131047874113
1782985496357202688,1.6022708415985107,-2.2134499549865723,-0.46580374240875244,2.3572888374328613,0.1908210813999176,-0.7195847630500793,-0.6676713824272156,-0.2092994749546051,-0.029942214488983154,0.09961718320846558,0.08611103740146733,-0.06686378854912835,0.40211135168370166,0.9090767576147376,0.8032041351591923,0.2783797338769026,2.8338565150526147
1782985496367122944,1.6121909618377686,-3.8050477504730225,-0.6429085731506348,2.1529877185821533,0.1713850498199463,-0.7037865519523621,-0.6894285678863525,-0.2713148593902588,0.07121819257736206,0.11829209327697754,0.07600695314091162,-0.06125439221656156,0.38927320736476506,0.9159352149427877,0.7807136144790731,0.24365117856308932,2.8753368340585803
1782985496377042688,1.6221108436584473,-5.292068004608154,-0.6335906982421875,1.8016953468322754,0.15356667339801788,-0.6751965284347534,-0.7214754819869995,-0.4089072346687317,0.17696654796600342,0.12429225444793701,0.06685462817182672,-0.056325250138781834,0.3689034091362561,0.9253475853550566,0.7412311289764608,0.20972105957260326,2.915600927522632
1782985496386962944,1.632030963897705,-6.181597709655762,-0.7451086044311523,1.7046910524368286,0.1371939778327942,-0.6354119777679443,-0.7598878145217896,-0.5754111409187317,0.30660033226013184,0.11795055866241455,0.058460776999237074,-0.0518774084322082,0.342585519408713,0.9362298160137609,0.6885419210436104,0.17862083881774446,2.952675879462501
1782985496396882688,1.6419508457183838,-6.210024356842041,-0.648673415184021,1.2107892036437988,0.12285992503166199,-0.5894613265991211,-0.7983989119529724,-0.7691459059715271,0.4595327377319336,0.10284227132797241,0.051081488331366956,-0.047944635733504104,0.3138500581436474,0.9468845153434873,0.6303918690734107,0.1526852045670895,2.983931287056904
1782985496406801664,1.651869773864746,-5.686654090881348,-0.5240941643714905,0.9206075668334961,0.11253835260868073,-0.5426963567733765,-0.8323555588722229,-0.7668657302856445,0.574755072593689,0.0314369797706604,0.04581964436346291,-0.045148925143441626,0.2859786463573106,0.9560744904409091,0.5736440184695383,0.13438971719032866,3.006122946043369
1782985496416721920,1.661789894104004,-5.009372711181641,-0.6398434042930603,0.6357348561286926,0.10368189215660095,-0.4990566074848175,-0.8603444695472717,-0.6737959980964661,0.5450313091278076,0.012642443180084229,0.041620514313598464,-0.04253637012774657,0.2608034246458853,0.9635559378001599,0.5225097797380164,0.11993369322797268,3.0231550396589624
1782985496426641664,1.6717097759246826,-4.334386825561523,-0.42480602860450745,0.5020485520362854,0.09653007984161377,-0.45968613028526306,-0.8828197121620178,-0.5966063737869263,0.35546860098838806,0.06104236841201782,0.03880452843901412,-0.040230460440118736,0.23868737085646807,0.9694865243396635,0.4776417425797775,0.10891025235984506,3.0350428902252538
1782985496436561920,1.6816298961639404,-3.765977144241333,-0.3317011296749115,0.3748275339603424,0.09121512621641159,-0.4250757396221161,-0.9005500674247742,-0.5581340789794922,0.1383325755596161,0.09207838773727417,0.03626549626866625,-0.038642098808979876,0.2196173090767302,0.9741456574934275,0.4390455667402103,0.10094397116012996,3.044630359474071
1782985496446481664,1.6915497779846191,-3.543581247329712,-0.2546199560165405,0.44465288519859314,0.08739500492811203,-0.39328381419181824,-0.9152540564537048,-0.5575945973396301,0.04539868235588074,0.20456069707870483,0.033689970412985534,-0.03770933395036762,0.20236349145665353,0.9780041262158278,0.4042004939481695,0.09519852528074767,3.053204473127976
1782985496456401920,1.701469898223877,-3.5182650089263916,-0.17274612188339233,0.30356472730636597,0.08379708230495453,-0.36166879534721375,-0.928533136844635,-0.6943012475967407,0.12784311175346375,0.2658286690711975,0.03147846236513355,-0.03674254454193828,0.1854276921388355,0.9814661331268602,0.3700572448861204,0.09000292312676327,3.0606120731294753
1782985496466321664,1.7113897800445557,-3.1388235092163086,-0.2910233736038208,0.3233521580696106,0.08097425103187561,-0.33174335956573486,-0.939888060092926,-0.6925464868545532,0.18724262714385986,0.2788925766944885,0.029491024658869845,-0.036047890332254376,0.1695774948044328,0.9844157785814591,0.338150973515747,0.08594087373899598,3.067015463346078
1782985496476241920,1.7213099002838135,-2.4093570709228516,-0.16940507292747498,0.2983147203922272,0.07769610732793808,-0.30618077516555786,-0.9487974643707275,-0.8070356845855713,0.31315404176712036,0.29323410987854004,0.0276641344823159,-0.03499324501999289,0.15613050209956456,0.9867286964697338,0.31117852994385325,0.08170672228561049,3.0727116893887993
1782985496486161664,1.7312297821044922,-0.6291452646255493,-0.05809852480888367,0.3096708655357361,0.07514707744121552,-0.294198602437973,-0.9527854323387146,-0.8130316138267517,0.3577514588832855,0.00010293722152709961,0.02570588815072021,-0.03413944034503292,0.1498058044388238,0.9877914435534579,0.2986169165776519,0.07870799865777148,3.077711340706625
1782985496496080896,1.7411489486694336,0.9563892483711243,0.07274045050144196,0.4736374318599701,0.07323013991117477,-0.2993772327899933,-0.951320469379425,-0.7798341512680054,0.6197659969329834,-0.14580172300338745,0.02372056052847739,-0.03341900564966943,0.152390743796065,0.9874703291016962,0.30403989190596,0.0768258579650633,3.081783286887188
1782985496506000640,1.7510688304901123,1.463751196861267,-0.11783326417207718,-0.32914015650749207,0.07144343852996826,-0.3121551275253296,-0.9473410248756409,-0.8855608701705933,0.7696441411972046,-0.09626859426498413,0.023330223561899777,-0.032451571555721266,0.15898548869132137,0.986471567821256,0.3174606665288121,0.07527221584596844,3.082246221389031
1782985496515920896,1.7609889507293701,1.695547103881836,-0.19209977984428406,-0.32299676537513733,0.06955783069133759,-0.3280940651893616,-0.9420806765556335,-0.6747214198112488,0.6017146706581116,0.019396960735321045,0.025626634346018803,-0.03095242965485588,0.16733682750674847,0.9850804924404981,0.3342852574207414,0.07370052783822921,3.077134879367902
1782985496525840640,1.7709088325500488,1.0984654426574707,0.38244113326072693,-0.38856738805770874,0.07135485857725143,-0.3412637710571289,-0.937255322933197,-0.5290117263793945,0.4604654312133789,0.2616114020347595,0.02750069615724541,-0.03139195790536351,0.17431833658579168,0.9838045959496026,0.34826104185404805,0.07598513787815918,3.072327453158152
1782985496535760896,1.7808289527893066,-0.24251875281333923,-0.2870410680770874,-0.8107489943504333,0.07357825338840485,-0.34565088152885437,-0.9354740381240845,-0.43911778926849365,0.38236352801322937,0.4550358057022095,0.03030873032596008,-0.03196684224784803,0.17675150336724146,0.9832692118280603,0.35293232352707743,0.07849184483892488,3.0659595587466386
1782985496545680640,1.7907488346099854,-0.154201477766037,0.5150735378265381,0.0888032615184784,0.07573838531970978,-0.34386664628982544,-0.9359591007232666,-0.010583356022834778,0.21991950273513794,0.2905123233795166,0.03259518359851281,-0.032679734807814394,0.1759331879573434,0.9833194441428561,0.3510315611791263,0.08074467984139151,3.060993850297561
1782985496555600896,1.8006689548492432,-0.8057403564453125,0.09739743918180466,-0.5842318534851074,0.07920661568641663,-0.3392108976840973,-0.9373698830604553,0.07721123844385147,0.4862751066684723,0.3765941262245178,0.03361740460723974,-0.03432885637254756,0.17359892368043572,0.9836437159010276,0.34607792212200494,0.08429853560467718,3.058523707538361
1782985496565520640,1.8105888366699219,-0.5196712613105774,0.4915942847728729,-0.40983355045318604,0.08289975672960281,-0.3324599266052246,-0.9394668936729431,0.6166852116584778,0.3925490379333496,0.23649448156356812,0.03562125560362948,-0.03595807909328606,0.17021624415298164,0.9841060224717879,0.33891066426853417,0.0880133087933082,3.054162948177414
1782985496575440896,1.8205089569091797,-1.149784803390503,0.13965915143489838,-1.3264027833938599,0.09059768915176392,-0.3246181309223175,-0.9414961934089661,0.7580503821372986,0.4363582730293274,0.28970181941986084,0.03907156655462227,-0.03940735007008916,0.16643001716450465,0.9844905390223674,0.33060797737767567,0.09593198055446643,3.0462441971722143
1782985496585360640,1.8304288387298584,-0.23787559568881989,-0.06008737161755562,-0.9012249112129211,0.09471383690834045,-0.31633347272872925,-0.9439080357551575,1.310895323753357,0.41354724764823914,-0.047775864601135254,0.044892351593607834,-0.04068011853176867,0.1624533760773969,0.9848546639686695,0.32186198651891357,0.10000748019064694,3.0342423961996956
1782985496595279616,1.8403477668762207,-0.11843868345022202,-0.36258357763290405,-0.34267982840538025,0.09516157954931259,-0.31468889117240906,-0.9444125890731812,0.9357374906539917,0.5152504444122314,-0.06150782108306885,0.04760986324224107,-0.0404945292734273,0.1617216348000344,0.9848551174161911,0.3201288650335698,0.10042375842308959,3.0287576140140833
1782985496605199872,1.8502678871154785,0.5072860717773438,-0.20711049437522888,-0.7729567289352417,0.09433533996343613,-0.31549394130706787,-0.9442269206047058,0.23786374926567078,0.42518940567970276,-0.05951148271560669,0.05043133744928934,-0.039593196851085796,0.1622311086165593,0.9846675791971916,0.320977144269273,0.09957705691847037,3.023116276329705
1782985496615119616,1.8601877689361572,1.4938074350357056,-0.4760040044784546,-0.8816552758216858,0.09514827281236649,-0.3245311379432678,-0.9410772323608398,0.24103336036205292,0.23194080591201782,-0.07894229888916016,0.05499872993422329,-0.039020192511110836,0.16714907541452667,0.9836227628610362,0.3305160059148848,0.1007632863008812,3.013061026570139
1782985496625039872,1.870107889175415,1.1196620464324951,-0.4013308882713318,-0.7899210453033447,0.09441225230693817,-0.3354405164718628,-0.9373185038566589,0.10624082386493683,0.1590794324874878,0.17363137006759644,0.05949491556064404,-0.03757464936790349,0.17299968508512878,0.9824050257360825,0.34207280294590225,0.10038731530693532,3.0032660206235895
1782985496634959616,1.8800277709960938,1.381622552871704,-0.4307236671447754,-0.5131115317344666,0.0933389812707901,-0.34628942608833313,-0.9334728121757507,0.1266927719116211,-0.09526941180229187,0.05885428190231323,0.0626822593530536,-0.03614251183954454,0.17876609147802766,0.9812275212499463,0.3536129077059727,0.09965984787847024,2.996182378938737
1782985496644879872,1.8899478912353516,1.805025577545166,-0.43541643023490906,-0.5964695811271667,0.09066087007522583,-0.3600645661354065,-0.9285117983818054,-0.003228016197681427,0.06358632445335388,0.02542036771774292,0.06635944852087908,-0.033667737653305024,0.18603923255201937,0.9797205664826676,0.3683371150493825,0.09733252466613923,2.988188315518719
1782985496654799616,1.8998677730560303,1.7582461833953857,-0.4028259813785553,-0.4830537438392639,0.08946370333433151,-0.3758958578109741,-0.9223332405090332,0.07424784451723099,0.10949265956878662,0.0625920295715332,0.06969306529312781,-0.031883227205944435,0.1944655527820998,0.977910810557455,0.3853633379817169,0.09669467181254517,2.9804191545348258
1782985496664719872,1.909787893295288,2.7369158267974854,-0.13275593519210815,-0.026683717966079712,0.08853108435869217,-0.3960140347480774,-0.913966715335846,0.3438114523887634,0.02769741415977478,-0.26091426610946655,0.07133926056063866,-0.030368372431026754,0.20516921875398736,0.975650650237735,0.4071719227928821,0.09656341337795186,2.975663135818708
1782985496674639616,1.9197077751159668,2.623634099960327,-0.8343071341514587,0.10794439911842346,0.08438756316900253,-0.4211980402469635,-0.9030343294143677,0.38980981707572937,-0.0171869695186615,-0.2672079801559448,0.07183055941749718,-0.027239708923458446,0.2184967901954925,0.9728090867337612,0.434765841832103,0.0931783004171533,2.973588827659433
1782985496684558848,1.9296269416809082,1.700055480003357,-0.5522995591163635,-0.1082533746957779,0.07788228988647461,-0.4403190314769745,-0.8944571018218994,0.2064957618713379,-0.4073677361011505,-0.08968901634216309,0.07310575674013632,-0.022906544447610606,0.22857546316776603,0.9705071018930831,0.4559539614602571,0.08685308709605895,2.9710590463706477
1782985496694478848,1.939546823501587,0.08632770925760269,-0.3463762402534485,-0.2933734357357025,0.0759652704000473,-0.4472576379776001,-0.8911733031272888,0.4545828104019165,-0.5483020544052124,0.21746724843978882,0.07464319600515551,-0.02129202701641932,0.23229290947939665,0.9695436936260742,0.46369685400420163,0.0850362958964793,2.9678318531714307
1782985496704400128,1.9494681358337402,-0.19102180004119873,-0.2600812613964081,-0.43468818068504333,0.07606568187475204,-0.4459802210330963,-0.8918046951293945,0.5122979879379272,-0.6063574552536011,0.08556079864501953,0.07671906263022689,-0.020897440762030466,0.23164830207962098,0.9695445139645534,0.46226912427556593,0.08508815555181369,2.963627675509993
1782985496714320128,1.959388256072998,-0.7682468295097351,-0.49245643615722656,-0.09709630161523819,0.07405439019203186,-0.44141173362731934,-0.894243597984314,0.35857805609703064,-0.28785157203674316,0.07339704036712646,0.0786824831453605,-0.019587008772868623,0.22911688221606774,0.9700159140994359,0.45717137175880895,0.082623793001385,2.9604848531008465
1782985496724240128,1.9693081378936768,-0.6066620349884033,-0.11853325366973877,0.07122726738452911,0.07150483876466751,-0.4343428611755371,-0.8979049921035767,0.07801602780818939,-0.2105088233947754,-0.02758634090423584,0.07906949827010687,-0.01848498990385721,0.22517953291982606,0.9709276135578078,0.44930859357782843,0.07946749296513661,2.9609088298339064
1782985496734160128,1.9792282581329346,-0.16585373878479004,-0.1607195883989334,0.12565216422080994,0.0696069672703743,-0.4312376379966736,-0.8995493054389954,0.045306988060474396,0.004373013973236084,-0.08224689960479736,0.07888818073148808,-0.01768538720917203,0.2234111971003427,0.9713657417430211,0.4458640611523105,0.07722593087319142,2.962005639955428
1782985496744080128,1.9891481399536133,-0.17090947926044464,-0.36358723044395447,0.11194167286157608,0.06653670966625214,-0.43099141120910645,-0.8998996019363403,0.11952897161245346,-0.004540205001831055,0.018689274787902832,0.07832431963915981,-0.016255279763235188,0.2231276918230372,0.9715014973984473,0.4455911750756258,0.07380362752429659,2.963968913493019
1782985496754000128,1.999068260192871,-0.18330329656600952,0.06603366136550903,-0.20365223288536072,0.06526202708482742,-0.42826688289642334,-0.901292622089386,0.2611234784126282,-0.04358065128326416,0.1430681347846985,0.07857457965645685,-0.015659525659430084,0.2216043102366621,0.9718397488862021,0.44257398990975066,0.07228321567457278,2.963972547065231
1782985496763920128,2.00898814201355,-0.4343419075012207,-0.14139840006828308,-0.11211752891540527,0.06539301574230194,-0.42549604177474976,-0.9025945663452148,0.31427618861198425,-0.052882254123687744,0.015372276306152344,0.07968718826195163,-0.0155897219599945,0.22013561852632785,0.9720840294526729,0.4395099450959026,0.07232368062669448,2.9618461619701644
1782985496773840128,2.0189082622528076,-0.4282779097557068,-0.053549233824014664,-0.18450437486171722,0.06435287743806839,-0.42108356952667236,-0.9047360420227051,0.2604457139968872,-0.09051311016082764,-0.024951457977294922,0.08046643867217902,-0.015070121680748217,0.21772659056375263,0.9725703568963044,0.43463964376347525,0.0710093017758072,2.960811335193396
1782985496783759104,2.02882719039917,-0.5595123767852783,-0.1349659115076065,0.11860237270593643,0.06410957872867584,-0.4164769947528839,-0.9068830609321594,0.23958609998226166,-0.1716119945049286,-0.054496943950653076,0.08101588775639383,-0.015020465233651619,0.21525068494657573,0.9730765365656794,0.4295667889877541,0.07057481153741721,2.9600590114719654
1782985496793679360,2.0387473106384277,-0.5915014743804932,-0.025365380570292473,0.021539470180869102,0.062112826853990555,-0.4113781154155731,-0.9093459248542786,0.20017048716545105,-0.24699285626411438,-0.023469626903533936,0.08039945425444939,-0.01435487497116272,0.21241696484579448,0.9737601774031407,0.4239655250198843,0.06819901736903099,2.962151465295704
1782985496803599104,2.0486671924591064,-0.5720330476760864,-0.1555473655462265,0.028979210183024406,0.061477746814489365,-0.40639880299568176,-0.9116252064704895,0.2885131239891052,-0.11413952708244324,0.024357140064239502,0.080386167470767,-0.014245349954929295,0.20972473436995415,0.9743463816478085,0.41850925092015007,0.0673355692078405,2.962655471853481
1782985496813519360,2.0585873126983643,-0.4764738082885742,-0.03731019049882889,-0.006900758016854525,0.060549769550561905,-0.40170684456825256,-0.9137643575668335,0.2938203513622284,-0.03513699769973755,0.06185096502304077,0.08019717550337653,-0.01401157652256252,0.20717501146864592,0.9749105687605969,0.4133799184026017,0.0661673625520635,2.9635610315930716
1782985496823439104,2.068507194519043,-0.4526520371437073,-0.1800490766763687,-0.04930677264928818,0.06008690968155861,-0.39717647433280945,-0.9157730937004089,0.2271597981452942,-0.013574868440628052,0.06323409080505371,0.08054603896609404,-0.013893913662557867,0.2047447176979743,0.97539676909903,0.4084381888039375,0.06551939877605038,2.9632369568959445
1782985496833359360,2.078427314758301,-0.24638299643993378,-0.12257514148950577,0.041398096829652786,0.057846326380968094,-0.3941604197025299,-0.917219340801239,0.191573828458786,0.0903274416923523,0.02714371681213379,0.08059389664777628,-0.012871456714148721,0.20303853569825195,0.975763410206124,0.4051541401688392,0.06298364167052349,2.9638346997862346
1782985496843279104,2.0883471965789795,-0.12415582686662674,-0.03790643811225891,-0.1256915181875229,0.057393625378608704,-0.39339515566825867,-0.917576253414154,0.1341651976108551,0.09001991152763367,0.028156697750091553,0.08090837532889134,-0.01260830906100578,0.20261514292796196,0.9758288154406628,0.4043216038510114,0.06246778052131093,2.963338699497222
1782985496853199360,2.0982673168182373,-0.3338605761528015,-0.1372109204530716,0.06619109958410263,0.0566675141453743,-0.39104145765304565,-0.9186269044876099,0.1866491287946701,-0.08851176500320435,0.05833637714385986,0.08130309260006288,-0.012257884372009288,0.20133629092953376,0.9760651323875327,0.4017628829753956,0.061609124178588576,2.9628336094801155
1782985496863119104,2.108187198638916,-0.6426793336868286,-0.09456294029951096,0.011168090626597404,0.05550761893391609,-0.38651561737060547,-0.9206109642982483,0.1802254170179367,-0.12654587626457214,0.052096009254455566,0.08115727532512346,-0.011891722454510225,0.1988795956719686,0.9765854035914249,0.3968505940136496,0.0602214184452407,2.9636551985153208
1782985496873039360,2.118107318878174,-0.7437819838523865,-0.24073612689971924,0.15054728090763092,0.05373917520046234,-0.38034787774086,-0.9232808947563171,0.24928513169288635,-0.09305605292320251,-0.02764683961868286,0.08087313074938372,-0.011313455210081947,0.1955289259349722,0.9772922308954182,0.3901724298255078,0.05813898546095121,2.9649730854331366
1782985496882958080,2.128026247024536,-0.745808482170105,-0.0026332857087254524,0.0823889747262001,0.05270242691040039,-0.37352630496025085,-0.9261212348937988,0.1592726707458496,-0.08164337277412415,-0.04478025436401367,0.08030984568239607,-0.011187538429307713,0.19187030735580082,0.9780649685192354,0.38280758961920874,0.056845309299826535,2.9667202544928353
1782985496892878336,2.137946367263794,-0.9120448231697083,-0.11580697447061539,0.17957916855812073,0.05150904506444931,-0.36597922444343567,-0.9291964173316956,0.285420298576355,-0.01990029215812683,-0.06848418712615967,0.07960371243532305,-0.01103533342041258,0.18782970495225615,0.9789083687575331,0.37468481960825295,0.05537728886751911,2.9688118357509805
1782985496902798080,2.1478662490844727,-0.7032815217971802,-0.16206559538841248,0.05292442440986633,0.049640148878097534,-0.3582269549369812,-0.9323139786720276,0.27463963627815247,0.0432702898979187,-0.1267222762107849,0.07909502797113706,-0.010505918365174184,0.18366449699141946,0.9797453805966477,0.3663681197664172,0.05319379549864904,2.9706247134543546
1782985496912718080,2.1577861309051514,-0.4687534272670746,-0.1910216212272644,-0.014523058198392391,0.04811270534992218,-0.3537091016769409,-0.9341172575950623,0.204633891582489,0.13796508312225342,-0.14977556467056274,0.07928736141548998,-0.009883023765092246,0.18122829685047187,0.98018990508822,0.36153358567890476,0.05146059403074731,2.970757515334426
1782985496922638080,2.167706251144409,-0.3747784495353699,-0.253159761428833,-0.04471158981323242,0.04635697975754738,-0.3492680490016937,-0.9358754754066467,0.19607466459274292,0.15380296111106873,-0.09387916326522827,0.0794886547333361,-0.009140992220794479,0.1788259303319692,0.9806219424932364,0.35678984770273425,0.049492828026368334,2.9709015958759273
1782985496932558080,2.177626132965088,-0.19331438839435577,-0.19184795022010803,-0.19659271836280823,0.044932059943675995,-0.34708017110824585,-0.9367584586143494,0.1849415898323059,-0.010723143815994263,-0.10939931869506836,0.08026837706825579,-0.008369169000124414,0.17762521550225513,0.9807834429870241,0.35445594399694824,0.047928735736501436,2.969688492643812
1782985496942478080,2.1875462532043457,-0.25662505626678467,-0.19028258323669434,-0.08972946554422379,0.04405238479375839,-0.3449203670024872,-0.9375976324081421,0.1966855227947235,-0.10358121991157532,-0.03971254825592041,0.08108632038412415,-0.007867467814741647,0.17646326941485796,0.9809300901877928,0.35215395130347465,0.04694979152136815,2.9682875339688106
1782985496952398080,2.1974661350250244,-0.5269020795822144,-0.06328389048576355,-0.0789995864033699,0.04281758517026901,-0.34119272232055664,-0.939017653465271,0.10706949979066849,-0.10514211654663086,-0.006462693214416504,0.08160434741554932,-0.007308805944497425,0.17446417329168065,0.9812489917592033,0.3481854739134572,0.04556671287955749,2.9676317179463245
1782985496962318080,2.2073862552642822,-0.39888352155685425,-0.1791330724954605,0.0758541151881218,0.04265787452459335,-0.33701035380363464,-0.9405340552330017,0.22498127818107605,-0.061152487993240356,-0.03470093011856079,0.08166307856151901,-0.00739639700003207,0.1722738026465586,0.9816303024265446,0.34373967164649344,0.04532388645221453,2.9677235874400223
1782985496972237056,2.2173051834106445,-0.37291717529296875,-0.1618688553571701,0.02056528627872467,0.04094058275222778,-0.3328739106655121,-0.9420821666717529,0.22299069166183472,0.035144418478012085,0.0029036998748779297,0.08150073398390201,-0.00673284720489718,0.1700399417760132,0.9820380437148916,0.33934966952333445,0.04343022478836918,2.9685476230164225
1782985496982157312,2.2272253036499023,-0.27383628487586975,-0.12492130696773529,0.08874347805976868,0.03962377458810806,-0.3302500247955322,-0.9430614113807678,0.17840905487537384,-0.010310858488082886,-0.019295096397399902,0.0814142526194943,-0.006193914030554875,0.16861470381127444,0.9822944301594936,0.3365684476750935,0.041991413561991535,2.969072220116411
1782985496992077056,2.237145185470581,-0.2132253795862198,-0.10365276783704758,0.19666515290737152,0.03853568434715271,-0.32737988233566284,-0.9441066980361938,0.1921924650669098,-0.03925830125808716,-0.0010226964950561523,0.08078476290033597,-0.005873306427306559,0.16706934046416264,0.9826124895271304,0.3335293245580129,0.04079444010652782,2.97066535367159
1782985497001997312,2.247065305709839,-0.25327324867248535,-0.13151685893535614,0.10785308480262756,0.037234313786029816,-0.32589834928512573,-0.9446712732315063,0.1967592090368271,-0.09338265657424927,-0.010513663291931152,0.08018476233844943,-0.005379825622211303,0.16623901158922055,0.9828051708111749,0.3319618113966523,0.0393947063209692,2.9721776553746806
1782985497011917056,2.2569851875305176,-0.38808247447013855,-0.06019020453095436,0.06857705116271973,0.03669166564941406,-0.3228636682033539,-0.9457339644432068,0.20992088317871094,-0.11292734742164612,0.005258500576019287,0.07964898189432415,-0.0053226770672268955,0.16463497559741042,0.9831190502202849,0.3287536425225859,0.03877757843222507,2.9734795881572516
1782985497021837312,2.2669053077697754,-0.4443912208080292,-0.3081667423248291,0.24757467210292816,0.034527488052845,-0.3187803030014038,-0.9471995234489441,0.2547944188117981,-0.1369844377040863,-0.03963208198547363,0.07915631899269905,-0.004480995471145091,0.16241968143205252,0.9835313676287047,0.32444237721485114,0.03643604688570289,2.9750116012498053
1782985497031757056,2.276825189590454,-0.5740722417831421,-0.20079076290130615,0.039444103837013245,0.032131388783454895,-0.31452885270118713,-0.948703944683075,0.1109807938337326,-0.032013505697250366,-0.08489590883255005,0.07846449281124233,-0.0035597751793295593,0.16011044695691962,0.9839691310846446,0.3199602653509641,0.03385577823497878,2.9769802885375465
1782985497041677312,2.286745309829712,-0.3827718198299408,-0.24010708928108215,0.22451822459697723,0.030279962345957756,-0.3096281886100769,-0.9503754377365112,0.0888301432132721,0.013531386852264404,-0.14461052417755127,0.07826778637376615,-0.002857894419839335,0.15749318957784228,0.9844093632191789,0.3148019698322005,0.0318502784899374,2.977856227889839
1782985497051597056,2.2966651916503906,-0.21019497513771057,-0.17923147976398468,0.08594010025262833,0.02822772040963173,-0.30735060572624207,-0.9511775970458984,0.11633405089378357,0.036201924085617065,-0.17872047424316406,0.07752922520082357,-0.002032812844090856,0.1562276299691701,0.9846715336913278,0.31240760716076565,0.029667895905312557,2.979771967385526
1782985497061517312,2.3065853118896484,-0.06773349642753601,-0.31339454650878906,0.10775800794363022,0.026920074597001076,-0.3062940537929535,-0.9515562057495117,0.12191415578126907,-0.006846785545349121,-0.183834969997406,0.07748933588655131,-0.0014222392654851105,0.15562731764878981,0.9847707925731047,0.31129752628546026,0.028283032631942595,2.980102481531827
1782985497071436288,2.3165042400360107,-0.006098095327615738,-0.37259796261787415,0.07900173217058182,0.02472407929599285,-0.30629390478134155,-0.9516158699989319,0.213801309466362,-0.026179850101470947,-0.14196628332138062,0.0771831854151974,-0.000362663663565026,0.15553757284842024,0.9848099497193525,0.31129737751229863,0.025975312436625923,2.9810888166963476
1782985497081356288,2.3264243602752686,0.024091698229312897,-0.290811687707901,-0.053469523787498474,0.023633528500795364,-0.30662140250205994,-0.9515380859375,0.19114919006824493,-0.052219510078430176,-0.11135858297348022,0.07761488208842676,0.00026907860049289387,0.15566269193558044,0.9847562779495812,0.31164141065337614,0.02483208097587886,2.9803839938358023
1782985497091276288,2.3363442420959473,-0.18102310597896576,-0.3562775254249573,0.19064274430274963,0.021270329132676125,-0.30649125576019287,-0.9516357779502869,0.20468181371688843,-0.10491621494293213,-0.057366907596588135,0.07764197681405935,0.0014603211350303594,0.1554991072568038,0.9847789714278247,0.3115046993314622,0.02234761266654891,2.980724841404958
1782985497101196288,2.346264362335205,-0.21307237446308136,-0.31121695041656494,-0.01192993763834238,0.01886027120053768,-0.3044312000274658,-0.9523475766181946,0.11929280310869217,-0.07601618766784668,-0.02703779935836792,0.07749389693131824,0.0025685665497750974,0.15433602275294914,0.984971301516607,0.309341231425715,0.01980138990234659,2.981476068238456
1782985497111116288,2.356184244155884,-0.4765780568122864,-0.33083832263946533,0.18912088871002197,0.015816137194633484,-0.3012261688709259,-0.9534215331077576,0.19007070362567902,-0.1137060821056366,-0.01673227548599243,0.07740345025631307,0.003958736421121561,0.15255673558498947,0.9852509127935902,0.30597828516909403,0.016587298254764543,2.982232639087763
1782985497121036288,2.3661043643951416,-0.46394267678260803,-0.28709810972213745,0.222647026181221,0.012676515616476536,-0.29694217443466187,-0.9548113346099854,0.15494129061698914,-0.15314632654190063,-0.07009100914001465,0.07667885720020087,0.005255979097115492,0.15022221397350818,0.9856602729922199,0.3014887981396543,0.013275681573059092,2.9843000418113426
1782985497130956288,2.3760242462158203,-0.5527090430259705,-0.2595005929470062,0.040943264961242676,0.010148506611585617,-0.29198914766311646,-0.9563677906990051,0.21554423868656158,-0.08572691679000854,-0.07137268781661987,0.07621316146973542,0.006259592109617444,0.14757005965895073,0.9860910233240188,0.2963059618080395,0.01061111175263188,2.9857393422035905
1782985497140876288,2.385944366455078,-0.29224303364753723,-0.364856094121933,0.28122326731681824,0.006728505715727806,-0.28779569268226624,-0.9576681852340698,0.25854554772377014,-0.08784514665603638,-0.1254311203956604,0.07572653520573257,0.007742057247779457,0.1452789095879824,0.9864581592624035,0.291924348636792,0.007025810341370827,2.9873281686727817
1782985497150796288,2.395864248275757,-0.3305123746395111,-0.4094885289669037,0.15254518389701843,0.003106613177806139,-0.2851940989494324,-0.9584647417068481,0.20171211659908295,-0.11325865983963013,-0.052124857902526855,0.07493686292440833,0.009347214908218132,0.14380630089556423,0.9867202752619142,0.2892089193629533,0.003241227480693179,2.98952089210167
1782985497160716288,2.4057843685150146,-0.3114297688007355,-0.40915152430534363,0.17174112796783447,-0.0009675733745098114,-0.28226032853126526,-0.9593373537063599,0.2044435292482376,-0.17562541365623474,-0.04611003398895264,0.07448000777514749,0.011216914740771206,0.14214604191281696,0.9869759430653435,0.28614941970050456,-0.0010085847798467485,2.991097799014554
1782985497170635264,2.415703296661377,-0.34598854184150696,-0.36438751220703125,0.23255334794521332,-0.00524239894002676,-0.2789857089519501,-0.9602809548377991,0.16129404306411743,-0.16425159573554993,-0.030395925045013428,0.07382473595745323,0.01314692999717596,0.14030924497228228,0.9872641248706705,0.2827377146417892,-0.0054591801321029225,2.9930932498502973
1782985497180555008,2.4256231784820557,-0.49304723739624023,-0.4421202540397644,0.18397261202335358,-0.009632611647248268,-0.2750356197357178,-0.9613857865333557,0.17265751957893372,-0.05081582069396973,0.003194868564605713,0.07313210992055462,0.015105164364140429,0.1381265406956293,0.9875954221460066,0.2786267547810019,-0.010019171765178253,2.995166052821881
1782985497190475264,2.4355432987213135,-0.21913579106330872,-0.39551520347595215,0.1974191814661026,-0.013589436188340187,-0.27194875478744507,-0.962215781211853,0.16729122400283813,-0.07412058115005493,-0.06367838382720947,0.072471665369711,0.016885481792154548,0.13640744456278667,0.9878541217353555,0.2754175258411901,-0.014122126347400918,2.997086758794928
1782985497200395008,2.445463180541992,-0.2688928544521332,-0.31937700510025024,0.3325384557247162,-0.017570048570632935,-0.26919904351234436,-0.9629243016242981,0.18292954564094543,-0.00617632269859314,-0.034344375133514404,0.07140958017814696,0.018637776232312334,0.13487213909407722,0.9881107603750259,0.2725612895191244,-0.018244528360268013,2.9998078558583656
1782985497210315264,2.45538330078125,-0.08224625885486603,-0.3796725571155548,0.27190014719963074,-0.021730497479438782,-0.26773789525032043,-0.9632467031478882,0.11450393497943878,-0.023766010999679565,-0.06920874118804932,0.07014230480106544,0.02050462283390615,0.1340007756441319,0.9882831014467978,0.2710444352369345,-0.022555813086370887,3.0029582877521177
1782985497220235008,2.4653031826019287,-0.06688188016414642,-0.2659687399864197,0.3369164764881134,-0.025268295779824257,-0.2667016386985779,-0.9634478688240051,0.1237943023443222,-0.005744040012359619,0.00034362077713012695,0.0690281316583851,0.022096542229181976,0.1333709822409771,0.9884124404019478,0.26996908555976307,-0.026220935404250356,3.0057056061962815
1782985497230155264,2.4752233028411865,0.004713739268481731,-0.3141607642173767,0.31068167090415955,-0.028618695214390755,-0.2665056884288788,-0.963408350944519,0.1246422529220581,-0.053196460008621216,-0.004624485969543457,0.06758131919285176,0.023581674340739753,0.1331905473434068,0.9885023451821771,0.2697657832955079,-0.02969694109010295,3.0091006899446118
1782985497240075008,2.4851431846618652,-0.13224497437477112,-0.2712160050868988,0.36582091450691223,-0.032115139067173004,-0.2655431032180786,-0.9635639190673828,0.1871139258146286,-0.0690058171749115,0.017503798007965088,0.06614988242562721,0.0251155097963952,0.13261688400459806,0.9886385563271383,0.2687672082915698,-0.033317203672444576,3.012476512687533
1782985497249995264,2.495063304901123,-0.1988391876220703,-0.35343682765960693,0.2792614996433258,-0.035702768713235855,-0.26427820324897766,-0.9637854099273682,0.17303186655044556,-0.11746615171432495,-0.01541680097579956,0.06482895133931382,0.026701051848377424,0.1318876086002482,0.9887820148380232,0.2674554297978569,-0.03702738188740001,3.0156330298828173
1782985497259915008,2.5049831867218018,-0.3783729672431946,-0.39056798815727234,0.2823185622692108,-0.039731431752443314,-0.2608698904514313,-0.9645560383796692,0.18279783427715302,-0.07436570525169373,0.0018332600593566895,0.06379013764464926,0.028473137578665906,0.13004334576354026,0.9890444317405032,0.263923199846231,-0.04116814516471247,3.018242735151518
1782985497269834240,2.514902353286743,-0.3998764157295227,-0.41074755787849426,0.36919593811035156,-0.044237587600946426,-0.2573625445365906,-0.9653018116950989,0.16137930750846863,-0.06591016054153442,-0.03892487287521362,0.06254677437986032,0.030459436589231993,0.12814571242752462,0.9893123076229133,0.2602918066485144,-0.04579568705464498,3.0213108033456315
1782985497279754240,2.524822235107422,-0.3672983646392822,-0.3442707061767578,0.2633492052555084,-0.048559051007032394,-0.2532303035259247,-0.9661865234375,0.10596261918544769,0.00420689582824707,-0.060516297817230225,0.06123432741893438,0.03232719537191203,0.12594317137660477,0.9896179062799169,0.2560179423949672,-0.050216212437739056,3.0244615579181233
1782985497289674240,2.5347423553466797,-0.3070712387561798,-0.36545562744140625,0.3513272702693939,-0.052453070878982544,-0.2502058148384094,-0.9667707681655884,0.15465644001960754,-0.06697863340377808,-0.06669175624847412,0.059918153821699925,0.03402142141584139,0.12432681445102249,0.9898460415615535,0.25289282250229833,-0.05420281168550416,3.027566769261485
1782985497299594240,2.5446622371673584,-0.21558594703674316,-0.36444973945617676,0.3702242970466614,-0.056841347366571426,-0.2475934773683548,-0.9671952128410339,0.20146414637565613,-0.0638994425535202,-0.07459861040115356,0.058442417972861975,0.03596249411049593,0.12291909339112002,0.9900415074360024,0.25019560563679144,-0.058701740313920406,3.03105306147864
1782985497309514240,2.554582357406616,-0.22568997740745544,-0.3999406099319458,0.33886903524398804,-0.06123899668455124,-0.24508480727672577,-0.9675655961036682,0.19159483909606934,0.020734846591949463,-0.05961024761199951,0.0568987813100213,0.03790745601924457,0.12157391210971978,0.990224894223053,0.2476071639490217,-0.06320751970610755,3.0346660790136446
1782985497319434240,2.564502239227295,0.04939598962664604,-0.46977499127388,0.30027228593826294,-0.06584733724594116,-0.2440275251865387,-0.9675301909446716,0.16094011068344116,-0.0016084611415863037,-0.11778169870376587,0.05559527414129193,0.040037371698901425,0.1209624246542203,0.990289955389198,0.24651677529698876,-0.06795235324717416,3.0378511492062588
1782985497329354240,2.5744223594665527,-0.07852309197187424,-0.37162259221076965,0.2986656129360199,-0.07039853930473328,-0.243833988904953,-0.9672585129737854,0.14624997973442078,0.027037113904953003,-0.0545768141746521,0.0543752435961534,0.042177189353185866,0.12079662991565432,0.9902891909076048,0.2463172049634459,-0.07265340706980145,3.0408832339105762
1782985497339274240,2.5843422412872314,-0.05347353592514992,-0.35220763087272644,0.3665338158607483,-0.07450329512357712,-0.24300900101661682,-0.9671586751937866,0.15886914730072021,-0.03116092085838318,-0.02118360996246338,0.05293008940217105,0.04404639832172732,0.12033529247177364,0.9903422034525584,0.24546663356349582,-0.07688133679492126,3.0442899000271946
1782985497349194240,2.5942623615264893,-0.18438094854354858,-0.38646069169044495,0.35967350006103516,-0.07895529270172119,-0.2417493760585785,-0.9671211242675781,0.1701723337173462,-0.05703297257423401,-0.009593963623046875,0.051415182794624675,0.046071339279903555,0.11965309033150805,0.9904125336656736,0.24416829546174681,-0.08145885254403684,3.0478599605000456
1782985497359114240,2.604182243347168,-0.25602132081985474,-0.4699490964412689,0.29707950353622437,-0.08358342945575714,-0.23919078707695007,-0.9673683643341064,0.18200261890888214,-0.11514881253242493,-0.044655561447143555,0.04992001399084043,0.048152695590519254,0.11830946182206731,0.9905514591538764,0.24153236033825848,-0.08618883782883714,3.051351465502274
1782985497369033216,2.6141011714935303,-0.4008219242095947,-0.5193411707878113,0.3664862811565399,-0.08911757916212082,-0.2360137552022934,-0.9676547050476074,0.21956497430801392,-0.1355987936258316,-0.04911470413208008,0.04876854404114817,0.05071882740765783,0.116620165021158,0.9906811343891792,0.23826166927551815,-0.09183740692353806,3.0542178453401285
1782985497378953216,2.624021291732788,-0.5774618983268738,-0.5183481574058533,0.29957956075668335,-0.09466920793056488,-0.2308158129453659,-0.9683810472488403,0.16139589250087738,-0.1432076245546341,-0.08330047130584717,0.047513222785784084,0.05323000016448652,0.11391249387684727,0.9909253283879432,0.2329160483567426,-0.09745063154353181,3.057178767568773
1782985497388873216,2.633941173553467,-0.6504674553871155,-0.6065810918807983,0.34322741627693176,-0.10075663030147552,-0.2248537838459015,-0.9691691994667053,0.17880535125732422,-0.16819734871387482,-0.13364452123641968,0.0464607406484552,0.05602069481427454,0.11080205941397148,0.9911740834328802,0.2267929763000713,-0.10358972850085316,3.059720073643148
1782985497398793216,2.6438612937927246,-0.7202970385551453,-0.6010779738426208,0.24372564256191254,-0.10714904218912125,-0.21787743270397186,-0.9700765609741211,0.16313353180885315,-0.06891150772571564,-0.1607828140258789,0.04550694299479873,0.05895584982947864,0.1071724433227142,0.9914471658330677,0.21963912447113385,-0.11000828527383384,3.061999978599505
1782985497408713216,2.6537811756134033,-0.7171478271484375,-0.6199414134025574,0.23831649124622345,-0.11349069327116013,-0.2107502967119217,-0.9709295630455017,0.15266001224517822,0.021526053547859192,-0.1959252953529358,0.04494905233873043,0.0619100486332154,0.10345228270646933,0.9916876321844371,0.21234242979104737,-0.11636067608128263,3.0634176584111477
1782985497418633216,2.663701295852661,-0.5424390435218811,-0.5772346258163452,0.21824911236763,-0.11968806385993958,-0.20428094267845154,-0.9715678691864014,0.14109614491462708,0.04859551787376404,-0.18889355659484863,0.04421849586170886,0.06479581413478168,0.10008786464041985,0.9918814587112897,0.20572910218353005,-0.1225730750781442,3.065159591481519
1782985497428553216,2.67362117767334,-0.3251306712627411,-0.5815614461898804,0.2882170081138611,-0.12572859227657318,-0.19990888237953186,-0.9717143177986145,0.14852523803710938,0.042407676577568054,-0.18648874759674072,0.043505467750185815,0.06766374745073682,0.09779798811245735,0.9919498025069685,0.2012649185815571,-0.12867354513075568,3.0669421510073094
1782985497438473216,2.6835412979125977,-0.3518533706665039,-0.6110520362854004,0.28323104977607727,-0.13177461922168732,-0.19611796736717224,-0.9716857671737671,0.16194124519824982,0.04945048689842224,-0.1292816400527954,0.04244291779336351,0.07051973588695566,0.0958336845221739,0.9919885844374255,0.1973974298331183,-0.13479212665078236,3.069440647883627
1782985497448393216,2.6934611797332764,-0.15052132308483124,-0.5775502920150757,0.23618069291114807,-0.13762420415878296,-0.1933920681476593,-0.9714211821556091,0.17494720220565796,-0.005002692341804504,-0.17559725046157837,0.04149998180592194,0.0733195641481673,0.09441217886908698,0.991961819108578,0.1946183199665892,-0.14073646172924567,3.071729718020642
1782985497458312192,2.7033803462982178,-0.2569584846496582,-0.6016393899917603,0.3243940770626068,-0.14386574923992157,-0.19129861891269684,-0.9709312319755554,0.22650735080242157,-0.06414876878261566,-0.14505082368850708,0.04049124821960548,0.07633116964352035,0.09331628369341356,0.9918800778677848,0.19248502473656953,-0.14710262467892835,3.0742193364444117
1782985497468232192,2.7133002281188965,-0.38756683468818665,-0.6642958521842957,0.3079991042613983,-0.150555819272995,-0.1876969039440155,-0.970619797706604,0.1860782951116562,-0.161439448595047,-0.13237696886062622,0.03935645950646201,0.07952596584039426,0.09146426676621013,0.9918473340097572,0.1888168443564432,-0.15388671074323834,3.076874440518266
1782985497478152192,2.7232203483581543,-0.6835726499557495,-0.6399340033531189,0.27662524580955505,-0.1572224199771881,-0.18253527581691742,-0.9705472588539124,0.1632191240787506,-0.20947827398777008,-0.08984702825546265,0.03828513001503953,0.08268399204852794,0.08882412464851196,0.9918709737822929,0.18356443622167948,-0.1605984647299928,3.07924635465053
1782985497488072192,2.733140230178833,-0.8801083564758301,-0.7013118863105774,0.2834727466106415,-0.16405747830867767,-0.1743307262659073,-0.9709242582321167,0.15790820121765137,-0.1698465198278427,-0.08020788431167603,0.03754096301249674,0.08589301059756602,0.08461827259916742,0.9919944158849545,0.17522603973347214,-0.16738931424932008,3.080678190613946
1782985497497992192,2.743060350418091,-1.0485509634017944,-0.6498692035675049,0.27346789836883545,-0.17115916311740875,-0.16438260674476624,-0.9714334011077881,0.09634533524513245,-0.06913788616657257,-0.09849756956100464,0.036910159020121486,0.08921544347948535,0.07952288724748638,0.9921464225296095,0.1651320728037268,-0.1744023734821312,3.081691260177909
1782985497507912192,2.7529802322387695,-1.0692461729049683,-0.6724197864532471,0.17879943549633026,-0.17784489691257477,-0.15400430560112,-0.9719330668449402,0.09047307074069977,-0.006121426820755005,-0.11636954545974731,0.03652460323310843,0.09234493740799561,0.07420164740778448,0.9922864739388988,0.15461965868824246,-0.18097848938770864,3.082066335842059
1782985497517832192,2.7629003524780273,-0.8180686831474304,-0.6800364255905151,0.20419897139072418,-0.18463757634162903,-0.1443876177072525,-0.9721425771713257,0.12622693181037903,-0.021505936980247498,-0.17405188083648682,0.036267173006403634,0.09556175270460497,0.06925796673368752,0.9923486896177167,0.14489407380422759,-0.18769293537866405,3.082193115734869
1782985497527752192,2.772820234298706,-0.6367042064666748,-0.6580432057380676,0.07377330958843231,-0.19114552438259125,-0.1370936781167984,-0.9719406962394714,0.10778677463531494,-0.035147517919540405,-0.16483908891677856,0.036171522366003794,0.0987011701863757,0.06548078444218028,0.9923013539899411,0.13752679710081292,-0.19418560751873157,3.0821365411991137
1782985497537672192,2.782740354537964,-0.5773614645004272,-0.7516068816184998,0.1819501519203186,-0.19834408164024353,-0.13126307725906372,-0.9713030457496643,0.18123899400234222,-0.07900302112102509,-0.15134704113006592,0.03605280808143432,0.10222603684133101,0.062436441940258346,0.9921449753350939,0.13164297232476377,-0.20143468907403217,3.0822709174740734
1782985497547592192,2.7926602363586426,-0.7614367604255676,-0.6832150220870972,0.057453230023384094,-0.205083966255188,-0.12467089295387268,-0.9707717299461365,0.1298733949661255,-0.10593518614768982,-0.08592993021011353,0.0360792492870619,0.10551370068992826,0.05899999345108557,0.992010113353737,0.12499612700062442,-0.20819741843544579,3.0819610024068282
1782985497557511168,2.802579164505005,-0.772508978843689,-0.7271347045898438,0.08233414590358734,-0.21167775988578796,-0.11727037280797958,-0.9702783823013306,0.18221303820610046,-0.13163098692893982,-0.09873712062835693,0.03627042543798049,0.1087217585138105,0.05513959855956745,0.991878878750544,0.11754084279154242,-0.21479636508306132,3.081177313146126
1782985497567431168,2.8124992847442627,-0.7835224866867065,-0.7714448571205139,0.15502911806106567,-0.21898801624774933,-0.10939431935548782,-0.9695757627487183,0.18311460316181183,-0.08806966990232468,-0.08752262592315674,0.03622908607565331,0.11227513754731192,0.0510531097668089,0.9917032271669669,0.1096136912021184,-0.22213249780488,3.0807975513612846
1782985497577351168,2.8224191665649414,-0.7702330946922302,-0.7444754242897034,0.08661900460720062,-0.22627319395542145,-0.1015327200293541,-0.9687577486038208,0.09045471251010895,-0.033232904970645905,-0.0813368558883667,0.036335612115745895,0.11582815467935871,0.04695713218664773,0.9914930823947307,0.10170797984654359,-0.229456811065094,3.0800609427377066
1782985497587271168,2.832339286804199,-0.6852399110794067,-0.7593268156051636,0.04821595549583435,-0.23323562741279602,-0.09435298293828964,-0.9678319096565247,0.10962419211864471,0.006294518709182739,-0.11166632175445557,0.03667627414934516,0.11924527127459333,0.043180977405327975,0.9912471347294701,0.09449354462383414,-0.23647871696049758,3.0788595931395695
1782985497597191168,2.842259168624878,-0.4997781813144684,-0.7622179388999939,0.10488269478082657,-0.24058350920677185,-0.08854608982801437,-0.9665811657905579,0.12095460295677185,0.006575867533683777,-0.13183802366256714,0.03679374889820807,0.12288263371227719,0.04011568840967463,0.9909273198331071,0.08866220515487286,-0.2439445129810983,3.078240810033227
1782985497607111168,2.8521792888641357,-0.3995583653450012,-0.7128967642784119,0.013427616097033024,-0.24750328063964844,-0.08438756316900253,-0.9652050733566284,0.10631370544433594,-0.012597300112247467,-0.11600220203399658,0.03695822643682311,0.12634259402648865,0.0378814597982449,0.9905738629015373,0.08448804430105722,-0.25101706992944045,3.0776736646321177
1782985497617031168,2.8620991706848145,-0.30645260214805603,-0.7502037286758423,0.18393734097480774,-0.2545723021030426,-0.08076038211584091,-0.9636756181716919,0.1852211058139801,-0.03686961531639099,-0.1074303388595581,0.036881077348445826,0.12988584195852662,0.03594243582324651,0.9901906168755109,0.08084843340149482,-0.25826819447375254,3.0776385208017905
1782985497626951168,2.8720192909240723,-0.3237684667110443,-0.6718687415122986,0.18105792999267578,-0.2614746391773224,-0.07739803194999695,-0.9621021747589111,0.1422119438648224,-0.06302860379219055,-0.06530261039733887,0.036312560515807404,0.1333375349732567,0.034205594307068786,0.9898143904128042,0.07747551754115271,-0.2653648330074363,3.0785985546238144
1782985497636871168,2.881939172744751,-0.3984363079071045,-0.5928815603256226,0.002467276994138956,-0.2673565447330475,-0.07381405681371689,-0.9607663154602051,0.17095154523849487,-0.07741579413414001,-0.041507184505462646,0.036161333315533686,0.1362802989097918,0.03231886892424098,0.9894824252386428,0.07388125462317223,-0.27140770097997574,3.0786262315981623
1782985497646791168,2.891859292984009,-0.4297548234462738,-0.6480190753936768,0.10105723142623901,-0.273569256067276,-0.0698089525103569,-0.9593156576156616,0.2332403063774109,-0.1072235107421875,0.028178632259368896,0.03626520931071362,0.13939677376654638,0.030177798873429994,0.9891120341735764,0.06986577900181733,-0.277797528353065,3.0780677230327926
1782985497656710144,2.901778221130371,-0.5727106928825378,-0.5770448446273804,-0.02338685654103756,-0.27932900190353394,-0.06488331407308578,-0.9580007791519165,0.11241310834884644,-0.07764903455972672,0.1014639139175415,0.03652007527621385,0.14226845801008023,0.02755544100410145,0.988770320267757,0.0649289252821417,-0.2837095601376513,3.077032489306052
1782985497666630144,2.911698341369629,-0.6344811320304871,-0.5032705068588257,0.0482574999332428,-0.2844613790512085,-0.059172697365283966,-0.9568595886230469,0.10649815201759338,-0.07649319618940353,0.12746816873550415,0.036993082954015634,0.14480795821406972,0.02451222446840367,0.9884641464165633,0.059207281506269506,-0.2889654309377056,3.075394871222091
1782985497676550144,2.9216182231903076,-0.8308806419372559,-0.36187493801116943,-0.12268584966659546,-0.28827008605003357,-0.05241210386157036,-0.9561136364936829,0.08133041858673096,-0.05189697444438934,0.20371806621551514,0.037743905607095826,0.14664807054195225,0.02091681543203155,0.9882470480971126,0.05243613004708667,-0.29283411013057464,3.0729788106300213
1782985497686470144,2.9315383434295654,-0.8522652983665466,-0.31005996465682983,-0.04742544889450073,-0.29136303067207336,-0.04475748911499977,-0.9555649161338806,0.14426833391189575,-0.06989704072475433,0.2043747901916504,0.038806315608900535,0.14810201186058555,0.016832310563609176,0.9880670334406586,0.04477244592365325,-0.29595692552114444,3.0697582702647725
1782985497696390144,2.941458225250244,-0.9096338748931885,-0.23031795024871826,0.014765056781470776,-0.29384881258010864,-0.03618929907679558,-0.9551665782928467,0.15059930086135864,-0.06280973553657532,0.2566802501678467,0.03961755301008872,0.14921335896842094,0.012331977060222566,0.9879341125354472,0.03619720191337764,-0.298452446838817,3.0668753919357608
1782985497706310912,2.9513790607452393,-1.021135687828064,-0.09567199647426605,-0.15026730298995972,-0.2951873540878296,-0.02753785438835621,-0.9550424814224243,0.1501525640487671,-0.01979491114616394,0.3026834726333618,0.04058874181509978,0.14972690743804531,0.007786199801710148,0.9878632777255176,0.027541336959667595,-0.29976882718241665,3.0636235040027535
1782985497716230912,2.961298942565918,-0.9039579629898071,-0.08021942526102066,-0.0020138246472924948,-0.2960868179798126,-0.018754899501800537,-0.9549768567085266,0.19678261876106262,0.0027636848390102386,0.2987269163131714,0.04162815313311998,0.15000499096041478,0.003171702712229955,0.9878034104776571,0.01875599864944615,-0.3006476894676177,3.060199197817054
1782985497726150912,2.971219062805176,-0.8443033695220947,0.06848296523094177,-0.12070319056510925,-0.2959906756877899,-0.010437221266329288,-0.9551337957382202,0.12519904971122742,0.03364584222435951,0.3435767889022827,0.04265811499543712,0.14977214510762932,-0.001184842680325072,0.9877991336673496,0.010437411138696765,-0.3005093832651152,3.0568564552129347
1782985497736070912,2.9811389446258545,-0.8510575294494629,0.1540348082780838,-0.10410400480031967,-0.2947341799736023,-0.003133928868919611,-0.9555741548538208,0.1068984866142273,0.017980732023715973,0.3496476411819458,0.04385810336472721,0.1489552256241827,-0.005026966230180403,0.9878580768355879,0.003133934109365337,-0.29917885639107705,3.0533289209100722
1782985497745990912,2.9910590648651123,-0.8322928547859192,0.3909751772880554,-0.22084073722362518,-0.2922247350215912,0.004795709624886513,-0.9563376307487488,0.08447635173797607,0.028300603851675987,0.37686991691589355,0.04521477256559981,0.1474685663743877,-0.00917581352043529,0.9879900636585502,-0.004795728172772891,-0.2965557919802772,3.049411304425798
1782985497755909888,3.0009779930114746,-0.5696384906768799,0.5874052047729492,-0.16523467004299164,-0.287396103143692,0.010775559581816196,-0.9577512145042419,0.10920396447181702,0.03349018841981888,0.36958593130111694,0.04669290821525472,0.14482146685661465,-0.012294013512895947,0.9882789737723162,-0.010775767737798897,-0.29152456251313774,3.0455875556831953
1782985497765830144,3.0108981132507324,-0.38569846749305725,0.7942156195640564,-0.19992873072624207,-0.28090015053749084,0.01480006892234087,-0.959622859954834,0.12698477506637573,0.1506814956665039,0.43494945764541626,0.04789264357616979,0.1413617612168161,-0.014332248754205051,0.9886950157387112,-0.014800609284186262,-0.28476395946258287,3.0426660780411434
1782985497775749888,3.020817995071411,0.14898011088371277,0.9930188059806824,-0.252790242433548,-0.2721141576766968,0.015321808867156506,-0.9621430039405823,0.13734853267669678,0.22254745662212372,0.3731384873390198,0.04925480209231927,0.13680876637883752,-0.01455564568807316,0.9892651578942273,-0.015322408383854744,-0.2756226182400861,3.0399711490456576
1782985497785670144,3.030738115310669,0.6971198916435242,1.1012672185897827,-0.221995547413826,-0.26162290573120117,0.010355162434279919,-0.9651146531105042,0.15447568893432617,0.1873682141304016,0.3723716735839844,0.05018437684538028,0.1315337559939323,-0.011897865977893099,0.9899691967051558,-0.010355347563795693,-0.2647178261998684,3.0389149546424945
1782985497795589888,3.0406579971313477,0.9576278328895569,1.2562878131866455,-0.197529137134552,-0.24948102235794067,0.0015629398403689265,-0.9683784246444702,0.15000897645950317,0.1170436292886734,0.4233649969100952,0.05077059750429573,0.12553340479078917,-0.007221580758514689,0.9907631201430074,-0.001562940469708099,-0.25214461030171237,3.0389962643346626
1782985497805510144,3.0505781173706055,1.1277979612350464,1.2515958547592163,-0.13136795163154602,-0.23519696295261383,-0.009485640563070774,-0.9719014167785645,0.17329207062721252,0.052912160754203796,0.46442466974258423,0.05102216159177097,0.1185223654686813,-0.0013154457551432708,0.9916387263180246,0.009485782914629502,-0.23743210484903063,3.0399100139515145
1782985497815429888,3.060497999191284,1.2978525161743164,1.2194935083389282,-0.05727627873420715,-0.22298955917358398,-0.021429918706417084,-0.974585235118866,0.12719488143920898,0.020102402195334435,0.5418917536735535,0.05074300775437499,0.11261429156670233,0.005039225142565161,0.9923294808123017,0.021431559669466,-0.22493271500718695,3.0418318075367328
1782985497825349888,3.070417881011963,1.198867678642273,1.318145751953125,0.0037386035546660423,-0.21018686890602112,-0.03390749543905258,-0.977073073387146,0.05260935425758362,-0.04105893149971962,0.6188424825668335,0.05017493217575758,0.10642687015994033,0.011695834999021756,0.9929848674457521,0.03391399702497637,-0.21188979053479398,3.0442265804039086
1782985497835269888,3.0803380012512207,0.8317129611968994,1.500847578048706,-0.08225453644990921,-0.19656097888946533,-0.043959375470876694,-0.9795056581497192,0.014020085334777832,-0.140916109085083,0.7054883241653442,0.049665456734663584,0.09976769696878626,0.01713394572528837,0.9936227810493838,0.04397354444810258,-0.19804322090261042,3.0460766702620865
1782985497845189888,3.0902578830718994,0.5421836376190186,1.639880657196045,-0.17551444470882416,-0.18093587458133698,-0.0508725568652153,-0.982178270816803,0.07330037653446198,-0.2183230072259903,0.6908116936683655,0.049896504017825735,0.09204009896679122,0.020963639340314616,0.9942834756728459,0.050894527478912814,-0.1821764780715354,3.0459597879361473
1782985497855108864,3.100177049636841,0.2355542778968811,1.6750463247299194,-0.2509329915046692,-0.16446107625961304,-0.055076103657484055,-0.9848447442054749,0.14337344467639923,-0.17914630472660065,0.6302915811538696,0.05060177105498952,0.08384144135800385,0.023414519703509454,0.9949179748996507,0.05510398640448826,-0.1654650905578611,3.0445302050907466
1782985497865028864,3.1100969314575195,-0.11302341520786285,1.6033769845962524,-0.29475292563438416,-0.14815653860569,-0.05611239746212959,-0.9873707890510559,0.16817606985569,-0.09359157830476761,0.5934041142463684,0.05173461915785983,0.0756738277619828,0.02425050919979027,0.9954942484515368,0.056141885906869644,-0.1489403871760826,3.041938244075854
1782985497874948864,3.1200170516967773,-0.2740413248538971,1.6757844686508179,-0.2767784297466278,-0.13187745213508606,-0.054509442299604416,-0.9897661805152893,0.13381531834602356,-0.08562727272510529,0.5083666443824768,0.05299178480807582,0.0674664155335043,0.023773947458033046,0.9960296280771964,0.054536473591511446,-0.13246082677489837,3.038905001537323
1782985497884868864,3.129936933517456,-0.33886584639549255,1.7211484909057617,-0.22816136479377747,-0.1149415373802185,-0.05156254768371582,-0.9920331239700317,0.1436280608177185,-0.03686213120818138,0.44520390033721924,0.05420776626697162,0.05890370470096147,0.022666821154808593,0.9965330433114529,0.051585424622272835,-0.11535027570284094,3.0358862160946964
1782985497894788864,3.139857053756714,-0.2144056260585785,1.727670669555664,-0.08530951291322708,-0.09765046834945679,-0.04906811937689781,-0.9940103888511658,0.1696414351463318,-0.04027208685874939,0.36095380783081055,0.054845624592977885,0.05017431979540534,0.021847892177950527,0.9969940010643012,0.04908783011087346,-0.09792466627241204,3.034087306654957
1782985497904708864,3.1497769355773926,-0.12794983386993408,1.7908018827438354,-0.07899515330791473,-0.08033066987991333,-0.047358352690935135,-0.9956426024436951,0.13662034273147583,0.010447338223457336,0.34409230947494507,0.05505918379312046,0.04145463340656922,0.021452676466995904,0.9973915241815517,0.04737607246705494,-0.08050784200874254,3.0332067066546347
1782985497914628864,3.1596970558166504,0.004933250602334738,1.7620110511779785,-0.11259792745113373,-0.06264176964759827,-0.046761974692344666,-0.9969399571418762,0.15150895714759827,0.060616958886384964,0.316306471824646,0.055361496345641574,0.03259311802204639,0.02162632490813181,0.9976999329330704,0.046779032443095586,-0.06275154853507425,3.032196579956698
1782985497924548864,3.169616937637329,0.3156362771987915,1.739388346672058,-0.1301252543926239,-0.04531218111515045,-0.0484578013420105,-0.997796893119812,0.17176176607608795,0.1261860728263855,0.2440127730369568,0.05576775831731752,0.023985942190975863,0.022939615063743736,0.997892036743101,0.048476787352470366,-0.045381048536380746,3.03103805097418
1782985497934468864,3.179537057876587,0.5422857403755188,1.8001124858856201,-0.08301736414432526,-0.0277019701898098,-0.05259336158633232,-0.9982317090034485,0.1714092493057251,0.12394345551729202,0.1897295117378235,0.056046349510866095,0.01531044838243008,0.02548993806579624,0.9979853695038196,0.05261763630859831,-0.027743922415531128,3.0301216710972243
1782985497944388864,3.1894569396972656,0.7665435671806335,1.8456333875656128,0.002435751724988222,-0.009457840584218502,-0.059387385845184326,-0.9981902241706848,0.18433882296085358,-0.032745178788900375,0.10184317827224731,0.05585309960350829,0.006383656762243939,0.02939636076710732,0.9979856701500499,0.059422351671933875,-0.009474704465251197,3.03005920557718
1782985497954308096,3.199376106262207,0.7897918820381165,1.8069713115692139,-0.24919851124286652,0.008510367013514042,-0.0669906884431839,-0.9977173209190369,0.16638587415218353,-0.0749465674161911,0.10899966955184937,0.05618379696950248,-0.002366835086180198,0.03370082187092777,0.9978487030787841,0.06704089495652407,0.008529631062048907,3.028815550987323
1782985497964227840,3.2092959880828857,0.7369065284729004,1.774526834487915,-0.036651361733675,0.026042476296424866,-0.07466927915811539,-0.9968682527542114,0.21161316335201263,-0.09444388002157211,0.06670773029327393,0.056442126608177184,-0.010900086944418219,0.03804034745370726,0.997621410164288,0.07473884308502092,0.026118350780954182,3.0275832259008726
1782985497974148096,3.2192161083221436,0.5720793604850769,1.7232178449630737,-0.29122379422187805,0.04345247149467468,-0.08083006739616394,-0.9957802891731262,0.15871122479438782,-0.03646424412727356,0.09226161241531372,0.057009865682369154,-0.019404816447486095,0.041633026186933826,0.997316414331505,0.08091834582807976,0.04360893893825647,3.025624776524951
1782985497984067840,3.2291359901428223,0.696769654750824,1.5164859294891357,-0.18049967288970947,0.05997275561094284,-0.0874323770403862,-0.99436354637146,0.25081825256347656,-0.0489201620221138,-0.03690171241760254,0.05803822490350152,-0.02743357808616259,0.045449191214237634,0.9969019145255624,0.08754415905546714,0.060239731551706435,3.022647466715181
1782985497993988096,3.23905611038208,0.5609601736068726,1.5392488241195679,-0.024997670203447342,0.07512643933296204,-0.09325622022151947,-0.9928037524223328,0.20844289660453796,0.05329345166683197,-0.027658283710479736,0.05819403064526222,-0.034843699750589804,0.0488266207116783,0.996501610411805,0.09339192401252104,0.07552704951970923,3.0213974614325716
1782985498003907840,3.248975992202759,0.7701951861381531,1.5546118021011353,-0.03980138152837753,0.09041929990053177,-0.0998777225613594,-0.9908828139305115,0.15320253372192383,-0.038672082126140594,-0.09207922220230103,0.058112170859872816,-0.04232077547966757,0.052607361755877914,0.9960243561089996,0.1000445288788711,0.09099923622686033,3.0204776242930116
1782985498013828096,3.2588961124420166,0.5123856663703918,1.135573148727417,0.04697595536708832,0.10363871604204178,-0.10644175112247467,-0.9889029860496521,0.17397969961166382,-0.022144049406051636,-0.050769805908203125,0.057947068050127566,-0.048774710503252904,0.05629849488054232,0.9955368922901603,0.10664378085312563,0.10442051185184245,3.0197319261684163
1782985498023747840,3.2688159942626953,0.11266224086284637,1.1154013872146606,0.018688924610614777,0.11447086185216904,-0.10919065773487091,-0.9874076247215271,0.08464108407497406,-0.05116395652294159,-0.1227913498878479,0.05766442416011455,-0.054152165732492964,0.05799766544552446,0.9951776921505848,0.10940880397058474,0.11541548279369389,3.019507352710164
1782985498033668096,3.278736114501953,0.007329096551984549,1.1156014204025269,0.124864861369133,0.12530888617038727,-0.11026336252689362,-0.9859714508056641,-0.05603398382663727,-0.2622189521789551,-0.25189781188964844,0.056851406203985,-0.05961648150278834,0.058823098206618046,0.9948636334737512,0.110488022631095,0.1264140858627196,3.020426941110722
1782985498043587840,3.288655996322632,-0.6673113703727722,1.0306156873703003,-0.04300243780016899,0.13584619760513306,-0.10697814077138901,-0.984937310218811,-0.13987451791763306,-0.11804322153329849,-0.11117780208587646,0.05625810217838993,-0.06503949617332692,0.0574561782843451,0.994637495520435,0.1071832480823196,0.13705897392695832,3.0212264890861817
1782985498053508096,3.2985761165618896,-0.9080337285995483,0.8057836890220642,-0.0730396956205368,0.14485140144824982,-0.09907680749893188,-0.9844805002212524,-0.07363861799240112,0.02523953467607498,-0.19004952907562256,0.05605359269979132,-0.06979461257852014,0.053744398585789714,0.9945342300182429,0.09923962398619253,0.14608667860256344,3.0217208474414328
1782985498063427072,3.308495044708252,-1.0755345821380615,0.7165004014968872,-0.11197910457849503,0.15245401859283447,-0.08921241015195847,-0.9842758178710938,-0.12706340849399567,0.20929908752441406,-0.2685622572898865,0.055852404882528156,-0.07389692654693782,0.049003332446396326,0.9944940912597101,0.08933117094315696,0.1536684201234517,3.0225055043015017
1782985498073346816,3.3184149265289307,-0.6001514792442322,0.8652855753898621,-0.1881106197834015,0.16017822921276093,-0.08028268814086914,-0.9838178753852844,-0.14910036325454712,0.23503732681274414,-0.4460068941116333,0.05621591216717202,-0.07801190722486662,0.04477948016337273,0.9943584244317007,0.08036917785943636,0.16139673025595716,3.0221399121359678
1782985498083267072,3.3283350467681885,-0.32770881056785583,0.8271560668945312,-0.06548164784908295,0.16837477684020996,-0.07610408216714859,-0.9827808141708374,-0.13611768186092377,0.1794823706150055,-0.5308147668838501,0.056220986655048724,-0.08225935120472518,0.04293014156411642,0.9940974368035536,0.07617773941317621,0.1696775083071578,3.0221219322421438
1782985498093186816,3.338254928588867,-0.49380916357040405,0.6824682950973511,-0.1488986760377884,0.17515233159065247,-0.07206447422504425,-0.9819003939628601,-0.14635899662971497,0.30123621225357056,-0.3885677456855774,0.05642818598946331,-0.08578189099592606,0.041125086296861124,0.9938642239266059,0.07212699243370113,0.17652426643669822,3.0217759192187756
1782985498103107072,3.348175048828125,-0.011693929322063923,0.6014477014541626,-0.2654401957988739,0.181832954287529,-0.06875774264335632,-0.9809225797653198,-0.16768807172775269,0.17738506197929382,-0.4526253342628479,0.057290629239706514,-0.089213170674196,0.039745557927375615,0.9935689004756055,0.06881203562160823,0.1832888450831571,3.0200708789719872
1782985498113026816,3.3580949306488037,0.1689976155757904,0.3334027826786041,-0.27445006370544434,0.18677492439746857,-0.0692630335688591,-0.9799580574035645,-0.08649414777755737,0.1307712197303772,-0.34108686447143555,0.058706742823177165,-0.09164171303898028,0.04028367918979959,0.9932434918688524,0.06931853134308742,0.1883359695950219,3.0169683015893676
1782985498122947072,3.3680150508880615,0.6174550652503967,0.4177916944026947,-0.058727603405714035,0.1903027892112732,-0.07335025817155838,-0.9789813756942749,-0.08132453262805939,0.041795097291469574,-0.3617320656776428,0.05921414854196825,-0.0932909749491721,0.04249814492147045,0.9929674818815157,0.07341619427743591,0.19199417469205882,3.015394072322858
1782985498132866816,3.3779349327087402,0.10919766873121262,0.3409503400325775,-0.21812564134597778,0.19555887579917908,-0.07611691951751709,-0.9777335524559021,-0.15335308015346527,0.14262999594211578,-0.23221206665039062,0.06014341294422588,-0.09583357874856184,0.044149035992198916,0.992597433375423,0.07619061577667953,0.19740751926677064,3.0130083157278387
1782985498142787072,3.387855052947998,0.38634300231933594,-0.08982635289430618,0.11974559724330902,0.1964750587940216,-0.07853752374649048,-0.9773584008216858,0.2554444968700409,-0.11758369207382202,-0.4384283423423767,0.06055551741067493,-0.09620980548955525,0.0454365785973352,0.9924778141596123,0.07861848668474058,0.19838251309971094,3.011886848726263
1782985498152706816,3.3977749347686768,0.04415608569979668,-0.07795942574739456,-0.05888126790523529,0.19612541794776917,-0.08120157569646835,-0.9772108793258667,0.28179508447647095,-0.19316670298576355,-0.3824692964553833,0.06028912340528745,-0.09596875377256348,0.046739223142670226,0.9924568338425421,0.08129108100347487,0.198067758794192,3.0121656551462603
1782985498162626048,3.407694101333618,-0.24601128697395325,-0.04142777994275093,0.019260404631495476,0.19577468931674957,-0.07968660444021225,-0.9774059057235718,0.3084062337875366,-0.21135953068733215,-0.4007831811904907,0.06047076116489757,-0.09582589326605993,0.045983073797556666,0.9924949358777131,0.07977118264592019,0.19768428676898261,3.0119723489551227
1782985498172545792,3.417613983154297,-0.11861298233270645,-0.40671852231025696,0.11373943835496902,0.19348140060901642,-0.07765871286392212,-0.9780256152153015,0.3952332139015198,-0.19934934377670288,-0.473741352558136,0.06008681999416065,-0.09473980692505643,0.04485053204960408,0.9926743254867069,0.07773698680537214,0.19530677146238573,3.0130603796762614
1782985498182466048,3.4275341033935547,-0.03720468282699585,-0.3269187808036804,0.013781417161226273,0.18988944590091705,-0.077689029276371,-0.9787269234657288,0.38960883021354675,-0.1526271253824234,-0.44453656673431396,0.05971012934233541,-0.09293723548606894,0.04471244319208496,0.9928736864851865,0.07776739071546511,0.19163589447685414,3.013981811545082
1782985498192385792,3.4374539852142334,-0.37456846237182617,-0.3955628275871277,0.05451280251145363,0.1868172138929367,-0.07533571869134903,-0.9795018434524536,0.4189109206199646,-0.07790829986333847,-0.3017481565475464,0.05970457557376013,-0.09144952984938884,0.043428811480754476,0.9930691676318288,0.0754071601553401,0.18846329242891616,3.0143644986517106
1782985498202306048,3.447374105453491,-0.26634639501571655,-0.589715301990509,0.08974109590053558,0.18231485784053802,-0.0724526196718216,-0.9805671572685242,0.4218263626098633,-0.1899832785129547,-0.32518845796585083,0.05918848190164451,-0.0892761479543665,0.041787557060229706,0.9933682212115692,0.07251616191379891,0.18382888138298586,3.0158791183677307
1782985498212225792,3.45729398727417,-0.3408067226409912,-0.7431902885437012,0.0218982994556427,0.17747998237609863,-0.06998392939567566,-0.9816328883171082,0.25535082817077637,-0.06075337529182434,-0.24460917711257935,0.05901363525962649,-0.08690933110850668,0.04037732477490802,0.9936467948464565,0.07004118113510835,0.17886847060394911,3.0166667360241517
1782985498222146048,3.4672141075134277,-0.09325070679187775,-0.6718559265136719,-0.13343828916549683,0.17215988039970398,-0.0682259276509285,-0.9827035069465637,0.10869339108467102,0.0325508788228035,-0.20891636610031128,0.05919381189811402,-0.084264778891316,0.039340683535271904,0.9939053949703337,0.06827896886605182,0.1734300718080588,3.0166816363156785
1782985498232065792,3.4771339893341064,-0.06992647796869278,-0.7713124752044678,-0.008840438909828663,0.16589850187301636,-0.06716837733983994,-0.9838526844978333,0.08867913484573364,0.10688700526952744,-0.09764450788497925,0.05964820164615063,-0.08111709958212743,0.03864810647699975,0.9941671800823212,0.06721898869805876,0.1670498566369202,3.016110344012585
1782985498241986048,3.4870541095733643,0.11943545937538147,-0.714663565158844,0.0683283880352974,0.15900224447250366,-0.06701190024614334,-0.9850013852119446,0.026697218418121338,0.09675128012895584,-0.07583540678024292,0.05979105250483054,-0.07763856646890223,0.038361042131690636,0.9944474768690373,0.06706215540939607,0.16004280151266506,3.01610756117022
1782985498251905792,3.496973991394043,0.27541759610176086,-0.7918028235435486,0.05558142811059952,0.15176217257976532,-0.06960751116275787,-0.985962986946106,0.09616263210773468,0.019161954522132874,-0.13494765758514404,0.059661026088231574,-0.07392107701673344,0.039423027317375764,0.9946969416649835,0.06966384817091695,0.15272419116860494,3.0164458028357686
