time,seconds_elapsed,rotationRateX,rotationRateY,rotationRateZ,gravityX,gravityY,gravityZ,accelerationX,accelerationY,accelerationZ,quaternionW,quaternionX,quaternionY,quaternionZ,pitch,roll,yaw
1784891144701512960,0.22019410133361816,-0.05274380370974541,0.03383259102702141,-0.03708088770508766,-0.185831218957901,0.6996826529502869,-0.6898630261421204,-0.03427684307098389,0.016458094120025635,0.015180468559265137,0.9168102868791316,-0.3723158175382437,-0.1282552403315376,0.06626126029926484,-0.77495321543348,-0.26312834121972134,0.036392610673173814
1784891144711431936,0.23011302947998047,-0.10811391472816467,0.062207240611314774,-0.0478183887898922,-0.18605943024158478,0.7007197141647339,-0.6887479424476624,-0.03774122893810272,0.008524060249328613,0.03208601474761963,0.9165333336237674,-0.3730424692263462,-0.12831731579930647,0.0658836019465155,-0.776405818263841,-0.26384374625250734,0.03509569809615423
1784891144721352192,0.24003314971923828,-0.17413368821144104,0.09873702377080917,-0.07808041572570801,-0.1866501271724701,0.7022804021835327,-0.686996340751648,-0.04076685011386871,0.0012718439102172852,0.05018603801727295,0.9160993902906448,-0.37414197329362436,-0.12852865235790048,0.0652692163483072,-0.7785957082527215,-0.2652864665610415,0.032890094125178744
1784891144731270912,0.24995207786560059,-0.2539199888706207,0.14312948286533356,-0.11629205197095871,-0.18768763542175293,0.704380214214325,-0.6845596432685852,-0.04040074348449707,0.009837925434112549,0.05164039134979248,0.9155068348014135,-0.3756513952584475,-0.12886503212153472,0.06424306426295516,-0.7815496039495505,-0.26759700936319086,0.02932598191645233
1784891144741190912,0.2598719596862793,-0.2769821584224701,0.16055214405059814,-0.11832483857870102,-0.18886950612068176,0.7069337964057922,-0.6815958619117737,-0.012119263410568237,-0.007791399955749512,0.028016090393066406,0.9147827161146189,-0.3774924927601844,-0.12923426508944133,0.06301190572909979,-0.785153575586202,-0.27031655022208684,0.02504854466308529
1784891144751110144,0.2697911262512207,-0.23931922018527985,0.14134660363197327,-0.11519096791744232,-0.18993854522705078,0.7092622518539429,-0.6788743734359741,0.0026216506958007812,-0.014865279197692871,0.004603743553161621,0.9141220097361474,-0.37919199960558136,-0.1295231253783137,0.061791035740772556,-0.788451109797269,-0.2728088848101982,0.020912136258572443
1784891144761029888,0.2797110080718994,-0.19699066877365112,0.0970153659582138,-0.039825111627578735,-0.19071105122566223,0.7111259698867798,-0.6767046451568604,0.03301146626472473,-0.027730584144592285,-0.013038396835327148,0.9135900431921097,-0.3805491167130141,-0.12973070539963028,0.06087296634713876,-0.7910984088677453,-0.27469854164258817,0.01776325759725436
1784891144770949120,0.2896301746368408,-0.18909065425395966,0.06837500631809235,0.021847710013389587,-0.1907947063446045,0.7127025127410889,-0.6750204563140869,0.0361010879278183,-0.06182354688644409,-0.014524221420288086,0.9131562199150852,-0.3816503652761647,-0.1297411916584244,0.06046535098077397,-0.7933433557556512,-0.2754645959397979,0.016248214606170437
1784891144780869120,0.29955005645751953,-0.1830255687236786,0.0698101818561554,0.08120743930339813,-0.1902434527873993,0.7140565514564514,-0.673743724822998,0.017864927649497986,-0.07170736789703369,-0.007500171661376953,0.9128113385577196,-0.382561303074118,-0.12951824272002305,0.06039291218944643,-0.7952755738529368,-0.2752028989417915,0.015937720558973287
1784891144790787840,0.30946898460388184,-0.17619723081588745,0.07278820872306824,0.1239762082695961,-0.18922929465770721,0.7151815295219421,-0.6728355884552002,0.022069260478019714,-0.04782313108444214,-0.007385969161987305,0.912550890095085,-0.3832880831058154,-0.12912187669577976,0.06056968125846299,-0.7968837580497375,-0.2741595841997484,0.01654595182533564
1784891144800708096,0.31938910484313965,-0.16368436813354492,0.10027150064706802,0.10245493799448013,-0.18783292174339294,0.7161770462989807,-0.6721675992012024,0.01789577305316925,-0.01871311664581299,0.0004604458808898926,0.9123519350167155,-0.38392284078802386,-0.12852804186777037,0.06081000021240287,-0.7983091993126372,-0.27249266290774743,0.01758252589781109
1784891144810627072,0.32930803298950195,-0.17875294387340546,0.1208152025938034,0.0656927227973938,-0.18647123873233795,0.7171348333358765,-0.671525239944458,0.008858934044837952,0.020597100257873535,-0.0005786418914794922,0.9121726005151218,-0.3845603873333825,-0.12786984126336312,0.060858444987257475,-0.7996824514618147,-0.2708589951808092,0.018194193111639247
1784891144820547072,0.33922815322875977,-0.15330031514167786,0.12392151355743408,0.03271880000829697,-0.18518298864364624,0.718136727809906,-0.6708105802536011,0.00869983434677124,0.035754263401031494,-0.028957486152648926,0.9119834440036465,-0.3852486848110414,-0.1271933511570506,0.06075746347303118,-0.8011211254342233,-0.2693500591353952,0.01841952410402544
1784891144830466048,0.34914708137512207,-0.0892115980386734,0.11321396380662918,-0.0035957987420260906,-0.1841428428888321,0.7188420295715332,-0.6703413724899292,0.013351216912269592,0.0352931022644043,-0.048179686069488525,0.9118697478402137,-0.38575558460310955,-0.1265777651443442,0.060533191859632615,-0.8021351207553833,-0.26808735720668747,0.018328268933530893
1784891144840385792,0.3590669631958008,-0.020822688937187195,0.07393500208854675,-0.011629491113126278,-0.18333880603313446,0.7190074324607849,-0.6703843474388123,0.020542770624160767,0.04609870910644531,-0.05250072479248047,0.9118956640354179,-0.3858996158571636,-0.1260527770520812,0.06032029935654177,-0.8023731450231038,-0.26695542301554503,0.018309165009273036
1784891144850305024,0.3689861297607422,-0.02185479737818241,0.05540712550282478,0.006069145165383816,-0.18263624608516693,0.7190093398094177,-0.6705740094184875,0.016971588134765625,0.020629942417144775,-0.04242342710494995,0.9119536288119862,-0.3859172101254353,-0.1256220662137834,0.060228922814480286,-0.8023758909891602,-0.2659083747955237,0.01855146428435322
1784891144860225024,0.3789060115814209,-0.06583636999130249,0.02626921609044075,0.020600417628884315,-0.18192239105701447,0.7191584706306458,-0.6706082224845886,0.014136731624603271,-0.03310805559158325,-0.03167754411697388,0.9119602372974227,-0.38601456837435466,-0.12525432096568517,0.0602717334398692,-0.8025904484852449,-0.2649041853414966,0.019042580269322897
1784891144870144256,0.3888251781463623,-0.15559715032577515,0.014602933079004288,0.03151671588420868,-0.18128718435764313,0.7196940779685974,-0.6702055335044861,0.00877128541469574,-0.05628764629364014,-0.015570223331451416,0.9118453506826416,-0.38636600615365085,-0.12497411038396403,0.0603403751816819,-0.8033615705970489,-0.2641730459965757,0.019403280591421494
1784891144880064000,0.398745059967041,-0.27107155323028564,0.03423868492245674,0.03736181929707527,-0.18055690824985504,0.7209084033966064,-0.6690967082977295,-0.005005255341529846,-0.06468892097473145,0.020216703414916992,0.9115395789548372,-0.38717756307829526,-0.12468029880866593,0.06036655321364779,-0.8051121709990456,-0.26357363100650877,0.019489809740030728
1784891144889982976,0.4086639881134033,-0.3211517632007599,0.04919708892703056,0.015089405700564384,-0.17989732325077057,0.7226383090019226,-0.6674060821533203,-0.023136138916015625,-0.06477087736129761,0.021638870239257812,0.9110834281629093,-0.3883545646667162,-0.1244093290343004,0.060250649267756716,-0.8076115853726521,-0.263289585893197,0.019035252336438463
1784891144899902976,0.41858410835266113,-0.26218029856681824,0.05536656826734543,0.013171662576496601,-0.17932145297527313,0.7243115901947021,-0.6657451391220093,-0.02159103751182556,-0.02150702476501465,0.012272238731384277,0.9106417897748412,-0.3895089668910833,-0.12413777807734191,0.060035393269132487,-0.8100354347774568,-0.2631100905455821,0.018327956460856904
1784891144909821952,0.42850303649902344,-0.16718682646751404,0.058242060244083405,-0.011627892963588238,-0.17892229557037354,0.725407600402832,-0.66465824842453,-0.0008567571640014648,0.0030164718627929688,0.03852909803390503,0.9103590366531158,-0.39027986903969697,-0.12390520588137632,0.05979575413455263,-0.8116264079446582,-0.2629608361686727,0.017661023206665728
1784891144919742208,0.43842315673828125,-0.07211810350418091,0.07452010363340378,-0.03519820049405098,-0.17864865064620972,0.7259461283683777,-0.6641437411308289,0.015196487307548523,0.021002113819122314,0.06613659858703613,0.9102377674551224,-0.39068470411952005,-0.1236672097953306,0.059491033812006225,-0.8124090773002594,-0.2627710981448438,0.016972344748838318
1784891144929660928,0.44834208488464355,0.026323717087507248,0.09119860082864761,-0.05689433962106705,-0.17840567231178284,0.7259026169776917,-0.6642565131187439,0.02656547725200653,0.03543466329574585,0.07055234909057617,0.9102943553296413,-0.3907101644054539,-0.12335842192660368,0.059096588236614,-0.8123458475031969,-0.26238736185874195,0.01627848032200858
1784891144939580928,0.45826196670532227,0.06882829964160919,0.13472025096416473,-0.03207980468869209,-0.17793744802474976,0.7255585193634033,-0.6647579073905945,0.08356188237667084,0.014004409313201904,0.09027975797653198,0.9104557089270778,-0.3905305043564626,-0.12291046965414743,0.05872989780374911,-0.8118456212718441,-0.26154126832807656,0.01590011071737643
1784891144949500160,0.46818113327026367,0.08566620200872421,0.2676678001880646,-0.012948953546583652,-0.17669115960597992,0.7250920534133911,-0.6655988693237305,0.14641769230365753,0.021764636039733887,0.1347150206565857,0.9107136760544066,-0.3902789209960108,-0.12199567090694419,0.058310981989306586,-0.8111680901469893,-0.25947730740383773,0.01595146138875388
1784891144959419904,0.4781010150909424,0.279326468706131,0.4611256718635559,0.15520569682121277,-0.173519566655159,0.7243784666061401,-0.667208194732666,0.2314419448375702,0.07003986835479736,0.12529230117797852,0.9111735526201923,-0.38985309146168057,-0.12004365086329212,0.058023942889444555,-0.8101324101014487,-0.2544318587474708,0.017611794764312527
1784891144969339136,0.4880201816558838,1.002953052520752,0.3352779150009155,0.32058531045913696,-0.16867585480213165,0.72093266248703,-0.6721640229225159,0.29958105087280273,-0.021942853927612305,0.020705342292785645,0.9124854545273797,-0.3874799338614926,-0.11737670710389674,0.05875557927562725,-0.8051472271502941,-0.2458674013300172,0.023472381386222693
1784891144979259136,0.4979400634765625,2.0218801498413086,0.12432094663381577,0.4904092252254486,-0.16395457088947296,0.7116389274597168,-0.6831463575363159,0.36089974641799927,-0.3154749870300293,-0.07051575183868408,0.9153359341012447,-0.3810546161804559,-0.11499647468667092,0.06110178336977826,-0.7918283293361386,-0.2355442147491033,0.034477826722758724
1784891144989177856,0.5078589916229248,2.7503039836883545,0.029775723814964294,0.877385139465332,-0.15832234919071198,0.696188747882843,-0.700182318687439,0.4351778030395508,-0.6523655652999878,-0.06612932682037354,0.9196775678890934,-0.37049323191114736,-0.11244377477436507,0.0654555718308821,-0.7700745710444117,-0.2223762978560583,0.051672044305207984
1784891144999098112,0.5177791118621826,3.5057497024536133,0.03412865847349167,1.428059458732605,-0.14993363618850708,0.6760335564613342,-0.7214558124542236,0.3542640805244446,-0.8614278435707092,-0.10676074028015137,0.9249199816954132,-0.3569143189848351,-0.10901491716787032,0.07246347974372584,-0.7423664504949798,-0.20490427825468804,0.07638052434795
1784891145009017088,0.5276980400085449,4.386821746826172,0.24276979267597198,1.7724577188491821,-0.1381254494190216,0.6493321657180786,-0.7478563785552979,0.1993131935596466,-0.8994389772415161,0.014229059219360352,0.9312510960904128,-0.3394932978537895,-0.1040005581195512,0.08185112824104789,-0.7067059241826861,-0.18263699391213503,0.10781213943496001
1784891145018937088,0.5376181602478027,5.119462013244629,0.5144750475883484,1.977578043937683,-0.12324969470500946,0.6156941056251526,-0.7782868146896362,0.09497514367103577,-0.6545735001564026,0.27209174633026123,0.9384176122719513,-0.3185113018807719,-0.09699046934655504,0.0922815571872596,-0.6632665099572003,-0.15705603354025277,0.14186398883357404
1784891145028856064,0.547537088394165,6.0457024574279785,0.7274225354194641,2.212974786758423,-0.10573098808526993,0.5737670063972473,-0.8121652603149414,0.013552650809288025,-0.3257659673690796,0.3612680435180664,0.9416852254144048,-0.2900480084597061,-0.09894208916946792,0.1389659957212081,-0.6110979172393265,-0.12945602416975643,0.2521429705522708
1784891145038775040,0.5574560165405273,5.914992332458496,0.7255911231040955,2.443176507949829,-0.08709082752466202,0.5262040495872498,-0.8458868265151978,-0.018179550766944885,-0.055806100368499756,0.6216589212417603,0.9506121183771148,-0.2644383136058726,-0.08443327015080004,0.13885232359645067,-0.5541304174246844,-0.10259652011821202,0.26088115713834487
1784891145048695040,0.5673761367797852,5.453730583190918,0.948936939239502,2.558173418045044,-0.06723751127719879,0.478870689868927,-0.8753067851066589,-0.05947146564722061,-0.3570597767829895,0.8328720927238464,0.9563229200338059,-0.23875340028744882,-0.07309872959369888,0.1519862493809939,-0.4993678754253471,-0.07666538411001576,0.2956601517752579
1784891145058614016,0.5772950649261475,3.549022674560547,1.3643819093704224,2.5880162715911865,-0.04552924260497093,0.4402189254760742,-0.896735429763794,-0.16022028028964996,-0.6381864547729492,0.8854897022247314,0.9598532347764118,-0.2188272698703784,-0.061212064464677786,0.16446751452448352,-0.45584247240371323,-0.050728653336662786,0.3276281818368866
1784891145068534016,0.5872151851654053,1.4632947444915771,1.974111795425415,2.5382094383239746,-0.01953877881169319,0.4186023473739624,-0.9079594016075134,-0.3407059907913208,-0.6516956090927124,0.6028904318809509,0.9607922640034753,-0.20899691094838177,-0.048379553799964455,0.17566437291297587,-0.4319058079126384,-0.021516120444859857,0.3569507843398706
1784891145078452992,0.5971341133117676,0.16978195309638977,2.397353410720825,2.177516222000122,0.010054835118353367,0.41182368993759155,-0.9112080931663513,-0.3469231128692627,-0.13121455907821655,0.013579308986663818,0.9599030003749104,-0.20781095498363641,-0.034793226308511685,0.1849062275955034,-0.42445443201994504,0.011034172117000281,0.38297598691172063
1784891145088372992,0.6070539951324463,0.41012370586395264,1.9563708305358887,1.8043938875198364,0.04082581773400307,0.40803763270378113,-0.9120518565177917,-0.027901623398065567,0.784390926361084,-0.6937220692634583,0.9586735784925122,-0.20868933120555086,-0.020563281419560164,0.19227807970715646,-0.42030358284971064,0.044732747137420835,0.4054240310966229
1784891145098292224,0.6169731616973877,1.8568732738494873,2.2665598392486572,1.580341100692749,0.06623944640159607,0.39701080322265625,-0.9154205322265625,-0.12318524718284607,1.5505294799804688,-0.6428375244140625,0.9582582385585459,-0.20548782492016918,-0.008030262664839426,0.19862387363128411,-0.4082576802657871,0.07223368502894721,0.4237230151490543
1784891145108211968,0.6268930435180664,3.717275857925415,1.490571141242981,0.8477851748466492,0.08814910054206848,0.3706640303134918,-0.9245744347572327,0.294861763715744,1.557818055152893,-0.44131606817245483,0.9597718221070858,-0.19413589724515956,0.004902252083578522,0.20279354728018056,-0.3797238854849289,0.09505288061381292,0.43474165818846244
1784891145118130944,0.6368119716644287,3.8503241539001465,0.987989604473114,0.5863620638847351,0.10192559659481049,0.3336268663406372,-0.937178909778595,0.4038880169391632,1.0453404188156128,-0.29464787244796753,0.962671940765892,-0.176558281641005,0.015418453458372054,0.20457768186114203,-0.3401482632636503,0.10833209569155607,0.437412280818573
1784891145128050944,0.6467320919036865,2.4511818885803223,1.0326282978057861,0.4853522479534149,0.11289612203836441,0.3033260405063629,-0.9461753368377686,0.1423681527376175,0.23823890089988708,0.041466474533081055,0.9646880484529725,-0.16230780966097583,0.023843319905877895,0.20606954617687942,-0.3081812163154445,0.11875694443904404,0.4393661534898296
1784891145137969920,0.6566510200500488,0.5539624691009521,1.2391449213027954,0.3348482549190521,0.12458062916994095,0.2889307141304016,-0.9492095112800598,-0.02552056312561035,-0.2674463391304016,0.09096366167068481,0.9652883000342736,-0.15631048608277281,0.03102056192004642,0.20693768030387863,-0.2931097332744692,0.13050080299756497,0.44165572990491136
1784891145147890176,0.6665711402893066,-0.5172258615493774,1.3677579164505005,0.4215078055858612,0.13830138742923737,0.2887915074825287,-0.9473500847816467,0.0009961128234863281,-0.2729529142379761,-0.20127052068710327,0.9646516043230473,-0.15780559822901136,0.037714059245352774,0.20765906219707111,-0.29296432896647356,0.14496356476591943,0.445489949478018
1784891145157808896,0.676490068435669,-1.0414057970046997,0.9333339929580688,0.43778371810913086,0.15051409602165222,0.29554274678230286,-0.943398118019104,-0.0048384517431259155,0.15019699931144714,-0.435477614402771,0.9633405557016843,-0.16268578154246813,0.04282847274591458,0.20898349173969138,-0.3000235814838181,0.15821121821602344,0.4512143360051817
1784891145167729152,0.6864101886749268,-1.8156193494796753,0.5749219059944153,0.9322813153266907,0.15956808626651764,0.30809637904167175,-0.9378777146339417,-0.12581565976142883,0.23276662826538086,-0.7807501554489136,0.9612936672785006,-0.17027152874938783,0.04548337081880499,0.21178621938073366,-0.31319142857418336,0.1685236940953384,0.4603686456450882
1784891145177648128,0.6963291168212891,-0.6210771203041077,0.16546408832073212,-0.3975583016872406,0.16476278007030487,0.3201988935470581,-0.9329125881195068,-0.43452292680740356,0.1075965166091919,-1.4135992527008057,0.9596394649981148,-0.1771623243690438,0.04644583346343734,0.21342085058617363,-0.32593943151408433,0.1748085247784604,0.46648567877678576
1784891145187567872,0.7062489986419678,1.232406497001648,-0.42845234274864197,-0.6680505275726318,0.1607688069343567,0.3181835412979126,-0.9342979192733765,0.1777321696281433,0.3569873571395874,-1.186109185218811,0.9607192369633405,-0.1755015704160176,0.04527948063366046,0.21016071144021742,-0.3238128250516053,0.17040564873570135,0.4586212524982414
1784891145197487104,0.7161681652069092,2.0265839099884033,-0.6688923835754395,-0.19912272691726685,0.15456682443618774,0.30268606543540955,-0.9404734373092651,0.35783857107162476,0.6690393686294556,-0.10595905780792236,0.9626978879303888,-0.16677063056413946,0.04416844113677002,0.2084452634837879,-0.3075096645823507,0.16289380173261883,0.4517604560853689
1784891145207407104,0.7260880470275879,1.1162405014038086,-0.6995880007743835,-0.09669674187898636,0.14729242026805878,0.28774574398994446,-0.9463124871253967,0.06202764809131622,0.30214378237724304,0.6433492302894592,0.9643421867994365,-0.15829916381730275,0.04225080360930898,0.20784683665204787,-0.29187218409262233,0.15440983910676132,0.44730916803276505
1784891145217325824,0.7360069751739502,0.474948912858963,-0.646488606929779,-0.2605871558189392,0.14104460179805756,0.2815881073474884,-0.9491125345230103,0.047447219491004944,-0.3631768524646759,0.5025182962417603,0.965248030534854,-0.15442914624672394,0.03994224988132012,0.20700837316386111,-0.2854487782100855,0.14752716387465545,0.4437600526171951
1784891145227246080,0.745927095413208,-0.009550527669489384,-0.492548406124115,-0.05044982209801674,0.13580457866191864,0.2816619575023651,-0.9498545527458191,0.05006273090839386,-0.2104339599609375,0.1953074336051941,0.9655063850520332,-0.15386643462743468,0.03738780027850081,0.20669959059331117,-0.28552576001165264,0.14201164918051887,0.4422477091925524
1784891145237165056,0.7558460235595703,-0.13383439183235168,-0.33516305685043335,-0.282627671957016,0.13178713619709015,0.28341764211654663,-0.9498981833457947,-0.21299442648887634,-0.15165802836418152,-0.04747724533081055,0.9656033912892864,-0.15429346946553643,0.03527640424355013,0.20629877832720941,-0.2873560050039035,0.1378581556798377,0.440941767620499
1784891145247085056,0.7657661437988281,-0.1156887486577034,-0.11218921840190887,-0.42522746324539185,0.128586545586586,0.2856658101081848,-0.9496634006500244,-0.2769019901752472,-0.3357451260089874,-0.14243865013122559,0.9658655861972867,-0.15502515967408606,0.03369720749496086,0.2047815915857668,-0.2897011048430112,0.13458373993702588,0.43751086803938366
1784891145257004032,0.7756850719451904,-0.054694101214408875,0.2035176008939743,-0.5710775852203369,0.12746287882328033,0.28733038902282715,-0.9493126273155212,-0.21297314763069153,-0.33325934410095215,-0.05871349573135376,0.9662849980538389,-0.1556633067744584,0.03335595751621977,0.2023603359526264,-0.29143852927730995,0.13347035269369112,0.4324916814402898
1784891145266924032,0.7856049537658691,0.05777757987380028,0.3636251986026764,-0.6582838892936707,0.1282675564289093,0.28824999928474426,-0.9489253759384155,-0.0729544460773468,0.10805127024650574,0.05328023433685303,0.9668554118501158,-0.15610559596909068,0.034181198721165235,0.19913123112779946,-0.29239875468648807,0.13435703685262723,0.4260480476872589
1784891145276843008,0.7955241203308105,0.29734116792678833,0.3750546872615814,-0.7425468564033508,0.1295316368341446,0.28747594356536865,-0.9489884972572327,-0.0041959285736083984,0.22759974002838135,-0.013932645320892334,0.9676249738803409,-0.1557137715240114,0.035482156272104104,0.19543804676002596,-0.2915904915566843,0.1356561080383921,0.41854095717766954
1784891145286763008,0.8054440021514893,0.29690638184547424,0.3278147280216217,-0.8354611396789551,0.13025827705860138,0.28585609793663025,-0.949378252029419,0.0023863762617111206,0.13510337471961975,0.039572954177856445,0.9685517785305745,-0.15481097354659085,0.03666650309594819,0.19130253781465983,-0.28989968490323287,0.13635241898073763,0.40994219463256426
1784891145296682240,0.8153631687164307,0.4517875909805298,0.33088162541389465,-1.0525579452514648,0.13050243258476257,0.28378891944885254,-0.949964702129364,-0.11095593869686127,-0.012899667024612427,-0.07550215721130371,0.9696438743949731,-0.15359749837264558,0.03775519735375075,0.18647516327857724,-0.287743199679,0.136521541142507,0.3997952021056809
1784891145306600448,0.8252816200256348,0.4847523868083954,0.356988787651062,-1.292704701423645,0.1300145536661148,0.2811124920845032,-0.9508270025253296,-0.1591435670852661,-0.11202985048294067,-0.09810793399810791,0.9710171236525725,-0.1519447302512846,0.03872081682236966,0.1803859816626426,-0.2849531436443552,0.13589560635223893,0.3868760371278585
1784891145316519424,0.8352005481719971,0.3275691568851471,0.4316534399986267,-1.275211215019226,0.1295003890991211,0.27908429503440857,-0.9514943957328796,-0.03500272333621979,-0.18876755237579346,0.024812936782836914,0.9724101151698021,-0.15059044958920723,0.039690199630443096,0.17368328197225566,-0.2828403923238978,0.13527094623910466,0.3727821491690244
1784891145326439424,0.8451204299926758,0.14299726486206055,0.5369847416877747,-1.1835927963256836,0.13034558296203613,0.2784808278083801,-0.9515557885169983,0.016978010535240173,-0.22431212663650513,0.029329895973205566,0.9735411521360076,-0.15009654015446341,0.04114758929973169,0.1673184337358431,-0.2822119911665376,0.13613428603161185,0.359773159378167
1784891145336358656,0.8550395965576172,-0.2254588007926941,0.6655744314193726,-1.1875624656677246,0.13258589804172516,0.28017258644104004,-0.9507493376731873,0.017469018697738647,-0.25433942675590515,0.07298749685287476,0.9743686161176148,-0.15089697200579233,0.043074734070950506,0.16118468837966676,-0.2839738768416029,0.13856050260345892,0.3477183502484092
1784891145346278400,0.8649594783782959,-0.47765281796455383,0.6738415360450745,-1.191409945487976,0.13540376722812653,0.28527891635894775,-0.9488317966461182,0.060488566756248474,-0.26854002475738525,0.031473398208618164,0.974880765493748,-0.15347646390841885,0.04504536625773094,0.1549945945299489,-0.28929743782157796,0.14174870306453904,0.3360191021447006
1784891145356197632,0.8748786449432373,-0.5483914017677307,0.6504046320915222,-1.1892229318618774,0.13811208307743073,0.29162517189979553,-0.9465093016624451,0.039912208914756775,-0.09347453713417053,-0.02951914072036743,0.975237602046852,-0.15667351423925238,0.046891053516435716,0.14888363891983372,-0.2959254345949692,0.1448947202620197,0.3246224334801282
1784891145366117376,0.884798526763916,-0.48860079050064087,0.6287022233009338,-1.448081135749817,0.14025051891803741,0.2982122302055359,-0.9441394209861755,-0.10948880016803741,-0.0529729425907135,-0.03664976358413696,0.9756265823692614,-0.15991045537954127,0.04856879594523113,0.14220614453667088,-0.3028191018941717,0.14747010534368918,0.31201952703568253
1784891145376036352,0.8947174549102783,-0.28423941135406494,0.5759614706039429,-1.7241145372390747,0.1411028653383255,0.3038649559020996,-0.9422081112861633,-0.12498961389064789,-0.0870528519153595,-0.06737440824508667,0.976278816179698,-0.16248479178034583,0.049946484156724244,0.13410326999198222,-0.3087468145434591,0.14865292667464305,0.2961885097620813
1784891145385956608,0.9046375751495361,-0.2473772019147873,0.46919071674346924,-1.8287229537963867,0.14030979573726654,0.3084532916545868,-0.9408345818519592,0.017755985260009766,-0.10427546501159668,0.062203049659729004,0.9771288241801434,-0.16433331781300467,0.050766772682233695,0.12504596553609645,-0.31356660117449925,0.14804223588582507,0.2780064346492326
1784891145395875328,0.9145565032958984,-0.5434969663619995,0.41523054242134094,-1.7639210224151611,0.13893035054206848,0.3144291639328003,-0.9390594363212585,0.12654204666614532,-0.3459385931491852,0.20938420295715332,0.9777794888208556,-0.16687001953066308,0.051231529937692276,0.11609056957932325,-0.31985526508122536,0.14688081338285278,0.26008535391217824
1784891145405795584,0.9244766235351562,-0.5213251709938049,0.36756545305252075,-2.0144665241241455,0.13667450845241547,0.3217066824436188,-0.936923086643219,0.05659329891204834,-0.3609065115451813,0.21194756031036377,0.9783119967458102,-0.1700125922787711,0.05132415005664724,0.10661694917276551,-0.32753142679569247,0.144854189507317,0.24108155595456768
1784891145415714560,0.9343955516815186,0.22347386181354523,0.3652420938014984,-2.142157554626465,0.13353611528873444,0.326830118894577,-0.935601532459259,-0.07936742901802063,-0.09951993823051453,0.20862704515457153,0.9790232239639075,-0.17196822215411514,0.05124619157866542,0.09651113416182057,-0.3329475358078821,0.14177005908974438,0.22038338681932834
1784891145425634304,0.9443154335021973,2.8684210777282715,0.10642723739147186,-2.8108785152435303,0.12814974784851074,0.3159761130809784,-0.9400727152824402,-0.28461337089538574,0.3930540084838867,0.06846016645431519,0.9813577980108615,-0.16534785590174422,0.05122230390909906,0.08350557895395931,-0.32148530714764645,0.1354838691632332,0.19177512059967947
1784891145435553536,0.9542346000671387,5.225221633911133,0.22244440019130707,-2.826019048690796,0.12088018655776978,0.28064343333244324,-0.9521697759628296,-0.16159063577651978,0.29388049244880676,0.3054107427597046,0.9855723861481116,-0.1459451187965627,0.05113850217097279,0.06878886793393811,-0.2844644233403813,0.1262768469485379,0.15747200494754468
1784891145445473536,0.9641544818878174,5.901676177978516,0.3659045100212097,-2.929476737976074,0.11597191542387009,0.2282332479953766,-0.9666747450828552,0.011881470680236816,-0.08495323359966278,0.48126220703125,0.9902213279552456,-0.11803535865491056,0.052251992754285194,0.05290720234300621,-0.2302626464375206,0.11939929543856116,0.12058171024388385
1784891145455392512,0.9740736484527588,1.9686996936798096,0.5468260645866394,-2.247748613357544,0.11477874964475632,0.19194647669792175,-0.97467041015625,0.04031158238649368,-0.37560129165649414,0.3369598388671875,0.9928955539997562,-0.09876013808066669,0.05395586547175133,0.03864753120859465,-0.19314512516186838,0.11722172378526814,0.089177476397497
1784891145465312512,0.9839935302734375,-0.8489435315132141,1.0490225553512573,-1.8712879419326782,0.11870256066322327,0.19088512659072876,-0.9744088053703308,-0.017689377069473267,-0.5874915719032288,-0.2302420735359192,0.9931732330778467,-0.09773213044038348,0.05695624795883571,0.02848459139143342,-0.19206376877758194,0.12122278022975402,0.06903641044241043
1784891145475231488,0.9939124584197998,-0.3153117895126343,1.0759867429733276,-1.4221253395080566,0.12600600719451904,0.19976797699928284,-0.9717074036598206,-0.015837550163269043,0.32115182280540466,-1.0118436813354492,0.9927098155578008,-0.10182574739271509,0.061464030390135,0.019514291115670723,-0.20112112603183846,0.12895524277826295,0.052339710093851716
1784891145485151488,1.0038325786590576,0.9258472919464111,1.1242783069610596,-2.2582814693450928,0.13321232795715332,0.19912494719028473,-0.9708778262138367,-0.6882202625274658,1.030840277671814,-1.3013389110565186,0.99263522234694,-0.10101156658576027,0.06601331497848063,0.010682191822130213,-0.2004649017008835,0.13635670112983236,0.03525645576305476
1784891145495070464,1.01375150680542,1.9253650903701782,1.3666083812713623,-3.393138885498047,0.13855545222759247,0.18834388256072998,-0.9722802639007568,-0.6371821761131287,0.4593154191970825,-0.7468816637992859,0.9930335687041645,-0.09448305973532055,0.07023393533193739,-0.004941958492321649,-0.1894755799989297,0.1415525880249151,0.0035197728770975122
1784891145504990464,1.0236716270446777,2.0853922367095947,1.6055700778961182,-2.647960901260376,0.1470339149236679,0.17240537703037262,-0.9739904403686523,0.2238767445087433,0.08885560929775238,-0.34421634674072266,0.993241215657997,-0.0851384628439034,0.07586971007790404,-0.021611492664306217,-0.17327109138951377,0.1498289996110177,-0.030472934045646608
1784891145514909440,1.03359055519104,1.494915246963501,2.0328264236450195,-2.072204828262329,0.160729318857193,0.1588536649942398,-0.9741312265396118,0.2586432695388794,0.029134616255760193,-0.011922240257263184,0.9929231890788773,-0.07711426537229565,0.08359299326598975,-0.03419296564192892,-0.1595294703502813,0.16352428389370238,-0.055745907948963794
1784891145524829440,1.0435104370117188,1.3328903913497925,2.2768616676330566,-2.469578266143799,0.17814947664737701,0.14893613755702972,-0.97266685962677,-0.03361824154853821,0.06728090345859528,0.11901390552520752,0.9920405916573064,-0.07067362643215093,0.09312257663580574,-0.04678740553955858,-0.14949232600723258,0.18114791524348933,-0.08065337007815004
1784891145534748672,1.0534296035766602,1.1710188388824463,2.2899813652038574,-2.4793541431427,0.19621220231056213,0.14143182337284088,-0.9703081250190735,0.09341487288475037,0.06707952916622162,0.422227680683136,0.9907079315405348,-0.0650965728941158,0.10299701272970697,-0.06043105960383579,-0.14190762399769666,0.19952579617374047,-0.10761683770300332
1784891145544668416,1.0633494853973389,0.6837183833122253,2.462214708328247,-2.4340834617614746,0.21557551622390747,0.13718484342098236,-0.966802716255188,0.22221438586711884,-0.0003745555877685547,0.49288004636764526,0.9889212283736416,-0.06089601385667918,0.11353550131760429,-0.07373076891890808,-0.1376188225593215,0.21938882122969444,-0.13365763380082277
1784891145554587392,1.0732684135437012,0.26677706837654114,2.5317301750183105,-2.3230338096618652,0.2359359860420227,0.1379041224718094,-0.9619337916374207,0.2436172366142273,-0.2336377650499344,0.11813801527023315,0.9866601208798105,-0.058959351644463455,0.12472724592352925,-0.08642232038381273,-0.13834500125600044,0.2405244032252691,-0.1579909300990767
1784891145564507392,1.083188533782959,-0.023545105010271072,2.457986831665039,-2.327514886856079,0.2562340199947357,0.14216361939907074,-0.9561033844947815,0.03725352883338928,-0.29325616359710693,-0.041974008083343506,0.9840482225900704,-0.0586158462595702,0.13606065687108768,-0.09849273826996648,-0.14264688636900483,0.26184515593019864,-0.18069972632781028
1784891145574426368,1.0931074619293213,-0.329098105430603,2.312797784805298,-2.670125722885132,0.27497661113739014,0.14982475340366364,-0.9497054219245911,-0.29228007793426514,-0.18000665307044983,0.033094704151153564,0.9810717241656098,-0.05971635703452935,0.14690555289671584,-0.1111350090875383,-0.15039102841451332,0.28183198800591347,-0.20422330576736258
1784891145584346624,1.103027582168579,-0.793603241443634,2.185088634490967,-3.1362698078155518,0.2911912798881531,0.16259658336639404,-0.9427459836006165,-0.3418962359428406,-0.17588698863983154,0.12405091524124146,0.9775584991526072,-0.06300394878113577,0.15702709356296096,-0.1255085753753236,-0.16332169019073395,0.2995795593759251,-0.23068033502068946
1784891145594265344,1.1129465103149414,-1.328797459602356,2.105269432067871,-3.4414024353027344,0.3051735460758209,0.18198935687541962,-0.9347454309463501,-0.11063924431800842,-0.2689492106437683,0.1500164270401001,0.9733483788727588,-0.06926909944918605,0.1668205243252645,-0.14129982386134157,-0.1830092121022672,0.3155678659500022,-0.25912607884588035
1784891145604185600,1.1228666305541992,-1.7269998788833618,2.044358730316162,-3.6063575744628906,0.31747132539749146,0.20659705996513367,-0.9254888296127319,0.06285399198532104,-0.24247047305107117,0.16970574855804443,0.9684337230506134,-0.0779017546790063,0.17659810355604677,-0.1577358066126272,-0.20809570258320656,0.3304528765639137,-0.28809734468529996
1784891145614104576,1.1327855587005615,-2.0238723754882812,2.018446207046509,-3.7205421924591064,0.3278043568134308,0.23553945124149323,-0.9149128198623657,0.06573507189750671,-0.06366445124149323,0.15055429935455322,0.9628243481476944,-0.0885702036175979,0.18627641533152184,-0.1744299160253618,-0.237773603988823,0.34404117016720276,-0.3169420123079509
1784891145624024320,1.1427054405212402,-1.9692249298095703,2.0228123664855957,-3.865055799484253,0.3365613520145416,0.26607564091682434,-0.9032885432243347,0.00018486380577087402,-0.01345112919807434,-0.025956451892852783,0.9565525897068714,-0.09987035545962249,0.1959123072378485,-0.1914457368113559,-0.2693196218248996,0.3566610378086133,-0.3462335304305128
1784891145633943552,1.1526246070861816,-1.531333565711975,1.9852826595306396,-4.112438678741455,0.34327632188796997,0.2951907813549042,-0.8916410803794861,0.04475471377372742,-0.20824620127677917,-0.23102432489395142,0.9496810569360195,-0.11016418109395285,0.20504468831732017,-0.2095862669510485,-0.2996551836316744,0.3675034762811149,-0.3783228758465448
1784891145643863552,1.1625444889068604,-0.9561881422996521,1.880921721458435,-4.387447834014893,0.34728407859802246,0.32029446959495544,-0.8813655376434326,0.17578721046447754,-0.36175259947776794,-0.3732578754425049,0.9423939005990271,-0.11811251092609566,0.21299450452468793,-0.22929567920303912,-0.32604030525412175,0.3753488603488075,-0.4148961562162883
1784891145653782272,1.1724634170532227,-0.10409720242023468,1.7537147998809814,-4.531801700592041,0.34859034419059753,0.3399856686592102,-0.8734383583068848,0.29864171147346497,-0.4172714352607727,-0.5552115440368652,0.9348106610464952,-0.12299958349531018,0.21943548125901957,-0.2506956170870454,-0.3469016605093666,0.37973135921677476,-0.4567066623855437
1784891145663702528,1.1823835372924805,0.703305184841156,1.3806098699569702,-4.486937999725342,0.34669989347457886,0.35184451937675476,-0.8694852590560913,0.45490533113479614,-0.5177075862884521,-0.8276125192642212,0.9275528258324238,-0.12398853401239512,0.22334775125082945,-0.27274211345539295,-0.359540878289642,0.3794210253170183,-0.5022046937407113
1784891145673621504,1.1923024654388428,1.8115288019180298,1.0612834692001343,-4.298120021820068,0.3422287702560425,0.35627254843711853,-0.8694534301757812,0.6109419465065002,-0.5104321241378784,-0.990501344203949,0.9206246909248084,-0.12139795222978582,0.22480171959089382,-0.2952572134277131,-0.3642756443857521,0.3749888477757426,-0.5508433899880659
1784891145683541504,1.2022225856781006,3.3827967643737793,0.5288389325141907,-4.107890605926514,0.3340686559677124,0.34704717993736267,-0.8763312101364136,0.7040325403213501,-0.44427618384361267,-1.2039300203323364,0.9151424980630491,-0.11277190893185594,0.22162331999548823,-0.3173006329939119,-0.35442074692926817,0.364206322634177,-0.6015720892716597
1784891145693460480,1.212141513824463,4.3300251960754395,0.1509973406791687,-4.244278907775879,0.3233248293399811,0.3252430856227875,-0.8886382579803467,0.7602475881576538,-0.6119099855422974,-0.2918121814727783,0.9099285170186925,-0.09830460371554038,0.21451587814190834,-0.34110006150262323,-0.33126877592881365,0.348953492310612,-0.6583887597994097
1784891145703380480,1.2220616340637207,3.992687702178955,0.208919495344162,-3.921459913253784,0.31220361590385437,0.301297664642334,-0.9009709358215332,0.8546054363250732,-0.3530402183532715,-0.1012415885925293,0.904467945793719,-0.08359052194087388,0.20622112721060423,-0.3639000552826537,-0.3060532570860701,0.3335704031012106,-0.7131190923967664
1784891145713299456,1.231980562210083,3.5606143474578857,-0.33797553181648254,-3.6801488399505615,0.301047146320343,0.2785431742668152,-0.9120221138000488,0.818154513835907,0.21091300249099731,-0.7123675346374512,0.8989434991317818,-0.07040396410012427,0.19756575656981198,-0.38459300384667067,-0.2822769310124984,0.3188265282846421,-0.7628472376937132
1784891145723219456,1.2419004440307617,2.938753366470337,-0.7308194637298584,-3.7339861392974854,0.28629323840141296,0.259502112865448,-0.9223311543464661,1.0030744075775146,0.020878106355667114,-0.6543136835098267,0.8933032530325489,-0.060429877362080574,0.1875703578993652,-0.40394892956192285,-0.2625066080630258,0.3009721951111236,-0.8093292103727706
1784891145733138688,1.2518196105957031,2.343987226486206,-1.0370582342147827,-3.428997278213501,0.26922136545181274,0.24545519053936005,-0.9312741756439209,1.1136064529418945,0.007688120007514954,-0.7010958194732666,0.8874188287396886,-0.053952530992610506,0.17734722370674127,-0.4220483447139358,-0.24798921735938437,0.2814171454337705,-0.852556851349719
1784891145743058432,1.2617394924163818,2.2479584217071533,-1.3495838642120361,-2.960765838623047,0.2508944571018219,0.23210711777210236,-0.9397756457328796,1.1072293519973755,0.15331463515758514,-0.8191202282905579,0.882265005956415,-0.04896848484285884,0.16647603275785852,-0.4376028047111183,-0.2342434043795297,0.26088811007934304,-0.890014775570103
1784891145752977408,1.2716584205627441,2.4990265369415283,-1.5836085081100464,-2.3440585136413574,0.23153701424598694,0.2168106734752655,-0.948358416557312,0.9990690350532532,0.2569136619567871,-0.7970791459083557,0.8780104725984935,-0.04412471723850765,0.15451145430826602,-0.45086220274592553,-0.21854624476334472,0.23946057294117948,-0.9223892027103274
1784891145762897408,1.281578540802002,2.752734899520874,-1.873048186302185,-1.7275909185409546,0.2111300379037857,0.19574174284934998,-0.9576582312583923,0.983953595161438,0.17159834504127502,-0.9930253624916077,0.8753066161062119,-0.03778472806044722,0.14051050990376202,-0.4611587446390156,-0.19701377053510694,0.21699371750112548,-0.948269969246524
1784891145772816384,1.2914974689483643,2.828855037689209,-2.2345168590545654,-0.8103638887405396,0.18844124674797058,0.1718430370092392,-0.9669332504272461,0.865208625793457,-0.0736374706029892,-1.082291603088379,0.8741183781101162,-0.03149484740765915,0.12466539469382845,-0.46838412995576273,-0.17270023011610766,0.19247295575262538,-0.9670948330183997
1784891145782736640,1.301417589187622,3.112914800643921,-2.050394296646118,0.08094674348831177,0.16745519638061523,0.14337746798992157,-0.9753981828689575,0.46583032608032227,-0.43518656492233276,-0.7518051266670227,0.8750592703014586,-0.023574695531724702,0.10837495793806717,-0.47113722635063754,-0.14387330402928242,0.17002134533485258,-0.9755153104823429
1784891145792655360,1.3113365173339844,3.497624635696411,-2.1447277069091797,0.6042546629905701,0.14731013774871826,0.1108190193772316,-0.9828625917434692,0.21966373920440674,-0.6578161120414734,-0.7094439268112183,0.8771983920450065,-0.014024920961120112,0.09149867573287343,-0.4711201668256998,-0.11104710713074177,0.14877128414409144,-0.977445570381513
1784891145802575616,1.3212566375732422,4.212851524353027,-2.3144752979278564,1.037449836730957,0.1260589063167572,0.07279113680124283,-0.9893485903739929,0.4362885057926178,-0.9722815155982971,-0.8061683773994446,0.8802575177960789,-0.0024993895522309965,0.0729346738069408,-0.46885057395510066,-0.07285557524224448,0.1267331849499704,-0.9741924851238599
1784891145812494592,1.3311755657196045,4.427964687347412,-2.3978846073150635,1.2524627447128296,0.10361269861459732,0.02795007824897766,-0.9942249059677124,0.8876287341117859,-1.0944020748138428,-0.3414226770401001,0.8834306397125534,0.01180242660682314,0.05242366321610648,-0.46547040920427407,-0.027953717775294814,0.10383970781398004,-0.9684015054165896
1784891145822414336,1.3410954475402832,3.683687448501587,-2.6847851276397705,2.346315383911133,0.07885666191577911,-0.014047057367861271,-0.9967870116233826,1.3484656810760498,-1.2442232370376587,-0.0026789307594299316,0.8876473539387753,0.024362340826000087,0.031827351996847955,-0.45877642287981774,0.014047519343700783,0.07894642638078297,-0.9546207203110516
1784891145832333568,1.3510146141052246,2.533740520477295,-2.975703477859497,3.5271925926208496,0.04974474012851715,-0.0465097650885582,-0.9976784586906433,1.4340046644210815,-1.5046377182006836,-0.2316916584968567,0.8941138291050047,0.03193613945253663,0.01186822810990517,-0.44654188764823777,0.04652655024025204,0.04981923771530915,-0.9275327570380226
1784891145842253568,1.3609344959259033,1.5251609086990356,-3.327073812484741,4.437684535980225,0.01673240400850773,-0.06820621341466904,-0.9975309371948242,1.3208529949188232,-1.6624609231948853,-0.3291749954223633,0.9025090632703654,0.034411911241082976,-0.007096441919562708,-0.42923525687786496,0.0682592042529786,0.016772247798353537,-0.8884517630333786
1784891145852172288,1.3708534240722656,1.12533700466156,-3.7082653045654297,5.015259742736816,-0.021466687321662903,-0.08023998141288757,-0.9965444207191467,1.222653865814209,-1.460867166519165,-0.6436991095542908,0.911851057340219,0.032255568721249704,-0.02621796889907114,-0.4084113121165774,0.08032633304607914,-0.021537793790111583,-0.8413344466363973
1784891145862092544,1.3807735443115234,1.6489522457122803,-4.230869770050049,5.52566385269165,-0.0649368017911911,-0.09148866683244705,-0.9936866164207458,1.257548451423645,-1.2515746355056763,-0.8671074509620667,0.9213061203140877,0.029745967161576622,-0.0476642756644449,-0.3847576285708199,0.09161678307258642,-0.06525659162747227,-0.7882171942519758
1784891145872011520,1.3906924724578857,2.65354585647583,-4.727792739868164,5.839036464691162,-0.11473558098077774,-0.10742392390966415,-0.9875707030296326,1.3341569900512695,-1.1833628416061401,-1.0002679824829102,0.9301468349689563,0.029570211824339592,-0.07307709249898511,-0.3586256746399361,0.10763161161410653,-0.1156610852230714,-0.7297524340654451
1784891145881931520,1.4006125926971436,3.5223019123077393,-4.834614276885986,6.178291320800781,-0.16855645179748535,-0.12940432131290436,-0.9771608114242554,1.3539354801177979,-1.2016198635101318,-0.9496275186538696,0.9378292929207996,0.03322719789112068,-0.10156548974843531,-0.3302373992436399,0.12976823054755607,-0.17081516841161162,-0.666015755281103
1784891145891850496,1.4105315208435059,4.062947750091553,-4.755058288574219,6.741848945617676,-0.2238188534975052,-0.15351617336273193,-0.9624645113945007,1.3806334733963013,-1.341631531715393,-0.5737751126289368,0.9444414699263296,0.03980556516269806,-0.13108496490155458,-0.2987685334867657,0.15412565596085262,-0.22848668400978325,-0.5950469212790115
1784891145901770496,1.4204516410827637,4.259165287017822,-4.447259426116943,7.215259075164795,-0.2787620425224304,-0.1757621020078659,-0.9441395401954651,1.3169243335723877,-1.5839730501174927,0.0015735626220703125,0.9499460874612458,0.04803351561184746,-0.16007193774690842,-0.2639550888019631,0.1766798718357563,-0.28709804369964337,-0.5164492972514645
1784891145911689472,1.430370569229126,3.906210422515869,-3.866666078567505,7.78267240524292,-0.3312038481235504,-0.19138582050800323,-0.9239456057548523,1.3307002782821655,-1.9943593740463257,0.5025588870048523,0.9543823062924564,0.056012843589522764,-0.1867880134149112,-0.22611325137555344,0.19257387601773737,-0.3441976573330363,-0.4316898310385968
1784891145921609472,1.4402904510498047,2.7000536918640137,-3.1322906017303467,8.327030181884766,-0.3783082067966461,-0.1935063749551773,-0.9052282571792603,1.4779328107833862,-2.613882064819336,0.8284307718276978,0.9582085459416704,0.06046634692307813,-0.20911646443345988,-0.18560859733157073,0.19473481396637007,-0.39585408604204897,-0.34349496259978085
1784891145931528448,1.450209617614746,1.2560275793075562,-2.6529316902160645,8.85348892211914,-0.4198276698589325,-0.17711009085178375,-0.8901554346084595,1.7959721088409424,-3.009718418121338,0.8404881358146667,0.9614985799315299,0.05821592460372717,-0.22700920665395255,-0.14352069130468662,0.17804934479578044,-0.44069849723264953,-0.25636642902176754
1784891145941448448,1.4601294994354248,0.15946225821971893,-2.288961887359619,9.549392700195312,-0.456069678068161,-0.14311842620372772,-0.8783607482910156,2.1705472469329834,-2.773629665374756,0.9252510070800781,0.9639980570747427,0.04930600632302831,-0.24163722440581584,-0.09943963604447877,0.1436115626232122,-0.4789115942232102,-0.1704615388122047
1784891145951367424,1.470048427581787,-0.27158498764038086,-2.1270742416381836,9.9019775390625,-0.48667335510253906,-0.0966569185256958,-0.868220329284668,2.452005386352539,-2.2438583374023438,1.1002912521362305,0.9650191705600007,0.03602483454033798,-0.25414966180204307,-0.05336935524707631,0.0968080591952647,-0.5109003001906969,-0.08519494633279713
1784891145961287424,1.479968547821045,0.09622829407453537,-1.9793922901153564,10.00598430633545,-0.5114379525184631,-0.046475596725940704,-0.8580624461174011,2.5457701683044434,-1.8328883647918701,1.1934049129486084,0.9638425765732695,0.022398792135163145,-0.2654563364482363,-0.006211527545421733,0.04649234509212485,-0.537501299051784,-8.215560088255087e-05
1784891145971206400,1.4898874759674072,0.49916672706604004,-1.5979804992675781,10.165461540222168,-0.5288628935813904,0.002876553451642394,-0.8487024307250977,2.57094669342041,-1.5748064517974854,1.3643732070922852,0.9605090065094989,0.010553567950764887,-0.2748406976401561,0.04211557412936595,-0.0028765573824721525,-0.5572627399699568,0.0868152468936589
1784891145981126656,1.499807596206665,0.3432658612728119,-1.0371851921081543,10.408089637756348,-0.5371689796447754,0.052968353033065796,-0.841809868812561,2.624281406402588,-1.6508992910385132,1.625898003578186,0.9552514131108636,-0.0007420579818106865,-0.28123748200984855,0.0916496782559766,-0.05299315308652348,-0.5679726680141025,0.1758297371041916
1784891145991045376,1.5097265243530273,-1.2067674398422241,-0.3907366991043091,10.498769760131836,-0.5346576571464539,0.11143803596496582,-0.8376889228820801,2.6782124042510986,-1.8463013172149658,2.0917325019836426,0.948208060897736,-0.016616702970186012,-0.28439307528353847,0.14052003952909292,-0.1116699819839242,-0.568073003710354,0.2616182894163772
1784891146000965632,1.5196466445922852,-3.465968608856201,0.18821075558662415,10.543898582458496,-0.5201449394226074,0.1855194866657257,-0.8336856365203857,2.7399935722351074,-2.005236864089966,2.4225223064422607,0.9391842855409668,-0.04212227645622309,-0.2852768678953807,0.18648257777366753,-0.18660050500652647,-0.5578152411241486,0.3384374145406893
1784891146010884608,1.5295655727386475,-5.515940189361572,0.5589619278907776,10.522369384765625,-0.4930678606033325,0.27545544505119324,-0.8252323269844055,2.8104352951049805,-1.9779853820800781,2.6580874919891357,0.9275367227462727,-0.07820545191054971,-0.2850749662594469,0.22867420558350823,-0.2790634385455201,-0.5385716795556517,0.40595421591230935
1784891146020804352,1.5394854545593262,-6.3598313331604,0.6610313057899475,10.556641578674316,-0.4544243812561035,0.37319299578666687,-0.8088420629501343,2.914370059967041,-1.7724697589874268,2.655186176300049,0.9125266567654656,-0.12099138693853122,-0.2844996606368963,0.2677986997795941,-0.3824483053514143,-0.5118734410966351,0.4696807958603605
1784891146030723584,1.5494046211242676,-5.855921268463135,0.5549722909927368,10.670917510986328,-0.4128144085407257,0.4535122513771057,-0.7898802757263184,3.0679352283477783,-1.490194320678711,2.445962429046631,0.8957384717365756,-0.15677751063137405,-0.2836911565552091,0.3042903262408549,-0.4707022132252119,-0.48158655673146844,0.5373238285629915
1784891146040643328,1.5593245029449463,-4.618154525756836,0.41856035590171814,10.770979881286621,-0.35692694783210754,0.534448504447937,-0.7661383748054504,3.2241601943969727,-1.438287615776062,2.265054941177368,0.874706369001965,-0.19528414221476703,-0.280704321416726,0.3434502457854308,-0.5638551076484872,-0.4359792592950037,0.6201606199902536
1784891146050562304,1.5692434310913086,-3.382966995239258,0.45226001739501953,10.97608757019043,-0.29273802042007446,0.5988448262214661,-0.745445728302002,3.305723190307617,-1.6382277011871338,2.281242847442627,0.8516065357802668,-0.22776768432724165,-0.27458881046297295,0.3840431664246257,-0.6420579014788771,-0.3741991800199082,0.7215693847355827
1784891146060482560,1.5791635513305664,-3.1286230087280273,0.6468297839164734,11.161382675170898,-0.220306396484375,0.6501132249832153,-0.7271986603736877,3.29595947265625,-1.8757449388504028,2.325678825378418,0.8263203831369627,-0.2567902418638337,-0.26544194890312833,0.42519877784592314,-0.7077334151807619,-0.29416296609995407,0.8411193702341925
1784891146070402304,1.5890834331512451,-3.9915223121643066,0.8322637677192688,11.259256362915039,-0.14028774201869965,0.6949074864387512,-0.7052821516990662,3.237654209136963,-2.184607744216919,2.5120601654052734,0.7978337725014433,-0.2868765261611998,-0.25507015539125405,0.46486798935842244,-0.7682912078805575,-0.196347357069432,0.9755647678574609
1784891146080321536,1.5990025997161865,-5.635624885559082,0.9369062185287476,11.239155769348145,-0.05430418998003006,0.7383727431297302,-0.6722029447555542,3.1826000213623047,-2.347198486328125,2.6951828002929688,0.7647829318134387,-0.32141865096381067,-0.24614749475760245,0.5012070903747151,-0.8306542279607981,-0.08061035654249583,1.1247031053800474
1784891146090241536,1.6089224815368652,-7.357524394989014,0.9938946962356567,11.108909606933594,0.03616438806056976,0.7813083529472351,-0.6230965852737427,3.162184715270996,-2.3830387592315674,2.7256202697753906,0.7261984115966937,-0.36144724880805007,-0.2404321269361336,0.53308919230193,-0.8967593387643534,0.057974739187983036,1.294366183378964
1784891146100160512,1.6188416481018066,-8.222551345825195,0.9144255518913269,10.913290023803711,0.1292063593864441,0.818406879901886,-0.559924840927124,3.1942341327667236,-2.138078451156616,2.664966344833374,0.6825692752725611,-0.40452475491788314,-0.23748114962765776,0.5604119767026988,-0.9586331692469837,0.2267868685417479,1.4931107562529746
1784891146110080512,1.6287615299224854,-8.01354694366455,0.5550202131271362,10.794471740722656,0.22260050475597382,0.8420789837837219,-0.491275817155838,3.2613320350646973,-1.7484205961227417,2.398853302001953,0.6353842116117433,-0.4460663184648302,-0.23534429725596803,0.5847433211084505,-1.0011263198195637,0.4254346940091843,1.7230464039943736
1784891146119999488,1.6386804580688477,-7.56991720199585,0.24642649292945862,10.491188049316406,0.31389763951301575,0.8491165041923523,-0.42481687664985657,3.2193665504455566,-1.7090256214141846,2.130200147628784,0.586367476673595,-0.48319506826431935,-0.23262433302045335,0.6071091773897941,-1.0143103576912593,0.6363598373545258,1.967561504011468
1784891146129919488,1.6486005783081055,-6.484580039978027,1.3371585607528687,10.3226900100708,0.4026159644126892,0.8408797979354858,-0.3616925776004791,3.055300235748291,-1.3538497686386108,2.285932779312134,0.5373454603685008,-0.5169702601238714,-0.22780575760952088,0.6261837543697543,-0.9989067082640639,0.8388901246664288,2.200500650165492
1784891146139838464,1.6585195064544678,0.2481803596019745,-6.578545570373535,10.236837387084961,0.5173062682151794,0.7700269818305969,-0.3734334707260132,9.923672676086426,7.020545959472656,0.07071438431739807,0.4914572412944204,-0.5268504484735206,-0.18897586048411347,0.667222924852866,-0.878883451845953,0.9455357263743971,2.3437996393985165
1784891146149758464,1.6684396266937256,2.694180727005005,-1.8785258531570435,3.5600526332855225,0.5359724760055542,0.7428053021430969,-0.40121564269065857,1.2422869205474854,4.358711242675781,2.6260080337524414,0.4672506984371879,-0.5133338742940691,-0.18942150879800926,0.6944672404967429,-0.8372507524465315,0.928207756505643,2.395372359335506
1784891146159677440,1.678358554840088,-3.2340550422668457,0.05855981260538101,6.489711284637451,0.5733005404472351,0.7092058062553406,-0.4103093147277832,0.4102962613105774,0.7197951078414917,0.9815068244934082,0.4462834893197996,-0.5135829238987012,-0.17628932239833459,0.7113267633182192,-0.7883710262255659,0.9496131481642883,2.4422343993881124
1784891146169597440,1.6882784366607666,-6.25517463684082,2.378127336502075,2.966139316558838,0.6178936958312988,0.6948429942131042,-0.3679683208465576,-0.9499249458312988,0.7266810536384583,2.01495623588562,0.41446212149468836,-0.5337867946607261,-0.1763164543470589,0.7156852433494959,-0.7682015453716342,1.0336771130909894,2.543362489240692
1784891146179516672,1.698197603225708,-9.7996826171875,3.9149560928344727,0.18441268801689148,0.638306200504303,0.7120083570480347,-0.29259058833122253,0.8395074605941772,-0.19839757680892944,1.7298617362976074,0.3911700126619189,-0.5623004295122629,-0.19370837570472912,0.7023398570022721,-0.792354289721464,1.140990573239948,2.649712644172429
1784891146189436416,1.7081174850463867,-12.350091934204102,4.5586957931518555,-0.3891541659832001,0.6469098925590515,0.7400979399681091,-0.18374627828598022,3.402238607406616,0.06945711374282837,1.6689300537109375,0.363710718209187,-0.5978819006462807,-0.2250868664619461,0.6779289514846877,-0.8332159494311743,1.294048156565538,2.80203499076485
1784891146199355392,1.718036413192749,-7.591840744018555,1.6457961797714233,1.6623015403747559,0.65651535987854,0.7494819760322571,-0.08523239940404892,4.175531387329102,1.2635033130645752,0.5338102579116821,0.33462741317648614,-0.6280900204740574,-0.25077226315302936,0.6562322856774708,-0.8472792664787353,1.4416929825739366,2.95291195860549
1784891146209275392,1.7279565334320068,-4.068248271942139,-1.7500261068344116,2.3987224102020264,0.6718689203262329,0.7394362688064575,-0.04273562878370285,3.841726779937744,3.5103654861450195,0.09348636865615845,0.3088498935076563,-0.6395524834787228,-0.2638272280406741,0.6526711729057468,-0.8322326404009749,1.5072748071345088,3.04385913533445
1784891146219194368,1.7378754615783691,0.5806586742401123,-1.7487002611160278,3.272470474243164,0.6916012763977051,0.7209668755531311,-0.04352319613099098,1.884509563446045,2.3443713188171387,-0.5072122812271118,0.2922434239925287,-0.6397082004251813,-0.26270100875886204,0.6605719274748054,-0.8051965399268397,1.5079481522774383,3.0693887481061437
1784891146229114624,1.747795581817627,2.3197221755981445,-2.4586212635040283,2.2688019275665283,0.711937665939331,0.6989056468009949,-0.06837740540504456,0.28986281156539917,2.0544512271881104,0.22407811880111694,0.28451797421160563,-0.634746547776989,-0.2508149042026713,0.6732296206516833,-0.7738662478661286,1.4750459269118357,3.051028702078215
1784891146239033344,1.7577145099639893,2.133275270462036,-1.9854363203048706,2.1790683269500732,0.7201834321022034,0.6864293217658997,-0.10075043886899948,-0.9240561127662659,1.6250331401824951,0.7095150947570801,0.2835544445171945,-0.6253536390809243,-0.24198678674881618,0.6855451391474261,-0.7565674262403276,1.4318028504335678,3.0228809834277053
1784891146248953600,1.767634630203247,-0.25383463501930237,0.049580927938222885,-1.7213170528411865,0.7240462899208069,0.6794023513793945,-0.11903553456068039,-2.8912062644958496,0.2260541319847107,1.1526048183441162,0.28450530666709517,-0.6203396417565828,-0.23592575339558888,0.6917908067097334,-0.746947863891932,1.4078507293763038,3.003607092476169
1784891146258872576,1.7775535583496094,-3.528461217880249,1.5423446893692017,-1.9926878213882446,0.7095505595207214,0.697920560836792,-0.09718602150678635,-0.6586319208145142,0.8449109196662903,1.3604000806808472,0.2864494228822324,-0.6239308761783372,-0.249233325980102,0.6830372289882212,-0.7724898369152677,1.4346749119303646,3.029229503974187
1784891146268792320,1.787473440170288,-3.0847907066345215,1.2466059923171997,-0.9219849705696106,0.70164555311203,0.7096439003944397,-0.06402488797903061,1.0591576099395752,0.8704342246055603,0.3109273314476013,0.28222794248729227,-0.631744568223643,-0.262462105970053,0.6725770646088131,-0.788992694568812,1.4797987141944637,3.073380895924929
1784891146278711552,1.7973926067352295,-1.2706489562988281,0.42943036556243896,-1.0971252918243408,0.695023775100708,0.7178159952163696,-0.04101840779185295,0.8927600383758545,1.25154447555542,-0.13866907358169556,0.27919800281820023,-0.636662408281029,-0.2723082346304653,0.6652502225701271,-0.800660304581962,1.511847433802045,3.106056518933594
1784891146288631552,1.8073124885559082,0.6152116060256958,0.5401685833930969,-0.7602704167366028,0.6881060004234314,0.724699854850769,-0.036335550248622894,0.6933026909828186,1.2733622789382935,-0.8150591254234314,0.2823836637422352,-0.6371148724272959,-0.2755301504024521,0.6621383888165858,-0.8105986945827748,1.5180401601615003,3.108403297550535
1784891146298550272,1.8172314167022705,1.2913010120391846,0.08061406016349792,-0.3854915201663971,0.6853041648864746,0.7271127700805664,-0.04081141948699951,0.7758775353431702,1.1018363237380981,-0.771703839302063,0.28723544216301844,-0.6363751037373304,-0.2731684773240732,0.6617413928196741,-0.8141068803836066,1.5113143040293575,3.0942697431551327
1784891146308471040,1.8271520137786865,2.3452351093292236,-0.29190918803215027,-0.2721804082393646,0.6829385757446289,0.7283387184143066,-0.05583663284778595,0.4417867660522461,0.9794707298278809,-0.7834730744361877,0.2940665561762561,-0.6326097394094989,-0.26811676886783475,0.6644119384159232,-0.8158943285739763,1.4892183999616555,3.0663102487249434
1784891146318390016,1.837071180343628,2.8279683589935303,-0.4372962713241577,-0.22964873909950256,0.6805792450904846,0.7285830974578857,-0.07732018083333969,-0.0051490068435668945,1.0323727130889893,-0.5171470046043396,0.3025390185863916,-0.6270310777757327,-0.261097563550368,0.6686779188129813,-0.8162510500768064,1.45767199854368,3.0286893420351335
1784891146328310016,1.8469910621643066,2.655729055404663,-0.5981799364089966,-0.7759680151939392,0.6761186718940735,0.7299094200134277,-0.10047820210456848,-0.29142940044403076,1.1419625282287598,-0.19706815481185913,0.3122042696424378,-0.6204826181213499,-0.2544842252450581,0.6728801089585669,-0.8181893845195614,1.4232657802450719,2.98833904650524
1784891146338228992,1.856909990310669,2.9174141883850098,-0.5468660593032837,-0.7624943256378174,0.669189453125,0.7325699329376221,-0.12460677325725555,-0.31640625,0.9835708141326904,-0.20086318254470825,0.32304316491106216,-0.6131066103830844,-0.24858981656587079,0.6767174950218237,-0.8220898258348783,1.3866991801670916,2.945846123824339
1784891146348148992,1.8668301105499268,2.7506842613220215,-0.8842611312866211,-1.9517160654067993,0.6583298444747925,0.7377816438674927,-0.14926612377166748,-0.5900314450263977,1.0461082458496094,-0.08066858351230621,0.33505137647390304,-0.604599873345224,-0.2445934009241533,0.6799807312965673,-0.8297781604552273,1.3478315177764535,2.9024528149145836
1784891146358067968,1.876749038696289,2.7939398288726807,-0.5675688982009888,-1.0012061595916748,0.6447729468345642,0.7441912889480591,-0.17449119687080383,-0.1696752905845642,0.7701214551925659,-0.053658246994018555,0.3481746136948968,-0.5953786835900311,-0.241409661378379,0.6826566124339769,-0.8393233182592068,1.30650275167109,2.8564315210339455
1784891146367988224,1.8866691589355469,3.1877970695495605,-0.7729292511940002,-0.9004229307174683,0.635680079460144,0.7454414367675781,-0.20056912302970886,-0.04606521129608154,0.6378440856933594,-0.09557342529296875,0.35958945877447823,-0.586644486840098,-0.2357194985159346,0.6862798410482143,-0.8411968314683895,1.2651634415088704,2.8100173146822613
1784891146377907968,1.8965890407562256,3.27336049079895,-1.2589449882507324,-1.4537943601608276,0.6260999441146851,0.7446269392967224,-0.23136495053768158,-0.23181277513504028,0.8756734132766724,-0.3275034725666046,0.37121720556929133,-0.5759739756700755,-0.22928477339354678,0.6912888971352561,-0.8399757529029133,1.2168267286285863,2.759122922802196
1784891146387826944,1.906507968902588,3.057828426361084,-0.945681095123291,-0.7038953304290771,0.6126135587692261,0.7456961870193481,-0.2619955539703369,-0.21060556173324585,0.7591407895088196,-0.3222481906414032,0.3832492991176199,-0.5642138580293742,-0.2250887621945471,0.695785628147735,-0.8415791017907084,1.166667583949013,2.709003424283092
1784891146397746944,1.9164280891418457,1.9574971199035645,-1.158595085144043,-1.3002674579620361,0.6050804257392883,0.7427263259887695,-0.2867666482925415,-0.5228508710861206,0.5136823058128357,-0.1785653531551361,0.39224026290543657,-0.555408216556131,-0.21940463178402686,0.6996647393413222,-0.8371327796774969,1.1282201978126711,2.6683993827740413
1784891146407665920,1.926347017288208,2.545464515686035,-1.0647655725479126,-1.1966907978057861,0.588438093662262,0.7461851239204407,-0.31136512756347656,-0.47120481729507446,0.46649181842803955,-0.37174034118652344,0.40275237556945637,-0.5443882451548493,-0.21899514894396638,0.7024763433500796,-0.8423132592864623,1.0841107259092813,2.6274348203168145
1784891146417586176,1.9362671375274658,2.928957939147949,-1.6878488063812256,-1.5442708730697632,0.5770449638366699,0.7432082295417786,-0.3386157155036926,-0.3044619560241699,0.40193337202072144,-0.12937134504318237,0.4119594122335676,-0.5334164919907676,-0.21484642433051518,0.7068219519006403,-0.8378527980931307,1.0401318551903065,2.5855337768131905
1784891146427504896,1.9461860656738281,3.501843214035034,-1.919161081314087,-1.6082985401153564,0.5575380325317383,0.7421162724494934,-0.37204116582870483,-0.44180017709732056,0.5146738290786743,-0.19517377018928528,0.4248169820221236,-0.5187052974420414,-0.21195336228619854,0.7110210797256886,-0.8362221758636253,0.9823602936086225,2.5311400201546745
1784891146437425152,1.956106185913086,4.68924617767334,-1.3098483085632324,0.3620578646659851,0.5490142107009888,0.7280766367912292,-0.41047269105911255,0.45243537425994873,0.17115432024002075,-0.04564303159713745,0.4358900367731878,-0.5044007558748898,-0.20085698467784124,0.7177996122919571,-0.8155119878803336,0.9287983228118243,2.476319936505265
1784891146447344128,1.9660251140594482,5.223160266876221,-1.5150104761123657,-1.259297251701355,0.5360968112945557,0.7116342782974243,-0.4540671408176422,-0.30878669023513794,0.3639577627182007,-0.1308480203151703,0.5434488057784149,-0.5082103210895531,-0.12119696456022987,0.6570365407559163,-0.791821649919556,0.8680539577973522,2.142201690057135
1784891146457263872,1.975944995880127,4.891766548156738,-1.0236968994140625,-0.16589057445526123,0.5263091325759888,0.6916841864585876,-0.4945420026779175,0.48675233125686646,-0.015582442283630371,0.383381724357605,0.6146513198393648,-0.49851965575039664,-0.06486250654042597,0.6078444479379514,-0.7638184384795902,0.8165064150659809,1.9036803224757666
1784891146467183104,1.9858641624450684,4.2430419921875,-0.9801104664802551,-0.4240858852863312,0.5187814831733704,0.6694191694259644,-0.5317364931106567,0.5621969103813171,-0.40538114309310913,0.26095402240753174,0.6647720840992191,-0.4832961439689617,-0.023592207055752244,0.5691627855466345,-0.7334266709843077,0.7730667650520354,1.726281707879498
1784891146477103104,1.995784044265747,3.5045087337493896,-1.3517111539840698,0.6189677119255066,0.5115889310836792,0.6492204070091248,-0.5628407001495361,0.8687211275100708,-0.23961347341537476,0.14342236518859863,0.7002498444422071,-0.4674971412304268,0.005105742120585963,0.5395095371402776,-0.7065590180963106,0.737732905296111,1.596105663036191
1784891146487021824,2.0057029724121094,2.5860419273376465,-0.3674451410770416,0.3823704123497009,0.5078217387199402,0.6302502751350403,-0.5872832536697388,0.89266037940979,0.02438223361968994,0.29223936796188354,0.7059917515143826,-0.45415390690597035,0.010129522857093228,0.543338978959847,-0.6818755518632249,0.7129645003104018,1.5745908552567773
1784891146496942080,2.015623092651367,2.146261215209961,-1.3688889741897583,-0.6327484846115112,0.5038558840751648,0.6154388189315796,-0.6061058640480042,0.6203964352607727,-0.1553710699081421,0.2681084871292114,0.7115135809439753,-0.4435517769329842,0.014452609344482835,0.5447948433363774,-0.6629425833645914,0.6935371476152676,1.5544024816342432
1784891146506861056,2.0255420207977295,2.7123396396636963,-1.1513077020645142,-0.27585428953170776,0.4890172481536865,0.6056308746337891,-0.6277527213096619,0.916179895401001,-0.03864473104476929,0.09120792150497437,0.7188939228201335,-0.4312190271509493,0.01318308145828866,0.5450394660750921,-0.6505584403818203,0.6618021613318144,1.5281010592904043
1784891146516781056,2.0354621410369873,2.627584218978882,-0.5176852345466614,0.4636240005493164,0.4860176146030426,0.5868464708328247,-0.6476094722747803,0.7693535089492798,0.16258889436721802,0.10999661684036255,0.723748123037305,-0.4193523811591151,0.01840782783480772,0.5477163987852857,-0.6271586070925792,0.6438079049083855,1.5111082197449603
1784891146526700032,2.0453810691833496,2.854296922683716,-0.8659247159957886,0.526662290096283,0.4841367304325104,0.5675080418586731,-0.6659926176071167,0.4033907651901245,0.23267805576324463,-0.0566636323928833,0.7283850821429317,-0.40793594098905067,0.024329997310858248,0.5499558396320927,-0.6034761658106493,0.6285786611857784,1.4950911413970938
1784891146536620032,2.0553011894226074,2.058788299560547,-1.413751482963562,-0.512261152267456,0.4736946225166321,0.5523319244384766,-0.6859611868858337,0.14272993803024292,0.20375627279281616,0.06558459997177124,0.7338379486744576,-0.3954408690763357,0.025415044837469182,0.5517810734511611,-0.5851590184187785,0.6043595567795289,1.4766963070440207
1784891146546539008,2.0652201175689697,1.9740535020828247,-1.2794137001037598,-0.33197498321533203,0.4613308310508728,0.5413926243782043,-0.702899694442749,0.1849093735218048,0.17247456312179565,0.06817984580993652,0.7393713463447599,-0.3846242178984478,0.024786435112179074,0.5520688239320797,-0.5720925852199429,0.5808089756393757,1.4580794226775855
1784891146556459008,2.0751399993896484,1.8461376428604126,-0.763343095779419,-0.18720103800296783,0.44928234815597534,0.5302450656890869,-0.7190170288085938,0.13107043504714966,0.2226082682609558,0.08594518899917603,0.7442363733391132,-0.37405349587615017,0.023988746193956252,0.5528296705852284,-0.5588895699629075,0.5584959804901979,1.4419653935485102
1784891146566378240,2.08505916595459,0.8430359363555908,-1.1928741931915283,-0.24435541033744812,0.43906623125076294,0.522096574306488,-0.7311880588531494,0.19405141472816467,-0.06312751770019531,0.1814444661140442,0.7476303878497313,-0.3659161822990451,0.022612563259891787,0.5537532504879608,-0.5493072928845182,0.5407748152587514,1.4309017435794456
1784891146576297984,2.0949790477752686,0.633449137210846,-0.9004802107810974,-0.6420171856880188,0.42546120285987854,0.5211216807365417,-0.7398749589920044,-0.06956520676612854,-0.48297470808029175,-0.0971306562423706,0.7512374549479219,-0.3601856199338062,0.01813353566654946,0.5527927692845731,-0.5481646657829321,0.5218678768357571,1.4186273182462028
1784891146586216960,2.104897975921631,-0.2539408802986145,-0.43604597449302673,0.0671813040971756,0.41911840438842773,0.5211881399154663,-0.743439793586731,0.052484989166259766,-0.4087308645248413,-0.07086074352264404,0.7521713033993994,-0.35782810608444937,0.015464511358743153,0.5531349651576274,-0.5482425367627537,0.5133428105441098,1.4155033060996058
1784891146596136960,2.1148180961608887,-0.4596579670906067,-1.0553662776947021,-0.85172039270401,0.41055622696876526,0.5264134407043457,-0.7445350885391235,-0.006472975015640259,0.0560145378112793,-0.24499738216400146,0.7529603680846321,-0.3572434776454748,0.01046671548262646,0.5525561708743072,-0.554376711122221,0.5039375885759565,1.4123918174302001
1784891146606056960,2.1247379779815674,0.3680112063884735,-1.0054709911346436,-0.5012459754943848,0.39903008937835693,0.5304911136627197,-0.7478998303413391,0.38432562351226807,0.22185873985290527,-0.2932989001274109,0.7549251433806266,-0.35500022708599166,0.004992858383446232,0.5513962866773547,-0.5591798080644854,0.4901136456120616,1.4050323025467069
1784891146615976192,2.134657144546509,1.1478091478347778,-0.7280150651931763,-0.3099396228790283,0.387326717376709,0.5270555019378662,-0.7564327120780945,0.40490958094596863,0.07858103513717651,-0.26178622245788574,0.7577991940321901,-0.3489711113562858,0.0016728569798644963,0.5513226370416819,-0.5551320041645885,0.47323619897856906,1.3951240371886213
1784891146625895936,2.1445770263671875,1.0409879684448242,-1.1550817489624023,-0.5423023104667664,0.3756824731826782,0.5209113955497742,-0.7664945721626282,0.2307933270931244,-0.19145894050598145,-0.06602489948272705,0.7611517430065531,-0.3416902593449129,-0.0006848716464049464,0.5512669080936994,-0.5479182645015219,0.45572099051190534,1.3837860374249458
1784891146635814912,2.15449595451355,0.9247257113456726,-0.8808700442314148,-0.26299792528152466,0.365192174911499,0.5152925848960876,-0.7753116488456726,0.264599084854126,-0.2213626503944397,-0.024386167526245117,0.7639932281395297,-0.3351655336275319,-0.0028695909494591636,0.551334818420819,-0.5413490400270111,0.44020114137174243,1.3742174224500225
1784891146645734912,2.1644160747528076,0.6483559012413025,-0.8395271301269531,-0.2932908535003662,0.35585328936576843,0.5106592774391174,-0.7826848030090332,0.31791383028030396,-0.1529322862625122,-0.0384974479675293,0.7661776623391329,-0.32959337898427354,-0.005080359308302336,0.5516466937248968,-0.5359514325212197,0.42672010581244463,1.3668835844475729
1784891146655653888,2.17433500289917,0.5556319952011108,-0.5796793699264526,-0.14809991419315338,0.34807708859443665,0.5072654485702515,-0.7883679866790771,0.31539031863212585,-0.07257312536239624,0.03487372398376465,0.7680588992618506,-0.3252190319012302,-0.00697120409524992,0.5516062227882678,-0.5320087252039515,0.4157762944960422,1.3604668368762374
1784891146665574144,2.1842551231384277,0.8372993469238281,-0.8752263784408569,-0.22972314059734344,0.3412370979785919,0.5020115971565247,-0.7946959137916565,0.2789563834667206,0.008455932140350342,-0.028790414333343506,0.7695196094732065,-0.3202882846821202,-0.008213911111113893,0.5524376800642332,-0.5259231091877664,0.4055859306100769,1.3558670695025012
1784891146675493120,2.19417405128479,0.9454231858253479,-0.8754873871803284,-0.2585203945636749,0.33211153745651245,0.49721696972846985,-0.8015467524528503,0.17794403433799744,0.12438032031059265,-0.003796875476837158,0.7718370064293886,-0.31483912699678085,-0.010146546380593998,0.5523050599571642,-0.5203881637968094,0.39280555874817286,1.3480446454913229
1784891146685413120,2.204094171524048,1.3475016355514526,-0.7031627297401428,-0.21107620000839233,0.32454144954681396,0.48879918456077576,-0.8097828030586243,0.26463091373443604,0.025635629892349243,-0.12065237760543823,0.7741194593419901,-0.3082181968654564,-0.010494712448415813,0.5528385197300654,-0.5107127487914529,0.3811751065419448,1.3409664628522715
1784891146695332096,2.21401309967041,1.371553897857666,-0.6289565563201904,-0.3095000386238098,0.3167392313480377,0.479004442691803,-0.8186763525009155,0.17508205771446228,-0.12709102034568787,0.008861899375915527,0.7768672022905355,-0.300922998677907,-0.010352538970916696,0.5530058134473218,-0.4995202288466214,0.36915546096765334,1.3324361419228297
1784891146705251840,2.223932981491089,1.3468594551086426,-0.9460279941558838,0.09789859503507614,0.3093164563179016,0.4682452380657196,-0.8276894092559814,0.2233068346977234,-0.3020769953727722,0.07225728034973145,0.7791174408228562,-0.2933500348931391,-0.010052977339874444,0.5539139705356997,-0.48730379037525345,0.3576399354097304,1.3258806378410997
1784891146715171072,2.2338521480560303,1.0442901849746704,-0.6660610437393188,-0.2981931269168854,0.3028300404548645,0.45863205194473267,-0.8354343771934509,0.0748860239982605,-0.26795822381973267,0.19282573461532593,0.781019559558148,-0.2866839518371928,-0.009752946805564952,0.5547302478629462,-0.4764551949708671,0.3477511933174517,1.3204203859051107
1784891146725091072,2.243772029876709,1.0206130743026733,-0.5307524800300598,0.1576673686504364,0.2969141900539398,0.4503578543663025,-0.8420330882072449,0.15894213318824768,-0.35433429479599,0.17526984214782715,0.7828085078658307,-0.28087739497658853,-0.009556709740439514,0.5551823114051326,-0.46716610726683283,0.33900324413934185,1.3151664699173518
1784891146735009792,2.2536909580230713,0.40779930353164673,-0.5115045309066772,0.1299658864736557,0.2916707992553711,0.4439524710178375,-0.8472510576248169,0.1469430923461914,-0.22707930207252502,0.2397071123123169,0.7834992791158693,-0.276176625372478,-0.010047609105971439,0.5565557578511637,-0.46000488388448146,0.33154804947602434,1.3135816244391347
1784891146744930048,2.263611078262329,0.19641461968421936,-0.43679487705230713,0.004082261119037867,0.2863248586654663,0.4415889084339142,-0.8503042459487915,0.1371217966079712,-0.21572831273078918,0.1693044900894165,0.783979849632147,-0.27333416427052354,-0.011675152100048401,0.5572501634341226,-0.45736883929746425,0.3248064367882528,1.3121060325513283
1784891146754849024,2.2735300064086914,0.019884128123521805,-0.15573783218860626,0.28448787331581116,0.2838582694530487,0.4410455524921417,-0.8514125347137451,0.1388407051563263,-0.027089864015579224,0.15608477592468262,0.7837019879540662,-0.27226790374999005,-0.012803072189950415,0.5581374895518544,-0.4567633117316729,0.3218077219803659,1.3131250859433696
1784891146764769024,2.283450126647949,0.06733659654855728,-0.18856315314769745,0.11831805855035782,0.2835276126861572,0.4407408535480499,-0.8516804575920105,0.15420126914978027,0.13471385836601257,0.1502339243888855,0.7831309916350874,-0.2720049458724432,-0.013155924398701911,0.559058281284523,-0.45642385677394437,0.32136387027024077,1.3152089915986578
1784891146774688000,2.2933690547943115,0.3336741328239441,-0.36838623881340027,0.14787855744361877,0.2815007269382477,0.4384617507457733,-0.8535271883010864,0.21230420470237732,0.15840104222297668,0.06481564044952393,0.7830967458537006,-0.2702841572743996,-0.013523499298612398,0.5599313491072142,-0.45388641380437295,0.31857507943831354,1.3156339829968218
1784891146784608000,2.3032891750335693,0.4950316250324249,-0.21141764521598816,0.11056685447692871,0.27917271852493286,0.4347042441368103,-0.8562095761299133,0.12480372190475464,0.1515842080116272,0.06488877534866333,0.7832354634021476,-0.26778939191810636,-0.013566609202237656,0.5609341052466168,-0.4497098427330378,0.3151871796827282,1.31566085700013
1784891146794528000,2.313209056854248,0.451471209526062,-0.1804591566324234,0.16223971545696259,0.27747753262519836,0.4301571249961853,-0.8590524196624756,0.13084766268730164,0.0486484169960022,0.050595998764038086,0.7835683535794589,-0.2651493312226962,-0.01302380822885308,0.5617355498873252,-0.44466681711904166,0.3124256890365052,1.315129513848327
1784891146804446976,2.3231279850006104,0.2396756112575531,-0.19872285425662994,0.0024018394760787487,0.2756142020225525,0.42718714475631714,-0.8611317873001099,0.150151789188385,0.07742100954055786,0.07620441913604736,0.7838775258701552,-0.26318438048416054,-0.01296491795452449,0.5622294373556211,-0.4413794942412545,0.30975774679237567,1.3144324741846836
1784891146814366976,2.333048105239868,0.47195765376091003,-0.11310765892267227,-0.009472096338868141,0.27364838123321533,0.42488762736320496,-0.862894594669342,0.18225371837615967,0.17025092244148254,-0.03812164068222046,0.7843477258070545,-0.2615004755298682,-0.013045995265973586,0.5623576203466092,-0.4388377569229106,0.3070959056153673,1.3130571194263576
1784891146824285952,2.3429670333862305,0.7209885120391846,-0.22498705983161926,-0.0793643593788147,0.27143192291259766,0.4200938642024994,-0.8659363985061646,0.16107842326164246,0.1974446177482605,-0.14334094524383545,0.7852892508020393,-0.2586086707067328,-0.01238331531163428,0.562395882859301,-0.43354875741308385,0.303754493424399,1.310375316292669
1784891146834206208,2.3528871536254883,0.9529315233230591,-0.45178303122520447,-0.06958240270614624,0.2670428156852722,0.4135902523994446,-0.8704201579093933,0.15789920091629028,0.11520311236381531,-0.13922333717346191,0.7865807271828409,-0.2542509475776004,-0.012098142210821875,0.5625842279675619,-0.4263938569392269,0.2976813907488121,1.3066473724972656
1784891146844124928,2.3628060817718506,1.1502726078033447,-0.49589988589286804,0.006214087828993797,0.2628210783004761,0.4045107662677765,-0.8759543895721436,0.17098629474639893,0.03875705599784851,-0.11608052253723145,0.7880275477759426,-0.2488007090027971,-0.011000664991685123,0.5630183756339262,-0.416443825844982,0.2914932129911133,1.3027446467007555
1784891146854044928,2.3727259635925293,1.2484586238861084,-0.3573337495326996,-0.1260831654071808,0.25874799489974976,0.39482083916664124,-0.8815701603889465,0.08932024240493774,0.048691123723983765,0.004586517810821533,0.7896572722579401,-0.24315194357187508,-0.009594180237790767,0.5632285443085012,-0.4058728332898083,0.28549035070680834,1.2982659184981329
1784891146863964160,2.3826451301574707,1.1911677122116089,-0.4065580368041992,-0.15718862414360046,0.25485870242118835,0.38451018929481506,-0.887242317199707,0.17324185371398926,-0.006534755229949951,0.0865069031715393,0.791526222212304,-0.23731273749523943,-0.007841693766655186,0.5631229813612596,-0.39467715629669053,0.27971716158506976,1.293004117311537
1784891146873883904,2.3925650119781494,0.9850689172744751,-0.30866920948028564,-0.2199946790933609,0.2509969472885132,0.37588047981262207,-0.892028272151947,0.16851294040679932,0.0033614635467529297,0.17471259832382202,0.7932722375849981,-0.23225565848343302,-0.00657132041202106,0.5627906898895199,-0.3853467566586772,0.2742858840976705,1.287922958152504
1784891146883803136,2.402484178543091,1.0942758321762085,-0.1889561265707016,-0.04669133573770523,0.24837759137153625,0.36707013845443726,-0.8964195847511292,0.25476568937301636,-0.025029093027114868,0.10305410623550415,0.7948391526497467,-0.2275243669387961,-0.0047815942208560246,0.5625305043513823,-0.3758573179454702,0.2702965107698732,1.2834952509605173
1784891146893723136,2.4124040603637695,1.0391066074371338,-0.2697540521621704,-0.05876903980970383,0.24591763317584991,0.35804998874664307,-0.9007356762886047,0.2602469027042389,-0.013979554176330566,0.12983113527297974,0.7961888203604537,-0.22276315178725062,-0.0029570559874142364,0.562540045428954,-0.3661785810789146,0.26652323524081367,1.2798391889221028
1784891146903641856,2.422322988510132,0.9402921199798584,-0.19208720326423645,-0.014173608273267746,0.24316291511058807,0.34953469038009644,-0.9048189520835876,0.21505852043628693,-0.08828893303871155,0.10679954290390015,0.7974823093865812,-0.21814790532603687,-0.0014190408160305512,0.5625225415039183,-0.35707440607720603,0.262538994869808,1.2762885103798811
1784891146913562112,2.4322431087493896,0.7129306197166443,-0.19088025391101837,-0.05296361446380615,0.24136020243167877,0.3424496352672577,-0.9080052375793457,0.14061306416988373,-0.1673244833946228,0.023346424102783203,0.7983883268090862,-0.21446999311263384,9.821613772530148e-06,0.5626533332677424,-0.3495229339010355,0.2598058459626354,1.2739190793978277
1784891146923481088,2.442162036895752,0.49889716506004333,-0.14942309260368347,0.07240495830774307,0.23973822593688965,0.3370113670825958,-0.9104663133621216,0.16605402529239655,-0.19212916493415833,-0.018259882926940918,0.799005540506964,-0.21157952006377093,0.0009727464943359603,0.5628705446449775,-0.3437407465194676,0.25746938601962366,1.2723643729328797
1784891146933401088,2.4520821571350098,0.3372124135494232,-0.15574464201927185,-0.10186778008937836,0.2381882518529892,0.3338577449321747,-0.9120336174964905,0.1433730274438858,-0.07952424883842468,-0.01628059148788452,0.799511213426407,-0.20971752697639057,0.0013194255582227724,0.562848659944352,-0.3403931974947776,0.2554558861091911,1.2709344508537985
1784891146943320064,2.462001085281372,0.476127952337265,-0.07410410791635513,-0.004288487136363983,0.2366127073764801,0.33063024282455444,-0.9136181473731995,0.0729423463344574,0.06719690561294556,-0.03573793172836304,0.8000403968747071,-0.20781747367674988,0.0016831172186896682,0.5628005646432621,-0.33697128271202514,0.2534163908523879,1.2694267378001443
1784891146953239808,2.471920967102051,0.8802739977836609,-0.0820634588599205,0.12831014394760132,0.23569750785827637,0.32454851269721985,-0.9160321950912476,0.07373547554016113,0.10603925585746765,-0.08398306369781494,0.8006737519028558,-0.2048757884423921,0.0031340971697415123,0.5629721462753373,-0.33053436454408014,0.2518398447782028,1.2678588872404004
1784891146963160064,2.4818410873413086,1.0027285814285278,-0.25215476751327515,0.13763706386089325,0.23481301963329315,0.3153509795665741,-0.9194654226303101,0.060063064098358154,0.07071167230606079,-0.09652578830718994,0.8012011913518878,-0.20059461820927324,0.005394562075999676,0.5637458480337316,-0.3208264726781007,0.2500356993850748,1.266973692136795
1784891146973079040,2.491760015487671,0.914306104183197,-0.44229188561439514,-0.15802890062332153,0.2316172868013382,0.30673977732658386,-0.9231815338134766,0.1096302717924118,0.026695281267166138,-0.06433677673339844,0.8021647839705648,-0.19586993357788912,0.0066487880061396245,0.5640233631111089,-0.3117657913559151,0.24581641139177557,1.2644652570413344
1784891146982999040,2.5016801357269287,1.0552315711975098,-0.2223488688468933,0.1927054077386856,0.2283255010843277,0.297672301530838,-0.9269620776176453,0.1885293573141098,-0.11047747731208801,-0.09510213136672974,0.8032302439113379,-0.1909309543442672,0.008021109309309342,0.5641827724745738,-0.3022534847341933,0.24150829091963494,1.2616139082177154
1784891146992918016,2.511599063873291,0.8028062582015991,-0.26951488852500916,0.0028821073938161135,0.2260098159313202,0.2886543869972229,-0.9303752779960632,0.13727141916751862,-0.08253869414329529,-0.005583524703979492,0.8037568109483761,-0.18633216929196159,0.009626699315246987,0.5649447540488376,-0.292821108725283,0.23830720499406494,1.2606184379226906
1784891147002838016,2.521519184112549,0.6871817111968994,-0.22413994371891022,0.08836159110069275,0.22390885651111603,0.2815311849117279,-0.9330621361732483,0.05709700286388397,-0.0653751790523529,-0.023343443870544434,0.8043725630737029,-0.1826232524663491,0.010847355420795473,0.5652572194488068,-0.2853894554240381,0.23551856639718924,1.2591035870370622
1784891147012756992,2.531438112258911,0.5279756188392639,-0.1317434012889862,0.04306364804506302,0.2225525677204132,0.2756614089012146,-0.9351369738578796,0.0959441214799881,-0.0091361403465271,-0.04609471559524536,0.8046331184084438,-0.1796913610266728,0.0119386167897195,0.5658039366788392,-0.2792777014564574,0.2336429028177067,1.2587039993083076
1784891147022676992,2.54135799407959,0.42393118143081665,-0.09350599348545074,-0.029482455924153328,0.22132691740989685,0.27146172523498535,-0.9366551637649536,0.08731259405612946,-0.02747368812561035,-0.03317821025848389,0.805131840030229,-0.17751303571095656,0.012709396635297882,0.5657653366180734,-0.27491145921721755,0.23203881948106328,1.2573097205263033
1784891147032596224,2.5512771606445312,0.4005013108253479,-0.3529472351074219,-0.10915940999984741,0.21926626563072205,0.2676984369754791,-0.9382216334342957,0.15150703489780426,-0.015760600566864014,-0.05593419075012207,0.8055878876322623,-0.17527266830517307,0.012987284841296442,0.5658083089041251,-0.2710035037078632,0.22958354519642865,1.2560453482305165
1784891147042515968,2.56119704246521,0.6816725134849548,-0.3143998384475708,-0.0588243342936039,0.2154235988855362,0.2634049654006958,-0.9403246641159058,0.1326293796300888,-0.0042649805545806885,-0.12112241983413696,0.8065157090741951,-0.17226194090934646,0.012786136072297288,0.5654155277870104,-0.2665501210531307,0.22520859631538762,1.2531930012534318
1784891147052434944,2.5711159706115723,0.9226886034011841,-0.3834867775440216,0.056596800684928894,0.2125406116247177,0.2554057836532593,-0.9431831240653992,0.16297820210456848,0.030925363302230835,-0.12815171480178833,0.8070402783760122,-0.1679749221828636,0.013887981968519755,0.5659305598268356,-0.2582673891483274,0.22164179485877028,1.252015955781881
1784891147062354944,2.58103609085083,0.984416663646698,-0.2760678827762604,-0.04997837916016579,0.20927482843399048,0.24657073616981506,-0.9462594389915466,0.04733222723007202,-0.013080760836601257,-0.06005769968032837,0.8079326407658315,-0.1632184942647047,0.015165961225907618,0.5660163642588955,-0.24914013469314064,0.21765657516727513,1.2495827785670992
1784891147072273920,2.5909550189971924,0.9303601980209351,-0.324989914894104,-0.12664249539375305,0.2062813937664032,0.23800870776176453,-0.9491047263145447,0.1050284206867218,-0.04464934766292572,-0.04265546798706055,0.8089498785476439,-0.15866530639224372,0.016521021540745993,0.5658200788218225,-0.24031512680347206,0.21401467404318278,1.246651112206308
1784891147082194176,2.60087513923645,0.9197980761528015,-0.3188297748565674,0.03362254053354263,0.2029857039451599,0.22916504740715027,-0.9519875049591064,0.2015400528907776,-0.05202578008174896,-0.049675703048706055,0.8098602409254345,-0.15391455459279377,0.01779234166881404,0.5657914888420027,-0.2312198140327195,0.21007713687583282,1.2440944393321678
1784891147092112896,2.6107940673828125,0.8405783772468567,-0.3579556941986084,-0.028047479689121246,0.1997806280851364,0.22085964679718018,-0.9546248912811279,0.1847561150789261,-0.024875760078430176,-0.03724217414855957,0.810482214782246,-0.1494362886082637,0.018876996946758574,0.566066267044261,-0.22269579453120078,0.2062992172943244,1.242492439050052
1784891147102033152,2.6207141876220703,0.8752870559692383,-0.3579559624195099,0.11141001433134079,0.19676148891448975,0.21269868314266205,-0.9571020007133484,0.16210997104644775,-0.014532789587974548,-0.04071599245071411,0.8110684945516534,-0.14508352777658695,0.019994577576854324,0.5663204672481834,-0.21433601114891576,0.2027556055853354,1.2409741936452139
1784891147111952896,2.630634069442749,1.0229891538619995,-0.3092259466648102,0.04842386022210121,0.19368954002857208,0.20353980362415314,-0.9597165584564209,0.13217714428901672,0.02126792073249817,-0.06639117002487183,0.8115394596635584,-0.1403079313007504,0.021340027366598603,0.5667997036397715,-0.20497205823620035,0.19914448231695703,1.2398851325114728
1784891147121871872,2.6405529975891113,1.2215086221694946,-0.4103461503982544,0.03650381788611412,0.19029751420021057,0.1928531527519226,-0.9625977873802185,0.17931613326072693,0.011309444904327393,-0.1017637848854065,0.8122148386354469,-0.13479914702521606,0.02302807592740917,0.5671031063431375,-0.19406905337813554,0.195174983980826,1.2381164434864655
1784891147131792128,2.650473117828369,1.3287557363510132,-0.5103204250335693,0.05666511133313179,0.1857714205980301,0.18065409362316132,-0.9658432006835938,0.1836591213941574,-0.035695597529411316,-0.12099456787109375,0.812951469440516,-0.12833385894555946,0.024674346000032803,0.5674781637339185,-0.18165144601176503,0.19002057830365018,1.2361859262834127
1784891147141711104,2.6603920459747314,1.306199550628662,-0.6141908764839172,0.14122793078422546,0.18056505918502808,0.16741681098937988,-0.9692099094390869,0.18038158118724823,-0.13787581026554108,-0.09876793622970581,0.8135051258184186,-0.12125961366824729,0.026289621579443995,0.5681676045723036,-0.168208914351403,0.18418969315247347,1.2349000709918827
1784891147151631104,2.6703121662139893,1.2261954545974731,-0.5403087139129639,0.049826644361019135,0.17504368722438812,0.15523909032344818,-0.9722450971603394,0.08647671341896057,-0.13669966161251068,-0.07780373096466064,0.8140803498217077,-0.11455003853985733,0.02749071103225204,0.5686789372364832,-0.15586947709729554,0.1781323561478033,1.2334569760885328
1784891147161550080,2.6802310943603516,1.139275312423706,-0.5318736433982849,0.1384369432926178,0.16982707381248474,0.1435161978006363,-0.9749675989151001,0.10870684683322906,-0.10257688164710999,-0.07083922624588013,0.8145138340895007,-0.10813889401174615,0.028673502685892596,0.5692547176265481,-0.14401348486106524,0.17245710978772288,1.2324300660494212
1784891147171469824,2.6901509761810303,1.052750587463379,-0.5390389561653137,0.06075209751725197,0.16473732888698578,0.13293330371379852,-0.9773383736610413,0.08172261714935303,-0.09800595045089722,-0.036440253257751465,0.8148993557622095,-0.10225127678460545,0.029588462151716108,0.5697439586822797,-0.13332796712391592,0.16698745789841235,1.2314965701446756
1784891147181389056,2.7000701427459717,1.0310815572738647,-0.5481472611427307,0.18731696903705597,0.15984231233596802,0.12266895920038223,-0.9794910550117493,0.16486471891403198,-0.08465931564569473,-0.03207510709762573,0.8150919144367017,-0.09657157117081555,0.030469561848624455,0.570412808435594,-0.12297870608849026,0.1617632448420984,1.2311833895497752
1784891147191309056,2.7099900245666504,1.163106083869934,-0.5476940870285034,0.24453315138816833,0.154617577791214,0.11176061630249023,-0.9816328287124634,0.1268613040447235,-0.06534338742494583,-0.03023850917816162,0.8151202504556876,-0.09054802717906558,0.03137913844323717,0.571310227892425,-0.11199458966698816,0.15622705961105235,1.2314222825329724
1784891147201227776,2.7199089527130127,1.051878809928894,-0.5410774350166321,0.12499929964542389,0.14957155287265778,0.10067906975746155,-0.9836117625236511,0.10738644003868103,-0.06829992681741714,0.03326386213302612,0.8150942276756445,-0.08451737719703613,0.03241817462821802,0.5722126575745742,-0.10084993853476006,0.15090754107655707,1.2317915680787508
1784891147211148032,2.7298290729522705,0.9185291528701782,-0.4890211820602417,0.1618347316980362,0.14454780519008636,0.09074210375547409,-0.9853282570838928,0.12216055393218994,-0.1664867401123047,0.029014229774475098,0.8152301487953938,-0.07896334207082657,0.03317612130652653,0.5727687019213189,-0.09086710042583337,0.14566116392907288,1.231552103112462
1784891147221067008,2.739748001098633,0.756034791469574,-0.48828214406967163,0.23642560839653015,0.1399305760860443,0.08225514739751816,-0.9867388606071472,0.2250291407108307,-0.17035940289497375,-0.002183258533477783,0.8150121085593647,-0.07414978444869556,0.03365103968008322,0.573693928479204,-0.08234818874605372,0.1408718348951304,1.2325017645227752
1784891147230987008,2.7496681213378906,0.6237673163414001,-0.5916357040405273,0.15992914140224457,0.13479016721248627,0.07515763491392136,-0.9880197048187256,0.18117357790470123,-0.13988542556762695,-0.035722970962524414,0.8147707325355292,-0.06976082093972401,0.033519756228698454,0.5745942473079375,-0.07522856939502687,0.1355875364547883,1.2335544393217863
1784891147240907008,2.7595880031585693,0.5611500144004822,-0.6430131793022156,0.2795439660549164,0.12883147597312927,0.06930653005838394,-0.9892416596412659,0.15388336777687073,-0.08700671792030334,-0.04429715871810913,0.8144808457188101,-0.06565114956139524,0.03269706211723528,0.5755360959515473,-0.06936213338737822,0.1295036930331875,1.2348221670189845
1784891147250826240,2.7695071697235107,0.5917694568634033,-0.6098372936248779,0.20634938776493073,0.12301240116357803,0.0633515790104866,-0.9903810024261475,0.12848296761512756,-0.0415467768907547,-0.07599472999572754,0.814028914563305,-0.061549769254598846,0.03195506238741868,0.5766692152358133,-0.06339403504853412,0.12357426857027229,1.2366240667076314
1784891147260745984,2.7794270515441895,0.7551668882369995,-0.5313427448272705,0.2868175804615021,0.11748629808425903,0.05670005828142166,-0.991454541683197,0.10115689784288406,-0.019483868032693863,-0.10223442316055298,0.8137316893466181,-0.057241200236972434,0.03156235437929041,0.5775535650628386,-0.05673048138875081,0.11794889689122397,1.2378421168137268
1784891147270664960,2.7893459796905518,0.7789201736450195,-0.5147672295570374,0.2724999189376831,0.11242416501045227,0.04874465987086296,-0.992464005947113,0.08932754397392273,-0.04526565223932266,-0.05399900674819946,0.8390423362340718,-0.051029511468201214,0.034117369975508814,0.5405923896717204,-0.04876398380366516,0.1127970043310535,1.147464980750366
1784891147280584960,2.7992660999298096,0.8698362112045288,-0.48447805643081665,0.2591231167316437,0.10753399133682251,0.0401647686958313,-0.9933897852897644,0.11178058385848999,-0.1187170147895813,-0.018939316272735596,0.8584360028998954,-0.044791912440461865,0.03603886792847667,0.5096887761358649,-0.04017557445115419,0.10782967468117498,1.073777953265372
1784891147290503936,2.809185028076172,0.6722568869590759,-0.5330053567886353,0.2988685667514801,0.10242395102977753,0.032064687460660934,-0.9942238926887512,0.15934057533740997,-0.14446093142032623,0.02742701768875122,0.8737501589210136,-0.03887625165145918,0.037103645225762184,0.4833969221195267,-0.0320701833777334,0.10265685860222308,1.0123082664498995
1784891147300424192,2.8191051483154297,0.408123254776001,-0.5074629783630371,0.2850020229816437,0.09772540628910065,0.026274625211954117,-0.9948664903640747,0.12395427376031876,-0.16366475820541382,0.010201632976531982,0.8857711164638764,-0.034267360046842776,0.03731607057258453,0.46134881901710234,-0.026277649436040915,0.0979155424562241,0.9616548327505532
1784891147310342144,2.8290231227874756,0.19637800753116608,-0.47806841135025024,0.33343106508255005,0.0927632600069046,0.02318611368536949,-0.9954181909561157,0.1498972773551941,-0.1307453215122223,-0.07185781002044678,0.8958147907487634,-0.030949517349592847,0.03651068621982291,0.4418426517108555,-0.023188191948937457,0.09292186792804544,0.9175119190197044
1784891147320262144,2.8389432430267334,0.06874973326921463,-0.6010763645172119,0.33929428458213806,0.08759096264839172,0.021445930004119873,-0.9959256649017334,0.18972226977348328,-0.08641785383224487,-0.1384890079498291,0.9038885528144738,-0.028379907732644177,0.0350963985334146,0.4253800778511912,-0.02144757424869034,0.08772357866787814,0.8806640640233742
1784891147330181120,2.8488621711730957,0.05924764275550842,-0.610361635684967,0.3621715307235718,0.08169261366128922,0.020522983744740486,-0.9964462518692017,0.13710317015647888,-0.07450857758522034,-0.17927396297454834,0.9107303945950652,-0.026173441206561548,0.03304280916875506,0.4108445048259878,-0.02052442469610393,0.08180101666706754,0.8484021188715478
1784891147340101120,2.8587820529937744,0.10807190835475922,-0.5996688008308411,0.39607834815979004,0.07570033520460129,0.019445592537522316,-0.9969409704208374,0.07028049230575562,-0.055181678384542465,-0.1845928430557251,0.916391467818552,-0.024024933531237566,0.030859522147779282,0.39836805738070113,-0.019446818132124084,0.07578718313113882,0.8208762545054643
1784891147350020096,2.868701219558716,0.22704124450683594,-0.6467007398605347,0.42102810740470886,0.0695250928401947,0.017550956457853317,-0.9974257946014404,0.0773102343082428,-0.04123259335756302,-0.16349339485168457,0.921045185249483,-0.02159131211945368,0.028651622617698002,0.38779988175556335,-0.017551857594719986,0.06959196447009518,0.7976400519387764
1784891147359940096,2.8786211013793945,0.3126581311225891,-0.6550172567367554,0.40644729137420654,0.06316587328910828,0.014559051021933556,-0.9978968501091003,0.12193850427865982,-0.022173184901475906,-0.14904528856277466,0.9250900021213369,-0.01870363116322817,0.026490625110413352,0.37836090263142524,-0.014559565115097109,0.06321465951465471,0.7769403920173397
1784891147369860096,2.8885412216186523,0.5019475817680359,-0.6693258881568909,0.3930162489414215,0.056608714163303375,0.010217499919235706,-0.9983441829681396,0.12078996747732162,-0.03031332418322563,-0.15929436683654785,0.9286458028899648,-0.015225193547050521,0.024415463499401553,0.3698501193025514,-0.010217677783415096,0.056641952472276526,0.7583146556302067
1784891147379779072,2.8984601497650146,0.637193500995636,-0.6541144251823425,0.5479544401168823,0.050221171230077744,0.004409202840179205,-0.9987283945083618,0.20353248715400696,-0.08959902077913284,-0.13164269924163818,0.9316493890551332,-0.011163161567991022,0.022609509730940086,0.36248248140419026,-0.00440921721500758,0.05024279669144105,0.7422184858699283
1784891147389699328,2.9083802700042725,0.5877079367637634,-0.6682111024856567,0.6582083106040955,0.043706264346838,-0.0020501166582107544,-0.9990423321723938,0.2491251528263092,-0.16778020560741425,-0.1115533709526062,0.9338836471595889,-0.006845523369529695,0.02078408606328422,0.35690675180446524,0.002050118066139236,0.04372028201588475,0.7300470926753531
1784891147399618048,2.9182991981506348,0.40828946232795715,-0.6632168889045715,0.617070198059082,0.037126798182725906,-0.007432016544044018,-0.9992828965187073,0.1961190402507782,-0.1879415214061737,-0.11477649211883545,0.9357378203821527,-0.0030616872376764545,0.0186859087783615,0.3521875700923641,0.007432084949731732,0.03713636013487486,0.7198117116830325
1784891147409538048,2.9282190799713135,0.08066478371620178,-0.6318697333335876,0.6676232218742371,0.030714673921465874,-0.01001029834151268,-0.9994780421257019,0.13249333202838898,-0.16165107488632202,-0.1221650242805481,0.9373284614397578,-0.000654168759401256,0.016141234879651384,0.348072514663563,0.010010465624785914,0.03072104515724823,0.7109716825698917
1784891147419457280,2.938138246536255,-0.009610515087842941,-0.623782753944397,0.6872158050537109,0.024400338530540466,-0.010393248870968819,-0.9996482133865356,0.10505522787570953,-0.15180768072605133,-0.20214921236038208,0.9386726582284332,0.0006744249502998511,0.013244814725905172,0.34455448192074917,0.010393436195364298,0.02440407885150273,0.7034660728549635
1784891147429377024,2.9480581283569336,-0.0025609282311052084,-0.7409837245941162,0.62187260389328,0.017302650958299637,-0.010489294305443764,-0.9997952580451965,0.11016927659511566,-0.10230367630720139,-0.21431607007980347,0.9398099896232844,0.00197433380616919,0.009922914977476938,0.34154765001323023,0.010489486208903354,0.01730446665204349,0.6970725932628485
1784891147439296000,2.957977056503296,-0.0639720931649208,-0.7615454792976379,0.5703697204589844,0.009857580065727234,-0.010297060012817383,-0.999898374080658,0.07183797657489777,-0.11833453178405762,-0.15793848037719727,0.9408681869496698,0.0031748776354254735,0.006381462102557287,0.3386980455296071,0.01029724218672732,0.009858261974494088,0.6910331868640476
1784891147449216000,2.9678971767425537,-0.032891470938920975,-0.7939377427101135,0.5173207521438599,0.002003783592954278,-0.009974459186196327,-0.999948263168335,0.07729614526033401,-0.09795095771551132,-0.13040757179260254,0.9417846348889924,0.004360194466651008,0.0026202324800796866,0.3361783415844253,0.009974624527364593,0.002003884516177914,0.6857114823510129
1784891147459134976,2.977816104888916,-0.08526599407196045,-0.8562405705451965,0.46309447288513184,-0.006051050964742899,-0.009539701975882053,-0.9999361634254456,0.13265322148799896,-0.07392587512731552,-0.14371001720428467,0.9426567279393564,0.005506174314341826,-0.0012602961466361238,0.33371605535907395,0.009539847108791315,-0.006051363120171428,0.6805259186295184
1784891147469055232,2.987736225128174,-0.15414293110370636,-0.8706902861595154,0.4211164712905884,-0.014682233333587646,-0.008328878320753574,-0.9998575448989868,0.13377708196640015,-0.070742167532444,-0.12379968166351318,0.943553169580915,0.006360566766324644,-0.005548225296065547,0.3311137318170414,0.00832897499894069,-0.014683270014624657,0.6750534710805931
1784891147478974208,2.997655153274536,-0.12084729224443436,-0.8900223970413208,0.3860796391963959,-0.023479966446757317,-0.006838741712272167,-0.9997009038925171,0.12998631596565247,-0.05688196420669556,-0.1344848871231079,0.9443783695968658,0.007088392852414763,-0.009964754173175444,0.3286336961078268,0.0068387950878560245,-0.023482673301236635,0.6698454940642927
1784891147488894208,3.007575273513794,-0.0750601589679718,-0.9286172986030579,0.4454067349433899,-0.03239854797720909,-0.005651089362800121,-0.9994590282440186,0.1447184979915619,-0.058924105018377304,-0.13689345121383667,0.9450493263121806,0.00796171826936291,-0.01439042668371472,0.32651373064608863,0.005651119247494435,-0.032404734980967395,0.6654105840254333
1784891147498814208,3.0174951553344727,-0.052706919610500336,-0.9775350093841553,0.2858109474182129,-0.041885700076818466,-0.0048457360826432705,-0.9991106390953064,0.14010652899742126,-0.03459823504090309,-0.14029359817504883,0.9457257584513923,0.00908677676209278,-0.01902896496788065,0.324280947304318,0.004845755082524043,-0.04189845115118787,0.660757021319018
1784891147508732928,3.027414083480835,-0.05633175000548363,-0.9771575331687927,0.3097743093967438,-0.05136139690876007,-0.004176314454525709,-0.9986714124679565,0.15837128460407257,-0.030751051381230354,-0.12930405139923096,0.9463068252908564,0.01025821639410911,-0.023644641657323787,0.3222405742905235,0.004176326705378347,-0.051384455851727316,0.6565242639368947
1784891147518653184,3.0373342037200928,-0.05880236253142357,-0.9824767112731934,0.28663092851638794,-0.061029672622680664,-0.003508982015773654,-0.9981297850608826,0.17374634742736816,-0.05506950616836548,-0.09960275888442993,0.9468421319622816,0.011444053562470465,-0.0283573906916454,0.32024177439028284,0.0035089891234469416,-0.06106799803777962,0.6523928780005176
1784891147528572160,3.047253131866455,-0.09869325160980225,-0.9648461937904358,0.27706196904182434,-0.0706653743982315,-0.0025449164677411318,-0.9974968433380127,0.1817493587732315,-0.05426355451345444,-0.058914899826049805,0.9473278347152257,0.012467630547859999,-0.03310804479470859,0.31830557455416075,0.0025449192074535913,-0.07072455172361876,0.6483938161785406
1784891147538492160,3.057173252105713,-0.16970431804656982,-0.9203551411628723,0.2640196681022644,-0.07995956391096115,-0.0010470449924468994,-0.9967975616455078,0.16460007429122925,-0.0594387948513031,-0.025999069213867188,0.9477094162394861,0.01317547915014675,-0.037783963116142405,0.31661589089617603,0.00104704521222407,-0.08004506146084542,0.6448964614813837
1784891147548411136,3.067092180252075,-0.19737908244132996,-0.8698631525039673,0.305663138628006,-0.08874756097793579,0.0009522270993329585,-0.9960536956787109,0.1701379418373108,-0.08652351796627045,-0.0064029693603515625,0.9480902069135988,0.01354792296070662,-0.04230373723040146,0.31488392068894955,-0.000952227255579354,-0.08886451727307615,0.6412820045378856
1784891147558331136,3.077012062072754,-0.21853549778461456,-0.8769031763076782,0.22408169507980347,-0.09743449836969376,0.0033474864903837442,-0.995236337184906,0.16440531611442566,-0.0379544235765934,0.025174081325531006,0.9483946255881902,0.01370909949424726,-0.046839140104703324,0.31331445342711384,-0.0033474928496411106,-0.09758987173694739,0.6379862993638221
1784891147568250112,3.0869312286376953,-0.14729773998260498,-0.8487538695335388,0.18596257269382477,-0.10592140257358551,0.005381414666771889,-0.9943599700927734,0.12172950804233551,0.010747125372290611,0.027929306030273438,0.9487347129759871,0.013988206444011839,-0.05122849185730116,0.3115806025494301,-0.005381440644072016,-0.10612201514875894,0.6343529041912072
1784891147578170112,3.096851110458374,-0.0208660326898098,-0.7536696791648865,0.1958354413509369,-0.11391058564186096,0.006370305083692074,-0.9934706091880798,0.13710394501686096,-0.013923407532274723,0.035279691219329834,0.9490652025105458,0.014672910570345749,-0.05522150309942978,0.30985577241154255,-0.006370348395595313,-0.11416070563465025,0.6307853275973666
1784891147588090112,3.106771230697632,-0.005203383043408394,-0.781500518321991,0.030404046177864075,-0.12158675491809845,0.006453062407672405,-0.9925598502159119,0.12656113505363464,-0.02361920103430748,0.06569522619247437,0.9494101558179465,0.015723140002407023,-0.05893103468563971,0.3080590728704231,-0.006453107005095528,-0.12189089499788403,0.6271187559715851
1784891147598009088,3.116690158843994,0.11367905884981155,-0.6980839371681213,0.11791392415761948,-0.12870490550994873,0.006121929734945297,-0.9916640520095825,0.15511786937713623,-0.022174177691340446,0.08611595630645752,0.9497735551494956,0.016868207598701578,-0.06231727640174265,0.3062062971761608,-0.0061219681544110805,-0.12906534401289768,0.6233600881964514
1784891147607929088,3.126610040664673,0.23904523253440857,-0.6693426370620728,-0.02832517959177494,-0.13544072210788727,0.0044435495510697365,-0.990775465965271,0.08639897406101227,0.013393975794315338,0.107993483543396,0.9501673299581415,0.018578739982267507,-0.06532294633856388,0.3042527557550285,-0.004443563972423582,-0.13585962216199984,0.6194838879104994
1784891147617848064,3.1365292072296143,0.30074188113212585,-0.6012642979621887,0.03709563985466957,-0.14163851737976074,0.0016883083153516054,-0.989916980266571,0.12941624224185944,-0.00618965458124876,0.18497014045715332,0.9506131672092896,0.020699764563390597,-0.06791918836984666,0.30214764616976886,-0.001688309089293677,-0.1421166301765882,0.6153736842435316
1784891147627768064,3.146449089050293,0.2473730891942978,-0.5306387543678284,-0.017286043614149094,-0.14719761908054352,-0.00106551474891603,-0.9891065359115601,0.14359654486179352,-0.029955606907606125,0.28100717067718506,0.9510462404593882,0.022717958546596112,-0.07021843549386847,0.3001073938931156,0.001065514976288614,-0.14773450623671594,0.6114102129724178
1784891147637687296,3.1563682556152344,0.06925660371780396,-0.36895987391471863,-0.01672491617500782,-0.15163441002368927,-0.002748484956100583,-0.9884328246116638,0.13391894102096558,-0.044782646000385284,0.3785390257835388,0.9515201139764221,0.02404299924261587,-0.07214929080902731,0.29803695375131783,0.0027484885236892594,-0.15222217071208227,0.6072945192583291
1784891147647607040,3.166288137435913,-0.157849982380867,-0.22110851109027863,-0.07972116023302078,-0.15458521246910095,-0.0023025129921734333,-0.9879767894744873,0.12078699469566345,-0.026063576340675354,0.4712073802947998,0.9520613428838431,0.024113321553777083,-0.07368961577223214,0.2959182855115597,0.0023025151156013677,-0.15520802225238114,0.6028835534864722
1784891147657526016,3.1762070655822754,-0.2863549590110779,-0.07146868109703064,0.005951134487986565,-0.15574410557746887,-0.000263076537521556,-0.9877973794937134,0.13825756311416626,-0.01903928816318512,0.5013167262077332,0.9526738947041521,0.023144365956044438,-0.07460320878319866,0.29378756408601436,0.00026307655180806463,-0.1563807191582789,0.5982784669877086
1784891147667446016,3.186127185821533,-0.389716774225235,0.03861764818429947,-0.1286034733057022,-0.15591546893119812,0.003067685291171074,-0.9877656102180481,0.06398127973079681,0.008559509180486202,0.5312684774398804,0.9533893283557301,0.02138773054260676,-0.07523127795504385,0.29143033780038635,-0.0030676901925762276,-0.15655492489983638,0.593075357240464
1784891147677364992,3.1960461139678955,-0.40615618228912354,0.20695684850215912,-0.09923893213272095,-0.15472880005836487,0.0068598040379583836,-0.9879331588745117,0.04794779419898987,0.037314388900995255,0.5455961227416992,0.9541320533945941,0.0192120391310957,-0.07526163784291497,0.289134346043714,-0.006859857989022174,-0.15535662937116804,0.5879417933891011
1784891147687285248,3.2059662342071533,-0.18367299437522888,0.36344200372695923,-0.12252212315797806,-0.15190428495407104,0.009726417250931263,-0.9883473515510559,-0.008084133267402649,0.137032613158226,0.4950764775276184,0.9549291811170617,0.01724344896629669,-0.0743571639555247,0.2868517288317667,-0.009726570226164296,-0.15250189491897065,0.5828870511020524
1784891147697204224,3.2158851623535156,0.1250142753124237,0.4450468420982361,-0.15431706607341766,-0.14789381623268127,0.009853120893239975,-0.9889541864395142,0.026372820138931274,0.22478127479553223,0.46173250675201416,0.9557120665905428,0.016439972983236354,-0.07247514422670484,0.2847657814076359,-0.009853280484718046,-0.14844559594156714,0.5784391810304897
1784891147707123968,3.2258050441741943,0.5403056740760803,0.5283839106559753,-0.2202519029378891,-0.14305071532726288,0.00616342481225729,-0.9896961450576782,0.05319172143936157,0.24118153750896454,0.3958699107170105,0.9566007738651209,0.01734182524778021,-0.06965039236372247,0.28242361733335897,-0.006163463638740469,-0.14354590067634493,0.5737189959014456
1784891147717044224,3.235725164413452,0.6617556810379028,0.6005589962005615,-0.2705062925815582,-0.1374892294406891,-0.00018470306531526148,-0.9905032515525818,0.06223286688327789,0.22996680438518524,0.4258212447166443,0.9575302392495689,0.019427633004663526,-0.06611311737301058,0.2799776395683574,0.0001847030658642417,-0.13792611929227652,0.5689443115791681
1784891147726962944,3.2456440925598145,0.6206271052360535,0.8187742233276367,-0.25609421730041504,-0.1304476410150528,-0.0070843882858753204,-0.99142986536026,0.04310634732246399,0.13966800272464752,0.5109459161758423,0.9584787340047711,0.021590449691889814,-0.061797311045310506,0.2775491747233645,0.007084447673600787,-0.13082376589999567,0.5641903727840724
1784891147736883200,3.2555642127990723,0.46330082416534424,1.0371752977371216,-0.3015733063220978,-0.12066829949617386,-0.012900149449706078,-0.9926090836524963,0.02522457391023636,0.04949072748422623,0.6059513688087463,0.9595030450826934,0.022868935553837264,-0.056324786919750826,0.2750607617253003,0.012900506835785096,-0.12097319263289749,0.559147351325052
1784891147746802176,3.2654831409454346,0.3297782838344574,1.2168322801589966,-0.272648423910141,-0.10918043553829193,-0.017227713018655777,-0.9938726425170898,0.06444166600704193,-0.06533759832382202,0.5950078964233398,0.9605694523223932,0.023219817645312477,-0.050244567353515415,0.2724750433222055,0.017228565998979834,-0.1094148215558315,0.5537420951381468
1784891147756722176,3.2754032611846924,0.0801500678062439,1.3566795587539673,-0.3681938350200653,-0.09638354927301407,-0.01971842721104622,-0.9951489567756653,0.10773608833551407,-0.12855122983455658,0.5836651921272278,0.9616927659223995,0.022532020521349252,-0.04379318214812493,0.2696690905335261,0.019719705102571903,-0.09655224063345352,0.5477320210589
1784891147766641152,3.2853221893310547,-0.14476333558559418,1.538231611251831,-0.4149552583694458,-0.08182062208652496,-0.019625015556812286,-0.9964538216590881,0.15558160841464996,-0.16238181293010712,0.5413299202919006,0.9629101696927955,0.020387969610761992,-0.036843093947559705,0.26651603000489554,0.01962627624348928,-0.08192800404382594,0.5408483802704959
1784891147776560896,3.2952420711517334,-0.25578680634498596,1.517170786857605,-0.37202537059783936,-0.06657714396715164,-0.01792990043759346,-0.997620165348053,0.22879332304000854,-0.13311685621738434,0.500061571598053,0.9641059367149274,0.017427704700534005,-0.029768948558878773,0.263267716722121,0.01793086172468943,-0.06663715455923158,0.5337384079791958
1784891147786480128,3.305161237716675,-0.31048741936683655,1.4549905061721802,-0.33573734760284424,-0.05169568955898285,-0.015318323858082294,-0.9985454082489014,0.25370681285858154,-0.06814724951982498,0.46253466606140137,0.9651279229074212,0.014132763386560346,-0.022968844339925406,0.26038587471650626,0.015318923035125638,-0.051724817762782246,0.5274362238998298
1784891147796400128,3.3150811195373535,-0.2703474462032318,1.494175672531128,-0.26983875036239624,-0.03724033385515213,-0.012605545111000538,-0.9992268085479736,0.19817478954792023,-0.03675663471221924,0.4044392704963684,0.9660457366979389,0.010889938542407792,-0.016370531392081146,0.2576218117512268,0.012605879350742673,-0.03725190978433026,0.5214581694562462
1784891147806319104,3.325000047683716,-0.19649605453014374,1.5386677980422974,-0.20076601207256317,-0.02208716794848442,-0.0103958984836936,-0.999701976776123,0.11003883183002472,-0.030970677733421326,0.3362346291542053,0.9667906106142752,0.007845682174787108,-0.009351304283911387,0.2552780628722763,0.010396085299737744,-0.022090157611721672,0.5164247379795086
1784891147816239104,3.3349201679229736,-0.13306567072868347,1.549477219581604,-0.21863023936748505,-0.006604527123272419,-0.008754434064030647,-0.9999398589134216,0.09928641468286514,-0.004810630343854427,0.30072110891342163,0.9674719229534909,0.005070192012926995,-0.002087828960702864,0.25291895864303077,0.008754545607167602,-0.006604828288410464,0.511429011372315
1784891147826159104,3.3448400497436523,-0.12140415608882904,1.536848783493042,-0.17961928248405457,0.008747567422688007,-0.007529068272560835,-0.9999334216117859,0.11613036692142487,0.008795548230409622,0.2629949450492859,0.9680507060432901,0.0025478893097206873,0.0051779406104232465,0.2506880938028569,0.007529139348324136,0.008747926619495161,0.5067576512874663
1784891147836078080,3.3547592163085938,0.04089739918708801,1.6630747318267822,-0.28182876110076904,0.02469373121857643,-0.006944074761122465,-0.9996709227561951,0.07619738578796387,0.03253306448459625,0.20156002044677734,0.968620272451212,0.00029846857633572597,0.012823342389657807,0.24821411255304202,0.006944130338503612,0.02469683645796293,0.5016288829280151
1784891147845998080,3.3646790981292725,0.303009033203125,1.635543942451477,-0.1718812733888626,0.04102719947695732,-0.008665942586958408,-0.9991204738616943,0.13170228898525238,0.053084276616573334,0.13187193870544434,0.969117888082116,-0.0008414976889467793,0.02095394215259854,0.24570469540068363,0.00866605149213764,0.04104026056074535,0.4964268809272533
1784891147855917312,3.374598264694214,0.5520167350769043,1.6134777069091797,-0.11118543893098831,0.057173069566488266,-0.012896516360342503,-0.9982810020446777,0.12460488080978394,0.05720803886651993,0.10069799423217773,0.9694314835174195,-0.0007132702248974152,0.029308701833476426,0.24360426258681012,0.012896873688964241,0.05720902424583063,0.49200768227267405
1784891147865837056,3.3845181465148926,0.7152438759803772,1.5485689640045166,-0.0844135507941246,0.0728946104645729,-0.019056221470236778,-0.9971575736999512,0.1288113296031952,0.02554120495915413,0.06934690475463867,0.9696060080706083,0.00042799574563865723,0.037696521895689866,0.24174970926748493,0.019057374443266713,0.07297259754800868,0.48799607354733976
1784891147875756032,3.394437074661255,0.830464243888855,1.5031524896621704,-0.0956699326634407,0.08805704116821289,-0.026816338300704956,-0.9957544207572937,0.1660780906677246,0.0038366038352251053,0.0587121844291687,0.9693854909920118,0.002383826861163822,0.04601209657143067,0.24118270742914288,0.026819553445871253,0.08820304285913945,0.4865135202952332
1784891147885676032,3.4043571949005127,0.852408766746521,1.419814109802246,-0.017434317618608475,0.1024179682135582,-0.03507480397820473,-0.9941228628158569,0.1616048514842987,-0.03152981027960777,0.04298156499862671,0.9693946038558939,0.004752729013872529,0.05399969760361921,0.2394482150703041,0.035081997862279675,0.1026612588645215,0.48251876459129484
1784891147895595008,3.414276123046875,0.9037361145019531,1.4370503425598145,0.02969990484416485,0.11666890233755112,-0.043720804154872894,-0.9922080636024475,0.09933451563119888,-0.047694601118564606,-0.00707477331161499,0.9692506362400441,0.007331557088657241,0.06198558273640391,0.23802770293301242,0.043734745271297656,0.11704764935418202,0.47906414039868767
1784891147905515264,3.424196243286133,0.8459505438804626,1.3130942583084106,-0.03350359946489334,0.13016845285892487,-0.052343789488077164,-0.9901092648506165,0.08911560475826263,0.052236977964639664,-0.07730406522750854,0.9690777210443273,0.010018237321161283,0.06960615240382154,0.2365228349603723,0.052367722247984576,0.13071910784359717,0.4753511982089203
1784891147915435008,3.4341161251068115,1.1464680433273315,1.2286089658737183,0.048608314245939255,0.1427689641714096,-0.06191086024045944,-0.9878178238868713,0.0992659479379654,0.12865281105041504,-0.21779435873031616,0.968851489588559,0.013295225302647538,0.07690462580439858,0.2350226784549386,0.06195047858789797,0.14353572468412665,0.4715083607636651
1784891147925353984,3.444035053253174,1.2882403135299683,0.9877763986587524,-0.007959654554724693,0.15363287925720215,-0.07381415367126465,-0.9853671193122864,0.09378837049007416,0.13822150230407715,-0.27371180057525635,0.9685759232950462,0.017938294568134453,0.08363399908883744,0.23354707259896318,0.07388134640007067,0.15466908009710864,0.4674877254140329
1784891147935274240,3.4539551734924316,1.4547803401947021,0.8756653070449829,0.0532698780298233,0.162494495511055,-0.08743776381015778,-0.9828276634216309,-0.006549671292304993,0.034276142716407776,-0.29736948013305664,0.9683059527468362,0.023691992450711824,0.0895816292024941,0.231942476977613,0.08754956522216259,0.1638514177992328,0.4630159160883488
1784891147945192960,3.463874101638794,1.4411958456039429,0.6165209412574768,0.08792083710432053,0.16981345415115356,-0.1016831323504448,-0.9802162647247314,-0.15354758501052856,0.015837185084819794,-0.31073832511901855,0.9679869254704019,0.029942985915860514,0.0948434702537214,0.23045494576602366,0.1018591764353236,0.171538242179487,0.458685543677617
1784891147955113216,3.4737942218780518,1.4204580783843994,0.4515855014324188,-0.015242301858961582,0.17481859028339386,-0.11560194194316864,-0.9777907133102417,-0.18551501631736755,0.01591627299785614,-0.3041764497756958,0.9677423814923045,0.03633677505993621,0.09891556817102062,0.2288450220582075,0.11586098646856129,0.17692006641661812,0.4541276789886788
1784891147965032192,3.483713150024414,1.34096097946167,0.30740541219711304,-0.05455222353339195,0.17855726182460785,-0.1289067417383194,-0.9754487872123718,-0.19224439561367035,0.0554967075586319,-0.23947125673294067,0.9676518777852205,0.0426562364022672,0.10225480793172897,0.2266590926612497,0.12926644082334451,0.1810469931595691,0.4484261064679752
1784891147974952192,3.493633270263672,1.2952454090118408,0.29780125617980957,-0.08721775561571121,0.18170611560344696,-0.14172673225402832,-0.9730860590934753,-0.16545550525188446,0.10039067268371582,-0.20524340867996216,0.9675340077980975,0.048818970469003665,0.10523161572718648,0.22454612063823665,0.14220553596340627,0.18460574357584628,0.4429021732168789
1784891147984871168,3.503552198410034,1.1370635032653809,0.1902940273284912,-0.016900552436709404,0.18408432602882385,-0.15348273515701294,-0.9708532094955444,-0.10557785630226135,0.08191904425621033,-0.1911187767982483,0.9674366076014314,0.05456091695653888,0.10768698968465185,0.22247014422445321,0.15409181355541418,0.18738634279491104,0.43754945710037957
1784891147994790912,3.513472080230713,0.9159831404685974,0.10876188427209854,-0.01395962294191122,0.18544600903987885,-0.1635911911725998,-0.9689415097236633,-0.08959031105041504,-0.03401009738445282,-0.2052985429763794,0.9673665753693931,0.05959534908516344,0.10944234250232308,0.22061887799080018,0.1643297944758192,0.18910346134977507,0.43283365081860536
1784891148004710144,3.5233912467956543,0.5026471018791199,0.1580916941165924,-0.12360280007123947,0.18702562153339386,-0.16993024945259094,-0.9675459265708923,-0.07971055805683136,-0.13521501421928406,-0.19071823358535767,0.9674771096949467,0.06278404350446751,0.11083861521451516,0.21854298213961926,0.17075889223045804,0.19094402757498774,0.4279300805404602
1784891148014630144,3.533311128616333,0.1640664041042328,0.19234420359134674,0.052755724638700485,0.1890467256307602,-0.1730913370847702,-0.9665923118591309,-0.06459604203701019,-0.2092786580324173,-0.23172616958618164,0.9675457320963596,0.06428557658612942,0.1121213780339753,0.21714356982697247,0.1739675286978323,0.193142563795951,0.42464337377707073
