time,seconds_elapsed,rotationRateX,rotationRateY,rotationRateZ,gravityX,gravityY,gravityZ,accelerationX,accelerationY,accelerationZ,quaternionW,quaternionX,quaternionY,quaternionZ,pitch,roll,yaw
1782818889990826496,0.17250752449035645,-0.014046769589185715,-0.04603414982557297,-0.11253133416175842,0.20807969570159912,0.6845930218696594,-0.6985952258110046,0.01721632480621338,-0.021003544330596924,0.02441614866256714,0.7298335838975607,-0.2252159652408253,0.3161963881914053,-0.5627083063992575,-0.7540452213717832,0.28948724052017893,-1.198317904743624
1782818890000746496,0.18242764472961426,-0.1301412284374237,-0.0720779299736023,-0.1630222350358963,0.20754411816596985,0.6853406429290771,-0.6980212926864624,-0.013543888926506042,-0.05004096031188965,0.0483173131942749,0.7294960987181875,-0.2256323851919639,0.31635326298135874,-0.5628908869125374,-0.755071347186112,0.28900736324047993,-1.199100218381896
1782818890010666496,0.19234752655029297,-0.20055413246154785,-0.10790915787220001,-0.12676596641540527,0.20664191246032715,0.68671715259552,-0.6969351768493652,0.014885187149047852,-0.05910789966583252,0.047582149505615234,0.7290971545760196,-0.22650221567167098,0.316589889033249,-0.5629253226016395,-0.7569633140513427,0.288243529692774,-1.1996799095227888
1782818890020585216,0.20226645469665527,-0.18078748881816864,-0.11493930220603943,-0.09029843658208847,0.20660331845283508,0.6879636645317078,-0.6957162618637085,0.023117750883102417,-0.035558879375457764,0.032721877098083496,0.7289071884511001,-0.22717268927183193,0.3170716725380685,-0.5626299602707229,-0.7586794431104121,0.28866999760069645,-1.198963750542363
1782818890030505472,0.21218657493591309,-0.08745540678501129,-0.11964217573404312,-0.10109782218933105,0.2068062424659729,0.6887401342391968,-0.6948872804641724,-0.010364606976509094,-0.025242149829864502,0.016939282417297363,0.7288489075146145,-0.22756240036006556,0.31744562581586894,-0.5623370788401849,-0.7597498496989501,0.2892638146727355,-1.1981164647125184
1782818890040425216,0.2221064567565918,0.04851188138127327,-0.09466978907585144,-0.12475927174091339,0.20640528202056885,0.688838541507721,-0.694908857345581,-0.029494866728782654,-0.025126993656158447,0.029579877853393555,0.7288103317489258,-0.22771196164448804,0.31732133389433737,-0.5623965772613141,-0.7598856074546054,0.28872516890444816,-1.1984658909913437
1782818890050344448,0.2320256233215332,0.21941784024238586,-0.04208940267562866,-0.13822555541992188,0.2055637538433075,0.6880255341529846,-0.6959629058837891,-0.0319187194108963,0.01436704397201538,0.031213760375976562,0.7287646841309732,-0.2274177091232181,0.3167013384039529,-0.5629239295355444,-0.7587646778666012,0.2871999938727805,-1.2002401104015443
1782818890060264448,0.24194550514221191,0.39235201478004456,0.002806244883686304,-0.18797822296619415,0.20444519817829132,0.6864029765129089,-0.697891891002655,-0.04229003190994263,0.016737282276153564,0.02896183729171753,0.7286564408450118,-0.22667005738841992,0.31571307581873603,-0.5639199434333539,-0.7565311999798241,0.28497348443093345,-1.2033680196589314
1782818890070184448,0.2518656253814697,0.6222906708717346,0.024085436016321182,-0.26603788137435913,0.2026774138212204,0.6837276220321655,-0.7010267376899719,-0.036738067865371704,0.007877051830291748,0.029441654682159424,0.7284524894667911,-0.22541363270795348,0.31412629677393517,-0.5655708484290012,-0.7528586249853334,0.28144096827914106,-1.2084980592043808
1782818890080103424,0.26178455352783203,0.8733314275741577,0.02363882213830948,-0.3026944100856781,0.20035973191261292,0.679558277130127,-0.705731213092804,-0.020016133785247803,0.0039438605308532715,0.031964123249053955,0.728298512264322,-0.22345149832168132,0.31177528606164406,-0.5678440724229307,-0.7471603629933727,0.27662497188218155,-1.2154397044023908
1782818890090023424,0.27170467376708984,0.9794661402702332,0.0537722222507,-0.34895992279052734,0.19789716601371765,0.6740448474884033,-0.7116883397102356,-0.01885053515434265,0.0006530284881591797,0.0656617283821106,0.7282426688178054,-0.22081211231487682,0.3088654150110113,-0.5705320599272371,-0.7396709024057767,0.27121550416133866,-1.2234250876414297
1782818890099943424,0.28162455558776855,0.9079948663711548,0.03175903111696243,-0.4799138009548187,0.19504788517951965,0.6687514185905457,-0.7174453735351562,-0.04790738224983215,-0.012531936168670654,0.12293243408203125,0.7278617512414356,-0.2182847946227801,0.30598867238741995,-0.5735328736141134,-0.7325281720609209,0.26544878739208927,-1.232392943185237
1782818890109862400,0.29154348373413086,0.9921531677246094,-0.09579173475503922,-0.6045652031898499,0.1907627135515213,0.6637872457504272,-0.7231847047805786,-0.0569278746843338,-0.039626479148864746,0.1871892213821411,0.7271740210389711,-0.21624980976784866,0.30272706022582324,-0.5768971300365476,-0.7258711308377364,0.2579068091835045,-1.2429258080838241
1782818890119782400,0.30146360397338867,1.4172484874725342,-0.19357867538928986,-0.7838695645332336,0.1847752183675766,0.6572279930114746,-0.730691134929657,-0.020727992057800293,0.03494119644165039,0.21296048164367676,0.7265329212053951,-0.21387624167725727,0.2981801125459662,-0.5809437233246423,-0.7171349277887047,0.24768488633905225,-1.2557732917085127
1782818890129702400,0.3113834857940674,1.9283491373062134,-0.2656797468662262,-0.8337702751159668,0.17725451290607452,0.6473571062088013,-0.7412891983985901,-0.026879161596298218,0.19939887523651123,0.2490100860595703,0.7260690214268356,-0.2102716935716319,0.2917896979223686,-0.5860617911005472,-0.7041118012086062,0.23470947906217202,-1.271629631742781
1782818890139622400,0.3213036060333252,2.5449399948120117,-0.08332756906747818,-0.7477139234542847,0.17057360708713531,0.6334730386734009,-0.7547294497489929,-0.05588853359222412,0.2658494710922241,0.3749839663505554,0.7260138202690523,-0.20456642915459108,0.28423203116405166,-0.5918350494472705,-0.6860335391883327,0.22227203146024438,-1.28819537086457
1782818890149541376,0.3312225341796875,3.0568816661834717,-0.006976877339184284,-0.7793160676956177,0.1652442067861557,0.6153001189231873,-0.7707788944244385,-0.1334906816482544,0.09502702951431274,0.4845240116119385,0.7262472662750453,-0.1965211984773692,0.27566277391728616,-0.598292890636988,-0.662766633923196,0.21118920588821752,-1.3052851833930452
1782818890159461376,0.3411426544189453,3.665245771408081,-0.07041698694229126,-0.7982251048088074,0.15980243682861328,0.5925717949867249,-0.7895073890686035,-0.10406209528446198,0.045779645442962646,0.5986199378967285,0.7267181539401071,-0.18657185355114547,0.26540018836537765,-0.6055035345702638,-0.6342478478822032,0.19970966081088773,-1.3235826818492125
1782818890169381376,0.351062536239624,4.3709516525268555,-0.1363784372806549,-0.7511566877365112,0.15410982072353363,0.5635454058647156,-0.8115828633308411,-0.023250460624694824,0.21103650331497192,0.6881697773933411,0.7278039878766517,-0.17423467235047335,0.25268723823980893,-0.6132640938797809,-0.5986713571979208,0.18765381457027444,-1.3423252570439181
1782818890179300352,0.36098146438598633,4.792470932006836,-0.10302290320396423,-0.8777787089347839,0.14849573373794556,0.5292091369628906,-0.8353961110115051,-0.04595668613910675,0.4022330641746521,0.8467487096786499,0.728986801675093,-0.15990810379993997,0.23818340279420527,-0.6215112657985205,-0.5576682052926327,0.175917428160002,-1.3614833115477851
1782818890189220352,0.37090158462524414,5.266201019287109,-0.1407415270805359,-1.0709729194641113,0.14230847358703613,0.4905797243118286,-0.8596975207328796,-0.16225171089172363,0.4284113645553589,1.005403757095337,0.729509772542418,-0.14418585271934684,0.2221748780292358,-0.6306062969351186,-0.5127549186730601,0.16404563533184097,-1.3825240415154176
1782818890199140352,0.38082146644592285,5.474690914154053,-0.08235137164592743,-1.1714903116226196,0.13577331602573395,0.44796088337898254,-0.8836835622787476,-0.20301878452301025,0.42580315470695496,1.0431989431381226,0.7294403087385354,-0.12732974637222502,0.20480562254157314,-0.6401239634052353,-0.4644832649519286,0.15245253742945858,-1.4044280395414082
1782818890209059584,0.39074063301086426,5.590151786804199,0.1410316526889801,-1.5220766067504883,0.13006800413131714,0.4033060669898987,-0.9057739973068237,-0.27252405881881714,0.4348592162132263,0.9944123029708862,0.7280848588323696,-0.10970286806154868,0.18729196941833895,-0.6502149356802102,-0.4151269117038101,0.142623747268377,-1.4278373602049095
1782818890218979328,0.40066051483154297,5.715616226196289,0.30139991641044617,-1.9379034042358398,0.12523290514945984,0.3568342626094818,-0.9257354140281677,-0.2751505374908447,0.3641587495803833,0.8063659071922302,0.7247686756608237,-0.09128001533991441,0.16970640934231,-0.6614967607684382,-0.36487686858156515,0.13446309825908923,-1.4547323049902356
1782818890228899584,0.4105806350708008,5.717381954193115,0.25421586632728577,-2.2427024841308594,0.12049403041601181,0.30904629826545715,-0.9433830380439758,-0.11980737745761871,0.35681670904159546,0.6128166317939758,0.7196555294606586,-0.07267616319977042,0.15174536893609344,-0.6736373800963256,-0.31419009079205373,0.1270376128727261,-1.4846143135539733
1782818890238818304,0.4204995632171631,5.778631210327148,0.053126633167266846,-2.433648109436035,0.11482151597738266,0.26019853353500366,-0.9587036967277527,0.06520167738199234,0.37253767251968384,0.4617401957511902,0.713235697941793,-0.05453151900429397,0.13294538354040836,-0.6860368922785259,-0.2632278069812917,0.11919969608639128,-1.5161275853883445
1782818890248738560,0.4304196834564209,5.817131042480469,-0.17164255678653717,-2.530198335647583,0.10792693495750427,0.21001915633678436,-0.9717220664024353,0.19282379746437073,0.36828893423080444,0.3340267539024353,0.705864449167534,-0.0369627027080342,0.1130165323090875,-0.6982953574618332,-0.2115945519053747,0.11061434411742921,-1.5482570694701328
1782818890258658304,0.4403395652770996,5.592491149902344,-0.3484477996826172,-2.5799872875213623,0.10017093271017075,0.1598552018404007,-0.9820448756217957,0.26399531960487366,0.3292500376701355,0.27484577894210815,0.6977419582777521,-0.020388427330796675,0.09253045211562883,-0.7100553373857236,-0.1605439701753718,0.1016508335032133,-1.5801047010635074
1782818890268577280,0.4502584934234619,4.745783805847168,-0.3400961458683014,-2.6974825859069824,0.09271218627691269,0.11409768462181091,-0.9891340732574463,0.2716524302959442,0.1681899130344391,0.2788679599761963,0.6887633466943321,-0.005891779572757465,0.0734728683046192,-0.7212295107598925,-0.11434670625658452,0.09345760910258452,-1.611486651251428
1782818890278497536,0.4601786136627197,3.326052665710449,-0.25746217370033264,-2.8626835346221924,0.08675574511289597,0.07955122739076614,-0.993048369884491,0.22446250915527344,-0.11769820004701614,0.34697598218917847,0.6787528742749362,0.004771217929009336,0.05876270731739503,-0.7319964387831912,-0.07963537436828681,0.08714181045832244,-1.642769447236538
1782818890288417280,0.47009849548339844,2.182544469833374,-0.2017996907234192,-2.913999319076538,0.08232029527425766,0.05741722136735916,-0.9949505925178528,0.20234766602516174,-0.43371421098709106,0.3375104069709778,0.6680524393505581,0.011407886465963166,0.04893441265002533,-0.7424157352630161,-0.05744881827873428,0.08255005142782547,-1.6737703316112826
1782818890298336512,0.48001766204833984,1.4783769845962524,-0.23011979460716248,-2.8613204956054688,0.0785258337855339,0.04394982010126114,-0.9959428310394287,0.233531653881073,-0.49078819155693054,0.2001206874847412,0.6572103607030549,0.015128410186413912,0.0424231035384329,-0.7523602872653516,-0.0439639820266172,0.07868294883325588,-1.7038666430333174
1782818890308256512,0.48993754386901855,1.6988099813461304,-0.2459898442029953,-2.6993916034698486,0.07483550906181335,0.03273599594831467,-0.996658444404602,0.31166961789131165,-0.20372599363327026,0.01780712604522705,0.6466354429984315,0.017947082502785556,0.036724561937007724,-0.7617032261404771,-0.03274184504041366,0.07494577927449894,-1.7326157824814596
1782818890318176512,0.49985766410827637,2.689455270767212,0.052266817539930344,-2.5432755947113037,0.07258293032646179,0.014515480026602745,-0.9972567558288574,0.3861115276813507,0.021022237837314606,-0.2618985176086426,0.6365211147068186,0.023370191156076345,0.028730836698969656,-0.7703695014627214,-0.014515990219251877,0.07265448425164729,-1.7599731806310752
1782818890328096512,0.5097775459289551,2.47588849067688,-0.926763117313385,-2.58406925201416,0.07550383359193802,-0.005319508258253336,-0.99713134765625,0.3990902900695801,0.0172823965549469,-1.107513427734375,0.6256326918309574,0.03112488745227764,0.021577307348212633,-0.7791979145050464,0.005319533554843693,0.07557682763012244,-1.7887573701995163
1782818890338015232,0.5196964740753174,3.3719370365142822,0.6246957182884216,-3.038341999053955,0.0734357088804245,-0.030577801167964935,-0.9968310594558716,0.4724779725074768,-0.47836384177207947,-1.4346568584442139,0.6143335809885655,0.03838851096960578,0.010525394437911341,-0.7880417620640703,0.030582569123936365,0.07353631931656612,-1.8184001717341287
1782818890347935488,0.5296165943145752,2.832681655883789,-0.04832659661769867,-2.556689500808716,0.0788012221455574,-0.05814545229077339,-0.9951931834220886,0.3469800353050232,-0.8551083207130432,-0.7881320118904114,0.6023670045471532,0.0490212225225503,0.0005724044483382259,-0.7967123249117295,0.05817826445887855,0.07901696791084897,-1.849149016828203
1782818890357855232,0.5395364761352539,1.3706090450286865,-0.49662110209465027,-1.7296160459518433,0.07715675234794617,-0.07481056451797485,-0.9942083358764648,0.6869423389434814,-1.107837200164795,-0.00039005279541015625,0.5934079742175581,0.05333336744850771,-0.00716825984456541,-0.8031009471215744,0.07488052099699173,0.0774509801495048,-1.8717822172894443
1782818890367774464,0.5494556427001953,0.15925396978855133,-0.763180136680603,-1.4232925176620483,0.07259757071733475,-0.07991087436676025,-0.9941548109054565,0.45906442403793335,-1.2822412252426147,0.06086629629135132,0.5870467953017514,0.052930599961498834,-0.01099689621185293,-0.8077459704884454,0.07999616914682162,0.0728950229664125,-1.8875744006764532
1782818890377694464,0.559375524520874,-0.9209572076797485,-1.074389934539795,-1.5748399496078491,0.0650903731584549,-0.07396968454122543,-0.9951339960098267,0.2466161549091339,-0.9896441698074341,0.032136619091033936,0.5811022191247516,0.04804644818298584,-0.011159129137292549,-0.812334404002889,0.07403730534516768,0.06531561275091187,-1.9021067034673278
1782818890387614464,0.5692956447601318,-1.2072184085845947,-1.0144240856170654,-1.4606412649154663,0.05633125826716423,-0.06133996322751045,-0.9965260624885559,0.13086356222629547,-0.5032962560653687,-0.13453161716461182,0.5750203027182204,0.040720076720817705,-0.008879348476299948,-0.817076920708267,0.061378494582762316,0.05646753802672191,-1.9168460299776982
1782818890397533440,0.5792145729064941,-0.5992364287376404,-0.9726201295852661,-1.2150628566741943,0.047969553619623184,-0.0512457974255085,-0.99753338098526,0.21583965420722961,-0.1666802316904068,-0.420648992061615,0.5697902759796566,0.03433446840599228,-0.007380220211354917,-0.821039483165038,0.05126825308316351,0.04805115332405709,-1.9294677927593376
1782818890407453184,0.5891344547271729,0.1904696822166443,-0.9188669323921204,-1.2732820510864258,0.03996569663286209,-0.04832185059785843,-0.9980319142341614,0.1851166933774948,0.07897676527500153,-0.40295374393463135,0.5677904956176274,0.030185442908801048,-0.008536505711437456,-0.8225751327863701,0.048340674867274586,0.04002312197101429,-1.934242438667369
1782818890417373440,0.5990545749664307,1.3791301250457764,-0.8231821656227112,-1.3258650302886963,0.03306052088737488,-0.05510881915688515,-0.9979328513145447,0.11789467930793762,0.14597490429878235,-0.2663188576698303,0.5625367592592562,0.02918695864174371,-0.01347904438148867,-0.8261470167203426,0.05513675113326381,0.03311689150707856,-1.9469004253869544
1782818890427292416,0.608973503112793,2.7025856971740723,-0.8177008628845215,-1.312723994255066,0.026910535991191864,-0.07453320920467377,-0.9968553781509399,0.13759446144104004,0.10804150998592377,-0.17292916774749756,0.55846468627639,0.03201118313482863,-0.023400866426130165,-0.8285799841030816,0.07460239064370708,0.026988872075072466,-1.9564721523140751
1782818890437212416,0.6188936233520508,3.9424540996551514,-0.7884246110916138,-1.4144821166992188,0.021342173218727112,-0.10647810250520706,-0.994085967540741,0.1527148336172104,0.14186322689056396,-0.007928192615509033,0.5526739013533274,0.0384117206132034,-0.03849093351895049,-0.8316217228657345,0.10668033815129585,0.0214658451596376,-1.9696344958714938
1782818890447132416,0.6288135051727295,5.272267818450928,-0.8427438139915466,-1.6409657001495361,0.016478942707180977,-0.15079891681671143,-0.9884271025657654,0.18336541950702667,0.20542538166046143,0.11467832326889038,0.5452273504772273,0.04826770365960187,-0.058793530855503866,-0.834829688140188,0.15137637917726135,0.016670339539568927,-1.9857538446826157
1782818890457051392,0.6387326717376709,6.432345867156982,-0.9292577505111694,-1.7240475416183472,0.012089104391634464,-0.20721657574176788,-0.9782204031944275,0.2613331377506256,0.19815285503864288,0.178217351436615,0.5363457590664392,0.06129985546293104,-0.08445193594684965,-0.8375222021508352,0.20872892154433806,0.012357633468678977,-2.0036991256933407
1782818890466971392,0.6486525535583496,7.392322540283203,-1.0399091243743896,-1.8148456811904907,0.008057979866862297,-0.27294668555259705,-0.9619954228401184,0.32368335127830505,0.17777761816978455,0.2777608036994934,0.5263400537113557,0.07666868876338688,-0.11456091595702443,-0.8390255469403243,0.276454684180306,0.00837612231344466,-2.0222217720936717
1782818890476891392,0.6585726737976074,8.081985473632812,-1.153172492980957,-1.8164081573486328,0.004501085262745619,-0.3452223539352417,-0.9385101199150085,0.324356347322464,0.1528700590133667,0.36792296171188354,0.5144598505480512,0.09356732604423416,-0.1482905408394999,-0.8393963527730217,0.35247568308926996,0.00479595347247107,-2.042755861270285
1782818890486811392,0.6684925556182861,8.842808723449707,-1.2035589218139648,-1.6877028942108154,0.0015375594375655055,-0.4221856892108917,-0.9065080881118774,0.344012975692749,0.11923769116401672,0.47747671604156494,0.5016941675025474,0.11177290024218335,-0.18507507433052758,-0.8375900137740994,0.43585507860989586,0.001696132662991251,-2.0626396228472674
1782818890496730368,0.6784114837646484,8.941503524780273,-1.402107834815979,-1.6364784240722656,-0.0014736008597537875,-0.500382125377655,-0.8658034205436707,0.3218013644218445,0.12129276990890503,0.5905501246452332,0.488053315527112,0.1302307246872251,-0.22391571700641308,-0.8334900071385222,0.5240400418199398,-0.0017020023388224813,-2.0816768504214456
1782818890506650368,0.6883316040039062,8.838136672973633,-1.4709625244140625,-1.6191176176071167,-0.004055487457662821,-0.5744597315788269,-0.8185227513313293,0.2451748549938202,0.15237116813659668,0.7679857015609741,0.4733913996792441,0.1476953929888577,-0.2625351275006336,-0.8277450317225774,0.6119439757334902,-0.004954601718168997,-2.1010172368865363
1782818890516570368,0.698251485824585,8.242557525634766,-1.315844178199768,-1.6066166162490845,-0.004649491049349308,-0.641667366027832,-0.7669689655303955,0.15011151134967804,0.14470386505126953,0.810014009475708,0.4581657390337871,0.16422141159597148,-0.29924381000579575,-0.8207121994351237,0.6966701879321806,-0.006062088978636501,-2.1210750369557037
1782818890526489600,0.7081706523895264,7.61987829208374,-1.154874563217163,-1.7010371685028076,-0.001834759721532464,-0.7000109553337097,-0.7141298055648804,0.021594908088445663,0.16351193189620972,0.8509858846664429,0.4427174082121502,0.17992525080621893,-0.33250866378343746,-0.8130598308058309,0.7754128399481206,-0.0025692188185178692,-2.143310036175528
1782818890536409344,0.7180905342102051,7.05788516998291,-0.9659339189529419,-1.7834618091583252,0.004112771712243557,-0.7500839829444885,-0.6613298654556274,-0.03778889402747154,0.12416845560073853,0.7975755929946899,0.42698885238218814,0.1947771107956967,-0.36248714580894176,-0.8051991102742108,0.8481890306628269,0.0062188612245108335,-2.169231050896106
1782818890546329600,0.7280106544494629,6.232359886169434,-0.8618927001953125,-1.9286378622055054,0.013065911829471588,-0.7918034791946411,-0.6106362342834473,-0.01611766219139099,0.04250538349151611,0.7279305458068848,0.4111484496441588,0.20859522292364846,-0.38880576761621427,-0.7976685280908384,0.9137560972805021,0.021393946026766985,-2.2002667795360034
1782818890556248320,0.7379295825958252,5.803263187408447,-0.7650336623191833,-1.996399164199829,0.024643171578645706,-0.8263177275657654,-0.5626648664474487,-0.026901472359895706,-0.04822450876235962,0.6276673078536987,0.3952930490309822,0.22149406335670974,-0.4118348696111408,-0.790617337664573,0.972537855025509,0.04376927482755076,-2.2374683018547428
1782818890566168320,0.7478494644165039,5.476748943328857,-0.757666289806366,-1.9940500259399414,0.03769494220614433,-0.8559439778327942,-0.5156926512718201,-0.024770766496658325,-0.11605608463287354,0.44382381439208984,0.37947237100199693,0.2337812312622019,-0.4330127058681475,-0.7834838956805991,1.0273737660808564,0.0729659847378905,-2.280690976955828
1782818890576088320,0.7577695846557617,5.133086681365967,-0.7772750854492188,-2.0931811332702637,0.05190800875425339,-0.8810704946517944,-0.4701278805732727,-0.041150566190481186,-0.05398803949356079,0.3559311330318451,0.3634851463015826,0.24525915695891456,-0.4525306705565266,-0.7764936675035145,1.078120781605018,0.10996711142266367,-2.33178741277296
1782818890586007296,0.767688512802124,4.592080116271973,-0.7430313229560852,-2.2047128677368164,0.06788627058267593,-0.9015968441963196,-0.42721736431121826,-0.07600393146276474,0.00814896821975708,0.27969539165496826,0.34733271744649313,0.2560433396216085,-0.46992885735297496,-0.7700446485132962,1.123446935857958,0.1575858123569145,-2.3934316177566717
1782818890595927552,0.7776086330413818,4.057971000671387,-0.677873969078064,-2.2950918674468994,0.08570041507482529,-0.9173965454101562,-0.3886373043060303,-0.09778537601232529,0.040565550327301025,0.30605682730674744,0.33139347712515493,0.2661164875759667,-0.4846270298687809,-0.7645240039247995,1.1614885529041217,0.21704161112083312,-2.4663059506093576
1782818890605847296,0.7875285148620605,3.851149559020996,-0.605771541595459,-2.3222415447235107,0.10485640168190002,-0.9297373294830322,-0.3529781699180603,-0.11515608429908752,-0.061443030834198,0.2686123549938202,0.315684820605235,0.2757929601396485,-0.4974426203475197,-0.7594946767099967,1.193698901687978,0.28875921141627214,-2.550695510473941
1782818890615766528,0.797447681427002,4.007935047149658,-0.6264122128486633,-2.2566423416137695,0.12445294857025146,-0.9401763081550598,-0.31714338064193726,-0.11346663534641266,-0.14682930707931519,0.19273850321769714,0.29999578986743636,0.2853837254511219,-0.5098866862552293,-0.754038564186999,1.223147365151315,0.37395360819878737,-2.648084971564741
1782818890625686528,0.8073675632476807,4.403175354003906,-0.5735844373703003,-2.2174901962280273,0.14378997683525085,-0.9496607780456543,-0.2783322036266327,-0.06146883964538574,-0.06782573461532593,0.06644865870475769,0.2840232140130712,0.2950592854857534,-0.523234091994923,-0.7473264856212305,1.2521512604002896,0.4768493510704692,-2.763159407082465
1782818890635606528,0.8172876834869385,4.817661285400391,-0.5815224051475525,-2.348874568939209,0.16416582465171814,-0.9580054879188538,-0.23510663211345673,-0.05569109320640564,0.01839977502822876,-0.07949905097484589,0.2671151220530209,0.30541927506583566,-0.5377413428683689,-0.7390553637916343,1.2799637332552671,0.6095579766652608,-2.9080810293742294
1782818890645525504,0.8272066116333008,4.7130937576293945,-0.5591185688972473,-2.418599843978882,0.18604594469070435,-0.9639932513237,-0.19000990688800812,-0.05677351355552673,0.1078837513923645,-0.16129319369792938,0.2493495765624054,0.3161115970965223,-0.5523300666390607,-0.7299518381498826,1.3016313248212075,0.7748576593514023,-3.0857945552277206
1782818890655445248,0.8371264934539795,4.30489444732666,-0.4906988739967346,-2.397244453430176,0.20852181315422058,-0.9668349027633667,-0.14747577905654907,-0.0546673983335495,0.17226386070251465,-0.10440106689929962,0.23189112843044407,0.32642297102789436,-0.5654291799299876,-0.7210856308573333,1.3125326497303644,0.9552252209219418,3.0052621198107192
1782818890665365504,0.8470466136932373,3.884645462036133,-0.4963732659816742,-2.436692476272583,0.23126503825187683,-0.9667661190032959,-0.10899338126182556,-0.09428693354129791,0.14013659954071045,-0.07220475375652313,0.21512162475885394,0.3361968259107178,-0.576606455885178,-0.7128950054027248,1.3122635792134716,1.130377677315692,2.819261274541393
1782818890675285248,0.856966495513916,3.4020309448242188,-0.4924837052822113,-2.516195774078369,0.25482499599456787,-0.9640756845474243,-0.07498299330472946,-0.1531708836555481,0.09653717279434204,-0.009703345596790314,0.19867182516037554,0.3454623534600772,-0.5858022424688301,-0.7057061063351322,1.3019414765232462,1.2846204059944442,2.654466468432123
1782818890685204480,0.8668856620788574,2.774280309677124,-0.39521706104278564,-2.5099093914031982,0.27879172563552856,-0.959227979183197,-0.04644253849983215,-0.18678122758865356,0.11215156316757202,0.08315515518188477,0.18314020143026083,0.35430885021468406,-0.5926583922842483,-0.6997720715246027,1.2842578756413956,1.4057270452939734,2.5240450597284854
1782818890695123456,0.8768045902252197,2.423550844192505,-0.4141719937324524,-2.4802677631378174,0.3025180697441101,-0.9528672695159912,-0.02295592613518238,-0.17786899209022522,0.13664400577545166,0.13463503122329712,0.16865094756730428,0.3626296238111366,-0.597513006390481,-0.6950071227799106,1.2625505661196377,1.495058649484383,2.426513019827217
1782818890705043456,0.8867247104644775,2.360919713973999,-0.510364294052124,-2.4872796535491943,0.32597100734710693,-0.9453783631324768,-0.0016120750224217772,-0.13476315140724182,0.11551392078399658,0.10645520687103271,0.15431784044908467,0.37042220994909886,-0.6016488584666394,-0.6906460981743081,1.2387534322195866,1.5658509119941553,2.3471685682081205
1782818890714962432,0.8966436386108398,2.366901397705078,-0.5917786359786987,-2.4851834774017334,0.3494872450828552,-0.9367527365684509,0.01878795400261879,-0.07337945699691772,0.10629314184188843,0.12131822109222412,0.13972964465777127,0.3778633360688547,-0.6054859835539042,-0.6863538764664209,1.2132338618579785,1.6245032544766902,2.2792456966335983
1782818890724882688,0.9065637588500977,2.405531406402588,-0.7002896666526794,-2.3898072242736816,0.3724413812160492,-0.9272395372390747,0.03891385719180107,-0.005787938833236694,0.11765396595001221,0.09194552898406982,0.12490757867229929,0.38474630052889003,-0.6094482860602017,-0.6818659395747493,1.1869724997102475,1.674901770137399,2.2185116862013725
1782818890734802432,0.9164836406707764,2.2937939167022705,-0.7689205408096313,-2.290163278579712,0.394327849149704,-0.9171410799026489,0.057948414236307144,0.040227264165878296,0.14925765991210938,0.06523574143648148,0.11018351304060854,0.3908233063481161,-0.6133770053897996,-0.6774108836868082,1.1608471701121157,1.716706870263974,2.1653681073264477
1782818890744721664,0.9264028072357178,2.1740548610687256,-0.8836801648139954,-2.252863645553589,0.4155593514442444,-0.9064624905586243,0.07507268339395523,0.026106208562850952,0.16750997304916382,0.027649514377117157,0.09565227048299219,0.3962426283262435,-0.6168696140523184,-0.6732861187109257,1.1348302645758261,1.7495231833562017,2.120577844723145
1782818890754641408,0.9363226890563965,2.0546367168426514,-1.0085581541061401,-2.172910451889038,0.436389297246933,-0.8952222466468811,0.09023004025220871,0.004177689552307129,0.14276564121246338,-0.05301380902528763,0.08104047200872394,0.4009148525126839,-0.6199857264005328,-0.6695650687165184,1.1089296489426317,1.7746881697257382,2.0822335342883074
1782818890764561664,0.9462428092956543,1.9073234796524048,-1.0737453699111938,-2.080857276916504,0.45621904730796814,-0.8838500380516052,0.10331153124570847,-0.01726946234703064,0.18159478902816772,-0.10143470764160156,0.06683125917968127,0.404846183930437,-0.6227000337076105,-0.6662415424441753,1.0840298486449444,1.7934919890706376,2.0497117135560794
1782818890774480640,0.9561617374420166,1.952213168144226,-1.179079294204712,-2.0982446670532227,0.4758010506629944,-0.871993899345398,0.11506449431180954,-0.09436187148094177,0.24894708395004272,-0.16462504863739014,0.052577893367169025,0.40833702128128696,-0.6251344862792556,-0.6631012175457591,1.0592608181579142,1.808073961250346,2.0207098175931004
1782818890784400384,0.9660816192626953,2.236541509628296,-1.3222566843032837,-2.049877643585205,0.49538564682006836,-0.8593141436576843,0.12716935575008392,-0.12587887048721313,0.2762911915779114,-0.2549922466278076,0.037516994406984354,0.41127237456190774,-0.6280443558351636,-0.6595511259305203,1.0339271242411923,1.8220781806764792,1.990276206424635
1782818890794320640,0.9760017395019531,2.3829286098480225,-1.388641595840454,-1.9189515113830566,0.514151394367218,-0.8461634516716003,0.14019908010959625,-0.13141518831253052,0.29378002882003784,-0.26240670680999756,0.021972913909287944,0.41348631442863876,-0.6317662590344926,-0.6552996888960714,1.0087445715753907,1.8370048617826278,1.9570781364233674
1782818890804239616,0.9859206676483154,2.610588788986206,-1.3746471405029297,-1.7884292602539062,0.5318124890327454,-0.8327888250350952,0.15374751389026642,-0.15220433473587036,0.3010810613632202,-0.14120471477508545,0.006402345210850463,0.41506435830526345,-0.6360780872608678,-0.6504500563652597,0.9841264627411769,1.852224268168207,1.9225319930171794
1782818890814159616,0.9958407878875732,2.896615982055664,-1.3754987716674805,-1.6472824811935425,0.5482740998268127,-0.8190248012542725,0.16909797489643097,-0.1330365538597107,0.2253357172012329,-0.06303416192531586,-0.009262833536458421,0.4161377794563089,-0.6413878220617193,-0.6444883929319019,0.9597092511723447,1.8699586956774714,1.8845356179706527
1782818890824079616,1.005760669708252,2.883626937866211,-1.3782330751419067,-1.6123926639556885,0.5639047622680664,-0.8048356771469116,0.18507006764411926,-0.0960855484008789,0.14478623867034912,0.032398104667663574,-0.024887767371416215,0.41678793812992937,-0.6471652405381975,-0.6378444579234686,0.9353985517586999,1.8879142321486515,1.8457140419745253
1782818890833998336,1.0156795978546143,2.600534200668335,-1.4129942655563354,-1.6406155824661255,0.5796558856964111,-0.7901582717895508,0.19912134110927582,-0.11095154285430908,0.12881171703338623,0.06633582711219788,-0.040266495022011406,0.41735100151557647,-0.6522107129840424,-0.6315204435108451,0.9110671901487432,1.9016835542530643,1.8113190592050057
1782818890843918592,1.025599718093872,2.1799817085266113,-1.3661599159240723,-1.6226016283035278,0.5951985716819763,-0.7757158875465393,0.2097703069448471,-0.13468831777572632,0.1507464051246643,0.0434950590133667,-0.054840874376096395,0.4178067673867167,-0.6559898325938534,-0.6261847711217005,0.8878487208766208,1.9096410014400078,1.7836881973361536
1782818890853838336,1.0355195999145508,1.7064100503921509,-1.2606862783432007,-1.6155893802642822,0.61055588722229,-0.761669397354126,0.21698132157325745,-0.1563934087753296,0.18256795406341553,-0.045121580362319946,-0.06825578671079406,0.41858647161748974,-0.6582370602698375,-0.6219729528525532,0.8658855960931305,1.9122588153236402,1.7635566006303869
1782818890863757568,1.0454387664794922,1.3233681917190552,-1.2082244157791138,-1.5259500741958618,0.6251422166824341,-0.7486414313316345,0.22075574100017548,-0.14932745695114136,0.1838831901550293,-0.07253184914588928,-0.0803318400312136,0.4194157395115048,-0.6591420998274551,-0.6190063766454429,0.846010528643524,1.9102557936006928,1.7499758214676207
1782818890873677568,1.055358648300171,1.0302667617797852,-1.1473509073257446,-1.48268723487854,0.6389591693878174,-0.7364583015441895,0.22217178344726562,-0.10403186082839966,0.11365562677383423,-0.03558732569217682,-0.09126351247704365,0.4203656046554723,-0.6590740853626956,-0.6169157661826229,0.8278198755740878,1.9054286109969694,1.7409997716137897
1782818890883597568,1.0652787685394287,0.8065528869628906,-1.096896767616272,-1.464359998703003,0.6522092223167419,-0.7249192595481873,0.22161979973316193,-0.020342767238616943,-0.027430593967437744,0.04884231090545654,-0.10138059692083952,0.4213623064946865,-0.6582277030322427,-0.6155583860461649,0.8109171465259537,1.898354317851668,1.73546381242352
1782818890893517568,1.0751986503601074,0.5172032713890076,-1.0620317459106445,-1.563792109489441,0.6655904054641724,-0.71332186460495,0.2194569855928421,0.005109667778015137,-0.15273648500442505,0.08945715427398682,-0.1110924315003858,0.4226977324281038,-0.6565478799141568,-0.614760098932487,0.7942266716236971,1.8892893533065076,1.7330379638054738
1782818890903436544,1.0851175785064697,-0.126795694231987,-0.9344802498817444,-1.5575467348098755,0.6788439750671387,-0.702265202999115,0.21446359157562256,-0.020152509212493896,-0.1986289620399475,0.14320242404937744,-0.11953451657836292,0.4247856968402123,-0.6532908287769739,-0.6152070920782677,0.7785743574527529,1.876798181615113,1.7370944763129146
1782818890913356544,1.0950376987457275,-0.5475262403488159,-0.778722882270813,-1.4244441986083984,0.6911569237709045,-0.6926273107528687,0.2063240110874176,-0.01572662591934204,-0.18582117557525635,0.12665331363677979,-0.12617600481427318,0.4273518332975831,-0.6484847069381995,-0.6171852647205489,0.7651252095385687,1.8608945621221658,1.7479241032599266
1782818890923276544,1.1049575805664062,-0.7726792097091675,-0.8304707407951355,-1.3908298015594482,0.7023604512214661,-0.684225857257843,0.19627782702445984,0.06727766990661621,-0.18395352363586426,0.03638818860054016,-0.13169998348229295,0.4297713249665489,-0.6429895175280745,-0.6200937862544372,0.7535416371034959,1.8432991529552225,1.7617881225491256
1782818890933195520,1.1148767471313477,-1.176313042640686,-0.7157339453697205,-1.2565503120422363,0.712977409362793,-0.6764345169067383,0.18466122448444366,0.1164446473121643,-0.20592021942138672,-0.032531023025512695,-0.13626870009415004,0.4324134378740993,-0.636670426161264,-0.6237790473212991,0.7429106958259639,1.8242275851877192,1.7788976190140473
1782818890943115520,1.1247966289520264,-1.3762294054031372,-0.7926308512687683,-1.0624148845672607,0.72199946641922,-0.6704915761947632,0.1707562506198883,0.17457646131515503,-0.22025543451309204,-0.030283823609352112,-0.139309582588501,0.4347178349049206,-0.6296018802026858,-0.6286609886891308,0.7348711440017687,1.803033742772003,1.799755534571978
1782818890953035520,1.1347167491912842,-1.266783356666565,-0.8942305445671082,-0.8694285750389099,0.7299534678459167,-0.6654725670814514,0.1559297740459442,0.16294503211975098,-0.3481839895248413,-0.0943758636713028,-0.14219663318288786,0.4360792441252056,-0.622735725158117,-0.6338889526003144,0.7281267830602016,1.7812493111682082,1.8198186006844221
1782818890962954496,1.1446356773376465,-1.1559185981750488,-0.9209985136985779,-0.5439311861991882,0.7359923124313354,-0.6620469689369202,0.14145465195178986,0.22726458311080933,-0.3903059959411621,-0.07547567784786224,-0.1446897564865925,0.43622291931983753,-0.6167956664318917,-0.6390130344692045,0.7235467219211563,1.760676751925085,1.8371307356179023
1782818890972874752,1.1545557975769043,-0.9287888407707214,-0.9269406795501709,-0.45494768023490906,0.7406738996505737,-0.6596232652664185,0.12766820192337036,0.2005797028541565,-0.33222848176956177,-0.00970245897769928,-0.14693891508985993,0.43558768872756626,-0.6116350745232243,-0.643874825155754,0.7203174354279224,1.7414867024956904,1.852063264203961
1782818890982794496,1.164475679397583,-0.9568971395492554,-1.070175051689148,-0.30669963359832764,0.74439537525177,-0.6578593254089355,0.11444082856178284,0.14177405834197998,-0.32538652420043945,0.03045666217803955,-0.14923984021495112,0.43422918814984307,-0.6071782490757184,-0.6484651724393264,0.7179728652021311,1.7233386498522243,1.8646253938128023
1782818890992713472,1.1743946075439453,-1.3308169841766357,-1.054671287536621,-0.27831611037254333,0.7475566864013672,-0.6567832231521606,0.09897057712078094,0.1284351944923401,-0.31359952688217163,0.08715619146823883,-0.151012024022249,0.4325235824131758,-0.6020038532666353,-0.6539955871158304,0.7165449348713365,1.70242292655226,1.8801492051307382
1782818891002633472,1.1843147277832031,-1.7991842031478882,-0.7945449352264404,-0.21535100042819977,0.7499755620956421,-0.656383216381073,0.08184172213077545,0.07174080610275269,-0.3824962377548218,0.03136325627565384,-0.1512567097480913,0.431344527023799,-0.5957035832680415,-0.6604549288344056,0.7160146408505632,1.6794920713313086,1.9008671167046343
1782818891012553472,1.1942346096038818,-2.472639322280884,-0.6968023180961609,-0.1294068843126297,0.751804769039154,-0.6564159393310547,0.0625109001994133,0.058452069759368896,-0.5001697540283203,0.03943299502134323,-0.1495783523343236,0.4310478164409304,-0.5877526954383179,-0.668109874676927,0.7160579692463724,1.6537532887035171,1.928800993091658
1782818891022472704,1.2041537761688232,-2.857398271560669,-0.8901214003562927,0.009000252932310104,0.7525704503059387,-0.657348096370697,0.03913193568587303,0.10413426160812378,-0.613861620426178,0.1047736406326294,-0.1462055391726836,0.43063900246949005,-0.5780276963725023,-0.6775382026893418,0.717294270597036,1.6227472445588558,1.9644013355838938
1782818891032392448,1.214073657989502,-2.6239452362060547,-0.9884312152862549,0.055367615073919296,0.7527846693992615,-0.6581159830093384,0.014092279598116875,0.12862402200698853,-0.6538499593734741,0.07622456550598145,-0.14302790649136335,0.4293741002214102,-0.5680528337009343,-0.6873840841038579,0.7183137415236583,1.5895143407591215,2.0005757950269243
1782818891042312704,1.2239937782287598,-2.266002655029297,-0.8633920550346375,0.39553210139274597,0.7513197064399719,-0.6598803400993347,-0.00876534916460514,0.13280516862869263,-0.5190442204475403,0.010153948329389095,-0.1396276854137924,0.4272896062219975,-0.5595005967343254,-0.6963382021040454,0.7206595231024538,1.5591302521547485,2.0328127593644547
1782818891052231424,1.233912706375122,-1.8404361009597778,-0.6703529357910156,0.4240850508213043,0.7484129071235657,-0.6626510620117188,-0.02778431959450245,0.09968596696853638,-0.369056761264801,-0.050859514623880386,-0.1358572548757382,0.4249534088755809,-0.5527408439018492,-0.7038715051875319,0.7243530368765579,1.533689048339915,2.0601545512140844
1782818891062151424,1.2438325881958008,-1.1950520277023315,-0.5699965357780457,0.48603150248527527,0.745272159576416,-0.6654080748558044,-0.042443279176950455,0.09538024663925171,-0.3290681838989258,-0.15209102630615234,-0.13279047556621873,0.42257912470053804,-0.5479098860301731,-0.7096395373133602,0.7280403442418127,1.513907733058081,2.0806556899659028
1782818891072071680,1.2537527084350586,-0.7269231081008911,-0.5667247176170349,0.7921872138977051,0.7407992482185364,-0.669668972492218,-0.052536528557538986,0.22270172834396362,-0.444222629070282,-0.23634284734725952,-0.13013347714362689,0.4195049863016958,-0.5456622603118814,-0.7136761452066129,0.7337629916259981,1.4999961528933905,2.0933167107810533
1782818891081991424,1.2636725902557373,-1.0513451099395752,-0.5517183542251587,0.9173325896263123,0.7346128225326538,-0.6756235957145691,-0.062263596802949905,0.3495393991470337,-0.6135151386260986,-0.1735152006149292,-0.12677049801603427,0.4156839932038809,-0.5441277601628336,-0.717677544752218,0.7418102465202413,1.4862413908403134,2.1055280350428864
1782818891091910656,1.2735917568206787,-1.6710922718048096,-0.5930985808372498,1.1342179775238037,0.7274938225746155,-0.6819425821304321,-0.07554639130830765,0.3610529899597168,-0.7697786688804626,-0.04789716750383377,-0.12189946032686923,0.41183022384935564,-0.5409460904209,-0.7231278043848711,0.7504152748797422,1.467322496655403,2.12519551141039
1782818891101830400,1.2835116386413574,-1.929949164390564,-0.5999969840049744,1.4526593685150146,0.71812903881073,-0.689812421798706,-0.09192068874835968,0.38874346017837524,-0.869117021560669,-0.004881076514720917,-0.11501527582870123,0.4073670635461771,-0.5367417738700753,-0.7298847462368253,0.761229895623628,1.4434883477059286,2.1517817761604294
1782818891111750656,1.2934317588806152,-1.9129664897918701,-0.6287727355957031,1.7120245695114136,0.7064328789710999,-0.699256420135498,-0.10951334983110428,0.40495628118515015,-0.8447957038879395,0.06399637460708618,-0.1069985692159107,0.4018772623056137,-0.5326706217041458,-0.7370943197219325,0.774356771906541,1.4169975597841031,2.1809676249817884
1782818891121669632,1.3033506870269775,-2.122481107711792,-0.6804354190826416,1.955923080444336,0.6926907300949097,-0.7098094820976257,-0.12786783277988434,0.44770538806915283,-0.7687671780586243,0.10537636280059814,-0.0979006556267469,0.3956576768924426,-0.5286975385201435,-0.7445464470771418,0.7892276644146754,1.388255362807281,2.2127943900115428
1782818891131589632,1.3132708072662354,-2.491623640060425,-0.7053173780441284,2.0842578411102295,0.6771172285079956,-0.7207062840461731,-0.14864306151866913,0.4189063310623169,-0.7417875528335571,0.17055463790893555,-0.08756172792370975,0.38880967435636193,-0.523932732776443,-0.7527645805804071,0.80482063836612,1.3547006867762876,2.2503328174554733
1782818891141509632,1.323190689086914,-2.7450335025787354,-0.7108175754547119,2.1989331245422363,0.6602562069892883,-0.7310742735862732,-0.17202359437942505,0.4229651689529419,-0.8262834548950195,0.19422514736652374,-0.07617817265612072,0.3815919068032292,-0.5180500173561091,-0.7617142913458689,0.8198950922077488,1.3159219097448616,2.294203938577593
1782818891151428352,1.3331096172332764,-2.9306774139404297,-0.5892786979675293,2.2834630012512207,0.6419139504432678,-0.7412415146827698,-0.19623301923274994,0.4730609655380249,-0.901870608329773,0.15149427950382233,-0.06362289902570252,0.3741751680921312,-0.5117386349495948,-0.7707584299582126,0.8349180642173704,1.2741184977886382,2.3426212583114423
1782818891161348608,1.3430297374725342,-3.3107492923736572,-0.513320803642273,2.174513816833496,0.6207585334777832,-0.7529032230377197,-0.2186223417520523,0.5464777946472168,-0.8441731929779053,0.1615391969680786,-0.0489351189302521,0.3666087119789721,-0.5062478454085169,-0.7790485344628247,0.8524622995675086,1.2321755844492368,2.3940248003418327
1782818891171268352,1.352949619293213,-3.3506293296813965,-0.6839531064033508,2.331537961959839,0.6022092700004578,-0.7592153549194336,-0.2468523383140564,0.6769807934761047,-0.7201852798461914,0.1643785834312439,-0.0355239753748398,0.3593341205086685,-0.49744629822854625,-0.7887738837820868,0.8621066603377757,1.1817751020303269,2.453073852676579
1782818891181187584,1.3628687858581543,-3.180318593978882,-0.8009851574897766,2.4265289306640625,0.5820598006248474,-0.7649481296539307,-0.2757912278175354,0.8087330460548401,-0.5864160060882568,0.1581001877784729,-0.022095720594254853,0.35099914630036405,-0.4887780531776815,-0.7983779743238245,0.8709607570902144,1.128311678299363,2.513628901441766
1782818891191107584,1.372788667678833,-2.9454538822174072,-0.8362587690353394,2.5357470512390137,0.5607584118843079,-0.7704155445098877,-0.30333128571510315,0.8170186877250671,-0.4863288402557373,0.20327943563461304,-0.008869606951237253,0.342058992005056,-0.4809677740540276,-0.8072093652837263,0.8794926570921242,1.0749429847160783,2.5728593266322823
1782818891201027584,1.3827087879180908,-2.911034107208252,-0.8742157816886902,2.6039493083953857,0.5383513569831848,-0.7753420472145081,-0.3301853835582733,0.7840972542762756,-0.42563140392303467,0.3077092468738556,0.004387907299731638,0.3326142813393621,-0.47357686763731627,-0.8155202966053056,0.8872565364457576,1.0206352178607017,2.632361935006568
1782818891210946560,1.3926277160644531,-2.965677499771118,-1.011559247970581,2.8238258361816406,0.5142295360565186,-0.7796152234077454,-0.35744670033454895,0.7411415576934814,-0.39244288206100464,0.46372419595718384,0.01792095228010807,0.32230913432198083,-0.4662547221434517,-0.8236517606143162,0.8940511696318534,0.9633589552122618,2.69401354347196
1782818891220866560,1.4025475978851318,-3.126582145690918,-0.9725988507270813,3.012875556945801,0.4879409670829773,-0.7829859852790833,-0.38580644130706787,0.6983993649482727,-0.4046971797943115,0.5981172323226929,0.03242760235051059,0.3111892338698257,-0.45853902106207445,-0.8317762283351716,0.8994516891941972,0.901762582572823,2.760358693656686
1782818891230786560,1.4124677181243896,-3.0854763984680176,-0.7921152710914612,3.0982210636138916,0.46059495210647583,-0.7850959300994873,-0.4140976667404175,0.6412575244903564,-0.4553215503692627,0.6679428815841675,0.04785757116829503,0.3000087685017269,-0.4504951762174073,-0.8394990455035954,0.9028509824456047,0.8385065875876047,2.829885546228463
1782818891240706560,1.4223875999450684,-2.938251495361328,-0.6181671619415283,3.0670599937438965,0.4336346983909607,-0.7861621975898743,-0.4403519034385681,0.672123908996582,-0.48034775257110596,0.7024369239807129,0.06362009281342644,0.2894961924282668,-0.4427369407635968,-0.8462436737159847,0.9045744372040823,0.7777126142410283,2.8986595219267537
1782818891250625536,1.4323067665100098,-3.210129499435425,-0.7250951528549194,3.0241448879241943,0.4068771302700043,-0.7852970361709595,-0.46664702892303467,0.7274001836776733,-0.35342055559158325,0.6237362623214722,0.07932330072846663,0.27901790278364963,-0.43454055514482365,-0.8526612839186081,0.9031757875692805,0.7170807968149742,2.9675378190523274
1782818891260545536,1.4422266483306885,-3.30842661857605,-0.632695198059082,3.045638084411621,0.38005179166793823,-0.7815778851509094,-0.4946681559085846,0.7223193645477295,-0.1619950532913208,0.5688410997390747,0.09516020448193874,0.26823850867126203,-0.42510472289235474,-0.8592313920359346,0.8971913032697338,0.6551083762790016,3.037962477449811
1782818891270465536,1.4521467685699463,-3.252171039581299,-0.6248999238014221,2.961378574371338,0.3538646697998047,-0.7763128280639648,-0.5216494798660278,0.6789875030517578,-0.09142398834228516,0.5014926195144653,0.1109442241748956,0.2577991245461007,-0.41558978646287126,-0.8651682507621621,0.8887951314421149,0.5960524156132007,3.10619761598343
1782818891280384512,1.4620656967163086,-3.6936285495758057,-0.6545206904411316,2.870368719100952,0.3281334340572357,-0.7679290771484375,-0.5501031875610352,0.6048651933670044,-0.11541748046875,0.5526361465454102,0.12656090621474894,0.24712419341680952,-0.40481853417946734,-0.8712255965816305,0.8756017164674462,0.5378378412698891,-3.1096681504168573
1782818891290304512,1.4719855785369873,-3.6781184673309326,-0.5968068242073059,2.707085371017456,0.303777277469635,-0.7559342384338379,-0.5798990726470947,0.5544838309288025,-0.1921095848083496,0.5988657474517822,0.14188588921026934,0.2365900036361053,-0.3925246974491595,-0.8773927595199217,0.8570800056124901,0.48254120793477384,-3.0448333751478973
1782818891300224512,1.4819056987762451,-3.27673602104187,-0.7777395844459534,2.734865665435791,0.2796156108379364,-0.7434412837028503,-0.607544481754303,0.582841694355011,-0.21006518602371216,0.538727343082428,0.1563378182980523,0.22585490038498227,-0.3810739047730396,-0.8827971780823651,0.8382011649097264,0.4313359078099958,-2.985616916516575
1782818891310143488,1.4918246269226074,-2.883589267730713,-0.8990218639373779,2.8636484146118164,0.25386741757392883,-0.7321159243583679,-0.632105827331543,0.5929954051971436,-0.12863242626190186,0.5150250792503357,0.17040418430685922,0.21442924676839778,-0.37143935693684144,-0.8871389431843436,0.8214230425674355,0.38190364162544743,-2.930015377740739
1782818891320063488,1.5017447471618652,-2.3323073387145996,-0.9593515396118164,2.8612842559814453,0.22753657400608063,-0.7225605845451355,-0.6527889370918274,0.45538580417633057,-0.067493736743927,0.4176815152168274,0.18393626132257374,0.20297307357974603,-0.3638783631906998,-0.8902595283418173,0.807499146393539,0.33539202469946316,-2.878500112777503
1782818891329983488,1.511664628982544,-2.0856833457946777,-0.9576977491378784,2.981485605239868,0.2005455046892166,-0.7147185802459717,-0.6700438857078552,0.2862403690814972,-0.027331531047821045,0.3741302490234375,0.19721352217982632,0.1915464662288578,-0.35817314873251227,-0.8922604813972302,0.796221684091464,0.29081634628069725,-2.8295556398932136
1782818891339902720,1.5215837955474854,-2.4194414615631104,-0.8189169764518738,2.8760907649993896,0.17422513663768768,-0.7056307196617126,-0.6868267059326172,0.13153047859668732,-0.032345354557037354,0.3878765106201172,0.21067155351436362,0.18045338902827013,-0.35216931258566103,-0.8938852558510004,0.7833128474607163,0.24842678626614761,-2.7817167608487408
1782818891349822464,1.531503677368164,-3.083601236343384,-0.7527266144752502,2.82462215423584,0.14932556450366974,-0.6914211511611938,-0.7068512439727783,-0.013262942433357239,-0.07125890254974365,0.3933289051055908,0.22429385146897793,0.16926042738291824,-0.3434025269979785,-0.8961684483404773,0.7634543482703176,0.20819348020674402,-2.734933024233381
1782818891359742720,1.5414237976074219,-3.5657689571380615,-0.6792353987693787,2.7489125728607178,0.12540292739868164,-0.6718351244926453,-0.7300080060958862,-0.09938667714595795,-0.051446735858917236,0.35879218578338623,0.2381276525341394,0.15764469030936165,-0.331879700655274,-0.8990546979276393,0.73668356922601,0.17012251186528768,-2.6895495063302186
1782818891369661696,1.5513427257537842,-3.9449262619018555,-0.5359271168708801,2.6107966899871826,0.10352428257465363,-0.6476868391036987,-0.7548407316207886,-0.16458994150161743,0.01247870922088623,0.3031500577926636,0.2519894950078381,0.14622830117554125,-0.31811462666341905,-0.9021761381724053,0.7045444921751708,0.1362968746710065,-2.64702038603368
1782818891379581440,1.561262607574463,-4.6477885246276855,-0.5029447078704834,2.2932870388031006,0.08402466028928757,-0.6177412271499634,-0.7818795442581177,-0.22533631324768066,0.07970106601715088,0.2840005159378052,0.2651476138826284,0.13463856914638972,-0.3015504674648638,-0.9058898735123352,0.6658670798252311,0.10705411550692107,-2.6091643142743566
1782818891389501696,1.5711827278137207,-5.06484842300415,-0.3681173622608185,2.102224349975586,0.06805520504713058,-0.5812374353408813,-0.8108832240104675,-0.2687998414039612,0.10707056522369385,0.31738340854644775,0.2774443296915176,0.12325750749844416,-0.2817197005360204,-0.9102012398383931,0.6202485530058811,0.08373103425241822,-2.5767001961782676
1782818891399421440,1.5811026096343994,-4.83831787109375,-0.4319016635417938,2.0550014972686768,0.0536029152572155,-0.5422562956809998,-0.8385015726089478,-0.2696673572063446,0.15544599294662476,0.29293882846832275,0.28919651055447104,0.11194884768908296,-0.26118321651262255,-0.9141204575183576,0.5731201499071101,0.06384015931034806,-2.5476045036787136
1782818891409340672,1.5910217761993408,-4.363752365112305,-0.5324975848197937,1.9802130460739136,0.039058033376932144,-0.5048366189002991,-0.8623308539390564,-0.32416850328445435,0.2669063210487366,0.2787889838218689,0.30019819254493807,0.10061079176089814,-0.24230567241784362,-0.9170859245064007,0.5291926611720846,0.045262621979676225,-2.5211661656296176
1782818891419260416,1.6009416580200195,-3.139862060546875,-0.5599558353424072,1.8198456764221191,0.02547486498951912,-0.47299182415008545,-0.8806984424591064,-0.40078005194664,0.44622790813446045,0.26209187507629395,0.31000002953003725,0.09041032373647,-0.22688487302705698,-0.9188303555403464,0.4926833775679009,0.028917688685530688,-2.498078350149152
1782818891429180672,1.6108617782592773,-1.027942180633545,-0.7416412830352783,1.68052077293396,0.01205157209187746,-0.45554685592651367,-0.8901302218437195,-0.4260530471801758,0.5674090385437012,0.11263388395309448,0.3180769692198347,0.08251810886401602,-0.21937558435836635,-0.9186360186779257,0.4729864060214577,0.013538283844333076,-2.478196588525989
1782818891439099648,1.6207807064056396,0.9761876463890076,-0.8224772810935974,1.588474988937378,-0.0023401151411235332,-0.4564594626426697,-0.8897411227226257,-0.4526312053203583,0.7597126364707947,0.005021274089813232,0.324677191125529,0.0772899207463779,-0.22171087390618882,-0.9162178650530554,0.4740118571953392,-0.002630101925917969,-2.4598377845586454
1782818891449019392,1.6307005882263184,2.270066499710083,-1.1174441576004028,1.160635232925415,-0.017092742025852203,-0.47170010209083557,-0.8815933465957642,-0.593380868434906,1.0529683828353882,0.03816378116607666,0.3292359475116631,0.07424872089606106,-0.23171199224519992,-0.9123597736777035,0.49121786087253005,-0.019386036363860604,-2.4440961102639487
1782818891458939648,1.6406207084655762,2.6451756954193115,-0.9169862270355225,0.9993149638175964,-0.03100566752254963,-0.4943386912345886,-0.8687162399291992,-0.7492372393608093,1.0877225399017334,0.09540081024169922,0.331753561461645,0.07269606892758089,-0.24567695334527367,-0.9079083842388334,0.5170739028146177,-0.035676220446381135,-2.4314938761884033
1782818891468858368,1.6505396366119385,1.6106433868408203,-0.3922753632068634,0.6899078488349915,-0.041015565395355225,-0.5133575797080994,-0.8571941256523132,-0.8200989365577698,0.9107422232627869,0.30146902799606323,0.33409948598364514,0.07238871659037753,-0.2572213398379669,-0.9038664749060283,0.5390926724659527,-0.04781216695700976,-2.4202659517732448
1782818891478778624,1.6604597568511963,1.0970964431762695,-0.29827776551246643,0.04598453640937805,-0.04591384902596474,-0.5255419611930847,-0.8495278358459473,-1.0465391874313354,0.7481982111930847,0.40807580947875977,0.3346837664182489,0.07272005909126737,-0.2644765799407894,-0.9015269484719303,0.5533520297449968,-0.05399378313072748,-2.4153152323851215
1782818891488698368,1.670379638671875,0.7948416471481323,0.1825186014175415,-0.46734514832496643,-0.046399783343076706,-0.537212610244751,-0.8421695828437805,-1.044679880142212,0.7094538807868958,0.17095071077346802,0.3331772466031584,0.07449109891918143,-0.27086211167250335,-0.9000431222981017,0.5671288927174826,-0.05503988704254185,-2.416474215135933
1782818891498617600,1.6802988052368164,0.6547511219978333,-0.07134749740362167,-0.6281561255455017,-0.04524984583258629,-0.5483176708221436,-0.8350450396537781,-1.0150376558303833,0.9167106747627258,0.15549486875534058,0.3306407680803881,0.07662842404613186,-0.27677712777073116,-0.8989990293175466,0.5803512379084723,-0.054135565490092324,-2.4205588178703348
1782818891508537600,1.6902186870574951,1.1406633853912354,-0.12170177698135376,-0.49891260266304016,-0.042871203273534775,-0.5568272471427917,-0.8295212388038635,-0.8865874409675598,0.9540898203849792,0.12635046243667603,0.3274226744721901,0.0785954584503672,-0.281179902398702,-0.8986406517782486,0.5905611912664503,-0.05163592295219918,-2.427075151514853
1782818891518457600,1.700138807296753,1.7548508644104004,0.01998131349682808,-0.7134419679641724,-0.04008093103766441,-0.5697197914123535,-0.8208611011505127,-0.8377113938331604,0.808229923248291,0.0949089527130127,0.32438418612662134,0.08174273491232381,-0.2879020439843583,-0.8973323976395646,0.6061648282916068,-0.04878916209781456,-2.4325699349617693
1782818891528376576,1.7100577354431152,0.5455520153045654,-0.10784082859754562,-1.2822339534759521,-0.03520061448216438,-0.5801230669021606,-0.8137678503990173,-0.9913191795349121,0.5913687944412231,0.13826125860214233,0.31961083525564365,0.08481583517896937,-0.2931251258464777,-0.897069023447672,0.6188797645262564,-0.043229386325900704,-2.443246774295472
1782818891538296576,1.719977617263794,-0.9738628268241882,-0.031496524810791016,-1.7808746099472046,-0.027922675013542175,-0.5790036916732788,-0.8148466348648071,-1.0756845474243164,0.5434507131576538,0.27811872959136963,0.31293206816350183,0.0859941683463089,-0.29185901861397956,-0.8997204097902639,0.6175061898827666,-0.03425399698643231,-2.461220662375784
1782818891548216576,1.7298977375030518,-3.268402338027954,0.08364398777484894,-1.9221707582473755,-0.016988325864076614,-0.5623924732208252,-0.8266959190368652,-1.2550759315490723,0.3896477222442627,0.34572362899780273,0.30472559084223805,0.08539308648012915,-0.281709195351014,-0.9058091414029752,0.5972763375462382,-0.02054677491822767,-2.4862285633897327
1782818891558135552,1.739816665649414,-4.77891206741333,0.6596511006355286,-1.5167148113250732,-0.005010816268622875,-0.5296910405158997,-0.8481758832931519,-0.945199728012085,0.11327868700027466,0.49731528759002686,0.2995583594616979,0.08337753044756283,-0.2626028341408927,-0.9134291417890501,0.5582362606485285,-0.005907687361886012,-2.506105483729898
1782818891568055552,1.7497367858886719,-5.798410415649414,0.2480991780757904,-1.5913993120193481,0.006842770613729954,-0.4824385941028595,-0.8759030699729919,-0.8394538164138794,0.1486983597278595,0.5778531432151794,0.29528395299272997,0.07930468353533882,-0.23613391801058434,-0.9223659775414109,0.5034365809128487,0.007812087168786838,-2.523946402944674
1782818891577975552,1.7596566677093506,-5.054274082183838,0.9440281391143799,-1.2323555946350098,0.017531447112560272,-0.4353002905845642,-0.9001145958900452,-0.5790701508522034,0.3712744116783142,0.061903536319732666,0.291802226582221,0.0754301458436497,-0.21036394331762273,-0.9300047042903031,0.4503717917156301,0.019474442848763776,-2.5379813606352255
1782818891587895552,1.7695767879486084,-3.9086451530456543,0.21211214363574982,-1.648061990737915,0.027400579303503036,-0.3955745995044708,-0.918025016784668,-0.618129312992096,0.8948726654052734,-0.16185474395751953,0.28716409123741,0.07259987553818162,-0.188988729412592,-0.9362421881088023,0.40669339454552017,0.02983845291353596,-2.5525250316524337
1782818891597814528,1.7794957160949707,-3.1188337802886963,0.5706623196601868,-1.5186917781829834,0.039293114095926285,-0.3619172275066376,-0.9313817620277405,-0.1426408886909485,0.9605958461761475,-0.254943311214447,0.28098680431939005,0.07181127921114575,-0.17074032797669977,-0.9416673327521091,0.3703237158989957,0.0421629756255636,-2.5695278607963394
1782818891607734528,1.7894155979156494,-1.893725037574768,0.37511682510375977,-0.7571896910667419,0.04601265490055084,-0.33832135796546936,-0.939905047416687,0.46704888343811035,0.28692975640296936,-0.495153546333313,0.27664597721603845,0.07066675956521888,-0.1582835586008056,-0.9452087156745105,0.3451324798220966,0.04891552634202745,-2.5806603160063144
1782818891617654528,1.7993357181549072,-1.018550992012024,0.3248851001262665,-0.6512891054153442,0.05386631190776825,-0.3261520564556122,-0.9437813758850098,0.8473177552223206,0.024043291807174683,-0.5329642295837402,0.2737177820490505,0.07217352941067957,-0.1513284474411743,-0.9470846552256807,0.33223017176375863,0.05701313426261991,-2.588464434011979
1782818891627573504,1.8092546463012695,-1.0321528911590576,0.3907388746738434,-0.5391701459884644,0.05633433163166046,-0.3156953752040863,-0.9471868276596069,0.9154369235038757,0.2388826310634613,-0.34594976902008057,0.2722173991013537,0.07157304140531948,-0.14588997602744375,-0.9484151357465566,0.32118941974854487,0.05940543776707014,-2.592199341375234
1782818891637493504,1.8191747665405273,-1.3269895315170288,0.48261794447898865,-1.6548978090286255,0.06337631493806839,-0.3046867549419403,-0.9503417611122131,0.9456874132156372,0.1990806758403778,-0.31168216466903687,0.26831150107944574,0.07279807501438121,-0.13974822907463758,-0.9503577324286744,0.3096095155593833,0.06658932142827667,-2.6016577305290074
1782818891647413504,1.829094648361206,-0.5299791097640991,-0.2960667014122009,-2.008805990219116,0.07064825296401978,-0.29417306184768677,-0.9531374573707581,1.121475100517273,0.07589611411094666,0.020291447639465332,0.25929409261092823,0.07354672693669102,-0.13424659621775603,-0.953590699232573,0.2985901944737105,0.07398648898366705,-2.6217374655815147
1782818891657332480,1.8390135765075684,-0.9138543605804443,-0.3591204881668091,-1.468528151512146,0.0701853409409523,-0.28634169697761536,-0.9555534720420837,1.1024678945541382,-0.00037094950675964355,-0.06991344690322876,0.25197416573341813,0.0712129479837606,-0.13096555079764266,-0.956182913523188,0.29040646094169276,0.07331827220051187,-2.6369925380834207
1782818891667252480,1.8489336967468262,-1.2023669481277466,-0.20269331336021423,-1.9328385591506958,0.07114696502685547,-0.2742605209350586,-0.9590199589729309,0.41080188751220703,-0.0744943618774414,0.2067769169807434,0.2439421681214246,0.0689863166317872,-0.12542293922795206,-0.9591674034319262,0.27782066604709604,0.07405150402733193,-2.6538565136285204
1782818891677172480,1.8588535785675049,0.8710210919380188,-0.22779840230941772,-0.6469118595123291,0.07233167439699173,-0.2722967863082886,-0.9594907760620117,0.45322680473327637,0.25957098603248596,-0.123837411403656,0.23811874688907633,0.06855443772658303,-0.12471924749896875,-0.9607521967108341,0.2757791994437701,0.07524315752971102,-2.6661379648090433
1782818891687091712,1.8687727451324463,2.228646755218506,-0.367581307888031,-0.2467498630285263,0.06986446678638458,-0.28871798515319824,-0.9548617005348206,0.5530908703804016,0.7144687175750732,-0.49483007192611694,0.23541024366244873,0.06908524240632366,-0.13340306933472948,-0.960214972525839,0.29288753994440964,0.07303696191334412,-2.6715260797815765
1782818891697011456,1.878692626953125,2.002213954925537,0.56062912940979,0.06929625570774078,0.07151644676923752,-0.3082129657268524,-0.948625385761261,-0.17022556066513062,0.060303449630737305,-0.16113102436065674,0.23438915227794047,0.07226357028945626,-0.14305689341521902,-0.9588400617074542,0.31331396429215097,0.0752472097465386,-2.67398536133074
1782818891706931712,1.8886127471923828,1.8055572509765625,0.8583687543869019,0.09779836237430573,0.07834275811910629,-0.32638946175575256,-0.941983163356781,-0.0036815181374549866,-0.508144199848175,0.11222553253173828,0.23484376078372193,0.07807698371614293,-0.15136839674180877,-0.9569952622053465,0.33248131980529855,0.08297693350452773,-2.6742395186144017
1782818891716851456,1.8985326290130615,1.2354674339294434,0.5475839972496033,-0.17320170998573303,0.08447033911943436,-0.3412306606769562,-0.9361764788627625,0.22639697790145874,-0.3505875766277313,0.29030245542526245,0.2346150121328077,0.08303585129776415,-0.1581670255006553,-0.9555333645814604,0.34822582236846567,0.0899854016118776,-2.6758907530533156
1782818891726770688,1.908451795578003,0.08915138989686966,0.5847640037536621,0.1219913512468338,0.09034370630979538,-0.346204549074173,-0.9337989091873169,0.2700536251068115,-0.6868307590484619,0.3941413164138794,0.23459043713429684,0.08661037221393456,-0.1599974528581716,-0.9549171069117173,0.35352242122071503,0.09644838658450867,-2.6770432107242432
1782818891736690432,1.9183716773986816,-0.4548141658306122,0.6901138424873352,0.0033267538528889418,0.0963200256228447,-0.3440394699573517,-0.9340017437934875,0.4329463243484497,-0.8158574104309082,0.053050875663757324,0.23526177419076597,0.08940331968906028,-0.15813336570921657,-0.9548051492372035,0.3512156166260598,0.10276290514996152,-2.6766712731244557
1782818891746610688,1.9282917976379395,-0.6511989235877991,0.4167724549770355,0.09070397168397903,0.09922566264867783,-0.33899229764938354,-0.9355418086051941,0.4886191785335541,-0.17612916231155396,-0.07732135057449341,0.23600166591559446,0.09029296213587858,-0.1551653009935272,-0.9550257311949315,0.34584555684492313,0.10566720230202514,-2.675541915128111
1782818891756529664,1.9382107257843018,-0.6419023275375366,0.3339169919490814,-0.008882807567715645,0.10317224264144897,-0.33324137330055237,-0.9371796250343323,0.3936386704444885,0.015751749277114868,-0.03184497356414795,0.23675430246499882,0.09160402990609615,-0.1517197249460818,-0.9552682189289878,0.33973935789777127,0.10964648229814598,-2.674527262589827
1782818891766449408,1.9481306076049805,-0.785552442073822,0.047441206872463226,0.03998809680342674,0.10588362067937851,-0.32786762714385986,-0.9387712478637695,0.3797426223754883,-0.10249122977256775,-0.0665387511253357,0.23725839407038973,0.09230971716109446,-0.14863807988537198,-0.955559661419816,0.33404553861005903,0.1123149162424772,-2.673805538502574
1782818891776369664,1.9580507278442383,-0.3551879823207855,-0.22637063264846802,-0.050497595220804214,0.10482154041528702,-0.3215430676937103,-0.9410752058029175,0.5588289499282837,0.07262647151947021,0.11842811107635498,0.2375612668737512,0.090982913601208,-0.14554902199713513,-0.9560869801834899,0.32735866085760745,0.11092763462939677,-2.6728505526956012
1782818891786288384,1.9679696559906006,-0.4169936180114746,-0.19781404733657837,0.2023751139640808,0.1033383309841156,-0.3181774616241455,-0.9423822164535522,0.4434145987033844,-0.030195921659469604,-0.03796440362930298,0.23778633734725665,0.08983206896921865,-0.14401068679007112,-0.956372699915056,0.32380641396065024,0.1092201110791775,-2.6720647927464487
1782818891796208640,1.9778897762298584,-0.7202214002609253,-0.13933342695236206,0.2910490334033966,0.10104681551456451,-0.3128686547279358,-0.9444060325622559,0.2622801959514618,-0.09803527593612671,0.08648061752319336,0.2388787979796502,0.08815137588659241,-0.1415144021270411,-0.9566293900353127,0.31821182736603076,0.1065895870392824,-2.669302798853346
1782818891806128384,1.987809658050537,-0.7560231685638428,-0.046870116144418716,0.36384516954421997,0.09917350858449936,-0.30688250064849854,-0.9465662837028503,0.23455147445201874,-0.33224713802337646,0.006182372570037842,0.24093084830492376,0.08672435315869233,-0.13854868945569684,-0.9566794525327186,0.3119157543488944,0.10439099546159178,-2.664600423908358
1782818891816047360,1.9977285861968994,-1.250702977180481,-0.22577275335788727,0.1524689942598343,0.09779025614261627,-0.29703405499458313,-0.9498462080955505,0.10141322016716003,-0.24094504117965698,0.03944587707519531,0.24225201800578747,0.08491039555334035,-0.13366794370944332,-0.9572026893607734,0.3015850173729863,0.1025923257453892,-2.6614375090721
1782818891825967616,2.0076487064361572,-1.5880258083343506,-0.13244542479515076,0.17794282734394073,0.09681205451488495,-0.28284263610839844,-0.9542680382728577,0.14839668571949005,-0.23996925354003906,0.015791475772857666,0.24353173750820803,0.08270628939357678,-0.12659248444343804,-0.9580325173337298,0.2867564827104481,0.1011057099182909,-2.6583462476033164
1782818891835887360,2.017568588256836,-1.4825937747955322,-0.07572729885578156,0.031245270743966103,0.09555607289075851,-0.2691132128238678,-0.958356499671936,0.17447872459888458,-0.1542724072933197,-0.16612470149993896,0.24506146559562442,0.08045508692999194,-0.11978623919677936,-0.9587091396094007,0.27247215234068584,0.09937980858545867,-2.654712507756495
1782818891845807616,2.0274887084960938,-1.56002676486969,-0.05605315417051315,-0.11047398298978806,0.09564155340194702,-0.2547038495540619,-0.9622778296470642,0.12242179363965988,0.028919577598571777,-0.15161371231079102,0.24479462967346077,0.07855504136711153,-0.11265072130286062,-0.9597992524260957,0.25754145150633106,0.09906543995790001,-2.6549831211429256
1782818891855726592,2.037407636642456,-1.5897107124328613,-0.09275443851947784,0.05623910576105118,0.094631128013134,-0.2388031929731369,-0.966446042060852,0.3188973069190979,0.019351288676261902,-0.13221722841262817,0.2459932247572245,0.07609898980796095,-0.10481371029582325,-0.9605781254551157,0.2411331925447943,0.09760547037490971,-2.6520252839748877
1782818891865646592,2.047327756881714,-1.2690801620483398,-0.25504040718078613,-0.18451248109340668,0.09296119958162308,-0.22617556154727936,-0.9696405529975891,0.22759544849395752,0.08301761746406555,-0.2343236207962036,0.24570093257357614,0.07359324535908093,-0.09881168706895413,-0.9614839204259762,0.22814969505801827,0.0955796875178957,-2.6521732687440673
1782818891875566592,2.0572476387023926,-1.0552411079406738,-0.2188488394021988,-0.17925779521465302,0.0913715660572052,-0.2145170420408249,-0.9724369645118713,0.3094920814037323,0.2354826182126999,-0.12041276693344116,0.24544196277802638,0.07127032905734208,-0.09328478981205574,-0.9622768290101759,0.21619733423228027,0.09368636474538153,-2.652289269135879
1782818891885485568,2.067166805267334,-0.8573302626609802,-0.3054888844490051,-0.0015541876200586557,0.08917639404535294,-0.2055421769618988,-0.9745768308639526,0.25851038098335266,0.2011781632900238,-0.17741596698760986,0.24515911528255352,0.06900663218022379,-0.08916092883005461,-0.962904727602369,0.20701767345634944,0.09124858363969868,-2.6524644183230732
1782818891895405568,2.0770866870880127,-0.7143393158912659,-0.30295702815055847,-0.11839904636144638,0.08627346158027649,-0.19780921936035156,-0.9764366149902344,0.3432309329509735,0.13353919982910156,-0.16687393188476562,0.2449164692744995,0.06656769082748716,-0.08573476117627529,-0.9634491678600302,0.19912246963939587,0.08812656807112315,-2.652531073894736
1782818891905325568,2.0870068073272705,-0.7042814493179321,-0.28919684886932373,-0.024409769102931023,0.08433982729911804,-0.19113528728485107,-0.9779335856437683,0.18346717953681946,0.015170931816101074,-0.2555106282234192,0.244626692340425,0.0647407393567679,-0.08271543739189255,-0.9639110892417779,0.19231862063207938,0.08603002589221205,-2.65281924485342
1782818891915244544,2.096925735473633,-0.36196431517601013,-0.3903737962245941,-0.07086728513240814,0.08188503235578537,-0.18590837717056274,-0.9791491031646729,0.18312960863113403,0.08132463693618774,-0.19077277183532715,0.24447772277179,0.06285996638675015,-0.08046169574550281,-0.9642640960289659,0.18699626963934998,0.08343462368143079,-2.65280919315564
1782818891925164544,2.1068456172943115,-0.32027068734169006,-0.3128221929073334,-0.007048488594591618,0.0792432352900505,-0.18295323848724365,-0.9799227714538574,0.1648211032152176,0.03753697872161865,-0.21465730667114258,0.2440685983561321,0.061158264560246756,-0.0793617321062965,-0.9645682945003129,0.18398956335937222,0.08069122836366044,-2.65337654469899
1782818891935084544,2.1167657375335693,-0.3382158577442169,-0.3387528657913208,0.006226836703717709,0.07710296660661697,-0.1793183833360672,-0.9807650446891785,0.18336457014083862,-0.0506163090467453,-0.06627780199050903,0.24398435869160748,0.05964383697567985,-0.07784661789250627,-0.9648078380532549,0.18029355795090338,0.07845376976784953,-2.653305715408456
1782818891945003520,2.1266846656799316,0.2656601071357727,-0.29820820689201355,-0.051280032843351364,0.07553260028362274,-0.17938406765460968,-0.9808751940727234,0.13273461163043976,0.055269092321395874,-0.10657286643981934,0.24380480095289192,0.05887029657480246,-0.07808123953616726,-0.9648818389219213,0.18036032152376258,0.07685363787382767,-2.6535497958739804
1782818891954923520,2.1366047859191895,0.5621908903121948,-0.18746834993362427,0.06788124144077301,0.07363147288560867,-0.18354925513267517,-0.9802489876747131,0.15482312440872192,0.16096624732017517,-0.10799258947372437,0.24366728016447625,0.058457908845423595,-0.0803627893887784,-0.9647542743464671,0.18459583331338963,0.07497427178648204,-2.6537449290036625
1782818891964843520,2.146524667739868,0.2837773859500885,-0.17268195748329163,0.015725666657090187,0.07285457104444504,-0.18785887956619263,-0.9794902801513672,0.08664554357528687,-0.12126891314983368,-0.005983293056488037,0.2436166405663617,0.05862059802462209,-0.08257404825231875,-0.9645704595721398,0.18898176041657744,0.0742433695836718,-2.6538497237993823
1782818891974763520,2.156444787979126,0.1502092182636261,-0.3434896469116211,0.0679936632514,0.07140856981277466,-0.19021937251091003,-0.9791411757469177,0.17242687940597534,-0.33538487553596497,0.08744806051254272,0.2437338531909223,0.05822370404810149,-0.0839012698041523,-0.9644502377436608,0.19138559630573324,0.07280091480805431,-2.6535134002853886
1782818891984682496,2.1663637161254883,0.18060220777988434,-0.3338252007961273,-0.03224748373031616,0.0688781887292862,-0.19219987094402313,-0.9789356589317322,0.2303313910961151,-0.14260847866535187,0.11524242162704468,0.24335944059697287,0.057205546655442786,-0.08520388689115284,-0.9644915282911999,0.1934033244755847,0.07024451948939335,-2.654089474502868
1782818891994602496,2.176283597946167,0.1355833262205124,-0.2951028347015381,0.13995543122291565,0.06639121472835541,-0.19403603672981262,-0.9787452220916748,0.1283414363861084,-0.09301228821277618,0.08085709810256958,0.24356553882782214,0.0562414672564427,-0.08639608961644184,-0.9643901562841148,0.1952747222688337,0.06772923539333525,-2.6534575289784654
1782818892004522496,2.186203718185425,0.23450632393360138,-0.2722218632698059,0.014883741736412048,0.06400854885578156,-0.19585666060447693,-0.9785413146018982,0.14773765206336975,-0.04283657670021057,0.1074780821800232,0.2436314985446499,0.055314299960198945,-0.0875767089295986,-0.9643206254442672,0.19713095822859708,0.06531915671341426,-2.6531196045148855
1782818892014441472,2.196122646331787,-0.08927281945943832,-0.3003278076648712,0.3186476230621338,0.06146221235394478,-0.19735126197338104,-0.9784042239189148,0.19065876305103302,-0.13844890892505646,0.1138564944267273,0.24420421099723966,0.05431256196299487,-0.0885890588158063,-0.9641402391689156,0.19865530953284902,0.06273639348374943,-2.6517068428601793
1782818892024361728,2.206042766571045,-0.11664265394210815,-0.2723376750946045,0.18370072543621063,0.059956662356853485,-0.1956789642572403,-0.9788334369659424,0.2009076029062271,-0.017364248633384705,0.19598126411437988,0.24494818756498968,0.05343207995922263,-0.08791064558820218,-0.9640628762309443,0.1969497487984641,0.06117674617315946,-2.650010341975436
1782818892034281472,2.2159626483917236,-0.16669996082782745,-0.17324331402778625,0.1795765608549118,0.057912569493055344,-0.19505326449871063,-0.979081392288208,0.26116397976875305,-0.11347945034503937,0.08410763740539551,0.24585217875937906,0.05243645911278002,-0.08780503983018942,-0.9638969727781157,0.19631175249240362,0.05908106334868269,-2.6479403324335866
1782818892044200448,2.225881576538086,-0.224990576505661,-0.22365447878837585,0.42473843693733215,0.05565522611141205,-0.19314686954021454,-0.979590117931366,0.24912382662296295,-0.07496531307697296,0.12915676832199097,0.24737559687549115,0.05122847017563243,-0.08706657747531453,-0.9636391633432423,0.19436840802447705,0.056753798041471376,-2.6445597373196077
1782818892054120448,2.2358016967773438,-0.013678321614861488,-0.17118088901042938,0.2086183875799179,0.05358174070715904,-0.19239668548107147,-0.9798533320426941,0.16634318232536316,-0.10434098541736603,0.07526654005050659,0.24884902553876648,0.05025347568419397,-0.0868788329971242,-0.9633280509624202,0.1936038844175829,0.05462902101745911,-2.641307072934198
1782818892064040448,2.2457215785980225,-0.06518212705850601,-0.13074660301208496,0.3067202568054199,0.05203811079263687,-0.19214403629302979,-0.9799860715866089,0.11702927201986313,-0.09890210628509521,0.08601939678192139,0.24994335778506369,0.04956698557227335,-0.08689118095591411,-0.9630791106278144,0.1933464303788301,0.053051041285647776,-2.6388918523943357
1782818892073959680,2.255640745162964,0.0020650881342589855,-0.09792900085449219,0.23785889148712158,0.05072333291172981,-0.19171284139156342,-0.980139434337616,0.1271025836467743,-0.07121135294437408,0.14656704664230347,0.2511547462368384,0.04897948538524012,-0.08678299716353927,-0.9628036711934959,0.1929070587906712,0.05170501436208509,-2.6362538083283895
1782818892083879424,2.2655606269836426,-0.04472704976797104,-0.08833644539117813,0.2647579312324524,0.049791622906923294,-0.19177478551864624,-0.9801750779151917,0.132306769490242,-0.11646799743175507,0.049236416816711426,0.252162188918212,0.048624615662260895,-0.08687977920979759,-0.9625496465501512,0.19297017348808299,0.05075507379412015,-2.6340752693001956
1782818892093799680,2.2754807472229004,-0.2151174247264862,-0.15769581496715546,0.403718501329422,0.048065271228551865,-0.19062863290309906,-0.9804847836494446,0.23562613129615784,-0.15197694301605225,0.045395731925964355,0.2538923950490097,0.04778949695209349,-0.08645092114930798,-0.9621751446590824,0.19180248467311353,0.04898272971089617,-2.630320063235115
1782818892103719424,2.285400629043579,-0.3111424744129181,-0.12865713238716125,0.2410183995962143,0.04658665135502815,-0.18842215836048126,-0.9809825420379639,0.16470180451869965,-0.26604562997817993,0.008249998092651367,0.25554053044240316,0.0469260635606766,-0.08547904400618811,-0.9618681344487544,0.18955528014412226,0.04745413160346147,-2.6267592819819243
1782818892113638656,2.2953197956085205,-0.4148012399673462,-0.2036626636981964,0.20593391358852386,0.044648125767707825,-0.18461711704730988,-0.9817958474159241,0.13310150802135468,-0.19407550990581512,0.010222971439361572,0.25652414171522614,0.045565791446522445,-0.08382028076557618,-0.9618177668469655,0.18568227308378188,0.045444666167767184,-2.624543460640027
1782818892123558400,2.305239677429199,-0.30755606293678284,-0.24181334674358368,0.17987018823623657,0.042185716331005096,-0.18141132593154907,-0.9825020432472229,0.2125139832496643,-0.10701030492782593,-0.0535849928855896,0.25742137455180764,0.04402101534693394,-0.08252951678928389,-0.9617615518132784,0.18242140758602435,0.04291066943311357,-2.6224661891586747
1782818892133478656,2.315159797668457,-0.16175121068954468,-0.29557913541793823,0.15965041518211365,0.03930244594812393,-0.1791975349187851,-0.9830277562141418,0.17758598923683167,0.044416651129722595,-0.07808369398117065,0.2580173055014064,0.042376987263984346,-0.0817943484041486,-0.9617385143211177,0.18017072991557906,0.039959731953625094,-2.6209826111255237
1782818892143397632,2.3250787258148193,-0.12836135923862457,-0.21389760076999664,0.08693023771047592,0.03744658827781677,-0.17810222506523132,-0.983299195766449,0.13078156113624573,0.04214642941951752,-0.07567596435546875,0.258521883078648,0.0413728404045632,-0.08147809426914483,-0.9616735095311845,0.17905749754548322,0.03806420356998921,-2.6197772848677787
1782818892153317376,2.334998607635498,-0.009490367956459522,-0.18994247913360596,0.08850230276584625,0.035422101616859436,-0.17753459513187408,-0.9834768772125244,0.16625331342220306,0.026991382241249084,-0.051694631576538086,0.25895265572482046,0.04035090487414867,-0.08144551875452756,-0.961603813140964,0.17848067672768392,0.03600165641486049,-2.618709821484523
1782818892163237632,2.344918727874756,-0.18272879719734192,-0.16815009713172913,0.1800253838300705,0.033608585596084595,-0.17710016667842865,-0.9836187958717346,0.1978672444820404,-0.06366826593875885,-0.046135783195495605,0.25943874214039,0.039453964650232154,-0.08144919841090541,-0.9615096942306396,0.17803925268573276,0.03415501315486443,-2.6175451900298405
1782818892173156608,2.354837656021118,-0.3072616755962372,-0.1855171024799347,0.1545482575893402,0.031965289264917374,-0.17517712712287903,-0.9840179085731506,0.18423648178577423,-0.13414902985095978,0.010644495487213135,0.2601970764836209,0.038463508425944364,-0.08069459994953135,-0.9614084954770199,0.17608568006810213,0.03247304100555964,-2.6158398928488342
1782818892183076608,2.364757776260376,-0.3018432557582855,-0.22921797633171082,0.18733081221580505,0.029949283227324486,-0.172444686293602,-0.9845637679100037,0.18230046331882477,-0.13991796970367432,0.0003871917724609375,0.261054622426833,0.03719118190026359,-0.07959219651290252,-0.9613179888492069,0.17331099343937723,0.03040945703794595,-2.613905757726903
1782818892192996608,2.3746776580810547,-0.4264533519744873,-0.3034096360206604,0.12851810455322266,0.027527054771780968,-0.16896237432956696,-0.9852380156517029,0.1788480579853058,-0.07876405119895935,-0.06507015228271484,0.2617277180898118,0.03560489194501959,-0.07818744658110477,-0.9613102946691537,0.16977680662846553,0.027932229798050198,-2.6123327567791086
1782818892202915328,2.384596586227417,-0.20335790514945984,-0.334124892950058,0.21123310923576355,0.024978382512927055,-0.16629613935947418,-0.985759437084198,0.1619570404291153,-0.07192407548427582,-0.095844566822052,0.26224651898313994,0.034053676929196385,-0.07720509017080976,-0.9613046431564908,0.16707230829457478,0.02533380679281691,-2.611069520021007
1782818892212835584,2.394516706466675,-0.25930824875831604,-0.429092139005661,0.2540213167667389,0.021976236253976822,-0.16459020972251892,-0.9861171841621399,0.18633675575256348,-0.03839746117591858,-0.1368686556816101,0.2631723789374804,0.032444172870500894,-0.07673839061286435,-0.9611446355340422,0.1653425361241079,0.022281934577961106,-2.6089173458015216
1782818892222755328,2.4044365882873535,-0.15600250661373138,-0.4134686589241028,0.2962990999221802,0.017914338037371635,-0.1631670445203781,-0.9864358305931091,0.16818185150623322,0.005894705653190613,-0.14604097604751587,0.26433622692244696,0.03037852550341369,-0.07654569759669917,-0.960908067569279,0.163899872990964,0.018158677525025493,-2.6061843506427005
1782818892232675584,2.4143567085266113,-0.0900232270359993,-0.3441854417324066,0.16246937215328217,0.014501799829304218,-0.16236886382102966,-0.9866235852241516,0.15342116355895996,-0.11619558930397034,-0.1842290759086609,0.26537931517942115,0.028702356204682252,-0.07657933907562575,-0.960669305789352,0.16309090278934096,0.014697354182940449,-2.6037486838726354
1782818892242594560,2.4242756366729736,-0.11193738132715225,-0.39952710270881653,0.2798469662666321,0.010626611299812794,-0.16127346456050873,-0.9868525266647339,0.15564841032028198,-0.12159395217895508,-0.19199568033218384,0.26625954489090564,0.026749493611868902,-0.07653882531793338,-0.960485408385426,0.1619808741561677,0.010767769049416748,-2.6016208284058364
1782818892252514560,2.4341957569122314,-0.13552366197109222,-0.5339192152023315,0.09227094054222107,0.005929721053689718,-0.16005904972553253,-0.9870896339416504,0.23435042798519135,-0.04103653132915497,-0.2083296775817871,0.26697686971583384,0.024370644433856534,-0.07655883875549266,-0.9603480010525051,0.16075047619148305,0.006007204993304851,-2.5997700616305526
1782818892262434560,2.44411563873291,0.06539659202098846,-0.5920668244361877,0.2288884073495865,0.00011593555973377079,-0.1598023623228073,-0.9871490001678467,0.18804019689559937,-0.03575427830219269,-0.19838261604309082,0.2676067939144667,0.021576400165938148,-0.07720070526690129,-0.9601880222467716,0.16049044443157834,0.00011744483695502587,-2.5979918210043986
1782818892272353536,2.4540348052978516,-0.21353064477443695,-0.5034890174865723,0.1686740666627884,-0.00526000838726759,-0.15927845239639282,-0.9872196912765503,0.16468383371829987,-0.06650584936141968,-0.2006465196609497,0.2681738151551988,0.01895333974660928,-0.0776590530175736,-0.9600482337156157,0.15995973139813438,-0.00532805278460275,-2.5963841323060657
1782818892282273536,2.4639546871185303,-0.3230249285697937,-0.49214911460876465,0.2632635533809662,-0.01064955536276102,-0.15679234266281128,-0.9875741600990295,0.17152297496795654,-0.11659936606884003,-0.11029565334320068,0.2692114473840056,0.01609415076002727,-0.07716146665966356,-0.9598501092535731,0.15744198269472767,-0.010783132083682043,-2.593848622142858
1782818892292193536,2.473874807357788,-0.42824774980545044,-0.5313716530799866,0.08901984989643097,-0.01552655827254057,-0.15314562618732452,-0.9880816340446472,0.17189863324165344,-0.19539561867713928,-0.1312878131866455,0.2698246629413736,0.013289151625654095,-0.07604324117349434,-0.9598101571850063,0.1537506756235285,-0.01571254832522391,-2.5922829484880174
1782818892302112512,2.4837937355041504,-0.447798490524292,-0.4946405589580536,0.24564237892627716,-0.02082262746989727,-0.14907486736774445,-0.9886066317558289,0.15700732171535492,-0.09009139239788055,-0.13877373933792114,0.27047239318836047,0.010226164105071546,-0.07478036093043668,-0.9597645050445602,0.1496326146094745,-0.02105948751202452,-2.5906391147498558
1782818892312032512,2.493713617324829,-0.41202422976493835,-0.5231674909591675,0.1320985108613968,-0.02570473961532116,-0.14461320638656616,-0.9891543388366699,0.1835721731185913,0.06328386068344116,-0.13239717483520508,0.2712312198628703,0.007317155316956715,-0.07327546512326527,-0.9596931226952268,0.14512205401968156,-0.025980734951609217,-2.5888256463678414
1782818892321952512,2.503633737564087,-0.3416523337364197,-0.45913460850715637,0.22837698459625244,-0.03063610941171646,-0.14091765880584717,-0.9895471930503845,0.18459728360176086,0.04686248302459717,-0.14888054132461548,0.2720486023002614,0.004493053905014505,-0.07215412005854041,-0.9595640577954581,0.14138826155213277,-0.030949839053003983,-2.586874761360224
1782818892331872512,2.5135536193847656,-0.4444679319858551,-0.513139009475708,0.2001410722732544,-0.036148298531770706,-0.1368681937456131,-0.9899294972419739,0.2321932166814804,-0.019030854105949402,-0.10804718732833862,0.27278248700910557,0.0013329976605917092,-0.07094700461468599,-0.9594552782844682,0.1372991589627879,-0.03649981503142308,-2.585081436596621
1782818892341791744,2.523472785949707,-0.45683059096336365,-0.6203575730323792,0.24640844762325287,-0.041995830833911896,-0.1325736790895462,-0.9902830719947815,0.246967151761055,-0.0887397974729538,-0.0767640471458435,0.27363978378537673,-0.0020144410317569366,-0.06967355102024493,-0.9593033383025208,0.13296512938972094,-0.04238251009370395,-2.58303258094469
1782818892351711488,2.5333926677703857,-0.37970224022865295,-0.575905442237854,0.10601804405450821,-0.047790054231882095,-0.12870420515537262,-0.9905308485031128,0.1855463981628418,-0.06541810929775238,-0.09014236927032471,0.2742019461565713,-0.005299908025370087,-0.06860387871763335,-0.9592073653028313,0.12906220233048019,-0.048209529981429036,-2.581602357655257
1782818892361631744,2.5433127880096436,-0.4394792318344116,-0.6359117031097412,0.27454784512519836,-0.05418308824300766,-0.12446694076061249,-0.9907432198524475,0.19840916991233826,-0.029967263340950012,-0.08106464147567749,0.27484779261607734,-0.008919451392239739,-0.06744494843773317,-0.95907792602236,0.12479057482608984,-0.05463490784445418,-2.5799879655973514
1782818892371550464,2.553231716156006,-0.23041868209838867,-0.6795529127120972,0.14048510789871216,-0.06106752157211304,-0.12145723402500153,-0.9907163381576538,0.25250428915023804,-0.011050082743167877,-0.15056473016738892,0.2755770674172567,-0.01260072531784581,-0.06695553466437218,-0.9588615458029874,0.12175785300493533,-0.061561874836373334,-2.578123609272841
1782818892381470464,2.5631515979766846,-0.260428249835968,-0.7311756014823914,0.21000906825065613,-0.068293496966362,-0.1187828928232193,-0.9905688166618347,0.2098798155784607,-0.0815039649605751,-0.133652925491333,0.2760622806175811,-0.01641760586435166,-0.06667865667118245,-0.9586834894882386,0.11906400500310947,-0.06883479401768927,-2.5767394308356426
1782818892391390464,2.5730717182159424,-0.1603943258523941,-0.7777971625328064,0.22484126687049866,-0.07570485025644302,-0.11669091880321503,-0.9902787804603577,0.22682788968086243,-0.10385961830615997,-0.12680190801620483,0.2769144247754549,-0.02021789916128375,-0.06672226446060925,-0.958362062561945,0.11695737972138413,-0.07629961189040571,-2.5745545936476506
1782818892401309440,2.5829906463623047,-0.26776832342147827,-0.8596705794334412,0.23294760286808014,-0.08390578627586365,-0.11405817419290543,-0.9899244904518127,0.19254836440086365,-0.07374699413776398,-0.14066016674041748,0.27765015047146896,-0.024482450901323755,-0.06662094486985838,-0.9580567266761696,0.114306937670349,-0.08455767269700844,-2.572595683404832
1782818892411229696,2.5929107666015625,-0.30152201652526855,-0.9339176416397095,0.23659133911132812,-0.09279927611351013,-0.11105568706989288,-0.9894720315933228,0.19491109251976013,-0.09913413226604462,-0.17101991176605225,0.2784307899371894,-0.029130169978800302,-0.06644855870508055,-0.9577119738842035,0.11128524624801929,-0.09351311797340378,-2.5705280693991925
1782818892421149440,2.602830648422241,-0.40810877084732056,-0.8271093964576721,0.26554688811302185,-0.10175617039203644,-0.10732994228601456,-0.989002525806427,0.16991718113422394,-0.18173256516456604,-0.1718098521232605,0.27922222545265335,-0.03391060728399874,-0.06594555706928729,-0.9573589013344859,0.10753708569248656,-0.1025269168774354,-2.568495843936971
1782818892431068416,2.6127495765686035,-0.5305792689323425,-0.7906139492988586,0.3220357298851013,-0.1099359318614006,-0.10257475823163986,-0.9886316061019897,0.1429559588432312,-0.19222503900527954,-0.15040642023086548,0.28026276123752725,-0.0384466312709039,-0.06485398491442101,-0.9569579623392546,0.1027554882155497,-0.11074512098955236,-2.5660893977572354
1782818892440988416,2.6226696968078613,-0.5057187676429749,-0.7517459392547607,0.27246373891830444,-0.1177368089556694,-0.09707469493150711,-0.9882887005805969,0.1476287841796875,-0.11459522694349289,-0.12085741758346558,0.28137333497541,-0.0429042433088241,-0.06336306183225232,-0.9565424211665655,0.09722780712135078,-0.11857316070739883,-2.563642338764263
1782818892450908416,2.63258957862854,-0.4227730333805084,-0.7584884762763977,0.30280593037605286,-0.12547314167022705,-0.09217345714569092,-0.9878059029579163,0.15667736530303955,-0.09895813465118408,-0.13481372594833374,0.28240862167101427,-0.047255964398460866,-0.0621603765982986,-0.9561110113731388,0.09230447584772007,-0.12634545310814055,-2.5613381376446185
1782818892460828416,2.642509698867798,-0.3941284418106079,-0.7124863266944885,0.19245420396327972,-0.13274747133255005,-0.08792649954557419,-0.9872421622276306,0.14687711000442505,-0.10236585885286331,-0.12684780359268188,0.2832387854157115,-0.05130977523572256,-0.06120651559793142,-0.9557179949708476,0.08804019018146438,-0.13366123204254354,-2.5594640709281333
1782818892470747392,2.65242862701416,-0.39801105856895447,-0.7731653451919556,0.26654013991355896,-0.140156552195549,-0.08385748416185379,-0.9865718483924866,0.1285141110420227,-0.1291857212781906,-0.09840428829193115,0.2839468318471282,-0.05541457648890662,-0.06035965199018806,-0.9553324803906266,0.08395607961398785,-0.14111989388875432,-2.557841025665157
1782818892480667648,2.662348747253418,-0.4296974539756775,-0.6957635879516602,0.1829630583524704,-0.14731009304523468,-0.07921332120895386,-0.9859132766723633,0.15683159232139587,-0.12475091964006424,-0.05417156219482422,0.2847203139322397,-0.05947750264078131,-0.05920969972999022,-0.9549299002810393,0.07929639428664517,-0.14831764021536278,-2.5561656405118565
1782818892490587392,2.6722686290740967,-0.462653785943985,-0.6171209812164307,0.22751562297344208,-0.15387168526649475,-0.07449261099100113,-0.985278844833374,0.12298789620399475,-0.17408831417560577,-0.04984688758850098,0.28542589934675183,-0.06327401702098015,-0.057939527733813924,-0.9545529811941221,0.07456167913913143,-0.15491933464709515,-2.554696623830535
1782818892500506624,2.682187795639038,-0.4333322048187256,-0.6820411682128906,0.16201339662075043,-0.16022054851055145,-0.06970607489347458,-0.9846168756484985,0.15178245306015015,-0.15377414226531982,-0.05693274736404419,0.2860003883361106,-0.06698910776570466,-0.05660398132148609,-0.95420757936128,0.06976264768204248,-0.16130988659630408,-2.5535414091907658
1782818892510426624,2.692107677459717,-0.47811245918273926,-0.5765568614006042,0.1498217135667801,-0.1663668304681778,-0.06505301594734192,-0.9839157462120056,0.1537630707025528,-0.13016793131828308,-0.052186548709869385,0.28633457382258776,-0.07060498213898067,-0.05529075101967311,-0.9539236835936792,0.06509898934665993,-0.16750215034503593,-2.5529093853705707
1782818892520346624,2.7020277976989746,-0.44339045882225037,-0.5243449211120605,0.19135168194770813,-0.17198631167411804,-0.06023046001791954,-0.9832563400268555,0.16792747378349304,-0.11249902844429016,-0.009358406066894531,0.28684994312317125,-0.07398355825113355,-0.053835600074239716,-0.9535959215813432,0.06026693437839361,-0.1731632273560119,-2.5519628448962757
1782818892530265600,2.711946725845337,-0.4255025386810303,-0.4852428138256073,0.12890028953552246,-0.17690210044384003,-0.055826883763074875,-0.9826439023017883,0.14537744224071503,-0.09952284395694733,-0.01981276273727417,0.2872889278594652,-0.07696939408742343,-0.052476375035762635,-0.9533031918040733,0.0558559216899887,-0.17811876596010795,-2.5511927477053282
1782818892540185344,2.7218666076660156,-0.29960769414901733,-0.4922068119049072,0.2052231878042221,-0.1816452443599701,-0.052002839744091034,-0.9819881319999695,0.1932724416255951,-0.08482272177934647,0.017373263835906982,0.28784484776026126,-0.07978480616636821,-0.05138399044210337,-0.9529634491272493,0.05202630582813327,-0.18290954863421038,-2.5501429420937978
1782818892550105600,2.7317867279052734,-0.28989967703819275,-0.3966645896434784,0.14920306205749512,-0.18626222014427185,-0.04890686273574829,-0.9812820553779602,0.17272768914699554,-0.05193847045302391,0.03560340404510498,0.28843034526000044,-0.08243520380621899,-0.05063005154225993,-0.9526011513342894,0.048926379773840345,-0.1875835539430706,-2.5489753409307903
1782818892560025344,2.741706609725952,-0.3489532470703125,-0.31230008602142334,0.16825032234191895,-0.18991412222385406,-0.045426078140735626,-0.980749249458313,0.13334980607032776,-0.048583321273326874,0.06474894285202026,0.28899370479112596,-0.0846778419093295,-0.04954832489670316,-0.9522905472408055,0.045441713892363435,-0.19127457071614057,-2.5479542125098265
1782818892569944576,2.7516257762908936,-0.32615846395492554,-0.1996166706085205,0.07142258435487747,-0.19233940541744232,-0.04233727604150772,-0.9804147481918335,0.12942743301391602,-0.11820043623447418,0.09087318181991577,0.2893314639817611,-0.08628337466720173,-0.04845407857354065,-0.9521001027599542,0.042349934244018,-0.19372140067364385,-2.5474378384318896
1782818892579864576,2.7615456581115723,-0.5716670751571655,-0.03186674416065216,0.0020531972404569387,-0.19353511929512024,-0.037804409861564636,-0.9803647398948669,0.15168026089668274,-0.12528151273727417,0.21316808462142944,0.2893423013396636,-0.08752086130231243,-0.04645147852318613,-0.9520836408866405,0.037813421384655196,-0.194905232343351,-2.547825714821404
1782818892589784576,2.77146577835083,-0.9022849202156067,0.059580348432064056,-0.00245846388861537,-0.19337405264377594,-0.03075065277516842,-0.980643093585968,0.11772097647190094,-0.14368782937526703,0.3535526394844055,0.28900009545927097,-0.08848417349872606,-0.04300005038725652,-0.9522607776184933,0.030755502043504458,-0.1946932047675033,-2.5492808837472882
1782818892599703552,2.7813847064971924,-1.1632519960403442,0.3266286253929138,-0.11016854643821716,-0.19131533801555634,-0.020697087049484253,-0.9813103675842285,0.09439152479171753,-0.14965203404426575,0.4607873558998108,0.28825575409294313,-0.08897782188428117,-0.03778562834504329,-0.9526614861277928,0.020698565368819092,-0.19254382413374557,-2.5519506735620796
1782818892609623552,2.791304588317871,-1.3368427753448486,0.5913546085357666,-0.09897688031196594,-0.18677668273448944,-0.008754866197705269,-0.9823634028434753,0.02594904601573944,-0.12276063859462738,0.48451489210128784,0.2872720933760737,-0.08854430115934996,-0.031276386622374516,-0.9532347952596985,0.008754978339651458,-0.18788734780880048,-2.555349645604311
1782818892619543552,2.801224708557129,-1.3695276975631714,0.7766922116279602,-0.19759543240070343,-0.18001984059810638,0.004219924099743366,-0.9836539030075073,0.05176973342895508,-0.05611506849527359,0.4996756911277771,0.28608004653351954,-0.08717942555270335,-0.023932885148872676,-0.9539314621186153,-0.004219936516868659,-0.18100824553825623,-2.5592532510819024
1782818892629462528,2.811143636703491,-1.0416052341461182,0.8106725215911865,-0.24279753863811493,-0.1720382273197174,0.015767676755785942,-0.9849640727043152,0.11269679665565491,0.01856459490954876,0.4737946391105652,0.2846037756678814,-0.08500667199775377,-0.017082964429866,-0.9547160975879986,-0.01576833077578644,-0.17292008852799118,-2.5635283502565587
1782818892639382528,2.821063756942749,-0.611760675907135,0.8197010159492493,-0.21736837923526764,-0.16372010111808777,0.02342071756720543,-0.9862287640571594,0.14244934916496277,0.09776458144187927,0.4227674603462219,0.28321590606124364,-0.08209581125608988,-0.01207845819785979,-0.9554597265487681,-0.023422860093739027,-0.16450600633833293,-2.5671882738229503
1782818892649302528,2.8309836387634277,-0.17836080491542816,1.0006030797958374,-0.18804989755153656,-0.154825359582901,0.026858976110816002,-0.9875766634941101,0.050928279757499695,0.26530104875564575,0.4713261127471924,0.28212775800480167,-0.07829205447376368,-0.009056129969737802,-0.9561339954460489,-0.026862206547680845,-0.15550723880487655,-2.5698276140566523
1782818892659222528,2.8409037590026855,0.2836180031299591,1.2116385698318481,-0.13140113651752472,-0.14340722560882568,0.025793133303523064,-0.989327609539032,-0.08053076267242432,0.3214969038963318,0.544167697429657,0.2813478014907184,-0.07262350641543346,-0.00787597028855806,-0.956821388008583,-0.025795994910280517,-0.1439515970114965,-2.571484909984294
1782818892669141504,2.850822687149048,0.8401901721954346,1.631260871887207,-0.18646784126758575,-0.12808912992477417,0.019605258479714394,-0.9915688633918762,-0.17975693941116333,0.29291000962257385,0.6265481114387512,0.28092576982090345,-0.06434971744004257,-0.00864187841089153,-0.9575308298736629,-0.019606513956445516,-0.1284668249287273,-2.572098785668221
1782818892679061760,2.8607428073883057,1.0445278882980347,1.9345721006393433,-0.0895538181066513,-0.11037753522396088,0.009951886720955372,-0.9938399195671082,-0.14455105364322662,0.2029692530632019,0.6970106959342957,0.280568361143629,-0.05444722725569512,-0.01074924046582864,-0.9582282456008269,-0.009952051253558272,-0.11060839857202903,-2.5724687517591827
1782818892688981504,2.8706626892089844,1.2820956707000732,2.14315128326416,-0.3186857998371124,-0.08987736701965332,-0.0019853375852108,-0.9959508776664734,-0.05402827262878418,0.1245744526386261,0.7504369616508484,0.2801697795818484,-0.04290023449047567,-0.013569800227979927,-0.9588953313651974,0.0019853389941498142,-0.08999898887643555,-2.5729694496949107
1782818892698900992,2.880582094192505,1.1653105020523071,2.1429030895233154,-0.2825605273246765,-0.06871728599071503,-0.014282864518463612,-0.997533917427063,0.021857544779777527,0.03585879132151604,0.7845975160598755,0.2790210623421648,-0.031017657968386694,-0.016460305481087036,-0.9596427212482249,0.014283350596026662,-0.06877850659723343,-2.5751935292355848
1782818892708820736,2.8905019760131836,1.1905170679092407,2.379009962081909,-0.2651197612285614,-0.04610908031463623,-0.026352733373641968,-0.9985887408256531,0.17608344554901123,-0.03999248147010803,0.7784349918365479,0.2781321807477767,-0.018484674218932556,-0.019077294604213996,-0.9601754145321935,0.02635578414313838,-0.046141468574178904,-2.577081972804186
1782818892718740992,2.9004220962524414,1.0222468376159668,2.2894721031188965,-0.1893143355846405,-0.022534456104040146,-0.03753015026450157,-0.9990413784980774,0.19726285338401794,-0.13526037335395813,0.7360562086105347,0.27727485425794146,-0.005622248240886957,-0.021158887860674942,-0.9605411638780187,0.03753896528819528,-0.022552255292935343,-2.579117728707847
1782818892728659968,2.9103410243988037,0.7877891063690186,2.0481069087982178,-0.10402340441942215,-0.0008895111968740821,-0.0462886206805706,-0.9989277124404907,0.30424949526786804,-0.0705174058675766,0.7752643823623657,0.27685672061861827,0.0059836198260068245,-0.022368296893177562,-0.9606321766253777,0.0463051680959277,-0.0008904657736170583,-2.580374637021087
1782818892738579712,2.9202609062194824,0.7270686626434326,1.8775660991668701,-0.044486772269010544,0.01835917867720127,-0.053799018263816833,-0.9983829855918884,0.23444843292236328,-0.07663311064243317,0.7301639914512634,0.2766474776548973,0.016272297943264638,-0.02331768401866795,-0.9605507193058302,0.053825002591882144,0.01838684067013784,-2.581247398458295
1782818892748499968,2.9301810264587402,0.5528579354286194,1.852774739265442,-0.07714138925075531,0.03699643909931183,-0.06010636314749718,-0.9975061416625977,0.19522707164287567,-0.15254011750221252,0.6902399063110352,0.27650589052131247,0.026107445157187888,-0.023776752347534156,-0.9603632576824066,0.06014261418739155,0.0370719404481523,-2.5820361565628005
1782818892758418688,2.9400999546051025,0.2541463375091553,1.8241740465164185,-0.03017507866024971,0.05493703857064247,-0.06441735476255417,-0.9964097142219543,0.15291818976402283,-0.18311071395874023,0.6887620091438293,0.2764272121406859,0.03533933080815014,-0.023372474766353,-0.9601004330573596,0.06446198606380038,0.055079221688567694,-2.5827029744713323
1782818892768338944,2.9500200748443604,0.008444957435131073,1.865067958831787,-0.06159611791372299,0.07347066700458527,-0.06534970551729202,-0.9951540231704712,0.11570779979228973,-0.16144168376922607,0.6549440622329712,0.276284610295552,0.04439422944932147,-0.02126391035570085,-0.9598145057768763,0.06539630716400276,0.07369474086379832,-2.5834543226837994
1782818892778258688,2.959939956665039,-0.056571461260318756,1.7169359922409058,-0.15597954392433167,0.09150863438844681,-0.06497017294168472,-0.9936825633049011,0.11593460291624069,-0.14732535183429718,0.5484310984611511,0.2761023298383896,0.05303725316698323,-0.01859477104349885,-0.9594836350838989,0.06501597026280825,0.09183139660007757,-2.584198636780214
1782818892788178944,2.969860076904297,0.017411421984434128,1.7046552896499634,-0.061101771891117096,0.10828607529401779,-0.0647120475769043,-0.992011308670044,0.1614587903022766,-0.0539402961730957,0.44467854499816895,0.2756473965103945,0.061095752012623565,-0.016175439315752566,-0.9591789082269081,0.06475730096079892,0.10872762218068377,-2.585442617287727
1782818892798097920,2.979779005050659,0.23486465215682983,1.8293482065200806,-0.028278043493628502,0.12563061714172363,-0.06548574566841125,-0.9899134039878845,0.16427111625671387,0.020808011293411255,0.3938745856285095,0.27545690826426206,0.06959040980127251,-0.01415865268670782,-0.9586867809425744,0.06553263980055621,0.12623586468498094,-2.586155345785563
1782818892808017664,2.989698886871338,0.3743245601654053,2.014822483062744,0.020137958228588104,0.1448100060224533,-0.06895048916339874,-0.987054169178009,0.10682268440723419,0.09948333352804184,0.29586154222488403,0.27551345233270746,0.07937067510974027,-0.013161324242919535,-0.9579246063456522,0.06900524105591097,0.1456700941630526,-2.5865176051583374
1782818892817937920,2.9996190071105957,0.6636360883712769,1.950522780418396,0.11844179034233093,0.16426996886730194,-0.07396166026592255,-0.9836387038230896,0.14905400574207306,0.08238451182842255,0.3260917067527771,0.2757122153878041,0.0895296414685676,-0.012849246845654238,-0.9569755411012202,0.0740292604442953,0.1654752648850114,-2.586712050817547
1782818892827856896,3.009537935256958,0.33992668986320496,1.8441247940063477,0.02582024596631527,0.18249545991420746,-0.07908803224563599,-0.9800206422805786,0.20930446684360504,-0.167310893535614,0.1793462038040161,0.27599522890229167,0.09913236307007289,-0.012745415822704314,-0.9559481991724363,0.07917071419692084,0.1841072037130628,-2.5867642621421565
1782818892837776896,3.019458055496216,0.13103505969047546,1.940587043762207,0.010484864935278893,0.20099303126335144,-0.08173829317092896,-0.9761765599250793,0.20238831639289856,-0.21725767850875854,0.13758403062820435,0.27611456533133943,0.10854240791232389,-0.011413672836687344,-0.9549078157300424,0.08182958270053327,0.2030604499959664,-2.5869819515140158
1782818892847696896,3.0293779373168945,-0.1691330224275589,1.8465498685836792,-0.006171876098960638,0.21955330669879913,-0.08141528069972992,-0.9721974730491638,0.21343009173870087,-0.18358412384986877,0.06576436758041382,0.27602172731665153,0.11758590433816538,-0.008650214919803643,-0.9538923908948085,0.08150548938840362,0.222106218551111,-2.5873458714771105
1782818892857615872,3.039297103881836,-0.4198140501976013,1.6112706661224365,-0.11702878773212433,0.23610426485538483,-0.07816797494888306,-0.9685786366462708,0.33568835258483887,-0.031573228538036346,0.002193748950958252,0.27619147146056916,0.12525368155237296,-0.004711946842827118,-0.9528943826488846,0.07824779633622173,0.23910059849481002,-2.5867683224303897
1782818892867535872,3.0492169857025146,-0.34050190448760986,1.4387905597686768,-0.07840815931558609,0.2510644793510437,-0.07456190884113312,-0.9650943875312805,0.2830999493598938,0.06841261684894562,-0.12749594449996948,0.2759307188801223,0.1321062304977156,-0.0008705259776715836,-0.9520553264634868,0.07463117306307195,0.25450386820520293,-2.586951063227354
1782818892877455616,3.0591368675231934,-0.3507058620452881,1.1976052522659302,-0.017730195075273514,0.26342400908470154,-0.07103431969881058,-0.9620612859725952,0.09610357880592346,0.22037209570407867,-0.22191393375396729,0.2759673594070281,0.13770450854485805,0.002612136260847958,-0.9512480068478172,0.07109419481269487,0.2672614802517603,-2.5864346674492253
1782818892887375872,3.069056987762451,-0.4760880172252655,1.2220802307128906,0.0029433921445161104,0.2746375501155853,-0.06716495752334595,-0.9591991901397705,-0.07567819952964783,0.25606876611709595,-0.3572986125946045,0.2761625241374744,0.14269841115777196,0.006129248757385714,-0.9504387473050253,0.06721555692013814,0.2788592064748239,-2.5854754537506537
1782818892897294848,3.0789759159088135,-0.7531510591506958,1.16571843624115,0.1021309569478035,0.28631648421287537,-0.06165139004588127,-0.9561495780944824,-0.20007380843162537,0.11292092502117157,-0.4620938301086426,0.2766396577429525,0.14769421756577353,0.010565992852638283,-0.9494973776303621,0.06169051260249274,0.2909497366158889,-2.583622251650416
1782818892907214848,3.0888960361480713,-1.3771289587020874,0.5013226270675659,0.012943562120199203,0.29400384426116943,-0.05200637876987457,-0.9543883204460144,-0.17545831203460693,-0.027491915971040726,-0.5549195408821106,0.27781919040311104,0.1501065924475914,0.01654842054378254,-0.9486889062505834,0.05202984987380819,0.29882999367398694,-2.5796665980081013
1782818892917134848,3.09881591796875,-1.3292988538742065,0.30728679895401,-0.07423128932714462,0.29664304852485657,-0.03786041587591171,-0.9542376399040222,-0.11196592450141907,-0.10778472572565079,-0.5748913884162903,0.2786790650185727,0.14936068335273325,0.023928258236041455,-0.948396952058275,0.03786946757958238,0.30139841888929847,-2.5757479609265856
1782818892927053824,3.1087350845336914,-0.5930212736129761,0.13740457594394684,-0.2176148146390915,0.29946643114089966,-0.028598612174391747,-0.9536781311035156,0.022005736827850342,0.0581548810005188,-0.8184776306152344,0.27865762952939943,0.1494309606203603,0.028832698666774216,-0.948255720627469,0.0286025114361061,0.3042618062091774,-2.57434331071859
1782818892936973824,3.11865496635437,-0.38226303458213806,0.37962624430656433,0.06718762218952179,0.30141958594322205,-0.02389003336429596,-0.9531922936439514,-0.09443411231040955,0.14072658121585846,-0.7679533362388611,0.2784279566729539,0.14973243563191035,0.03136978631352825,-0.9481951673019094,0.02389230569588279,0.3062713921907979,-2.5740571028671515
1782818892946893824,3.128575086593628,-0.7008066177368164,0.12644806504249573,0.22784946858882904,0.30450958013534546,-0.01951429434120655,-0.9523093700408936,-0.18669646978378296,-0.013475209474563599,-0.5971291065216064,0.2793988918327526,0.15060568177435724,0.034106480220544584,-0.9476766049778067,0.019515533161152347,0.30948441197540694,-2.5712319981151692
1782818892956812800,3.1384940147399902,-0.4051387906074524,-0.2540428340435028,-0.018821557983756065,0.3042210042476654,-0.014588930644094944,-0.9524897933006287,-0.005408138036727905,-0.052931204438209534,-0.5340672135353088,0.2801714240498778,0.14972451946132354,0.03657436020029536,-0.9474961739731205,0.014589448514796438,0.3091545506160104,-2.5688579297704788
1782818892966732800,3.148413896560669,-0.25477564334869385,-0.3617591857910156,-0.03715156391263008,0.30121713876724243,-0.011257123202085495,-0.9534891247749329,0.02078908681869507,-0.002887778915464878,-0.5262166857719421,0.2805452768535166,0.14773888849931466,0.03779762499428874,-0.9476491127083119,0.011257360944799158,0.3059888416479127,-2.567682601485884
1782818892976652800,3.1583340167999268,-0.06032891571521759,-0.2517276406288147,-0.05529554560780525,0.29895976185798645,-0.00981958769261837,-0.9542152285575867,-0.12519267201423645,0.050011247396469116,-0.5210044980049133,0.28038040861650465,0.1464188818826761,0.03813017315774012,-0.9478895379562117,0.009819745244162395,0.3036174758027979,-2.567907055935869
1782818892986572800,3.1682538986206055,0.2954643666744232,-0.19770193099975586,-0.06008417531847954,0.2966231405735016,-0.010299730114638805,-0.954939067363739,-0.030403047800064087,0.24089054763317108,-0.5136125683784485,0.2800036396877337,0.14534445562313456,0.0374893721100968,-0.948191699110899,0.010299912402027123,0.3011711737467978,-2.5688717929692553
1782818892996492032,3.178173065185547,0.5606123208999634,-0.3236296772956848,0.003442035522311926,0.29446306824684143,-0.014702169224619865,-0.9555497765541077,0.08429059386253357,0.21483644843101501,-0.5789961218833923,0.27955482461508563,0.14492287649636745,0.0349639716786384,-0.9484850628837503,0.014702698597151537,0.2989269279925135,-2.5705616152222666
1782818893006411776,3.1880929470062256,0.5033833980560303,-0.420780211687088,-0.09804730862379074,0.29137662053108215,-0.01930033043026924,-0.9564136862754822,0.27771514654159546,0.028028350323438644,-0.5029979348182678,0.27888251804227016,0.14407634466795943,0.03217395878066582,-0.9489105463940137,0.01930152840873653,0.2957223514768002,-2.572769807603076
1782818893016332032,3.1980130672454834,0.22791653871536255,-0.5375334024429321,0.1435139924287796,0.28688904643058777,-0.023154214024543762,-0.9576839804649353,0.47116759419441223,-0.15973763167858124,-0.4300418496131897,0.27874776770381454,0.14240991056736071,0.029621602099199798,-0.9492848490447336,0.023156282580807524,0.29105810253614034,-2.573763663927763
1782818893026250752,3.2079319953918457,0.007302394136786461,-0.8158763647079468,0.12622341513633728,0.28084638714790344,-0.024661604315042496,-0.9594358205795288,0.620032548904419,-0.2302059531211853,-0.3525148630142212,0.2794546264842817,0.13961478782195189,0.028103338883762537,-0.9495382865921973,0.024664104789876237,0.2847649065464819,-2.572679240183185
1782818893036170752,3.2178518772125244,-0.3267380893230438,-1.0811132192611694,0.1283051073551178,0.27208220958709717,-0.023386361077427864,-0.9619897603988647,0.6307955980300903,-0.2587639093399048,-0.3627477288246155,0.28033256532002315,0.13507765725539111,0.0275524352772255,-0.949951791008812,0.023388494152292515,0.27563357443452774,-2.5709224633769243
1782818893046090752,3.2277719974517822,-0.16684511303901672,-1.411962866783142,0.15365813672542572,0.26012852787971497,-0.021351279690861702,-0.9653379321098328,0.5763735771179199,-0.19985538721084595,-0.41697102785110474,0.2813736117054061,0.12886657619802416,0.02691566656530811,-0.9505249932591777,0.021352902977900316,0.2632167318502189,-2.568817955532657
1782818893056009728,3.2376909255981445,0.1992325484752655,-1.5166490077972412,0.19285297393798828,0.24636320769786835,-0.02208508923649788,-0.9689258933067322,0.48607391119003296,-0.06536302715539932,-0.46419477462768555,0.28241057939471775,0.12218242097840495,0.02466781569217339,-0.9511609714540614,0.022086885258133328,0.24898801599774203,-2.5671150182111613
1782818893065929984,3.2476110458374023,0.05871511623263359,-1.4636437892913818,0.15958130359649658,0.2329980731010437,-0.02449580654501915,-0.9721686244010925,0.3041113018989563,-0.08086612820625305,-0.3911430835723877,0.2832449518632338,0.11596255990956532,0.021641798948021054,-0.9517649866743023,0.024498256848475165,0.23523138593795928,-2.565981102250204
1782818893075849728,3.257530927658081,-0.1575564742088318,-1.3160045146942139,0.11323817074298859,0.21990399062633514,-0.02451457269489765,-0.9752134680747986,0.16434283554553986,-0.11032734811306,-0.2673402428627014,0.28410905739178377,0.10954812488492265,0.01981118031605436,-0.9523071183381481,0.02451702898626201,0.22178381593776683,-2.5644607788358145
1782818893085769984,3.267451047897339,-0.5953441858291626,-1.2422435283660889,0.03154570981860161,0.20783299207687378,-0.021301960572600365,-0.977932333946228,0.16422204673290253,-0.22799614071846008,-0.2296329140663147,0.28470261507621153,0.10318705653348641,0.01965343344787929,-0.9528434327599459,0.021303571063355838,0.20940727170992243,-2.5631339585972017
1782818893095688704,3.277369976043701,-0.8483800888061523,-1.209814429283142,0.16443535685539246,0.19610917568206787,-0.014541540294885635,-0.9804742336273193,0.25117170810699463,-0.28646859526634216,-0.1608526110649109,0.2856425935806255,0.09648730677389242,0.02128566658968533,-0.9532289840441893,0.014542052965428993,0.19740961583048827,-2.560746946050195
1782818893105608960,3.287290096282959,-1.131896734237671,-1.3056814670562744,0.2535167336463928,0.18399681150913239,-0.005362231284379959,-0.9829122424125671,0.3234037160873413,-0.28440216183662415,-0.17794591188430786,0.2872546034424707,0.08924244073131117,0.024076540277008205,-0.9533839136220853,0.005362257150983844,0.18505383969243247,-2.556792107509328
1782818893115528704,3.2972099781036377,-1.2114923000335693,-1.2521177530288696,0.3061021864414215,0.1717686504125595,0.0056243478320539,-0.9851212501525879,0.3042597770690918,-0.21810299158096313,-0.1564192771911621,0.2892194940669927,0.08167373063652535,0.02772673044488832,-0.9533691363950888,-0.005624377665280372,0.17262748051243404,-2.552022532040788
1782818893125447680,3.30712890625,-1.2357414960861206,-1.3024344444274902,0.42895007133483887,0.15932077169418335,0.017030613496899605,-0.9870799779891968,0.28759390115737915,-0.13728512823581696,-0.15577280521392822,0.29166399799457954,0.07392127001484518,0.03155417257405638,-0.953137963898041,-0.017031436673110006,0.16002600553789073,-2.546315147634158
1782818893135367936,3.317049026489258,-1.1906987428665161,-1.2559559345245361,0.4212574064731598,0.14687636494636536,0.028256971389055252,-0.9887511730194092,0.25929734110832214,-0.04446180909872055,-0.15182805061340332,0.29428838908338717,0.06618406992373989,0.03527158135892561,-0.9527695713852942,-0.028260733944028452,0.14746896475411017,-2.5403437097070842
1782818893145287680,3.3269689083099365,-1.1222130060195923,-1.2541744709014893,0.39209607243537903,0.1348690390586853,0.03895566239953041,-0.9900973439216614,0.2709079384803772,-0.02729795128107071,-0.22785913944244385,0.2968010325065187,0.058730569905505535,0.03875611371675377,-0.9523433112417371,-0.03896552331557791,0.1353846906164727,-2.5347237802629685
1782818893155206912,3.336888074874878,-1.0496693849563599,-1.2321557998657227,0.29917648434638977,0.12289134413003922,0.04903387278318405,-0.9912080764770508,0.2848082482814789,-0.06575750559568405,-0.2501096725463867,0.2990464386557998,0.05138631604406164,0.041897756518037316,-0.9519323607402207,-0.04905354107290201,0.1233519224359291,-2.529793986365994
1782818893165126912,3.3468079566955566,-0.908616304397583,-1.4270552396774292,0.2816089689731598,0.11005623638629913,0.05848953127861023,-0.992202877998352,0.3181664049625397,-0.02873489260673523,-0.19741803407669067,0.30084383618261834,0.04373866260160763,0.0445586956267795,-0.951627346149384,-0.05852293291498678,0.11046951852398793,-2.525967821092458
1782818893175046912,3.3567280769348145,-0.6404755711555481,-1.4194508790969849,0.25895988941192627,0.09625363349914551,0.0658356174826622,-0.9931771755218506,0.313917875289917,0.029425010085105896,-0.21562409400939941,0.30263053710903537,0.03594452942571397,0.04603694986245246,-0.9513166989296714,-0.06588326571047728,0.09661314309813422,-2.5224176585703377
1782818893184965888,3.3666470050811768,-0.4955120086669922,-1.4667011499404907,0.15385156869888306,0.08204049617052078,0.07102253288030624,-0.9940951466560364,0.19743949174880981,0.09323833137750626,-0.20725983381271362,0.3040595598622279,0.02830046292376197,0.04638438956826772,-0.9511021642379452,-0.0710823785982205,0.08234121275000206,-2.5198165558753143
1782818893194885632,3.3765668869018555,-0.4273691177368164,-1.408395767211914,0.14986605942249298,0.06809131801128387,0.07543840259313583,-0.9948229193687439,0.10741527378559113,0.07672223448753357,-0.1402631402015686,0.30509171126657486,0.020922502143387638,0.04637666309684273,-0.9509628701017263,-0.07551014192391091,0.06833908037448787,-2.518109754298926
1782818893204805888,3.3864870071411133,-0.35650771856307983,-1.354429006576538,0.130736842751503,0.05460953339934349,0.07920560985803604,-0.9953613877296448,0.09275984764099121,0.04268159717321396,-0.09458917379379272,0.3061362725543195,0.013868830828021029,0.04611905261192819,-0.9507687972278883,-0.07928865912615701,0.05480907764050767,-2.516407394903866
1782818893214725632,3.396406888961792,-0.4292234182357788,-1.2715615034103394,0.09519126266241074,0.041831035166978836,0.08291483670473099,-0.9956783056259155,0.08831118047237396,0.05191182345151901,-0.09682047367095947,0.30697498660212563,0.007171013433127381,0.04592844794604335,-0.950581647502389,-0.08301013583692839,0.041987910328003426,-2.515124661287579
1782818893224644864,3.4063260555267334,-0.5827775597572327,-1.2649022340774536,0.11977969855070114,0.02942613512277603,0.08759711682796478,-0.9957212805747986,0.13048598170280457,-0.0035211890935897827,-0.12346512079238892,0.3077443052921758,0.0005048008812721941,0.046250514929183285,-0.9503441757224809,-0.08770953020843453,0.029543983049402808,-2.5139602082071013
1782818893234564864,3.416245937347412,-0.8831945061683655,-1.1608381271362305,0.09805423021316528,0.01763203926384449,0.09480253607034683,-0.9953399300575256,0.17415568232536316,-0.10742156207561493,-0.09139096736907959,0.30851911289223705,-0.006263638346299563,0.04786228460986338,-0.9499925812801582,-0.09494511894082103,0.017712737724527836,-2.512722403911847
1782818893244484864,3.42616605758667,-1.0515449047088623,-1.0622034072875977,0.11368218809366226,0.006871015764772892,0.10447406768798828,-0.9945038557052612,0.15500947833061218,-0.13157367706298828,-0.07014763355255127,0.30917707472592026,-0.012923793114145666,0.05080391637642607,-0.949558559114388,-0.10466506074916504,0.006908878497806257,-2.5116802484784486
1782818893254403840,3.4360849857330322,-0.9971461892127991,-1.071711778640747,0.12099639326334,-0.003573745023459196,0.1145983636379242,-0.9934054613113403,0.21408399939537048,-0.042286962270736694,-0.13063323497772217,0.30992839855647814,-0.019518787338837062,0.05400257475915638,-0.9490243266799501,-0.11485069398932894,-0.003597453065268621,-2.510486464800932
1782818893264323584,3.446004867553711,-0.8831818103790283,-1.0992262363433838,0.07462223619222641,-0.014171125367283821,0.12391359359025955,-0.9921917915344238,0.24592161178588867,0.06279294192790985,-0.1818498969078064,0.31057494215826603,-0.026064592806706872,0.056786693783814346,-0.9484931224812534,-0.12423291397172415,-0.014281676213958393,-2.5096058966744907
1782818893274243840,3.4559249877929688,-0.7003301382064819,-1.101699709892273,0.014165986329317093,-0.024757474660873413,0.1318385899066925,-0.9909619688987732,0.2140580117702484,0.0753910094499588,-0.20335865020751953,0.31095645030046926,-0.032379939876856584,0.05891135121166056,-0.9480438138212983,-0.13222352851785366,-0.024978077347672534,-2.509364350880883
1782818893284162816,3.465843915939331,-0.5992067456245422,-1.1153407096862793,-0.049667853862047195,-0.035613227635622025,0.13794578611850739,-0.9897993206977844,0.18888776004314423,0.029260024428367615,-0.2573625445365906,0.31107349180595234,-0.038527445947289456,0.060133059605638736,-0.9476987899562445,-0.13838707524549224,-0.0359647354495265,-2.5097647191224457
1782818893294082816,3.475764036178589,-0.5839041471481323,-1.118789553642273,-0.08153600245714188,-0.0465339720249176,0.1439308077096939,-0.988493025302887,0.1801551878452301,0.023137658834457397,-0.23198115825653076,0.31096243124232675,-0.044678514862361296,0.061296855914207186,-0.947390612761155,-0.1444324485743812,-0.04704094084238089,-2.5106944922284162
