time,seconds_elapsed,rotationRateX,rotationRateY,rotationRateZ,gravityX,gravityY,gravityZ,accelerationX,accelerationY,accelerationZ,quaternionW,quaternionX,quaternionY,quaternionZ,pitch,roll,yaw
1783160625979347712,0.1662888526916504,1.866733193397522,1.3531287908554077,-1.6860147714614868,-0.08595786988735199,0.746390700340271,-0.6599334478378296,0.05544029176235199,-0.2687143087387085,-0.10372316837310791,0.9095061968645453,-0.4062372974994253,-0.07074277634013088,0.052585176468762984,-0.8426221140077387,-0.12952313158632975,0.05739577583026291
1783160625989267712,0.1762089729309082,2.103778839111328,0.9057393074035645,-1.5180200338363647,-0.08932808041572571,0.7267765402793884,-0.6810407638549805,0.24965214729309082,-0.007797598838806152,0.0005139708518981934,0.5797239374912889,-0.28837731653300624,0.27625740594638937,-0.7102398874868093,-0.8136172587422922,-0.13041956950940897,-1.8287214289337537
1783160625999187712,0.18612885475158691,3.3350775241851807,1.0382587909698486,-1.4726585149765015,-0.08390378952026367,0.7027623653411865,-0.7064595818519592,0.29026365280151367,0.07429146766662598,0.019890427589416504,0.5792160054732903,-0.27391413807575093,0.2678455596027076,-0.7195405510771871,-0.7792729854741955,-0.11821283635231292,-1.8346406779625681
1783160626009106688,0.19604778289794922,4.58827018737793,1.1911085844039917,-1.533321499824524,-0.06952716410160065,0.6711896657943726,-0.7380179166793823,0.15016986429691315,0.12454092502593994,-0.10780727863311768,0.5805246736427794,-0.2533657053297138,0.25845091472883963,-0.7293832985850203,-0.735812468297641,-0.0939307348890598,-1.8333353184967267
1783160626019026688,0.20596790313720703,5.669303894042969,1.2963756322860718,-1.5475265979766846,-0.052998028695583344,0.6302917003631592,-0.7745473384857178,0.06326720118522644,0.20654606819152832,-0.008106470108032227,0.5822200434888452,-0.22891011353567026,0.2456145218187039,-0.740468429424472,-0.6819288969092792,-0.06831803286838571,-1.8331962771901176
1783160626028945664,0.21588683128356934,6.548788547515869,1.291504979133606,-1.5444532632827759,-0.040473271161317825,0.5819120407104492,-0.8122439980506897,0.04663780704140663,0.15430927276611328,0.030887186527252197,0.5830382957599815,-0.20401850093193735,0.22859232280553832,-0.7524548700785946,-0.6210777879513493,-0.04978777919424015,-1.8391431437509647
1783160626038865920,0.22580695152282715,6.870138645172119,1.0824196338653564,-1.5840437412261963,-0.03129646182060242,0.5271574854850769,-0.8491910696029663,0.10655280947685242,0.012271225452423096,0.09058511257171631,0.5831314935006254,-0.17917574488739668,0.20808774163069532,-0.7645607763619948,-0.5552520372280928,-0.036837767860483046,-1.8489309514300005
1783160626048785664,0.23572683334350586,6.883412837982178,1.1024649143218994,-1.5879076719284058,-0.019655592739582062,0.4698021113872528,-0.8825529217720032,0.19110335409641266,-0.1538841426372528,0.15835553407669067,0.582575902034984,-0.153485411337949,0.18752540293064374,-0.7758103903506723,-0.48906660252373646,-0.022267609486715433,-1.8589627355948573
1783160626058704640,0.24564576148986816,7.1655192375183105,1.211350917816162,-1.4242825508117676,-0.0016884672222658992,0.4086103141307831,-0.9127073884010315,0.23182152211666107,-0.3599195182323456,0.0974608063697815,0.5817337911187004,-0.12496929508752964,0.16741858491627964,-0.7860913484727904,-0.42093096048806977,-0.001849952430276204,-1.867804262932693
1783160626068624640,0.255565881729126,7.810247898101807,1.1698706150054932,-1.2202610969543457,0.015156318433582783,0.33770450949668884,-0.9411301612854004,0.2909654974937439,-0.49203190207481384,-0.02554464340209961,0.5806482432013278,-0.09480302651733226,0.1429940925970725,-0.795872371935758,-0.34447707260091,0.0161029885836451,-1.8781910892365874
1783160626078543616,0.2654848098754883,8.74984359741211,0.9696727991104126,-1.0358340740203857,0.030225656926631927,0.2550889849662781,-0.9664450287818909,0.35992631316185,-0.4507219195365906,-0.18409818410873413,0.5794145826791159,-0.06279374977548532,0.11328911293968844,-0.8046745970571602,-0.2579397174335875,0.03126490086760874,-1.889411433535961
1783160626088463872,0.2754049301147461,9.797286033630371,0.6029926538467407,-0.9066751599311829,0.0509759820997715,0.1538105309009552,-0.9867845773696899,0.4226263165473938,-0.3014545738697052,-0.32800424098968506,0.5781528273144307,-0.023928188013332005,0.07768629490937452,-0.8118692775828543,-0.1544235468942713,0.0516127936105261,-1.8999636049244089
1783160626098382592,0.2853238582611084,10.742499351501465,0.16743959486484528,-0.8575172424316406,0.07002950459718704,0.03975275158882141,-0.9967525005340576,0.44695353507995605,-0.10428217053413391,-0.2702915072441101,0.575174325009477,0.017203929335402286,0.036438505798524805,-0.8170377205570399,-0.039763228090062365,0.07014240534334946,-1.9134193794519752
1783160626108302848,0.2952439785003662,11.431473731994629,-0.2388157695531845,-0.8304922580718994,0.07543634623289108,-0.07402843236923218,-0.9943988919258118,0.4287750720977783,0.06421703100204468,-0.030472934246063232,0.5698602293214675,0.05216928498828172,-0.008883775850131346,-0.8200358128151722,0.07409621261047825,0.07571622533602787,-1.9297819924341648
1783160626118222592,0.3051638603210449,10.229089736938477,-0.44299688935279846,-0.9889079928398132,0.07810709625482559,-0.18397024273872375,-0.9798235893249512,0.400286465883255,0.08588674664497375,0.22521543502807617,0.5621950623174076,0.08462569160124943,-0.05409905073992089,-0.8208827041274339,0.1850241201568439,0.07954725702510848,-1.9479828243445836
1783160626128141568,0.3150827884674072,8.41303539276123,-1.225535273551941,-1.132668137550354,0.08088408410549164,-0.27516523003578186,-0.957988440990448,0.33044707775115967,-0.20125994086265564,0.556712806224823,0.3586131342428239,0.08849207319980787,-0.11478210649667782,-0.9221663662316582,0.27876156844727396,0.08423139802501083,-2.4116471788108216
1783160626138061824,0.32500290870666504,7.719231605529785,-1.176217794418335,-1.0383203029632568,0.0952753871679306,-0.35931268334388733,-0.9283409714698792,0.1727757602930069,-0.7923597097396851,0.8471184968948364,0.29806118968961315,0.10176412029096021,-0.1596044012173257,-0.9355907800603781,0.3675312851469798,0.10227166619813274,-2.5437872353264783
1783160626147980800,0.33492183685302734,6.104465484619141,-0.37211018800735474,-1.0193394422531128,0.10295981913805008,-0.4285700023174286,-0.8976230025291443,0.007422253489494324,-1.217029333114624,0.7290133833885193,0.2658626944288945,0.11088762256922799,-0.19721167470528392,-0.9370850928514203,0.4429094687298223,0.1142036438111164,-2.61443601477643
1783160626157900800,0.34484195709228516,4.781261444091797,0.010513626039028168,-0.7862840890884399,0.11565960198640823,-0.488617867231369,-0.8647979497909546,-0.10006511956453323,-1.1839895248413086,0.6970580816268921,0.24784946048701437,0.12282502834948458,-0.22916162199342976,-0.9332575591662956,0.5105049374462246,0.13295281109961926,-2.6571686601701927
1783160626167820800,0.35476183891296387,3.4871268272399902,0.02139320969581604,-0.32489100098609924,0.12783773243427277,-0.5442996025085449,-0.8290931582450867,-0.05624350905418396,-0.9860196113586426,0.35867995023727417,0.23955410877282987,0.1359937160666224,-0.2587646288787846,-0.9258295359879604,0.5755539519989655,0.1529850477718171,-2.680570899732463
1783160626177739520,0.36468076705932617,3.01045298576355,0.004595968406647444,-0.025425933301448822,0.13152126967906952,-0.5784552097320557,-0.8050414323806763,0.09527011215686798,-0.7721917629241943,0.26382744312286377,0.23667211153358272,0.1428839403104035,-0.27760306836753373,-0.920058184744362,0.6168336621450912,0.1619414015354754,-2.689731219127719
1783160626187659776,0.374600887298584,3.157830238342285,0.011683780699968338,0.028477413579821587,0.13264483213424683,-0.6071265339851379,-0.7834556698799133,0.16641217470169067,-0.5212151408195496,0.05403977632522583,0.2347120411098011,0.1479304296021585,-0.2939196493728006,-0.9146792777686144,0.6524393513882795,0.16771692833521262,-2.6960780829918933
1783160626197578752,0.3845198154449463,3.356029748916626,-0.16280093789100647,-0.08106265962123871,0.13273867964744568,-0.6351103782653809,-0.7609305381774902,0.18313352763652802,-0.17148447036743164,0.011876583099365234,0.2318068764441965,0.15214411567015965,-0.31046238735198767,-0.9092474787154462,0.6881514262713324,0.17270474192507834,-2.70436010242969
1783160626207498752,0.3944399356842041,3.726612091064453,-0.41706928610801697,-0.32422226667404175,0.1324547976255417,-0.6636859178543091,-0.736190676689148,0.11287601292133331,0.14587891101837158,-0.03277599811553955,0.22817965715893535,0.15614172714861055,-0.32790916926314767,-0.9033434248173415,0.7257356750597443,0.17801462564084533,-2.714496205372165
1783160626217417728,0.4043588638305664,4.254549026489258,-0.543688178062439,-0.4693874716758728,0.13209004700183868,-0.6942095756530762,-0.7075487971305847,0.0008750557899475098,0.37466001510620117,0.07487368583679199,0.2234835139557718,0.1602131243645161,-0.3472136869127327,-0.896565472787581,0.7673211814601744,0.18456227479607923,-2.727695316177629
1783160626227337728,0.4142789840698242,4.81972074508667,-0.4400193393230438,-0.660597026348114,0.13359463214874268,-0.7281805276870728,-0.6722391843795776,-0.09486784040927887,0.52574223279953,0.1471690535545349,0.21719111614671244,0.16553657402277014,-0.3694293493914614,-0.8882271964697283,0.8156635366164172,0.1961748711067073,-2.746940187241995
1783160626237257728,0.42419886589050293,4.492655277252197,-0.4101589322090149,-0.8254203200340271,0.13871334493160248,-0.7657877206802368,-0.6279551982879639,-0.21204708516597748,0.5574594736099243,0.37894701957702637,0.20973262704641357,0.17342635612354726,-0.3948996118892645,-0.877490629170747,0.8722653747703976,0.21740561298984823,-2.7740060018565167
1783160626247176704,0.43411779403686523,4.156820297241211,-0.4802093803882599,-1.011589765548706,0.1446259617805481,-0.7948609590530396,-0.5893042683601379,-0.2431671917438507,0.37709057331085205,0.37766486406326294,0.2022830933002948,0.18017193054615294,-0.4157955517551248,-0.8681784604259168,0.9187783969454862,0.2406616972524626,-2.803254642461063
1783160626257096704,0.44403791427612305,3.405055284500122,-0.4731093943119049,-1.247309923171997,0.15130755305290222,-0.8165951371192932,-0.5570264458656311,-0.26414626836776733,0.1306515336036682,0.4479719400405884,0.19435881956250659,0.18556974484661215,-0.43249351732201086,-0.8606613421622475,0.9554873399137955,0.26523456423907044,-2.8353095773018304
1783160626267015680,0.45395684242248535,2.2987961769104004,-0.42991507053375244,-1.343955397605896,0.15991459786891937,-0.8311084508895874,-0.5326218008995056,-0.27960455417633057,0.08062022924423218,0.5710892677307129,0.18625118990211886,0.19024765498780588,-0.44440402006870683,-0.8553486600034151,0.9810979817786715,0.2916773615912871,-2.869364756531776
1783160626276935936,0.46387696266174316,1.7591090202331543,-0.4095427095890045,-1.3051906824111938,0.16901130974292755,-0.8403717279434204,-0.514985978603363,-0.20555609464645386,0.03786623477935791,0.5442675948143005,0.17924740968261332,0.19444301298240707,-0.4524366499127505,-0.8516827102632649,0.9979687439052553,0.31711103158479104,-2.9005664724817675
1783160626286855680,0.4737968444824219,1.7164095640182495,-0.478194922208786,-1.1209205389022827,0.17698520421981812,-0.8479830026626587,-0.49960094690322876,-0.15247958898544312,0.11836874485015869,0.42257457971572876,0.17262001470603752,0.1977566346431887,-0.4594473181539015,-0.8485298370875144,1.0121681788557193,0.34045877000617913,-2.9301643595771125
1783160626296774656,0.4837157726287842,1.6873949766159058,-0.5508624911308289,-1.1440091133117676,0.18392056226730347,-0.8551704287528992,-0.48462021350860596,-0.16240566968917847,0.30867689847946167,0.33337509632110596,0.16584912116951223,0.20027136368087603,-0.4664560748407791,-0.8454609205425141,1.02587953445953,0.3627229930785984,-2.960018050984797
1783160626306694656,0.493635892868042,1.921362280845642,-0.5927796959877014,-1.1367137432098389,0.19094932079315186,-0.8621843457221985,-0.46922972798347473,-0.20727622509002686,0.507737934589386,0.25719356536865234,0.1590193038930037,0.20277598935036756,-0.473568410756518,-0.8422159856640842,1.0395658393107077,0.3864765742461739,-2.9914009642077697
1783160626316613632,0.5035548210144043,2.5700836181640625,-0.6638141870498657,-1.1748936176300049,0.1980002075433731,-0.8707535266876221,-0.45009371638298035,-0.15730497241020203,0.5876876711845398,0.14763396978378296,0.15169094159274285,0.20549365985281648,-0.4824163095350892,-0.837876417119301,1.0567327292103825,0.41443051318676943,-3.027603351047708
1783160626326533888,0.5134749412536621,3.022637367248535,-0.8213390707969666,-1.1706295013427734,0.20498540997505188,-0.8811255097389221,-0.4261440336704254,-0.07974129915237427,0.5724097490310669,0.09138152003288269,0.14326414512889837,0.208128636223884,-0.493569096347543,-0.8321942759548747,1.0782370233788383,0.4483517045291448,-3.0717606572993645
1783160626336452608,0.5233938694000244,3.4187583923339844,-0.9740117192268372,-1.2230724096298218,0.21178101003170013,-0.8922012448310852,-0.398905485868454,0.028499111533164978,0.61449134349823,0.26848867535591125,0.13376276176777455,0.2102948852733801,-0.5062838281480776,-0.825566573689886,1.1021958947369093,0.48806502297900034,-3.1240504133685185
1783160626346372608,0.5333137512207031,3.7812423706054688,-1.0448437929153442,-1.3451480865478516,0.2194630354642868,-0.9034546613693237,-0.3682468831539154,0.0054362863302230835,0.6887025237083435,0.362295925617218,0.1227342593200017,0.21224016361243342,-0.5204139389499518,-0.8179608061728157,1.1277611323770773,0.5374488574287366,3.094636746796889
1783160626356292608,0.5432338714599609,4.154986381530762,-1.023138403892517,-1.4313369989395142,0.22841353714466095,-0.9144757986068726,-0.33400794863700867,-0.06451888382434845,0.7985852956771851,0.42684245109558105,0.11059173664913553,0.21436251127146655,-0.5357655654506395,-0.8091807441854457,1.1542105544416361,0.5998091159669746,3.015919563015658
1783160626366211584,0.5531527996063232,4.504796028137207,-0.8543692231178284,-1.5652813911437988,0.2392023205757141,-0.9247247576713562,-0.2960849702358246,-0.1709039807319641,0.8415796160697937,0.4185978174209595,0.09765400147841738,0.2171473952580141,-0.5520910403396533,-0.7990658193871955,1.1803119138729659,0.6795298114789408,2.9198689234931887
1783160626376131840,0.563072919845581,4.676331043243408,-0.5273998975753784,-1.5963762998580933,0.2519116699695587,-0.933664083480835,-0.25458234548568726,-0.20801207423210144,0.6596924066543579,0.43079081177711487,0.08499983853438664,0.22137031432417348,-0.5689499245082773,-0.7874429419723036,1.2045107027646864,0.7801253859680721,2.805754933941316
1783160626386050816,0.5729918479919434,4.018248081207275,-0.5257902145385742,-1.9233967065811157,0.26687005162239075,-0.9396288394927979,-0.2141914963722229,-0.12529900670051575,0.37775444984436035,0.4920387864112854,0.07240995327876039,0.22654911693216365,-0.5844482404068778,-0.7757915565524565,1.2215440481584325,0.8944683679555439,2.6798129574731435
1783160626395970816,0.5829119682312012,2.394324779510498,-0.5304861664772034,-2.2826316356658936,0.2857196629047394,-0.9402778744697571,-0.18504562973976135,-0.04511907696723938,0.18194657564163208,0.6431908011436462,0.05905353338289978,0.23190051926964292,-0.5947262691334437,-0.7674865087166509,1.22344566108681,0.9960766593749982,2.5663709519140174
1783160626405889792,0.5928308963775635,0.8625338673591614,-0.47685593366622925,-2.680159568786621,0.3081318736076355,-0.9358569383621216,-0.17095796763896942,0.019642174243927002,0.04610168933868408,0.6200394034385681,0.046123295986996965,0.2378463555894553,-0.5982893315386638,-0.7637746302034902,1.2106831307094885,1.0642594575385291,2.4884145652986973
1783160626415809536,0.6027507781982422,-0.23479025065898895,-0.33030298352241516,-2.724266767501831,0.33271104097366333,-0.9277608394622803,-0.1690070629119873,0.019416064023971558,0.14445078372955322,0.4774634838104248,0.03429511961867269,0.24459100144437906,-0.5963821819839176,-0.7637587826436792,1.1883670128547579,1.100793457986533,2.445277542089314
1783160626425729792,0.6126708984375,-0.3237241804599762,-0.21005740761756897,-2.659085273742676,0.35699155926704407,-0.9180343151092529,-0.17254012823104858,0.12585759162902832,0.30220484733581543,0.3710264563560486,0.023823631716399684,0.25165947400779104,-0.5919437843911411,-0.7653120343174528,1.1630940348454795,1.1205838636887284,2.421509474433746
1783160626435648768,0.6225898265838623,0.613030731678009,-0.25944679975509644,-2.572336196899414,0.380423367023468,-0.9087210297584534,-0.17176732420921326,0.2211543321609497,0.2991630434989929,0.17683322727680206,0.01308836096754854,0.2586168007487887,-0.5892653821335805,-0.7653184164478702,1.1402096823203194,1.1466822267259544,2.39082041022379
1783160626445568768,0.6325099468231201,1.5492075681686401,-0.32953572273254395,-2.5140411853790283,0.402800053358078,-0.9007659554481506,-0.16239702701568604,0.2620406448841095,0.27715450525283813,0.10371172428131104,0.001093594641875551,0.26502556936270705,-0.5903921863281331,-0.7623629785997802,1.1215299308565214,1.187559913934668,2.3425195369510936
1783160626455487744,0.6424288749694824,2.247091054916382,-0.1992805004119873,-2.4712798595428467,0.4246766269207001,-0.893493115901947,-0.14601324498653412,0.2567808926105499,0.2806848883628845,0.2057361602783203,-0.011588840470222168,0.27144196472397764,-0.5944010742588305,-0.7568833323056615,1.1050644508050462,1.2396357021845057,2.281920525312037
1783160626465407488,0.6523487567901611,2.883425712585449,-0.33560651540756226,-2.390238046646118,0.44570234417915344,-0.8866186141967773,-0.12351807206869125,0.26882094144821167,0.17204958200454712,0.18325626850128174,-0.024817419394473798,0.2775832317251063,-0.6009896115179566,-0.7490948309501031,1.0899820742899167,1.3004497432740831,2.2113018468313013
1783160626475327744,0.662268877029419,3.1653659343719482,-0.4279577434062958,-2.5432395935058594,0.4669175446033478,-0.8788394927978516,-0.09812843799591064,0.24344012141227722,0.21473121643066406,0.18136513233184814,-0.03934795706851604,0.2831289228237556,-0.6089119749712089,-0.7399432410213005,1.073424433303825,1.3636487474044,2.1355473352386074
1783160626485246720,0.6721878051757812,3.6399662494659424,-0.4011349081993103,-2.5501797199249268,0.48896610736846924,-0.8694714307785034,-0.07022538036108017,0.11474788188934326,0.22208678722381592,0.13875257968902588,-0.05483747410071271,0.2887237306460889,-0.6176778425200771,-0.7294556598497786,1.0541313072538023,1.428151614814458,2.0572494142338167
1783160626495166720,0.6821079254150391,4.29097843170166,-0.27473944425582886,-2.3477303981781006,0.5098407864570618,-0.859463095664978,-0.037219978868961334,0.08342087268829346,0.12060213088989258,0.04675674811005592,-0.07034475749817497,0.29400239711983484,-0.628452544591093,-0.7167018024045566,1.0342184418808704,1.497922459682659,1.9731934170122984
1783160626505085696,0.6920268535614014,4.545215606689453,-0.409064382314682,-2.4070792198181152,0.5299273133277893,-0.8480428457260132,-0.0005802623927593231,0.1831464171409607,0.033177733421325684,-0.012633860111236572,-0.08627108467074728,0.2986904742517277,-0.6406979548916747,-0.7020309397830322,1.0122811085703391,1.56970134240755,1.8856902796679023
1783160626515005952,0.7019469738006592,4.3711018562316895,-0.6542043685913086,-2.3476269245147705,0.5501202344894409,-0.8343668580055237,0.03463451936841011,0.2310991883277893,0.04036056995391846,0.02077006921172142,-0.10292960613200829,0.3025789550739412,-0.6525053524671348,-0.6870867323674813,0.9869831754112591,1.633671432164881,1.8038178431805332
1783160626524924672,0.7118659019470215,3.7721996307373047,-0.9719938635826111,-2.332245111465454,0.5696576237678528,-0.8193577527999878,0.0643644630908966,0.25301986932754517,-0.015572547912597656,0.011685356497764587,-0.11964880001202197,0.305232974219332,-0.6625821187383587,-0.6734254237469651,0.9602898523076601,1.6833071505519042,1.7343375915414145
1783160626534844672,0.7217857837677002,3.019439697265625,-1.0235191583633423,-2.4539237022399902,0.5898191928863525,-0.80289226770401,0.08647079020738602,0.10683602094650269,0.01552361249923706,-0.02642739564180374,-0.1361042440427108,0.30779704623203114,-0.6696987179755898,-0.6619971080480627,0.9321312625976046,1.7163649155501743,1.681668745119463
1783160626544764672,0.731705904006958,2.554596424102783,-0.9900996088981628,-2.4407451152801514,0.6101617813110352,-0.7855779528617859,0.10280966013669968,0.01637929677963257,0.07544922828674316,0.02153419703245163,-0.15168217422772468,0.31085217914499774,-0.6743706358032477,-0.6523708108284005,0.9036296447927675,1.7377241166883082,1.642668442368575
1783160626554683648,0.7416248321533203,2.4702444076538086,-1.0353429317474365,-2.4981253147125244,0.6304917335510254,-0.7674137949943542,0.11643011122941971,0.05696237087249756,0.11194205284118652,0.028497792780399323,-0.16692341863044466,0.3141103661284913,-0.6779009772199353,-0.6433672114523875,0.8747976338071068,1.7534047132176749,1.6100691614839098
1783160626564603904,0.7515449523925781,2.500760793685913,-1.1864604949951172,-2.5373756885528564,0.6509829163551331,-0.7480969429016113,0.12873290479183197,0.09649932384490967,0.1217542290687561,0.05499814450740814,-0.18261431336619538,0.3171003703939959,-0.68103877328138,-0.6342598237843118,0.8451895844283536,1.7660290317485938,1.5793504221764167
1783160626574522624,0.7614638805389404,2.358335256576538,-1.1925232410430908,-2.636143922805786,0.671688437461853,-0.7275981307029724,0.1394113153219223,0.1127658486366272,0.08230400085449219,0.09616909921169281,-0.198611716832174,0.3200314208253854,-0.6835828775109344,-0.6251781101289008,0.8148141583167575,1.7754442623883742,1.5511677033313656
1783160626584442624,0.7713837623596191,2.061164379119873,-1.168836236000061,-2.7209439277648926,0.6926737427711487,-0.7059613466262817,0.1477208137512207,0.07192879915237427,0.036680400371551514,0.0792536586523056,-0.2145675806448772,0.3233362505486487,-0.6850650185425256,-0.6165227117756005,0.7837795627350885,1.7809104457915992,1.5274268287025918
1783160626594362624,0.781303882598877,1.8719956874847412,-1.1636608839035034,-2.809891700744629,0.7136000394821167,-0.683474600315094,0.15374518930912018,0.08103197813034058,-0.020855844020843506,-0.004559993743896484,-0.23007494592769914,0.3272403426625961,-0.6854096267066971,-0.6084348404112551,0.7525119664174977,1.783002662377874,1.508505088190353
1783160626604281600,0.7912228107452393,1.7139557600021362,-1.0963821411132812,-2.589529514312744,0.7335888743400574,-0.6609717011451721,0.1579984426498413,0.17516350746154785,-0.0899132490158081,-0.06368388235569,-0.24500764450066267,0.3311205726868813,-0.6850973548870608,-0.6008093946323823,0.722112928962853,1.7829331491372142,1.492392947179508
1783160626614201856,0.8011429309844971,1.7741421461105347,-1.0190495252609253,-2.456899642944336,0.7516586184501648,-0.6393707990646362,0.16190868616104126,0.2805526852607727,-0.07226860523223877,-0.09350347518920898,-0.25898828987119366,0.3345075385818783,-0.6848788566439795,-0.5932712340261964,0.6936796450910782,1.7829565865600914,1.476668538341526
1783160626624120832,0.8110618591308594,1.640244960784912,-1.1083024740219116,-2.3679749965667725,0.768609881401062,-0.6180021166801453,0.16526365280151367,0.29532432556152344,-0.04091811180114746,-0.06669189035892487,-0.27256518619462733,0.33753159092466123,-0.6846197855275319,-0.5857271808518532,0.6661988853004942,1.7825880614530416,1.4611967606082652
1783160626634040832,0.8209819793701172,1.4027659893035889,-1.001336932182312,-2.167517900466919,0.7842490077018738,-0.5976109504699707,0.166777104139328,0.3391030430793762,-0.002395153045654297,0.1358962059020996,-0.2852873610507191,0.3403373206757235,-0.6837829042098668,-0.5789840852866315,0.6405181492497652,1.780333223550122,1.4483936800267423
1783160626643959808,0.8309009075164795,1.4643429517745972,-0.8781948089599609,-1.9580790996551514,0.7979469895362854,-0.5787267684936523,0.16839228570461273,0.3420371413230896,-0.030434608459472656,0.17190921306610107,-0.2967375993469532,0.34281879800182574,-0.6831335263335003,-0.5724951086229857,0.6171665538693789,1.7787766547100825,1.4361824681640512
1783160626653879552,0.8408207893371582,1.4216684103012085,-0.8477229475975037,-1.7550280094146729,0.8101169466972351,-0.5610169768333435,0.17020650207996368,0.31091564893722534,-0.15892314910888672,0.2383628934621811,-0.30749210018704726,0.34467645970499616,-0.682862643852154,-0.5659905174094457,0.5956138227566073,1.7778853980685785,1.423239062852438
1783160626663799808,0.850740909576416,1.1638262271881104,-0.7102578282356262,-1.4975335597991943,0.8204958438873291,-0.5452829003334045,0.1716189831495285,0.2984158396720886,-0.26868194341659546,0.4401973485946655,-0.316917474412781,0.3461941670017919,-0.6826119609444831,-0.5601373252932101,0.5767265822732334,1.776988611822599,1.4117113346968257
1783160626673718784,0.8606598377227783,0.6896794438362122,-0.6828294396400452,-1.3061201572418213,0.8293384909629822,-0.5317635536193848,0.17153812944889069,0.2753521800041199,-0.34789037704467773,0.4437267780303955,-0.32481239873664963,0.3477339316289008,-0.6817992231045531,-0.5556329064064778,0.5606816228582912,1.7747574827212076,1.403878074329655
1783160626683638784,0.8705799579620361,0.141490176320076,-0.5569232106208801,-1.2525242567062378,0.8371771574020386,-0.5201089382171631,0.16917723417282104,0.21822738647460938,-0.3901388645172119,0.3330962657928467,-0.3311407454133346,0.34988265362278664,-0.6798314089087023,-0.5529530682542096,0.5469784734993145,1.770191631389572,1.4018042756029614
1783160626693557760,0.8804988861083984,-0.19528332352638245,-0.5738062858581543,-1.1853262186050415,0.8445451855659485,-0.5094290971755981,0.16500240564346313,0.1674787998199463,-0.38951200246810913,0.17267467081546783,-0.33632870620036454,0.3528235284463732,-0.6767693559207252,-0.551708231732035,0.5345212037509257,1.7637401409597075,1.4047053863561827
1783160626703477504,0.8904187679290771,-0.19507452845573425,-0.6477017998695374,-1.055861234664917,0.8513031601905823,-0.4998756945133209,0.1593960076570511,0.19622784852981567,-0.2729209065437317,0.011120900511741638,-0.34110688366811304,0.3554885176781135,-0.6732948242676015,-0.5513148294082844,0.523455230878454,1.755890831585887,1.409188340366056
1783160626713397760,0.900338888168335,0.17120306193828583,-0.6891608238220215,-0.9640889167785645,0.8574790954589844,-0.49081775546073914,0.15436092019081116,0.20085513591766357,-0.0966302752494812,-0.08716121315956116,-0.3460335997035827,0.35739381453038904,-0.670410410935337,-0.5505271792378705,0.5130281072017202,1.7489058503814763,1.4112950075732884
1783160626723316736,0.9102578163146973,0.9248400926589966,-0.7935078740119934,-0.8847734928131104,0.8632322549819946,-0.4816243052482605,0.15122295916080475,0.2273746132850647,0.01807752251625061,-0.14464639127254486,-0.3519979898708781,0.3577662410254865,-0.6690402038731806,-0.5481660829922901,0.5025071954605084,1.7442188077171106,1.406851891255006
1783160626733236736,0.9201779365539551,1.8147820234298706,-0.7928242683410645,-0.7399558424949646,0.8684802055358887,-0.4719902575016022,0.15154972672462463,0.24861568212509155,0.06574025750160217,-0.13944947719573975,-0.3593221917682891,0.356177646004291,-0.6700092155274253,-0.5432427686130448,0.4915469594267156,1.7435567316917462,1.3928522856381205
1783160626743154944,0.9300961494445801,2.548760175704956,-0.8670604228973389,-0.620564877986908,0.8731125593185425,-0.4621815085411072,0.15512119233608246,0.25199413299560547,0.07880449295043945,-0.10165442526340485,-0.36786289585877613,0.3525032336490524,-0.6732771096278706,-0.535832293528056,0.4804536519695038,1.7466262366329048,1.369561107970223
1783160626753074944,0.9400160312652588,3.0880894660949707,-0.8441497683525085,-0.4503384828567505,0.877132773399353,-0.45244100689888,0.1610436737537384,0.20038175582885742,0.06161770224571228,-0.02037288248538971,-0.3771616117778428,0.3470834659407732,-0.6782734734968819,-0.5265237037180078,0.4695006271449777,1.7523763963913508,1.339295833276464
1783160626762993920,0.9499349594116211,3.400049924850464,-0.8184401392936707,-0.30793678760528564,0.8803825974464417,-0.44315361976623535,0.16894133388996124,0.13011538982391357,-0.01631900668144226,0.021854504942893982,-0.38655322781856066,0.3403453108120028,-0.6845697437148413,-0.5158545103312053,0.4591135455616264,1.7603869464986635,1.3042575861125525
1783160626772913920,0.9598550796508789,3.4871387481689453,-0.7663239240646362,-0.17924512922763824,0.8830584287643433,-0.43435928225517273,0.17759500443935394,0.05895829200744629,-0.12002310156822205,0.019060268998146057,-0.39574411357580797,0.33276562624333217,-0.6914221165325236,-0.5045682859281185,0.44932681577145156,1.7692623727738341,1.2671115574135905
1783160626782833920,0.9697749614715576,3.4594614505767822,-0.7329242825508118,0.017309946939349174,0.8849852681159973,-0.42664435505867004,0.1864820420742035,0.03482973575592041,-0.23334404826164246,0.016139373183250427,-0.404278027008625,0.32458581121312663,-0.6984877036340873,-0.4932729433865352,0.4407792332719383,1.778475790387383,1.2295769158318124
1783160626792752896,0.979694128036499,3.3904175758361816,-0.6660842895507812,0.2015703320503235,0.8860812783241272,-0.4203939735889435,0.1952664852142334,0.0562252402305603,-0.3205423057079315,0.0310213565826416,-0.41196647967065425,0.3158845339208445,-0.7055850089662042,-0.4823385097101438,0.4338794728893064,1.7877003327668777,1.1924792926193613
1783160626802672896,0.9896140098571777,3.18322491645813,-0.6120531558990479,0.3592384159564972,0.886398434638977,-0.41565778851509094,0.2037806361913681,0.07878100872039795,-0.35205766558647156,-0.0329432487487793,-0.41875838706063373,0.3068111602550125,-0.7125708606274181,-0.47196519263145387,0.42866591450622654,1.7967672091845996,1.1563708157530297
1783160626812592128,0.9995331764221191,2.874565362930298,-0.41534462571144104,0.3178901970386505,0.886258065700531,-0.41173166036605835,0.21218843758106232,0.12594908475875854,-0.3143121004104614,0.00889626145362854,-0.42438378324232984,0.29837636514029836,-0.7190728483444235,-0.4623897529494441,0.42435343743506215,1.8057933878604504,1.1232952773263642
1783160626822511872,1.0094530582427979,2.7919857501983643,-0.27553117275238037,0.4102253019809723,0.8858112096786499,-0.408042848110199,0.2209964245557785,0.18627119064331055,-0.32959750294685364,0.008495792746543884,-0.42906054571258767,0.2906183331732892,-0.7252855953562978,-0.4532204802016652,0.4203092982593325,1.815290019871102,1.0924291700548456
1783160626832432128,1.0193731784820557,2.4479572772979736,-0.24652455747127533,0.6313568949699402,0.8845694065093994,-0.4058557152748108,0.2298225611448288,0.21328532695770264,-0.4165014922618866,-0.06116709113121033,-0.43274325204652114,0.2827923764827631,-0.731395757257291,-0.44477199052136307,0.4179149241049457,1.8249891449031999,1.0629898137631821
1783160626842350848,1.029292106628418,1.7578202486038208,-0.17217887938022614,0.6963285803794861,0.8825358152389526,-0.4060947299003601,0.23710274696350098,0.18203943967819214,-0.5019406080245972,0.05580499768257141,-0.43503104874796217,0.27558361624665956,-0.7366172957476561,-0.43840241392836055,0.41817648209754554,1.8332594893577985,1.0385855970761961
1783160626852270848,1.0392119884490967,0.6808263063430786,-0.10354495793581009,0.669893205165863,0.8804125785827637,-0.4081977307796478,0.24134686589241028,0.07324647903442383,-0.6070915460586548,0.22372567653656006,-0.43586821463952397,0.2704542183922134,-0.7399513158331248,-0.4351384378304008,0.4204789439068151,1.8383528605692032,1.0235433180971376
1783160626862190080,1.049131155014038,-0.7544121146202087,-0.132437601685524,0.8304159641265869,0.8778582215309143,-0.4140484035015106,0.2406843900680542,0.05207347869873047,-0.7448872327804565,0.3932115137577057,-0.43475264969430405,0.2677316395576339,-0.7407171956423173,-0.43663255657670164,0.42689713948292707,1.8383928478805742,1.0213568491435645
1783160626872109824,1.0590510368347168,-2.5178935527801514,0.0016102222725749016,0.7055768370628357,0.8750489354133606,-0.4238359332084656,0.2337791919708252,0.06773072481155396,-0.8492811918258667,0.4254615604877472,-0.4312317864544866,0.2685434592807185,-0.7380880768571754,-0.44401535705989903,0.4376762834731528,1.8318604460823924,1.0361984779132893
1783160626882028800,1.068969964981079,-3.9158644676208496,-0.1387430876493454,0.6867930889129639,0.8725602626800537,-0.43609336018562317,0.22013860940933228,0.188764750957489,-0.8344449400901794,0.30979907512664795,-0.4256195560674384,0.2732318921742027,-0.7317196459641033,-0.4569229839691081,0.45125291358918096,1.8179295404788476,1.0686478477141514
1783160626891949056,1.078890085220337,-5.00644588470459,-0.48683738708496094,0.8391448259353638,0.8701850175857544,-0.45106959342956543,0.19827800989151,0.37975388765335083,-0.7385513186454773,0.08884665369987488,-0.418940293407999,0.27954164356547356,-0.7218001608796449,-0.47471041706269457,0.46796341684318077,1.79482871882463,1.114800922343633
1783160626901868800,1.0888099670410156,-5.1021552085876465,-0.8880389332771301,0.9686344861984253,0.8677121996879578,-0.46714550256729126,0.16985446214675903,0.43901991844177246,-0.5361045598983765,-0.07105375826358795,-0.4121284008494742,0.28569335949656305,-0.7094410020157201,-0.49519987252813735,0.4860595927983396,1.7641018046626111,1.1683432582977742
1783160626911788032,1.098729133605957,-4.460235595703125,-1.2931480407714844,1.2082188129425049,0.8648486137390137,-0.4823915958404541,0.13905084133148193,0.39842647314071655,-0.3317105770111084,-0.22042596340179443,-0.40657838592817236,0.2894708452291474,-0.6969447972634769,-0.5149452189632149,0.5033829464567808,1.7302125648990174,1.2187139515632286
1783160626921707776,1.1086490154266357,-3.6072747707366943,-1.319015622138977,1.125022292137146,0.8618723750114441,-0.49498677253723145,0.11029285192489624,0.25633764266967773,-0.14215928316116333,-0.18229900300502777,-0.40249215803340616,0.291275409882247,-0.6857879133688688,-0.5318400067203227,0.5178195942620176,1.6980734663953445,1.2613473001186029
1783160626931627008,1.1185681819915771,-2.7021398544311523,-1.4475557804107666,1.1322628259658813,0.8600934743881226,-0.5028502941131592,0.08591345697641373,0.12113833427429199,-0.1674531102180481,-0.024771444499492645,-0.4006266096070134,0.2920009862525836,-0.6765294904514417,-0.5445564702783645,0.5268931487652402,1.6703545898325256,1.2937890978009572
1783160626941547008,1.1284880638122559,-2.959120988845825,-1.3272148370742798,1.1140415668487549,0.8578132390975952,-0.5100902915000916,0.06296281516551971,0.1576743721961975,-0.42357969284057617,0.10468553751707077,-0.3991187757636087,0.2917968548233199,-0.6680838297196027,-0.5560780322028515,0.5352897441378716,1.6440641518726802,1.322636192106658
1783160626951467008,1.1384081840515137,-4.254315376281738,-1.1097302436828613,0.7812731266021729,0.8544184565544128,-0.5183829069137573,0.0353277362883091,0.1432315707206726,-0.6422615647315979,0.3977624177932739,-0.39562688515621175,0.2929678434930656,-0.6571405570068969,-0.5708024068658127,0.5449588626943783,1.6121199041830783,1.3626555170042816
1783160626961385984,1.148327112197876,-5.616394996643066,-1.147450566291809,0.7035319209098816,0.8511545658111572,-0.5249150395393372,0.0004395370197016746,0.21250510215759277,-0.7811762690544128,0.5074950456619263,-0.3899454561942203,0.29735146681220215,-0.64171790819579,-0.5896802586905584,0.5526153131988591,1.571312727715015,1.4201741071279843
1783160626971305728,1.1582469940185547,-6.151317596435547,-1.2293469905853271,0.9236392378807068,0.8468503355979919,-0.53028404712677,-0.04053875431418419,0.38830286264419556,-0.744160532951355,0.4653587341308594,-0.3824630143719245,0.30280075580057153,-0.6229304337078128,-0.6115484127677406,0.5589355734781742,1.5229628088696612,1.4897464768624822
1783160626981224960,1.168166160583496,-5.224820613861084,-1.2098405361175537,1.0959364175796509,0.8407366275787354,-0.5353441834449768,-0.08104570209980011,0.4780804514884949,-0.4876354932785034,0.3184267282485962,-0.3742373509778799,0.3068274837063348,-0.6044286911134058,-0.6328263498245595,0.5649152026772257,1.4746948241407085,1.5580384863954706
1783160626991144960,1.1780860424041748,-3.2118899822235107,-1.264312505722046,1.1455148458480835,0.8336201310157776,-0.5404781699180603,-0.11384595930576324,0.4689158797264099,-0.1236606240272522,0.07891857624053955,-0.36784893542110736,0.3074642715504703,-0.5903750861221341,-0.6493151373049673,0.5710053134494552,1.4350678343777998,1.6091828167663298
1783160627001064960,1.1880061626434326,-1.1038906574249268,-1.4420896768569946,1.3180334568023682,0.8253087997436523,-0.5479520559310913,-0.13643226027488708,0.45404893159866333,0.1658719778060913,-0.14358173310756683,-0.36455596076545027,0.30337617184904,-0.5828780051980076,-0.6597840520035085,0.579914049737026,1.4069673995899437,1.6362388007825641
1783160627010983936,1.197925090789795,0.4096597135066986,-1.5134029388427734,1.4155882596969604,0.8157151937484741,-0.5586769580841064,-0.14996220171451569,0.41655397415161133,0.18181544542312622,-0.13717769086360931,-0.3638491799788433,0.29514296613482854,-0.5812998639297599,-0.6652780062260435,0.5927897559200421,1.38898508696182,1.6424871479491412
1783160627020903936,1.2078449726104736,0.9878230094909668,-1.4799307584762573,1.5580943822860718,0.8051814436912537,-0.5716630220413208,-0.15774746239185333,0.38704878091812134,-0.1522444486618042,-0.0034464001655578613,-0.36447212302295867,0.2845105167530404,-0.5832495495295972,-0.6678576132430062,0.6085312687892304,1.3773313159427534,1.636609588104149
1783160627030822912,1.217764139175415,0.04980732873082161,-1.3491390943527222,1.6096547842025757,0.79388028383255,-0.585161566734314,-0.16534778475761414,0.3744087815284729,-0.5363135933876038,0.18620659410953522,-0.364117505883994,0.27419983015876825,-0.5849278231139516,-0.6708891692112321,0.6250792822131844,1.3654539866861526,1.6331806116398118
1783160627040742912,1.2276840209960938,-1.3615657091140747,-1.3821794986724854,1.6914490461349487,0.7820133566856384,-0.596811830997467,-0.17964006960391998,0.3788294196128845,-0.7415975332260132,0.40388327836990356,-0.3616849193161311,0.2661446793564511,-0.5825349528566051,-0.6774982823748041,0.639521819074072,1.3449987798914476,1.6452359868205408
1783160627050662144,1.2376031875610352,-2.8769690990448,-1.3639496564865112,1.671608328819275,0.7693796753883362,-0.6058030724525452,-0.20262663066387177,0.4266652464866638,-0.8408369421958923,0.5010733008384705,-0.3571614331423901,0.2604217535297456,-0.5752105639708471,-0.6882942904646506,0.6507748638722463,1.3132801967962464,1.6754815366957574
1783160627060581888,1.2475230693817139,-4.473593711853027,-1.2787240743637085,1.605592966079712,0.7565554976463318,-0.6102535724639893,-0.23497739434242249,0.4439755082130432,-0.7102877497673035,0.6426616907119751,-0.35049078098742636,0.25766040815233554,-0.5622476487281924,-0.7033100084800802,0.6563806724796911,1.2696539074682311,1.7254984386065972
1783160627070502144,1.2574431896209717,-5.018123149871826,-1.2558858394622803,1.5153045654296875,0.7440573573112488,-0.6095332503318787,-0.27358371019363403,0.4600899815559387,-0.5542088150978088,0.595666229724884,-0.3423047857159229,0.25730917789518865,-0.5449771878704226,-0.7208463017861093,0.655471698246731,1.218448281719295,1.7890529235281594
1783160627080420864,1.267362117767334,-4.334376335144043,-1.324311375617981,1.7636630535125732,0.7306095957756042,-0.6077386736869812,-0.31122878193855286,0.5002711415290833,-0.3872564435005188,0.34385210275650024,-0.3338283762788277,0.25630636219403635,-0.5279134956774036,-0.7376808506263808,0.6532099587749958,1.1680916148744545,1.8511470955052591
1783160627090340864,1.2772819995880127,-3.402770757675171,-1.4326317310333252,2.084423303604126,0.7144072651863098,-0.6090280413627625,-0.344539076089859,0.5403382182121277,-0.18688565492630005,0.2553972005844116,-0.3253432430473518,0.2525227203498601,-0.5137730428734745,-0.7526096958473071,0.6548345503615199,1.1214309255127057,1.9052827858015648
1783160627100260096,1.287201166152954,-2.3294930458068848,-1.4017372131347656,2.262030839920044,0.6962748169898987,-0.6140630841255188,-0.37165567278862,0.4689931273460388,-0.1562616229057312,0.3435336947441101,-0.3172046516560168,0.24631497413218084,-0.5034889311585593,-0.7649895907366661,0.6611983157067483,1.0804934681673701,1.9494442190857688
1783160627110179840,1.2971210479736328,-1.7172433137893677,-1.2456920146942139,2.483995199203491,0.6767774820327759,-0.622746467590332,-0.3926311731338501,0.3949540853500366,-0.34368419647216797,0.3626476526260376,-0.30905526736682587,0.23848099285404287,-0.49680099961982366,-0.7751132427134866,0.6722480076684247,1.0451017259937383,1.9856315430659481
1783160627120100096,1.3070411682128906,-1.7821308374404907,-1.0612424612045288,2.5994162559509277,0.6562801003456116,-0.6328875422477722,-0.4107918441295624,0.3898472785949707,-0.4763959050178528,0.46116113662719727,-0.3000156380805682,0.2303338337012371,-0.49147776988837766,-0.7844658202521737,0.6852770236179447,1.0115214463982813,2.020955820661439
1783160627130019072,1.316960096359253,-2.203666925430298,-1.017824649810791,2.48380708694458,0.6359953880310059,-0.6409760117530823,-0.4297201335430145,0.4603942632675171,-0.48342883586883545,0.5355246067047119,-0.2902551200092343,0.22312358436758672,-0.4851348187718136,-0.7941107640150707,0.6957692009420247,0.9765896193787478,2.0601440385200123
1783160627139938816,1.3268799781799316,-2.522535562515259,-1.008139967918396,2.4086508750915527,0.61592698097229,-0.645911455154419,-0.45103469491004944,0.5676361918449402,-0.4282462000846863,0.47328200936317444,-0.28040452445100605,0.216583789383901,-0.47704728828686604,-0.8042951115906039,0.7022166033813932,0.938728929760168,2.1033304997725044
1783160627149858048,1.336799144744873,-3.0802688598632812,-1.165053367614746,2.4060633182525635,0.5957006812095642,-0.6475371718406677,-0.47522222995758057,0.6313347816467285,-0.32476806640625,0.37295785546302795,-0.2703070132020802,0.21053046511149048,-0.4669751704479409,-0.8151963641682674,0.7043481032620947,0.8974267700177071,2.150990427695825
1783160627159777792,1.3467190265655518,-3.3392155170440674,-1.1824458837509155,2.392751693725586,0.5746037364006042,-0.6458423733711243,-0.5027107000350952,0.601299524307251,-0.14155691862106323,0.3880409002304077,-0.2598816744523634,0.20450760223410822,-0.4547760760598943,-0.8269321536734725,0.7021261037441555,0.8520329306849076,2.2032065661673736
1783160627169696768,1.356637954711914,-3.349916934967041,-1.2192320823669434,2.4660532474517822,0.5531247854232788,-0.6422173380851746,-0.5306692719459534,0.5071474313735962,-0.02518683671951294,0.31848055124282837,-0.24919245166495962,0.19848227184273273,-0.44189383681914995,-0.8385927390854677,0.6973875225523055,0.8061145893083485,2.2563149533751377
1783160627179617024,1.3665580749511719,-3.1076767444610596,-1.2780183553695679,2.588542938232422,0.5304630398750305,-0.6384062170982361,-0.5577155351638794,0.468758761882782,0.019158780574798584,0.3880988359451294,-0.2381319786991681,0.19179348712388566,-0.4293687176880211,-0.8497947044227827,0.6924258049024863,0.7603592526826064,2.308814039006036
1783160627189536768,1.3764779567718506,-2.9858500957489014,-1.2494513988494873,2.6149723529815674,0.5069445967674255,-0.6347079277038574,-0.5832263827323914,0.4437541961669922,-0.04340791702270508,0.34387707710266113,-0.2268914059081319,0.18450918692275883,-0.41754420610978965,-0.8603101110373031,0.6876304707838425,0.7155397299848217,2.3597438200104914
1783160627199456000,1.386397123336792,-3.0919008255004883,-1.0884326696395874,2.6424312591552734,0.48349371552467346,-0.6299129128456116,-0.607818603515625,0.41224291920661926,-0.16371196508407593,0.3151550889015198,-0.21523478903882756,0.17741441497299146,-0.40572750714944306,-0.8703925420594744,0.6814410402026911,0.6719648075814859,2.4103709794473827
1783160627209375744,1.3963170051574707,-3.433382987976074,-1.1315662860870361,2.6334261894226074,0.460439532995224,-0.6223602890968323,-0.6329796314239502,0.3924657702445984,-0.2617644667625427,0.3695061206817627,-0.2031521327637507,0.1708332188771089,-0.39284372501428855,-0.8804653067195771,0.671754538951917,0.6288899981085551,2.4619500881505374
1783160627219294976,1.406236171722412,-4.105626106262207,-1.2837055921554565,2.7130353450775146,0.43636664748191833,-0.6103566288948059,-0.6610967516899109,0.44502678513526917,-0.3550059199333191,0.4605657458305359,-0.19062732432323998,0.16406779388544526,-0.37753594229735626,-0.891184373237461,0.656510762928021,0.5834180929912096,2.5163124447668985
1783160627229214976,1.4161560535430908,-5.155712604522705,-1.1700751781463623,2.7171719074249268,0.41175854206085205,-0.5908084511756897,-0.6938300728797913,0.42135605216026306,-0.3738064169883728,0.506940484046936,-0.17707050291124796,0.15777137302965372,-0.3580407006158651,-0.9030841806104872,0.6320605321708564,0.5355948211693544,2.5753939406156303
1783160627239134976,1.4260761737823486,-5.5424909591674805,-1.0596654415130615,2.59167218208313,0.3889201879501343,-0.563255250453949,-0.7290298938751221,0.3456989526748657,-0.2997666001319885,0.6515457630157471,-0.16283158248047308,0.15286668482387494,-0.33483851939216275,-0.9154238299371036,0.5983201910690409,0.49006864553296603,2.635583820305039
1783160627249053952,1.435995101928711,-5.301669120788574,-0.9683634638786316,2.562246561050415,0.3674263060092926,-0.5328604578971863,-0.7622713446617126,0.3933921456336975,-0.18572163581848145,0.5976901054382324,-0.14866315712452396,0.14829111946760348,-0.31124599925978474,-0.9268413327372055,0.5619773302194233,0.4491564530954275,2.691835129101435
1783160627258973952,1.4459149837493896,-4.800374507904053,-0.905099093914032,2.491750478744507,0.347327321767807,-0.5028750896453857,-0.7915051579475403,0.4398278295993805,-0.020684480667114258,0.5724499821662903,-0.13464882157221522,0.14382871380883247,-0.28906873653215254,-0.9368149583816741,0.5269218480006301,0.41351680898693377,2.7430523441735386
1783160627268892928,1.455834150314331,-3.7413790225982666,-0.9609887599945068,2.5701472759246826,0.32787632942199707,-0.47717541456222534,-0.8153531551361084,0.44756007194519043,0.08818310499191284,0.5537259578704834,-0.12121530222696907,0.13881318253257205,-0.2702856357146816,-0.9449780388147038,0.4974377895597406,0.3823395085919775,2.788212595577983
1783160627278812928,1.4657540321350098,-2.6635994911193848,-0.9970108270645142,2.853555679321289,0.3074721395969391,-0.4599970579147339,-0.8329847455024719,0.4844132661819458,0.12119093537330627,0.4744947552680969,-0.10757179437346841,0.13257463296044936,-0.2567714648680882,-0.9512732478722559,0.47799189684647386,0.35360651030206464,2.829374204960942
1783160627288731904,1.475672960281372,-1.9937070608139038,-0.8934956789016724,2.9875452518463135,0.2865031361579895,-0.4496636688709259,-0.8460015058517456,0.451579749584198,0.1697869896888733,0.4379051923751831,-0.09340697951856844,0.12564788813467132,-0.24741027937086713,-0.956177853582722,0.46638876904762894,0.3265329178760853,2.8686217057519867
1783160627298651904,1.4855930805206299,-1.4010347127914429,-0.6951760053634644,2.9923596382141113,0.26672080159187317,-0.4437119960784912,-0.8555580973625183,0.39161965250968933,0.1701524257659912,0.3832070231437683,-0.07908796991984007,0.1190742267261228,-0.24091964123482731,-0.9599604760973762,0.45973650843133407,0.302202037263775,2.9059609203545858
1783160627308571904,1.4955129623413086,-0.7702032327651978,-0.6961089372634888,3.049084424972534,0.2479364275932312,-0.44251590967178345,-0.8618046045303345,0.3548772931098938,0.10169559717178345,0.338901162147522,-0.06494971852146275,0.11275795739731956,-0.2374517642316498,-0.9626441695948156,0.45840229969756296,0.2801294489559061,2.941095105124739
1783160627318490880,1.50543212890625,-0.5598414540290833,-0.6389206647872925,3.1647391319274902,0.22858650982379913,-0.44463834166526794,-0.8660513758659363,0.3722130358219147,0.07992279529571533,0.3099905252456665,-0.05052751737625234,0.10612268913517257,-0.23603452780032633,-0.9646101164947394,0.4607704677471094,0.2580560204824372,2.9760794145416725
1783160627328410880,1.5153520107269287,-0.5180982947349548,-0.5242481231689453,3.1572976112365723,0.20968692004680634,-0.4472607374191284,-0.8694764375686646,0.37202388048171997,0.06695067882537842,0.29342663288116455,-0.035773813565169295,0.09980878578620109,-0.23515952284478836,-0.9661565195448703,0.4637003081929632,0.23664585459775847,3.011454030329312
1783160627338330112,1.5252711772918701,-0.842965304851532,-0.49015936255455017,3.0101430416107178,0.19185994565486908,-0.4480215907096863,-0.8731932044029236,0.3675882816314697,0.04369422793388367,0.26482534408569336,-0.021233608280765672,0.09402140564855334,-0.2335880343522409,-0.9675462008678414,0.46455119310624243,0.21628532304331677,3.0463577076195727
1783160627348249856,1.5351910591125488,-1.3049818277359009,-0.4835464656352997,2.86960506439209,0.17475765943527222,-0.44428882002830505,-0.8786735534667969,0.3708966374397278,0.053068727254867554,0.2640037536621094,-0.007196782760218541,0.08845172929844743,-0.2298684634231668,-0.9691671809230441,0.46038025755966566,0.19632612882727393,3.0805934619523745
1783160627358170112,1.5451111793518066,-1.6984652280807495,-0.46430036425590515,2.770909070968628,0.1583227515220642,-0.43602079153060913,-0.8859005570411682,0.3290887475013733,0.08841031789779663,0.2949123978614807,0.00644691414598881,0.08300962440327843,-0.22396233833062637,-0.971034857908828,0.4511722527472109,0.17684692583069894,3.114185399310978
1783160627368089088,1.555030107498169,-1.754776120185852,-0.4416309893131256,2.794718027114868,0.1426381766796112,-0.4249623119831085,-0.8939023613929749,0.2184000462293625,0.14505508542060852,0.28887611627578735,0.020038069679009746,0.07777022522555589,-0.21679625349906323,-0.9729079198947365,0.43892025341904395,0.15823398268007982,-3.135770990007268
1783160627378008832,1.5649499893188477,-1.2899320125579834,-0.47777059674263,2.9551568031311035,0.1266743391752243,-0.41530534625053406,-0.9008191227912903,0.0760691910982132,0.19153520464897156,0.24676638841629028,0.033993503362857426,0.07235621301533093,-0.2106063141812915,-0.974296653520958,0.42827842923071546,0.13970522873533564,-3.1022697030811086
1783160627387928064,1.574869155883789,-0.7496001720428467,-0.47080084681510925,2.9906489849090576,0.11031544208526611,-0.41020649671554565,-0.9052962064743042,-0.10686694830656052,0.23756855726242065,0.1497877836227417,0.04828558468601328,0.06683851020154584,-0.20708578913134434,-0.9748419040538804,0.4226804593304152,0.12125781952760308,-3.068655718757399
1783160627397847808,1.5847890377044678,-0.5449331998825073,-0.4356464445590973,2.8757739067077637,0.09445873647928238,-0.4078734815120697,-0.908139169216156,-0.33566969633102417,0.3174346387386322,0.116543710231781,0.062203544713597514,0.06155099951315492,-0.20528490052375964,-0.9747821433513448,0.4201238011126238,0.10364081565287898,-3.0362557909665044
1783160627407768064,1.5947091579437256,-0.48463523387908936,-0.29726460576057434,2.8021204471588135,0.07976626604795456,-0.40607601404190063,-0.9103513360023499,-0.5048608779907227,0.33118587732315063,0.10020124912261963,0.07569506048605286,0.05677584874249771,-0.20396279219919836,-0.9743951269884074,0.4181559775391021,0.08739819780833594,-3.0050910717369
1783160627417687040,1.604628086090088,-0.45184794068336487,-0.1583651453256607,2.6966285705566406,0.06671789288520813,-0.4042281210422516,-0.9122216701507568,-0.600210964679718,0.2827834188938141,0.09778380393981934,0.08890635111718505,0.052768775394446535,-0.2027427669057928,-0.9737589415635665,0.4161347761824522,0.07300781941682205,-2.9749132602311574
1783160627427606784,1.6145479679107666,-0.4365238547325134,-0.07671155780553818,2.5503790378570557,0.055276695638895035,-0.4021846354007721,-0.9138883948326111,-0.6664064526557922,0.2652217447757721,0.17052596807479858,0.10155805337271542,0.04944201370670389,-0.20152241322202163,-0.972949267166062,0.41390172479488996,0.06041156881965777,-2.9462701552075115
1783160627437526016,1.624467134475708,-0.2807775139808655,0.024958308786153793,2.4027416706085205,0.045275770127773285,-0.40039339661598206,-0.9152241349220276,-0.7275877594947815,0.35890474915504456,0.2453938126564026,0.11359878448321448,0.046725847588676254,-0.20051091458250112,-0.971960556784075,0.4119461201606496,0.04942930161741638,-2.9192260886954498
1783160627447445760,1.6343870162963867,0.007064392790198326,0.061973851174116135,2.061094284057617,0.03674016892910004,-0.4005236327648163,-0.9155495762825012,-0.8317993879318237,0.5541796684265137,0.2573617100715637,0.12450556678570524,0.04465109148980676,-0.200577916175672,-0.9707075637659824,0.4120882331861818,0.04010756974739607,-2.8948442470612474
1783160627457366016,1.6443071365356445,0.22483141720294952,0.12411803007125854,1.698235034942627,0.029971513897180557,-0.40250054001808167,-0.9149289727210999,-1.0052675008773804,0.8671153783798218,0.23444801568984985,0.13356429739713568,0.04324566528681419,-0.2016564767647859,-0.9693425290113252,0.4142468018407661,0.03274658615786927,-2.874621792316341
1783160627467284992,1.6542260646820068,0.8860516548156738,0.2989015579223633,1.2254093885421753,0.02587856538593769,-0.4080776274204254,-0.9125803709030151,-1.2241512537002563,1.210201621055603,0.08599650859832764,0.14076885211635215,0.04312902090469078,-0.2045719814916421,-0.9677160391474448,0.4203473838820619,0.028349975060615287,-2.858737063782328
1783160627477204992,1.6641461849212646,2.2252795696258545,0.5064828991889954,0.6050091981887817,0.02595982328057289,-0.4226219356060028,-0.90593421459198,-1.42845618724823,1.3395226001739502,-0.05720055103302002,0.14525462371892836,0.045357107883521985,-0.21207457909608848,-0.9653332586174849,0.4363363806647401,0.028647467857375986,-2.8492431210830853
1783160627487123968,1.674065113067627,3.2004427909851074,0.7019283175468445,0.07289201766252518,0.029758907854557037,-0.4479476511478424,-0.8935644030570984,-1.4293713569641113,1.1141005754470825,-0.03006535768508911,0.1468442309927027,0.04985471659319579,-0.22523835139381082,-0.9618830428269485,0.46446848285470616,0.03329129233249897,-2.8464795621140047
1783160627497043968,1.6839849948883057,3.3664608001708984,0.703434944152832,-0.09571364521980286,0.03620770573616028,-0.477694571018219,-0.8777795433998108,-1.319929599761963,0.808779776096344,0.10690551996231079,0.14667063115003598,0.05578047777939509,-0.24082934400030784,-0.9577982702477191,0.4980286365859134,0.04122583222828371,-2.8481720625939064
1783160627506962944,1.693904161453247,3.592062473297119,0.7279613614082336,-0.1327182650566101,0.04213549569249153,-0.507820725440979,-0.8604317307472229,-1.23171067237854,0.618843674659729,0.12538528442382812,0.1458183827838328,0.06139497669895734,-0.2569334655046952,-0.953390216938693,0.532653174883552,0.0489310915914025,-2.851401777224178
1783160627516882944,1.7038240432739258,4.020999908447266,0.6769198775291443,-0.370988130569458,0.049488890916109085,-0.5407868027687073,-0.8397026062011719,-1.25261390209198,0.6489716172218323,-0.008518218994140625,0.1445513088331158,0.06799658947136707,-0.2748184241516406,-0.948132973953492,0.5713722175241328,0.058868117448281645,-2.856300248695895
1783160627526802944,1.7137441635131836,3.6002190113067627,0.04658188298344612,-0.8881345987319946,0.05589533597230911,-0.5725853443145752,-0.8179374933242798,-1.247652530670166,0.9132378101348877,-0.11501538753509521,0.14067861265229353,0.07330159155101101,-0.29267408814325196,-0.9429625171920111,0.6096558229685012,0.06823084933234562,-2.866876641557646
1783160627536721920,1.723663091659546,4.6731133460998535,0.20266465842723846,-1.2901475429534912,0.0627468079328537,-0.6047634482383728,-0.7939295172691345,-1.1331202983856201,1.31351900100708,-0.288422167301178,0.13449068177779713,0.07812971205384152,-0.31133743339713893,-0.9374844389357664,0.6494687924160587,0.07886928802567235,-2.883182523417725
1783160627546641920,1.7335829734802246,5.418919086456299,-0.770780622959137,-0.6480442881584167,0.0660170391201973,-0.645285964012146,-0.7610832452774048,-1.1469649076461792,1.290809154510498,-0.9848731160163879,0.12721796380510014,0.08146608499592517,-0.3358893433052161,-0.9297080781903652,0.7013975600000694,0.0865243203579142,-2.901278365445233
1783160627556560896,1.743502140045166,3.951192617416382,-1.3418338298797607,-1.0964646339416504,0.06118815764784813,-0.6811654567718506,-0.7295681238174438,-0.8440555930137634,0.8122384548187256,-0.6130679845809937,0.11994715304210982,0.07986369515183588,-0.35893970881374,-0.9221696489808062,0.7493533300039993,0.08367319128464244,-2.915824816974165
1783160627566480896,1.7534220218658447,3.6550018787384033,-0.5570078492164612,-2.231276035308838,0.06707671284675598,-0.7069578170776367,-0.7040677666664124,-0.9609365463256836,0.2599058151245117,-0.14027726650238037,0.10933534705835657,0.08143760061519756,-0.3759441701151346,-0.9165587100859189,0.7851875281700469,0.09498356739296587,-2.943493097316547
1783160627576400896,1.7633421421051025,0.8863235712051392,-0.3516993522644043,-2.3628313541412354,0.07694810628890991,-0.7223519086837769,-0.687231183052063,-0.4454020857810974,-0.18298256397247314,-0.005823016166687012,0.09679327446598032,0.08309529629800959,-0.3866258880727844,-0.9133710678353018,0.8071973826671973,0.1115038762598258,-2.978090631643857
1783160627586319872,1.7732610702514648,-0.8169341087341309,-0.38213926553726196,-1.5509356260299683,0.08688604831695557,-0.7194004654884338,-0.6891398429870605,0.30421197414398193,0.12497913837432861,0.3198314309120178,0.08819229075044485,0.0846145203117753,-0.3850590272793045,-0.9147633548192965,0.8029388000810311,0.12541723241407804,-3.0026670499057966
1783160627596240128,1.7831811904907227,-1.4526708126068115,-0.16164954006671906,-1.1723077297210693,0.09446339309215546,-0.7119601368904114,-0.6958371996879578,0.5122413039207458,-0.3303830027580261,0.22893351316452026,0.08179409810740888,0.08542951636188836,-0.3805038767809372,-0.9171849826815631,0.7922856275074138,0.13493016500197655,-3.020210048313455
1783160627606158848,1.793100118637085,-1.683583378791809,-0.8324691653251648,-0.14437206089496613,0.09305137395858765,-0.7012748718261719,-0.7067921161651611,0.5745511651039124,-0.23180007934570312,0.25473523139953613,0.07879774394340207,0.08255599512559127,-0.3738829501070548,-0.920427643634234,0.7771842202035077,0.13090029144697427,-3.02444494263656
1783160627616078848,1.8030200004577637,-1.7603751420974731,-0.4646047353744507,0.14073923230171204,0.08689860254526138,-0.6892266869544983,-0.719315767288208,0.9858552813529968,0.012194216251373291,0.11541867256164551,0.0787370036566958,0.07825614273705964,-0.36635788303359146,-0.9238280871033047,0.7604212386881105,0.12022469948427116,-3.019642791601378
1783160627625998848,1.8129401206970215,-0.9794365167617798,-0.7358247637748718,-0.5428345799446106,0.08406751602888107,-0.6798551678657532,-0.7285118699073792,1.1955498456954956,-0.17555254697799683,0.22300350666046143,0.07764975591996218,0.07559749312241774,-0.3605954423097318,-0.9264051379577936,0.7475651583747369,0.11488805397428996,-3.019450386220762
1783160627635917824,1.8228590488433838,-0.7576496005058289,-1.0256708860397339,-0.6333892345428467,0.08113747090101242,-0.6737926006317139,-0.7344523668289185,1.1238949298858643,-0.28896069526672363,0.20835983753204346,0.07367596917304724,0.07204851735359591,-0.35718736952234587,-0.9283308595569779,0.739329482817414,0.11002727039419329,-3.025866516489529
1783160627645838080,1.8327791690826416,-0.485030859708786,-0.4559365510940552,0.00879848375916481,0.07679952681064606,-0.6696047782897949,-0.7387363314628601,0.7782419919967651,-0.19717073440551758,0.2143985629081726,0.07154543644284067,0.06861525692539731,-0.3548574057549467,-0.9296502583546097,0.7336765259590609,0.10358855369653641,-3.0278086402390154
1783160627655757056,1.842698097229004,-0.5102373957633972,-0.10175223648548126,0.06787445396184921,0.0740935280919075,-0.6668660640716553,-0.7414848208427429,0.3283722996711731,-0.13573092222213745,0.1838524341583252,0.07204774990343037,0.06717206605484087,-0.3531932769368742,-0.930350215105759,0.7299952222988523,0.09959527217131652,-3.025102255133705
1783160627665676800,1.8526179790496826,-0.7608187794685364,-0.07315254956483841,-0.17962615191936493,0.07365346699953079,-0.6627317070960999,-0.7452260255813599,-0.11711050570011139,-0.05578935146331787,0.28604334592819214,0.07196227665429884,0.06663302726013125,-0.3506380306153284,-0.9313616144151112,0.7244607703905639,0.09851379458687623,-3.02472555389841
1783160627675597056,1.8625380992889404,-0.8629590272903442,-0.009016057476401329,0.19838422536849976,0.0709858313202858,-0.6567533612251282,-0.7507569193840027,-0.3420429825782776,0.05923449993133545,0.27776503562927246,0.07254622468362161,0.06503504181771531,-0.3469754640853622,-0.9327997980302114,0.7165053846294167,0.09427207424104467,-3.021678845961683
1783160627685515776,1.8724570274353027,-1.0467253923416138,-0.02297368273139,-0.9504006505012512,0.0739956945180893,-0.6502336263656616,-0.7561222314834595,-0.5281888246536255,0.19692552089691162,0.04825174808502197,0.07098941341700239,0.06565491717656328,-0.3429698590388304,-0.9343561761360292,0.7078918987187579,0.09755145995606934,-3.026000993592653
1783160627695436032,1.8823771476745605,-1.4052646160125732,-0.01809363067150116,-0.5107746720314026,0.07724284380674362,-0.6419675350189209,-0.7628310322761536,-0.19076822698116302,0.1931912899017334,0.13764798641204834,0.06748295846282036,0.06560625788096906,-0.3380536786752351,-0.9364088882398873,0.6970616659136314,0.10091416322050956,-3.0344056535709627
1783160627705355008,1.8922960758209229,-2.2564518451690674,0.47186169028282166,-0.020658742636442184,0.0779636949300766,-0.6294982433319092,-0.773080587387085,0.1521540880203247,0.022015392780303955,0.22402364015579224,0.06822147501339867,0.0655131357943065,-0.33040541234654897,-0.9390878735837361,0.6809072753863157,0.10050826613386914,-3.0321854005886144
1783160627715274752,1.9022159576416016,-2.4226698875427246,0.32066452503204346,-0.3590124845504761,0.0801711454987526,-0.613472580909729,-0.7856360673904419,0.0956864058971405,-0.157218337059021,0.1863623857498169,0.06895357741188947,0.06600006575785304,-0.3206648821803977,-0.9423712080949114,0.6604503795379297,0.10169414019294176,-3.030397294337909
1783160627725193984,1.912135124206543,-1.539440393447876,0.705710768699646,-0.0729072317481041,0.0848371610045433,-0.5992718935012817,-0.7960376143455505,0.3270280957221985,-0.19276607036590576,-0.04812437295913696,0.06979747589183363,0.0679296788301326,-0.3120364486282107,-0.9450646470858219,0.6425912599051535,0.10617354690618347,-3.029517990864129
1783160627735113984,1.9220550060272217,-0.8143554925918579,0.1726372092962265,-0.09897364675998688,0.08687182515859604,-0.5919156670570374,-0.8013046979904175,0.45028334856033325,-0.12894004583358765,-0.35847008228302,0.0708183610161941,0.06891246220628808,-0.30756907689028307,-0.9463810772583868,0.6334335020324932,0.10799120760665071,-3.02763446688145
1783160627745034240,1.9319753646850586,-0.2783908545970917,0.318236768245697,0.1405569165945053,0.08827781677246094,-0.5882934331893921,-0.8038145899772644,0.36850929260253906,-0.07003176212310791,-0.2350037693977356,0.07151324250760134,0.06966853667156253,-0.305350622625823,-0.9469916409107287,0.6289468043085332,0.10938523981647547,-3.0264574727210305
1783160627754953472,1.94189453125,-0.4177003502845764,0.3802366256713867,0.14861240983009338,0.0899779200553894,-0.5859432816505432,-0.8053411841392517,0.2439759373664856,-0.2272586226463318,-0.04899841547012329,0.073061341807012,0.07092496618568175,-0.30380758571846567,-0.9472764572991639,0.6260436223494239,0.11126502505380502,-3.0236874826870834
1783160627764873216,1.9518144130706787,-0.7350186109542847,0.33401480317115784,-0.07098093628883362,0.09221381694078445,-0.5815554261207581,-0.8082634806632996,0.15523795783519745,-0.36928069591522217,0.10272765159606934,0.0739932469661951,0.0721396957679641,-0.3011048273024476,-0.9479750513673464,0.620639391756658,0.11359763187774274,-3.022264194871462
1783160627774792192,1.961733341217041,-1.1951451301574707,0.12944693863391876,0.2493278831243515,0.09348060190677643,-0.5739917159080505,-0.8135077357292175,0.21895834803581238,-0.33495908975601196,0.14711064100265503,0.0749922603614074,0.07266805842761254,-0.2965897413083038,-0.9492786440483064,0.6113722701321325,0.11440871662015835,-3.020062010867483
1783160627784712192,1.9716534614562988,-1.3715577125549316,0.25243011116981506,-0.030955720692873,0.09445255994796753,-0.5635533332824707,-0.8206621408462524,0.19877558946609497,-0.1802058219909668,0.11863577365875244,0.07663838923399494,0.07305969008885502,-0.29039834409125725,-0.9510297926069955,0.5986809309733858,0.11458892064213265,-3.016169668998425
1783160627794632192,1.9815733432769775,-1.399370551109314,0.1961929351091385,-0.1675286442041397,0.09666822850704193,-0.5522609949111938,-0.8280477523803711,0.06278612464666367,-0.027283072471618652,-0.024704933166503906,0.07688313645975486,0.07361924618369793,-0.28382446537947537,-0.952949598703042,0.5850738828784839,0.11621628221187585,-3.0156207757024527
1783160627804551424,1.991492509841919,-1.4069945812225342,-0.15155383944511414,-0.13353446125984192,0.0975417047739029,-0.5408873558044434,-0.8354199528694153,0.1426316499710083,0.07846975326538086,-0.10740536451339722,0.07672346274528202,0.07335693634766341,-0.2773243182196422,-0.9548945015028006,0.5714917213782009,0.11623142823591119,-3.015424255903228
1783160627814471168,2.0014123916625977,-1.5349762439727783,-0.41229575872421265,-0.20646043121814728,0.09605984389781952,-0.528780460357666,-0.8433052897453308,0.12525364756584167,0.08589410781860352,-0.1353171467781067,0.07604576455070568,0.07168742611477447,-0.2705702800674927,-0.9570108482250286,0.5571630423754862,0.11341987759867107,-3.015474599868655
1783160627824390400,2.011331558227539,-1.3859087228775024,0.06919443607330322,-0.339342325925827,0.09675358235836029,-0.5160855650901794,-0.8510549068450928,0.0584740936756134,0.029543817043304443,-0.11937355995178223,0.07510506452603251,0.07107173669731619,-0.26347931550122766,-0.9591072952070107,0.5422745508365902,0.11320062406998488,-3.01679597077519
1783160627834310400,2.0212514400482178,-1.5358887910842896,-0.4753793179988861,-0.24413436651229858,0.09666668623685837,-0.5039089918136597,-0.8583305478096008,0.10185017436742783,-0.025509953498840332,-0.08644789457321167,0.07364924118883752,0.06996616072730459,-0.25678680912649776,-0.9611145671189453,0.5281184064885062,0.1121491863527971,-3.0189851757811406
1783160627844230400,2.0311715602874756,-1.5634801387786865,-0.3135893642902374,-0.4489530324935913,0.09459580481052399,-0.490093469619751,-0.8665218353271484,0.1827632188796997,0.08546090126037598,0.09711265563964844,0.07198987251125534,0.0677261560026898,-0.24930353627067367,-0.9633683283273653,0.5121969653354655,0.10873666130604397,-3.0209140772474714
1783160627854149376,2.041090488433838,-1.1145920753479004,-0.11760101467370987,-0.5208708643913269,0.09530290216207504,-0.4780438542366028,-0.8731502890586853,0.06912580877542496,0.13466006517410278,0.1996425986289978,0.07042062079772049,0.06707991302458384,-0.24274501570438073,-0.9652025682982924,0.4984262426130823,0.10871796536773039,-3.0236265559819975
1783160627864069120,2.0510103702545166,-0.9511459469795227,0.04837410897016525,-0.3875479996204376,0.09766147285699844,-0.4690432548522949,-0.8777588605880737,0.07255031168460846,0.1671939194202423,0.1976136565208435,0.06829735367029584,0.06732968194045269,-0.23788078709717186,-0.9665479498915099,0.48820716153843063,0.11080656678421867,-3.028130089399968
1783160627873988352,2.060929536819458,-0.8256739377975464,0.14563719928264618,-0.3942042589187622,0.10049042850732803,-0.46119529008865356,-0.8815897703170776,0.15265285968780518,0.13442835211753845,0.2166575789451599,0.06691850943999737,0.0680810091069458,-0.23360241101399754,-0.9676345758493518,0.4793418491393026,0.1134978645664039,-3.0312621887518962
1783160627883908352,2.0708494186401367,-0.9416428804397583,0.20421954989433289,-0.44863635301589966,0.10406295210123062,-0.45331868529319763,-0.8852531313896179,0.10827834159135818,0.03698265552520752,0.24566572904586792,0.06542655055189076,0.06920187385186725,-0.22931321030340102,-0.9686825417221332,0.4704850492436191,0.1170146219675772,-3.034790209771102
1783160627893828352,2.0807695388793945,-1.2247397899627686,0.29198920726776123,-0.5611941814422607,0.10859867185354233,-0.4439516067504883,-0.8894454836845398,0.10268977284431458,-0.14587685465812683,0.22307896614074707,0.06368807232261589,0.07070966913005529,-0.2242262049356302,-0.9698796852944983,0.4600039062848447,0.12149569336534762,-3.0389298137671963
1783160627903747328,2.090688467025757,-1.698473334312439,0.40104883909225464,-0.5358230471611023,0.11454693228006363,-0.4307681620121002,-0.8951635360717773,0.11895830929279327,-0.1684444546699524,0.2572394013404846,0.061947926310334855,0.07279769306863292,-0.21706846400171062,-0.9714649759878843,0.44534377804675784,0.12727037289597495,-3.04308438532978
1783160627913667328,2.1006083488464355,-2.394556760787964,0.5575663447380066,-0.3072994351387024,0.11930269002914429,-0.41278761625289917,-0.9029802083969116,0.1694088578224182,-0.18309861421585083,0.18276536464691162,0.06128681891917022,0.07432634181888559,-0.20732942760771353,-0.9735162994087928,0.4255124664327755,0.1313602304255233,-3.044266574542732
1783160627923586304,2.110527515411377,-2.704618453979492,0.7349017262458801,-0.4522928297519684,0.12638206779956818,-0.38977816700935364,-0.9121955037117004,0.16930276155471802,-0.06414029002189636,0.31411200761795044,0.0609798827278067,0.07692977048077367,-0.19489502151729968,-0.9758992644093304,0.40039068037564046,0.13767071235160538,-3.0447608709635476
1783160627933506304,2.1204473972320557,-2.4925765991210938,0.29751941561698914,-0.28118184208869934,0.1333925724029541,-0.36688098311424255,-0.9206545352935791,0.2042233943939209,-0.0038160383701324463,0.1378786563873291,0.060461877126870664,0.0794797035847602,-0.18263548001579258,-0.9780958508068035,0.3756539912653823,0.14388755303102269,-3.045511860060039
1783160627943426304,2.1303675174713135,-2.6347758769989014,0.29405677318573,-0.11778705567121506,0.13638637959957123,-0.3445090353488922,-0.9288230538368225,0.25733616948127747,-0.020908445119857788,0.03900676965713501,0.061090430655289366,0.08021694458132358,-0.17074456926579057,-0.9801426472503888,0.351715763786277,0.14579595076648633,-3.0430490195899864
1783160627953345280,2.140286445617676,-2.740473508834839,0.21373404562473297,0.015685318037867546,0.13940946757793427,-0.3204350769519806,-0.9369559288024902,0.07679231464862823,-0.03895518183708191,-0.013453006744384766,0.061741520488337635,0.08090453082631617,-0.15803957260727688,-0.9821740986205877,0.32618875766225125,0.14770614865951173,-3.040382701693976
1783160627963265536,2.1502065658569336,-2.6845853328704834,0.19120237231254578,0.0280985776335001,0.14156748354434967,-0.29581505060195923,-0.944696843624115,0.16633962094783783,0.009865343570709229,-0.08821636438369751,0.0633972659441421,0.08127823494615169,-0.14507042849613838,-0.9840372497932374,0.3003086390419235,0.14874807292509767,-3.0354643203725846
1783160627973184256,2.160125494003296,-1.9737465381622314,0.29256778955459595,-0.14608880877494812,0.14471526443958282,-0.27396610379219055,-0.950789213180542,0.18107514083385468,0.15717533230781555,-0.12120175361633301,0.0640847406926062,0.08211016656511233,-0.1336537567581701,-0.9855393603967523,0.2775144992261121,0.15104613843455791,-3.032859114012237
1783160627983104256,2.1700453758239746,-1.1634302139282227,0.11089494079351425,0.0863439068198204,0.14727258682250977,-0.25982123613357544,-0.9543603658676147,0.21733619272708893,0.27445441484451294,-0.22850096225738525,0.06449296911405118,0.08290639908897945,-0.1262788150427715,-0.9864182774333011,0.2628370622119718,0.15310777401344627,-3.0312933745724133
1783160627993023488,2.179964542388916,-0.43008071184158325,0.2352849841117859,0.2647269666194916,0.14797694981098175,-0.25296059250831604,-0.9560929536819458,0.21638768911361694,0.30958595871925354,-0.2390822172164917,0.06616716721090694,0.08320330075375354,-0.122599858989724,-0.9867464052578541,0.2557391559178348,0.1535541767216068,-3.0274621978341414
1783160628002943232,2.1898844242095947,0.24558907747268677,0.32495948672294617,0.1252811849117279,0.1512957066297531,-0.25254783034324646,-0.9556825757026672,0.013407677412033081,0.29406699538230896,-0.23973673582077026,0.06670675077023608,0.08494010644162947,-0.12224517653546332,-0.9866061377088761,0.25531255051682844,0.15700863911045063,-3.026767020989803
1783160628012863488,2.1998045444488525,0.4972649812698364,0.28953826427459717,0.5952935814857483,0.1533057689666748,-0.25715523958206177,-0.9541323184967041,0.1240227222442627,0.15148812532424927,-0.1960446834564209,0.06892091512582371,0.08642822601121111,-0.12435428955501317,-0.9860609313519642,0.260077284417895,0.15931391288969374,-3.022907213720421
1783160628022782208,2.209723472595215,0.18842406570911407,0.1661798357963562,0.2736915647983551,0.15486641228199005,-0.260614812374115,-0.9529408812522888,0.06756095588207245,0.08408588171005249,-0.10977274179458618,0.07087081284427811,0.08761631881272045,-0.12590846278044687,-0.9856205239108425,0.26365896433323255,0.1611057281881788,-3.0194380945766044
1783160628032702208,2.2196433544158936,0.22916211187839508,0.18725907802581787,0.2438323050737381,0.15553900599479675,-0.26322051882743835,-0.9521148204803467,0.13227227330207825,-0.021294862031936646,-0.06506657600402832,0.07214396416567892,0.08823519298405684,-0.12711078222360025,-0.9853186268055779,0.26635892680912454,0.1619312336867018,-3.0171566781129067
1783160628042621440,2.229562520980835,0.31287938356399536,0.05045700818300247,0.18116812407970428,0.15649667382240295,-0.2660234570503235,-0.9511783719062805,0.11861929297447205,-0.052580058574676514,-0.08735007047653198,0.07300577775536132,0.08895813752948628,-0.12844165344120376,-0.9850174875996268,0.26926549015319695,0.1630683216496269,-3.0157668700539855
1783160628052541184,2.2394824028015137,0.2796732187271118,0.08449053764343262,0.3430691659450531,0.15649408102035522,-0.2692406475543976,-0.9502731561660767,0.09260565042495728,-0.02150028944015503,-0.04632413387298584,0.07433379791673689,0.08927547883857725,-0.1299742679063002,-0.984688335850511,0.2726044911393797,0.16321825993789887,-3.0133338417527797
1783160628062461440,2.2494025230407715,0.3807702660560608,0.04027486965060234,0.11712229251861572,0.15667392313480377,-0.2726002335548401,-0.9492852091789246,0.07330654561519623,0.006166517734527588,0.03801506757736206,0.07533055462728819,0.08965282463449188,-0.13160459440273423,-0.984361685372021,0.27609458962193073,0.1635695444591391,-3.011610460285512
1783160628072380416,2.259321451187134,0.422242671251297,0.21872073411941528,0.2356034219264984,0.1570836901664734,-0.2769475281238556,-0.94795823097229,0.05479985475540161,-0.09883067011833191,0.02475571632385254,0.07620441425253524,0.0901807190880691,-0.13374726719974503,-0.9839572706469295,0.28061592037172334,0.16421518512739822,-3.010251782357234
1783160628082300160,2.2692413330078125,-0.0044564418494701385,0.08893504738807678,0.3144409954547882,0.15769988298416138,-0.27921220660209656,-0.9471912980079651,0.05570954084396362,-0.14109113812446594,0.1376209855079651,0.07747847819908642,0.090775085703219,-0.13477480321508017,-0.9836629516919434,0.2829735744752707,0.1649788446339771,-3.007938385452935
1783160628092219392,2.279160499572754,-0.123841293156147,0.05415903031826019,0.22587017714977264,0.1577862799167633,-0.2792581021785736,-0.9471633434295654,0.1048327386379242,-0.2735830843448639,0.01701807975769043,0.07888709391053567,0.09101423772613727,-0.13466528133920747,-0.9835437970282868,0.2830213854899251,0.16507236791942403,-3.005090465951758
1783160628102139136,2.2890803813934326,-0.4264453649520874,-0.004915473982691765,0.14578360319137573,0.15782608091831207,-0.2768043577671051,-0.9478766918182373,0.13354048132896423,-0.2783408761024475,-0.01248091459274292,0.07982846922889025,0.09104393590085533,-0.1333140703344396,-0.9836492595022496,0.2804669353749109,0.16499124310720095,-3.002978840342445
1783160628112059392,2.2990005016326904,-0.628273069858551,-0.04352666810154915,0.18885460495948792,0.15743179619312286,-0.27214184403419495,-0.9492913484573364,0.13376693427562714,-0.20291003584861755,-0.08478152751922607,0.08095445277510921,0.09076675674576806,-0.1308270700028116,-0.9839167632318946,0.27561818387014453,0.1643456010392142,-3.0002502400853777
1783160628121978368,2.3089194297790527,-0.6071030497550964,-0.17459680140018463,0.20287135243415833,0.15613162517547607,-0.2664248049259186,-0.9511260390281677,0.12075436115264893,-0.05545935034751892,-0.14353948831558228,0.0819875949274874,0.08996008190408551,-0.12784429392112953,-0.9842972333410772,0.2696818413218234,0.16270342354806652,-2.9975061437440136
1783160628131898368,2.3188395500183105,-0.3919348418712616,-0.06406306475400925,0.19368864595890045,0.15421414375305176,-0.2618412971496582,-0.9527104496955872,0.13570284843444824,0.02418568730354309,-0.20866650342941284,0.0831432741425935,0.08890718278531631,-0.12546035986787213,-0.9846027299401342,0.26492956809175244,0.16047692987701342,-2.9945333828625764
1783160628141817344,2.328758478164673,-0.11764790862798691,-0.10511888563632965,0.13674573600292206,0.15352478623390198,-0.25990235805511475,-0.9533524513244629,0.04535827040672302,0.09706056118011475,-0.2396254539489746,0.0836186063743552,0.08852086010093042,-0.1244501100614719,-0.9847254195093516,0.2629210821445544,0.1596659820460278,-2.9933234884163946
1783160628151737088,2.3386783599853516,0.1746855527162552,-0.2212817221879959,0.2695987820625305,0.151851087808609,-0.26067042350769043,-0.953410804271698,0.08090648055076599,0.13522791862487793,-0.189655601978302,0.08459172514599064,0.08783191279360748,-0.12482045805161712,-0.9846571609428225,0.26371656755947714,0.15794478088905645,-2.9911846124625487
1783160628161657344,2.3485984802246094,0.02992250584065914,-0.17201350629329681,0.33073219656944275,0.14807148277759552,-0.26255860924720764,-0.9534871578216553,0.14843730628490448,0.09332337975502014,-0.18397927284240723,0.08615332705878462,0.08620622897468104,-0.12579703818522125,-0.9845411105060974,0.2656728986282708,0.15406405283900546,-2.9876518092728515
1783160628171576320,2.3585174083709717,0.1541956514120102,-0.04845945164561272,-0.11287658661603928,0.14725270867347717,-0.26323986053466797,-0.9534261226654053,0.03492195904254913,0.06733229756355286,-0.03201693296432495,0.08634102659700321,0.08584919082938401,-0.12616198747391122,-0.9845091169915094,0.26637898657796677,0.15323510657666847,-2.9872115102844803
1783160628181496320,2.3684375286102295,0.17005877196788788,-0.1073928102850914,0.21512578427791595,0.14654640853405,-0.2649829089641571,-0.9530520439147949,0.10401815176010132,-0.0669262707233429,-0.08402681350708008,0.08649841338019792,0.08559984626681225,-0.1270694482913076,-0.9844002896528868,0.26818619371912045,0.1525704273391075,-2.986925993381575
1783160628191415296,2.378356456756592,0.17732180655002594,-0.22150838375091553,-0.0469735711812973,0.14509236812591553,-0.26701879501342773,-0.9527062177658081,0.20549356937408447,-0.06469202041625977,-0.027976155281066895,0.08680021208463466,0.08500493733016654,-0.1281446240986185,-0.9842859333394198,0.27029817274762036,0.1511336579454809,-2.9862651140897922
1783160628201335296,2.3882763385772705,0.0640873983502388,-0.3878081738948822,0.339908629655838,0.1420954018831253,-0.2680014371871948,-0.9528819918632507,0.1540319174528122,-0.06019982695579529,-0.027479887008666992,0.08730301070399618,0.08359944710369481,-0.1287249969973981,-0.9842861451362294,0.27131797334019064,0.14803087374348042,-2.9849042168058393
1783160628211255296,2.3981964588165283,0.025272291153669357,-0.28954169154167175,0.2716962695121765,0.13793988525867462,-0.2690185010433197,-0.9532060027122498,0.10945087671279907,-0.1426636278629303,-0.07160478830337524,0.08872497451466016,0.08172961422424925,-0.12929530843031925,-0.9842413224000314,0.27237380434940583,0.14371386443196557,-2.981514739249174
1783160628221174272,2.4081153869628906,-0.011690519750118256,-0.20295512676239014,0.18887726962566376,0.13491936028003693,-0.26925355195999146,-0.9535718560218811,0.017180263996124268,-0.11084288358688354,-0.057902753353118896,0.08960176183618998,0.08032496849705205,-0.12946800964222333,-0.984254864927979,0.2726178776246463,0.1405554309813322,-2.9793326190064295
1783160628231094272,2.4180355072021484,-0.07116063684225082,-0.3558919429779053,0.22606611251831055,0.13190191984176636,-0.2695963382720947,-0.9538971185684204,0.08350640535354614,-0.08486533164978027,-0.08397519588470459,0.09036595603014083,0.07891362121153966,-0.12970768399897936,-0.9842675794355312,0.2729738322312397,0.13740555050258693,-2.977385860084704
1783160628241013248,2.4279544353485107,-0.027040846645832062,-0.347052663564682,0.2682580351829529,0.12786032259464264,-0.2694857120513916,-0.9544785022735596,0.11507485806941986,-0.0787808895111084,-0.05524134635925293,0.09144784344777362,0.07700199811491468,-0.12973606438168914,-0.9843152608889523,0.2728589435533893,0.13316553316864074,-2.9746222481769857
1783160628250933504,2.4378745555877686,-0.0828234851360321,-0.23162463307380676,0.07942231744527817,0.1247890368103981,-0.269319623708725,-0.9549317359924316,0.0636722669005394,-0.07150068879127502,-0.04625844955444336,0.09214163813078495,0.07552877714870852,-0.1297286846582791,-0.9843656446554934,0.27268646839512917,0.12994216157515662,-2.972778365394636
1783160628260853248,2.4477944374084473,-0.14692416787147522,-0.36302950978279114,0.19507594406604767,0.12183764576911926,-0.26849493384361267,-0.9555448889732361,0.06602856516838074,-0.06599298119544983,-0.012869417667388916,0.0924476837574515,0.0740305192617495,-0.12941031188992816,-0.9844927221760926,0.27183023950445606,0.12682161187563357,-2.971700779092733
1783160628270772224,2.4577133655548096,-0.11218130588531494,-0.36626285314559937,0.3206786513328552,0.11765021830797195,-0.2674863040447235,-0.956352174282074,0.17943841218948364,-0.09530666470527649,-0.039009153842926025,0.09369071169609547,0.07202028909814391,-0.12898442832127846,-0.9845802429587439,0.2707833283388265,0.12240475183612731,-2.9685430157182884
1783160628280692224,2.4676334857940674,0.004146899562329054,-0.2445039600133896,0.10130821168422699,0.11443105340003967,-0.26729267835617065,-0.9567968249320984,0.09356150031089783,-0.052836716175079346,-0.04959660768508911,0.09464197407152554,0.07050612478903276,-0.12895920307961592,-0.9846021293960545,0.2705823979164843,0.11903268382864482,-2.966159235085842
1783160628290611200,2.4775524139404297,-0.08694405853748322,-0.35520678758621216,0.3286888003349304,0.11116552352905273,-0.2672257423400879,-0.9572004079818726,0.10715723037719727,0.00858926773071289,-0.04472219944000244,0.09532641664912632,0.06894108954809616,-0.12902294451149943,-0.9846385639257902,0.27051292902731694,0.11561815098900288,-2.9643183929844663
1783160628300531456,2.4874725341796875,-0.01614765264093876,-0.2496931403875351,0.35219627618789673,0.10710809379816055,-0.2671830356121063,-0.9576748609542847,0.15146735310554504,0.0005814731121063232,-0.03414642810821533,0.09699402483528952,0.06710684196886949,-0.1290707350508702,-0.9845961534066431,0.27046859321420924,0.11137896133023763,-2.9603734939653568
1783160628310451200,2.497392416000366,-0.08089808374643326,-0.2896546423435211,0.30569565296173096,0.10370279848575592,-0.2670443058013916,-0.958088219165802,0.060619108378887177,-0.0496518611907959,-0.0389057993888855,0.09840146846857395,0.06556360534355657,-0.12906314084649745,-0.9845614762862686,0.27032464191781935,0.10781953983917908,-2.9570418223584634
1783160628320370176,2.5073113441467285,-0.18202364444732666,-0.3157770335674286,0.2746985852718353,0.1000988632440567,-0.2660720944404602,-0.9587417840957642,0.1133410632610321,-0.03217616677284241,-0.045790016651153564,0.09963916109910709,0.06385162189052594,-0.1286548340729455,-0.9846029159680657,0.2693159362956858,0.10402958332595505,-2.953990915878056
1783160628330290432,2.5172314643859863,-0.0358286127448082,-0.4025178551673889,0.3241327106952667,0.09572945535182953,-0.2655334770679474,-0.9593371748924255,0.11745108664035797,-0.028686463832855225,-0.06458860635757446,0.10085120026674761,0.061774733919033945,-0.1285118243483138,-0.9846307173506352,0.26875723648899424,0.09945783730525515,-2.9509106622664847
1783160628340209152,2.5271503925323486,-0.16767345368862152,-0.24448640644550323,0.24648158252239227,0.0918227806687355,-0.2648857533931732,-0.9598979949951172,0.101887546479702,-0.03903880715370178,-0.06825447082519531,0.10218133773204471,0.05994107455653068,-0.12828905832846857,-0.9846359398376534,0.2680854417124799,0.09536870521981228,-2.947651607020529
1783160628350129408,2.5370705127716064,-0.18633043766021729,-0.16323454678058624,0.0014396365731954575,0.08978990465402603,-0.26338598132133484,-0.9605028033256531,0.10298962891101837,-0.03521326184272766,-0.026862919330596924,0.10269290650098065,0.05889675693740309,-0.12759225270667715,-0.9847362619310651,0.26653045788992713,0.09321130071385884,-2.9462792519178143
1783160628360049152,2.546990394592285,-0.20503835380077362,-0.43619921803474426,0.20482684671878815,0.08652254939079285,-0.2614860534667969,-0.9613214135169983,0.17711879312992096,-0.04921337962150574,-0.06384027004241943,0.1029816144069877,0.05717855807568699,-0.12676710358918283,-0.984913887831735,0.2645614919285499,0.08976191102384627,-2.945183130657434
1783160628369968384,2.5569095611572266,-0.32128599286079407,-0.4072199761867523,0.18765684962272644,0.08182008564472198,-0.2592870593070984,-0.9623282551765442,0.18508665263652802,-0.08112126588821411,-0.07912987470626831,0.10385952565561359,0.05479640776541439,-0.12583012572064517,-0.9850773480376469,0.2622839552697673,0.08481906062551844,-2.942697242674896
1783160628379888384,2.5668294429779053,-0.29983049631118774,-0.3171044588088989,0.09527072310447693,0.07852804660797119,-0.25634387135505676,-0.9633904695510864,0.03778970241546631,-0.05099865794181824,-0.0023077726364135742,0.10424683174312363,0.05301909378583917,-0.12447388732555954,-0.9853059947131861,0.2592377844665247,0.08133235623626059,-2.9413814044177324
1783160628389807104,2.5767483711242676,-0.1467338353395462,-0.4437849521636963,0.30778101086616516,0.07441461086273193,-0.254119873046875,-0.9643057584762573,0.10127508640289307,-0.032989501953125,-0.056385159492492676,0.10514131102896185,0.050933954768314145,-0.12350247652665368,-0.9854431496148529,0.2569375856348225,0.07701646549356625,-2.9389618436455414
1783160628399727360,2.5866684913635254,0.07487792521715164,-0.3499346375465393,0.23157547414302826,0.06954126060009003,-0.25434961915016174,-0.964608907699585,0.13127967715263367,0.007615000009536743,-0.07922959327697754,0.10640067431186156,0.048654909591794415,-0.12380734211303358,-0.9853849463503571,0.2571751392866536,0.0719681936705425,-2.9357781046338385
1783160628409647104,2.596588373184204,0.09330247342586517,-0.4308759868144989,0.27853724360466003,0.0652741864323616,-0.25504130125045776,-0.9647244215011597,0.0492430254817009,0.020178020000457764,-0.03608429431915283,0.10726793625857856,0.04665983796461785,-0.12434084902552338,-0.9853201675835414,0.2578904169592446,0.06755799752954564,-2.933477785226998
1783160628419566336,2.6065075397491455,0.10451198369264603,-0.2783522307872772,0.1651102900505066,0.061231378465890884,-0.2562601566314697,-0.964666485786438,0.10772919654846191,-0.07917380332946777,-0.02736842632293701,0.1083635182251557,0.044838919048657125,-0.12512482580690332,-0.9851855583809793,0.25915115989474,0.06338910241174073,-2.9307501031488896
1783160628429486336,2.616427421569824,-0.1546572595834732,-0.41058778762817383,0.2632661461830139,0.05760062485933304,-0.25607940554618835,-0.9649381041526794,0.08564889430999756,-0.09072235226631165,0.010683953762054443,0.10895659481779706,0.04307974942250641,-0.12520020360924947,-0.9851891198953135,0.25896417412840905,0.05962284537036833,-2.9290645041541428
1783160628439405312,2.6263463497161865,-0.14733223617076874,-0.3519287109375,0.2456464171409607,0.05316080525517464,-0.25479379296302795,-0.9655330181121826,0.17851339280605316,-0.10828906297683716,-0.03587073087692261,0.11019169413006692,0.040930538659501685,-0.12473239353832073,-0.9852026651609763,0.2576344427219641,0.05500296862971501,-2.925951582660072
1783160628449325312,2.6362664699554443,-0.3061943054199219,-0.42315438389778137,0.20331279933452606,0.049056656658649445,-0.25268006324768066,-0.9663054347038269,0.12580907344818115,-0.08713316917419434,-0.020648300647735596,0.110958802860745,0.03884097197070077,-0.12384930944260208,-0.9853125989026138,0.2554492081638564,0.050723687715765006,-2.9238274747329465
1783160628459245312,2.646186351776123,-0.37062016129493713,-0.4182432293891907,0.24398326873779297,0.04426170513033867,-0.24956266582012177,-0.9673465490341187,0.17262671887874603,-0.07551057636737823,-0.04148828983306885,0.11195463312880252,0.03637285782852791,-0.1224897242282478,-0.9854640874178449,0.2522286074481057,0.0457238984347735,-2.9211488476934706
1783160628469164288,2.6561055183410645,-0.2574024796485901,-0.519705057144165,0.23800623416900635,0.039392732083797455,-0.2466242015361786,-0.9683102369308472,0.13831113278865814,-0.05475214123725891,-0.07890045642852783,0.11281305223086431,0.033860679078015155,-0.12123668568860727,-0.9856106692076945,0.24919529951735045,0.04065951179493584,-2.918757620925527
1783160628479084288,2.666025400161743,-0.38951602578163147,-0.5806501507759094,0.28097981214523315,0.033449213951826096,-0.24378080666065216,-0.9692533612251282,0.1399364173412323,-0.05298738181591034,-0.11366289854049683,0.11388003491824943,0.03084090599002169,-0.12009228999793366,-0.9857272334592865,0.24626237516479374,0.03449659857966459,-2.9158242227931916
1783160628489003520,2.6759445667266846,-0.4063807725906372,-0.35620105266571045,0.09174689650535583,0.028273779898881912,-0.23983991146087646,-0.9704006314277649,0.08082656562328339,-0.031339287757873535,-0.08704870939254761,0.11462923826881745,0.028100209251799107,-0.11836408255219603,-0.9859312694550885,0.24220094610715973,0.02912795271452518,-2.9136471068867515
1783160628498923264,2.6858644485473633,-0.43424278497695923,-0.2808256149291992,0.07936692237854004,0.025148026645183563,-0.23591414093971252,-0.9714484214782715,0.03446805849671364,-0.06547744572162628,-0.11293262243270874,0.11479826294763212,0.026317172658602502,-0.11654690882980971,-0.9861772131601451,0.23815915591387551,0.025881364362363754,-2.912917853019649
1783160628508843264,2.695784330368042,-0.4073055684566498,-0.28675684332847595,0.2077457457780838,0.02180543728172779,-0.2318573296070099,-0.9725053906440735,0.13308653235435486,-0.04246518015861511,-0.11253184080123901,0.11543544722452057,0.024472836277183337,-0.1146664477533331,-0.986370795778457,0.23398661660754894,0.02241816259938377,-2.9112264918009
1783160628518762240,2.7057034969329834,-0.23534205555915833,-0.23890544474124908,0.19667790830135345,0.0188375785946846,-0.22864852845668793,-0.9733267426490784,0.163169264793396,-0.0002943277359008789,-0.12756431102752686,0.11644021969424768,0.02290873225559425,-0.11318924230708528,-0.9864609321420013,0.23068920653890143,0.01935139088370723,-2.908845427912756
1783160628528682240,2.715623378753662,-0.16201889514923096,-0.49051633477211,0.15915313363075256,0.014914853498339653,-0.22701150178909302,-0.9737778902053833,0.1442343145608902,0.019629299640655518,-0.1324995756149292,0.11700917643778391,0.02091220421164143,-0.11257773959181819,-0.9865079257038951,0.22900796904933426,0.015315286576161337,-2.907238267661287
1783160628538601472,2.7255425453186035,-0.07492688298225403,-0.5282735824584961,0.22570659220218658,0.009718144312500954,-0.2258981466293335,-0.9741024374961853,0.0899827852845192,0.05187167227268219,-0.13026762008666992,0.11765219379201797,0.018319460885045182,-0.11230837719079152,-0.9865136923845259,0.22786492350871787,0.009976180298895304,-2.9053343608725553
1783160628548521216,2.7354624271392822,-0.12965238094329834,-0.47898679971694946,0.2870922088623047,0.00392227154225111,-0.22502204775810242,-0.9743458032608032,0.05618210509419441,-0.022872239351272583,-0.13338124752044678,0.11871667422888886,0.015490184788391988,-0.11219252732670175,-0.986447849275698,0.22696565728420812,0.004025521934437905,-2.902508240299289
1783160628558441472,2.74538254737854,-0.29207271337509155,-0.4526643753051758,0.2601330280303955,-0.0007761873421259224,-0.2229306846857071,-0.9748339653015137,0.05662336200475693,-0.013870462775230408,-0.04930543899536133,0.11969735426358405,0.013124413263858112,-0.11140355926932123,-0.986453059656395,0.22481977771038356,-0.0007962249989708908,-2.9000011299839366
1783160628568360448,2.7553014755249023,-0.42304864525794983,-0.4808192253112793,0.2579987347126007,-0.005773499142378569,-0.21948106586933136,-0.9755996465682983,0.12206073105335236,-0.06253185868263245,-0.06959682703018188,0.12077367100887217,0.01053446566366665,-0.10995084124120474,-0.9865158368056504,0.22128253356431407,-0.005917828578052768,-2.8972986314561546
1783160628578280192,2.765221357345581,-0.5034230947494507,-0.5482850670814514,0.21478202939033508,-0.011028723791241646,-0.2150331288576126,-0.9765444993972778,0.117062047123909,-0.07369367778301239,-0.06923186779022217,0.12165942375599578,0.007730338342962117,-0.10801853144995152,-0.9866464069780614,0.21672575217236012,-0.011293141154013085,-2.894990624465861
1783160628588199424,2.7751405239105225,-0.5142921805381775,-0.5940412878990173,0.24846135079860687,-0.016962869092822075,-0.20996661484241486,-0.9775614142417908,0.15178951621055603,-0.030206725001335144,-0.07105308771133423,0.12260172546996763,0.004552841987367462,-0.1058233205774186,-0.9867873917814773,0.21154080791312282,-0.017350487836877475,-2.8925307846610826
1783160628598119168,2.785060405731201,-0.45666566491127014,-0.5997474193572998,0.13828051090240479,-0.023386510089039803,-0.20514805614948273,-0.9784514904022217,0.13758328557014465,0.008569091558456421,-0.09060972929000854,0.12324018281121346,0.00111276833490153,-0.1037931212194072,-0.9869333484303339,0.2066149832959608,-0.023897002764242472,-2.890657324894303
1783160628608039424,2.794980525970459,-0.33084791898727417,-0.5717064738273621,-0.006604308262467384,-0.029187964275479317,-0.20130938291549683,-0.9790927171707153,0.11193637549877167,-0.028747379779815674,-0.09335601329803467,0.12333502328712212,-0.002012272529822452,-0.1022231951275434,-0.9870839760249747,0.20269449247267637,-0.029802409073489147,-2.8899523452032017
1783160628617958400,2.8048994541168213,-0.37884047627449036,-0.7282233834266663,0.17271697521209717,-0.03571249544620514,-0.19774459302425385,-0.9796028137207031,0.12337423861026764,-0.022561803460121155,-0.07297897338867188,0.12319700265557793,-0.0055035889212271495,-0.10083797962160662,-0.9872304572984519,0.19905654943902004,-0.036439958531795914,-2.8896559774124926
1783160628627878144,2.8148193359375,-0.3386256992816925,-0.612619161605835,0.13078059256076813,-0.04222856089472771,-0.1942794770002365,-0.9800368547439575,0.10930619388818741,-0.08225555717945099,-0.12556922435760498,0.123737825736644,-0.008914674272412316,-0.0995093123113442,-0.9872726495639725,0.19552288139080382,-0.0430621100641421,-2.8880030244994104
1783160628637797376,2.8247385025024414,-0.400870680809021,-0.6470402479171753,0.2605478763580322,-0.04917994886636734,-0.1904861032962799,-0.9804572463035583,0.07840052992105484,-0.1302689015865326,-0.09797292947769165,0.12431731235611529,-0.01256020793895988,-0.09804910047569192,-0.9873063805689873,0.1916572917935328,-0.05011821266867472,-2.8862612693113343
1783160628647717120,2.83465838432312,-0.4347687363624573,-0.6880987286567688,0.20368115603923798,-0.05583478510379791,-0.18635477125644684,-0.9808946847915649,0.1420622020959854,-0.12176595628261566,-0.08104074001312256,0.12512647004191277,-0.016057692964638878,-0.09640959174103901,-0.9873149207632408,0.1874506098044488,-0.05686094251130567,-2.884122164307347
1783160628657637376,2.844578504562378,-0.4401768147945404,-0.6031028628349304,0.29830271005630493,-0.06271833926439285,-0.18176846206188202,-0.9813392162322998,0.14377301931381226,-0.09513276815414429,-0.0923912525177002,0.1260382204201773,-0.01969009682378193,-0.09456584541886999,-0.9873114148752756,0.18278458049131263,-0.06382416155970441,-2.881798794885245
1783160628667556352,2.8544974327087402,-0.2790073752403259,-0.5339341759681702,0.29137077927589417,-0.06844707578420639,-0.17801953852176666,-0.981643557548523,0.171627014875412,-0.08466051518917084,-0.09428417682647705,0.1271997557321871,-0.02267290701569316,-0.09308151120989157,-0.987239642201244,0.1789734750473579,-0.06961434475139144,-2.8790681399935276
1783160628677476352,2.864417552947998,-0.2684069275856018,-0.6111690402030945,0.27704375982284546,-0.07466617226600647,-0.1752825528383255,-0.9816827178001404,0.14642825722694397,-0.056864649057388306,-0.10848140716552734,0.12819777304174765,-0.0258536163400974,-0.09214240559229928,-0.9871204621967877,0.17619276002107734,-0.0759132079052806,-2.8765892547686316
1783160628687395328,2.8743364810943604,-0.19471780955791473,-0.5471149682998657,0.22994525730609894,-0.08021549880504608,-0.17291930317878723,-0.9816640615463257,0.11476140469312668,-0.0020379573106765747,-0.10470062494277954,0.1292054481707991,-0.02867757681236184,-0.09135398863873828,-0.9869842677059302,0.17379285248091111,-0.08153265071987564,-2.874147715488501
1783160628697315328,2.884256362915039,-0.17773428559303284,-0.5011799931526184,0.2792230248451233,-0.08591002970933914,-0.1708025187253952,-0.9815528392791748,0.07083434611558914,-0.0325513631105423,-0.1046440601348877,0.13015163027030546,-0.0315654046270241,-0.09070395653047184,-0.9868318145610196,0.1716441027200421,-0.08730213348393302,-2.8718139713889657
1783160628707235328,2.894176483154297,-0.312290757894516,-0.5434938669204712,0.22057625651359558,-0.09138493239879608,-0.16859932243824005,-0.9814392924308777,0.08981327712535858,-0.07956962287425995,-0.06789237260818481,0.13104211618168396,-0.0343561098267219,-0.09000009319836927,-0.9866851470741399,0.1694084691605743,-0.09284547154071422,-2.869628222329435
1783160628717154304,2.904095411300659,-0.5152912139892578,-0.6694584488868713,0.2822685241699219,-0.09776391834020615,-0.16420547664165497,-0.9815695285797119,0.08729640394449234,-0.11853988468647003,-0.01452416181564331,0.13196094196979896,-0.037740158591570754,-0.08826609824277937,-0.9865958010548296,0.16495249403366324,-0.09927218512650941,-2.8674505232573133
1783160628727074304,2.914015531539917,-0.575699508190155,-0.6411556601524353,0.2338932603597641,-0.10447441786527634,-0.15883810818195343,-0.9817614555358887,0.08466850966215134,-0.16629616916179657,-0.017170429229736328,0.13280371639660762,-0.041363699819044,-0.086071579281182,-0.9865312830938455,0.15951370588037836,-0.10601629645316478,-2.8654864803063695
1783160628736993280,2.9239344596862793,-0.754797101020813,-0.6579820513725281,0.2776612341403961,-0.11095812171697617,-0.15218129754066467,-0.9821044206619263,0.07703784108161926,-0.17084725201129913,-0.011395275592803955,0.13364598526843266,-0.044963450574581856,-0.08322297476112815,-0.9865044487812549,0.15277490597376064,-0.11250289812708276,-2.8636640750764393
1783160628746912768,2.9338538646698,-0.7718459367752075,-0.7368202805519104,0.33185306191444397,-0.11827199906110764,-0.1443287432193756,-0.9824362397193909,0.11488454788923264,-0.11352953314781189,-0.03416532278060913,0.13466608044551914,-0.04904732740510011,-0.07985138827954857,-0.9864497892595889,0.1448345839792157,-0.11980986099007507,-2.861536410380965
1783160628756832512,2.9437737464904785,-0.6518585085868835,-0.7528203129768372,0.3211096227169037,-0.126071497797966,-0.13700899481773376,-0.9825143814086914,0.142489954829216,-0.048278480768203735,-0.0644674301147461,0.13578478074478814,-0.05333762873138209,-0.07679781762430082,-0.9863162977932783,0.1374413069870136,-0.12761781334563516,-2.859179749930486
1783160628766751744,2.95369291305542,-0.6095634698867798,-0.6110290288925171,0.37916669249534607,-0.1332734376192093,-0.13045191764831543,-0.9824563264846802,0.13737806677818298,0.01686549186706543,-0.11002713441848755,0.137039012771901,-0.05727625178532323,-0.07410299000851445,-0.9861280405791647,0.13082477175288218,-0.1348302693384096,-2.8565823156845083
1783160628776671744,2.9636127948760986,-0.4081536531448364,-0.5674498677253723,0.3780396282672882,-0.13943278789520264,-0.1250455230474472,-0.9823045134544373,0.14233195781707764,0.009444937109947205,-0.13370805978775024,0.13856235699554706,-0.06060467302452118,-0.07193626752658396,-0.9858766815287925,0.12537371592860871,-0.14100261557780458,-2.8534619827439327
1783160628786590720,2.97353196144104,-0.3757975697517395,-0.5447624325752258,0.35487598180770874,-0.14525505900382996,-0.12080741673707962,-0.9819911122322083,0.14949700236320496,-0.02169441431760788,-0.16083115339279175,0.14000717074214516,-0.06369779420480623,-0.07033517754746695,-0.9855929841850131,0.12110321859637146,-0.1468540353238708,-2.8504542757247324
1783160628796510720,2.9834518432617188,-0.27700307965278625,-0.542214572429657,0.32029110193252563,-0.15080706775188446,-0.11713341623544693,-0.9815992116928101,0.14592425525188446,0.00792626291513443,-0.14022696018218994,0.1413375606779007,-0.06663072794989754,-0.0689981499816566,-0.9853037144032515,0.11740293490438826,-0.15244212895316833,-2.8476689446044405
1783160628806430720,2.9933719635009766,-0.2748871445655823,-0.5526412725448608,0.3431590497493744,-0.15651288628578186,-0.11402308940887451,-0.9810720682144165,0.11421553790569305,0.005319476127624512,-0.12476283311843872,0.14265568943370083,-0.06960675389117989,-0.0679621349727998,-0.9849799891226813,0.11427161786146119,-0.1581994038619884,-2.8448632519281607
1783160628816349696,3.003290891647339,-0.26502490043640137,-0.5591489672660828,0.33063793182373047,-0.1622684746980667,-0.1110096350312233,-0.9804824590682983,0.12439616024494171,-0.0197734534740448,-0.06772005558013916,0.14399942560404455,-0.07260343724334706,-0.06698897786534387,-0.9846346610304612,0.11123890404756659,-0.16401196520590444,-2.8420063497108283
1783160628826269696,3.0132107734680176,-0.27766960859298706,-0.5819476246833801,0.36696118116378784,-0.16814713180065155,-0.10782850533723831,-0.979846715927124,0.13842301070690155,-0.08627854287624359,-0.04876351356506348,0.14541294420796275,-0.07567340964722868,-0.06595593638124764,-0.9842654210402657,0.10803856274422696,-0.16995019782832718,-2.839027938297007
1783160628836189696,3.0231308937072754,-0.46525120735168457,-0.6282533407211304,0.333920955657959,-0.17443227767944336,-0.1036490723490715,-0.9791987538337708,0.09179069101810455,-0.1375923752784729,-0.04103434085845947,0.14682228385115337,-0.07902413124042117,-0.06446547842399762,-0.9838915256686102,0.10383555785566714,-0.17628856410714672,-2.836142193521298
1783160628846108672,3.0330498218536377,-0.6224872469902039,-0.6390140056610107,0.25342845916748047,-0.18089067935943604,-0.09774256497621536,-0.978634238243103,0.033795952796936035,-0.08949803560972214,-0.03456461429595947,0.14786245484884394,-0.08261770873027875,-0.06210636316736962,-0.9835923142598411,0.09789887380691184,-0.18277699201951103,-2.834190333415798
1783160628856028672,3.0429699420928955,-0.558594822883606,-0.6761006116867065,0.24366238713264465,-0.1876746267080307,-0.09150750935077667,-0.977959394454956,0.022772908210754395,-0.05386297404766083,-0.08522719144821167,0.14864442147411813,-0.08642185448314481,-0.05959494363219306,-0.9833028762540431,0.09163569771182324,-0.18959926439258215,-2.832808382122542
1783160628865947648,3.052888870239258,-0.5517657995223999,-0.6368517875671387,0.1998346894979477,-0.19401799142360687,-0.08572892844676971,-0.9772449135780334,0.04031620919704437,-0.054606154561042786,-0.10364192724227905,0.14924131808353927,-0.08998953736804285,-0.05726638620882595,-0.9830307773725783,0.08583428484286444,-0.19598717720419256,-2.8318152521803395
1783160628875867648,3.0628087520599365,-0.4834538698196411,-0.7117987275123596,0.19988954067230225,-0.2006767988204956,-0.0803961530327797,-0.9763530492782593,0.1007012128829956,-0.051317714154720306,-0.10041391849517822,0.14979111020895294,-0.09369101767439918,-0.05518575185287378,-0.9827203171107569,0.08048301621308765,-0.20271400896755915,-2.8308813260099353
1783160628885787648,3.0727288722991943,-0.4234600365161896,-0.6513124108314514,0.10560765117406845,-0.2074420005083084,-0.07567228376865387,-0.9753161072731018,0.1280352622270584,-0.05939851701259613,-0.0863904356956482,0.1501760251362585,-0.09741548637698616,-0.0534056746993081,-0.9823976962402583,0.07574468955016363,-0.20956915687275968,-2.830237816251802
1783160628895706624,3.0826478004455566,-0.47950467467308044,-0.710879385471344,0.09832710027694702,-0.21407544612884521,-0.07121241837739944,-0.9742178916931152,0.11283338069915771,-0.06593357771635056,-0.062342166900634766,0.15019079404423177,-0.10107874155205568,-0.051712128936540876,-0.9821159170163756,0.0712727435566258,-0.2163030922673299,-2.8303508392106695
1783160628905626880,3.0925679206848145,-0.4862350523471832,-0.6612850427627563,0.07991690188646317,-0.22079911828041077,-0.06624387204647064,-0.973067045211792,0.13786759972572327,-0.05132509768009186,-0.03923153877258301,0.15023835957207998,-0.10482749110955525,-0.0497761951468247,-0.9818156060474609,0.0662924148420924,-0.22313212753538375,-2.8304769034056156
1783160628915545600,3.1024868488311768,-0.474778413772583,-0.6236713528633118,0.06844799965620041,-0.2270643413066864,-0.06156628206372261,-0.9719317555427551,0.1056959331035614,-0.02379138395190239,-0.04863709211349487,0.15013641941507783,-0.10833532662031257,-0.04793296042286933,-0.9815421005769438,0.06160524128469124,-0.22950537392192663,-2.8309232809122618
1783160628925465856,3.1124069690704346,-0.39868807792663574,-0.618180513381958,0.06810328364372253,-0.23300449550151825,-0.05714614316821098,-0.9707951545715332,0.08243076503276825,0.010103289037942886,-0.0372157096862793,0.1500532840674443,-0.11166266667714804,-0.046193846284564376,-0.9812653687643839,0.05717729284969438,-0.23555828049740357,-2.8313399646288775
1783160628935385600,3.1223268508911133,-0.3604344427585602,-0.5706188082695007,0.06683482229709625,-0.23878774046897888,-0.053357645869255066,-0.9696047306060791,0.060900792479515076,0.01777414232492447,-0.003173530101776123,0.1500795499253781,-0.11486204291794984,-0.04476977019964375,-0.9809580339921715,0.05338299513943905,-0.2414680956797478,-2.831483278582305
1783160628945304576,3.1322457790374756,-0.30825647711753845,-0.49592337012290955,0.018965434283018112,-0.2437174767255783,-0.050085678696632385,-0.9685521125793457,0.052448570728302,0.04375327751040459,0.05712944269180298,0.14991894131723954,-0.11760337955851581,-0.043512992714750336,-0.9807142746703277,0.05010664214911501,-0.2465128686885733,-2.831998446813438
1783160628955224832,3.1421658992767334,-0.3488105535507202,-0.4822371006011963,0.08453485369682312,-0.24839511513710022,-0.046918634325265884,-0.9675218462944031,0.07917514443397522,0.05396818742156029,0.11656969785690308,0.14992809056664785,-0.12020430075653946,-0.04230843913462786,-0.9804502284448583,0.04693586624483934,-0.2513058162108933,-2.832178544540364
1783160628965143808,3.1520848274230957,-0.3156181871891022,-0.31675970554351807,0.00023944966960698366,-0.2523093819618225,-0.043533869087696075,-0.9666668176651001,0.0814414918422699,0.06910760700702667,0.20769470930099487,0.14989381012261918,-0.12243946553467194,-0.04092871475628341,-0.9802373134596533,0.04354763341937534,-0.2553135598753884,-2.832521423545961
1783160628975063808,3.1620049476623535,-0.30901938676834106,-0.2335532158613205,-0.1409757435321808,-0.25472548604011536,-0.04071921855211258,-0.9661557078361511,0.046351492404937744,0.10950583219528198,0.2789456844329834,0.14927712378909702,-0.12389850002764181,-0.03963963972026348,-0.9802011427019315,0.04073047770000205,-0.2577824692748083,-2.834050721911833
1783160628984983808,3.1719248294830322,-0.1496652364730835,-0.1596253514289856,-0.04973972588777542,-0.2567009925842285,-0.03865870460867882,-0.9657174348831177,0.06772089004516602,0.12159022688865662,0.3042031526565552,0.1486376845300342,-0.1250783496206598,-0.0386872382637853,-0.9801865010271471,0.038668340562927034,-0.259805947819478,-2.835549126270796
1783160628994902528,3.1818437576293945,-0.031399309635162354,0.00574070867151022,-0.07304158806800842,-0.2573722004890442,-0.03815794736146927,-0.965558648109436,0.09649878740310669,0.08018065243959427,0.29220354557037354,0.1482887684425852,-0.1254694426728018,-0.03844595731743341,-0.9801988280198356,0.03816721226472402,-0.26049593246313424,-2.836300895380446
1783160629004822784,3.1917638778686523,-0.10827318578958511,0.07482382655143738,-0.0960891842842102,-0.2568250894546509,-0.03772575035691261,-0.9657213091850281,0.06663954257965088,0.05539543181657791,0.3433610796928406,0.14785879281485892,-0.12524100971250623,-0.038131857110797814,-0.9803052430954674,0.03773470438185075,-0.259924981841082,-2.837258287185226
1783160629014741760,3.2016828060150146,-0.28497791290283203,0.08625784516334534,-0.19995993375778198,-0.25597459077835083,-0.0363277941942215,-0.9660006761550903,0.08699876070022583,-0.0048404112458229065,0.41700470447540283,0.1470755587614305,-0.12494335825227892,-0.03726693033570043,-0.9804942633867515,0.0363357894590602,-0.25903066489179616,-2.839076847525947
1783160629024661760,3.2116029262542725,-0.5556740164756775,0.22061070799827576,-0.2849898338317871,-0.2542744576931,-0.03294939920306206,-0.9665706753730774,0.057497113943099976,-0.07433514297008514,0.4692562222480774,0.14562533258549187,-0.1243832083703463,-0.035263120288596954,-0.9808560531770038,0.03295536270792935,-0.25724026240020903,-2.8425481819698133
1783160629034581760,3.221522808074951,-0.6472553610801697,0.33298251032829285,-0.19991222023963928,-0.2516585886478424,-0.027714921161532402,-0.9674191474914551,0.029765307903289795,-0.20096853375434875,0.47629982233047485,0.14408087557303298,-0.12349147148060068,-0.03225334986085237,-0.9813002354752095,0.02771847022973645,-0.25449355722922656,-2.8464764635033912
1783160629044500736,3.2314419746398926,-0.7754595279693604,0.5339837670326233,-0.2042703926563263,-0.24752485752105713,-0.021447110921144485,-0.9686441421508789,0.04191267490386963,-0.2165289670228958,0.4776315689086914,0.14278536903747502,-0.1218899673221801,-0.028649026408318495,-0.9818015888122272,0.02144875590151331,-0.2501835498895723,-2.8500563912530437
1783160629054420736,3.2413618564605713,-0.6759145259857178,0.7543326616287231,-0.37617209553718567,-0.24115455150604248,-0.014856274239718914,-0.9703730344772339,0.04736793041229248,-0.05949980020523071,0.5094202756881714,0.14101254317904122,-0.11918499981847648,-0.02466643343868291,-0.9824978170144258,0.014856820687240018,-0.24358277029769382,-2.854672109366408
1783160629064339712,3.2512807846069336,-0.12025848031044006,0.8347492218017578,-0.32489079236984253,-0.23318243026733398,-0.011853793635964394,-0.9723607301712036,0.07941961288452148,0.045453645288944244,0.4542943239212036,0.13907858274384086,-0.11541234186039613,-0.022352030905394935,-0.9832789702913167,0.011854071609427717,-0.235365906339595,-2.8591679925093807
1783160629074259712,3.2612009048461914,0.3179798722267151,0.930085301399231,-0.1689922958612442,-0.2246057093143463,-0.01343339029699564,-0.9743571281433105,0.1496087610721588,0.11797135323286057,0.39031171798706055,0.13810041373769127,-0.11099300311590253,-0.022405053393392833,-0.9839242301499841,0.013433794573959231,-0.22655918303624195,-2.861172680805425
1783160629084179712,3.27112078666687,0.46122169494628906,1.008945107460022,-0.1831837296485901,-0.21513330936431885,-0.01792866550385952,-0.9764201045036316,0.11016809940338135,0.15847736597061157,0.4376932978630066,0.13757852305796917,-0.10591711979783149,-0.023906292375533145,-0.984521295710004,0.01792962670228331,-0.21686374255280697,-2.8619559136935764
1783160629094098688,3.2810399532318115,0.3083314895629883,1.1369880437850952,-0.17297184467315674,-0.2046661227941513,-0.022132547572255135,-0.9785816073417664,0.0923004001379013,0.15053525567054749,0.5128833651542664,0.13707502214824807,-0.10037038791502981,-0.02519899769689003,-0.9851402445016113,0.022134354546817513,-0.2061738286811654,-2.8627927571590575
1783160629104018688,3.2909598350524902,-0.017536357045173645,1.2434697151184082,-0.16596493124961853,-0.1928846687078476,-0.02388894371688366,-0.9809305667877197,0.10450577735900879,0.06890237331390381,0.5639689564704895,0.13644413096189578,-0.09434492800045774,-0.025174159983781877,-0.9858237073760655,0.02389121677456785,-0.1941572896869556,-2.8642010151245874
1783160629113937664,3.3008787631988525,-0.2403595745563507,1.2849966287612915,-0.18881139159202576,-0.18050801753997803,-0.022873982787132263,-0.9833074808120728,0.13261067867279053,-0.05659379065036774,0.5619817972183228,0.13563791331487177,-0.08822400651109331,-0.023722881952166677,-0.9865374665444503,0.02287597857959228,-0.18155096143760058,-2.866245819651321
1783160629123857664,3.3107988834381104,-0.1178167536854744,1.4339773654937744,-0.2346070408821106,-0.16704843938350677,-0.021393267437815666,-0.9857165813446045,0.11625193059444427,-0.15072587132453918,0.5043628215789795,0.13472278202957688,-0.08160290932789363,-0.021970014311775175,-0.987273108703844,0.021394898908526888,-0.16787406414150682,-2.868548941379508
1783160629133777664,3.320718765258789,-0.06895759701728821,1.4499456882476807,-0.2221495807170868,-0.1523764580488205,-0.021118616685271263,-0.9880968928337097,0.048815056681632996,-0.14253190159797668,0.3959338068962097,0.1337164307174659,-0.07430518605543976,-0.02074380185323713,-0.9880123666150271,0.021120187115159963,-0.1530067607915426,-2.8709307490528877
1783160629143696896,3.3306379318237305,-0.02887616492807865,1.368756890296936,-0.16200804710388184,-0.13818837702274323,-0.021075185388326645,-0.9901816844940186,0.05904105305671692,-0.04746729135513306,0.34935837984085083,0.1328779654935077,-0.06724004604753847,-0.019695807651145446,-0.9886526951870707,0.02107674604917222,-0.13866301131556885,-2.872924044065898
1783160629153616640,3.340557813644409,0.2242136150598526,1.439516305923462,-0.10223685950040817,-0.12339197099208832,-0.02256621979176998,-0.9921013712882996,0.11770045012235641,-0.01103363186120987,0.26854491233825684,0.13239289643061664,-0.059772116833675705,-0.01940603883728375,-0.9892031059837786,0.022568136126519343,-0.12373892648084145,-2.8740999569209897
1783160629163536896,3.350477933883667,0.41422224044799805,1.556164264678955,-0.16053742170333862,-0.10700060427188873,-0.026846038177609444,-0.9938964247703552,0.11577441543340683,-0.021737942472100258,0.217620849609375,0.1320089890345755,-0.05133438135262801,-0.020409676705134272,-0.9897079081402664,0.026849263051445485,-0.10724464638723358,-2.874953198469389
1783160629173455616,3.3603968620300293,0.43084916472435,1.5387845039367676,-0.09889455139636993,-0.09092357754707336,-0.03134959563612938,-0.9953643083572388,0.08335521817207336,-0.0026775002479553223,0.26030266284942627,0.13148426898347906,-0.043052724425655525,-0.02154783376274949,-0.9901484459666055,0.031354733552055314,-0.09109422487634482,-2.8761232256904132
1783160629183375872,3.370316982269287,0.5240079164505005,1.600189447402954,0.04694989696145058,-0.07513484358787537,-0.03636118769645691,-0.9965102076530457,0.10395870357751846,-0.03462269529700279,0.26710963249206543,0.13165342139102537,-0.034874660732478455,-0.022992335527680013,-0.9904153819551335,0.036369205914023796,-0.07525557228258628,-2.875917906672737
1783160629193294848,3.3802359104156494,0.5266018509864807,1.5475984811782837,0.07954006642103195,-0.059282440692186356,-0.04168453812599182,-0.9973705410957336,0.09181417524814606,-0.04674014449119568,0.27767449617385864,0.1322599967645716,-0.026639584502969348,-0.0245980311404065,-0.9905516647119402,0.04169661996589168,-0.059368882160196985,-2.8748814600918413
1783160629203214592,3.390155792236328,0.4863695204257965,1.5954341888427734,0.07690636813640594,-0.043653178960084915,-0.046687155961990356,-0.9979552626609802,0.09963767230510712,-0.050465553998947144,0.2692412734031677,0.13287382950513024,-0.018538995887436793,-0.02605136352861141,-0.9906170512254246,0.04670413232934297,-0.043714754549392644,-2.8738983738193573
1783160629213134848,3.400075912475586,0.5192987322807312,1.62820303440094,-0.02554677426815033,-0.027497272938489914,-0.05174177139997482,-0.9982818961143494,0.08859346061944962,-0.07562334090471268,0.27199405431747437,0.13325837031175938,-0.010181291208491188,-0.02748466895502062,-0.9906478152788715,0.051764885088891474,-0.027537634506759327,-2.8734522035865386
1783160629223053568,3.4099948406219482,0.5015767812728882,1.4591665267944336,0.03400992974638939,-0.01198500394821167,-0.05683675408363342,-0.9983115196228027,0.04892653226852417,-0.04948648437857628,0.261357843875885,0.13339416616571484,-0.0021473615168068776,-0.028976124880033295,-0.990637067716682,0.056867401410548114,-0.01200469750956091,-2.8735515877160487
1783160629232973824,3.419914960861206,0.5683792233467102,1.4263944625854492,0.05441001057624817,0.0023224197793751955,-0.06221520155668259,-0.9980600476264954,0.08195187151432037,-0.04903662949800491,0.20904332399368286,0.1339388220371585,0.005321855627924722,-0.030686314095762512,-0.9905001194138423,0.0622554081607153,0.0023269296663053266,-2.872848825101524
1783160629242892800,3.4298338890075684,0.5633370280265808,1.4564740657806396,0.007151917554438114,0.016921158879995346,-0.0678301528096199,-0.9975534081459045,0.009079817682504654,-0.0710400864481926,0.15989166498184204,0.13418323415002323,0.01294551286420494,-0.03249190574378937,-0.9903391602457421,0.06788227648308721,0.016961033257850033,-2.8728244142904105
1783160629252812544,3.439753770828247,0.5984880924224854,1.3052843809127808,0.1835186928510666,0.030411716550588608,-0.07367213815450668,-0.9968187212944031,0.03634548559784889,-0.06371799856424332,0.058769404888153076,0.13478296372835225,0.020051666343886502,-0.03447571477036508,-0.990072195007901,0.07373894615031858,0.030499313381635754,-2.8721122866518853
1783160629262732800,3.449673891067505,0.5974327921867371,1.2232239246368408,0.23824618756771088,0.04301143437623978,-0.07973387837409973,-0.995887815952301,0.07306217402219772,-0.05304810404777527,-0.005729615688323975,0.13599808494257554,0.026760430356789055,-0.03660567551156192,-0.9896709135153845,0.0798186064028547,0.04316221381403752,-2.870192084793711
1783160629272651776,3.459592819213867,0.4452345073223114,1.0535554885864258,0.2302742749452591,0.053839270025491714,-0.08492913097143173,-0.9949313402175903,0.04583113640546799,-0.012742377817630768,-0.03375518321990967,0.15162898052172835,0.03309658146464278,-0.037933433568410634,-0.9871546244110909,0.08503156173417914,0.05406082706781535,-2.839071283601656
1783160629282571776,3.469512939453125,0.46830978989601135,1.1515891551971436,-0.19876186549663544,0.06471836566925049,-0.08954644203186035,-0.9938777685165405,0.010263323783874512,-0.02339911460876465,-0.09976541996002197,0.16545847575747408,0.039391598909135746,-0.03885138834987982,-0.9846636096799604,0.08966655064765995,0.06502522457120283,-2.81155044311948
1783160629292490752,3.4794318675994873,0.6190537214279175,1.0779870748519897,-0.13661913573741913,0.07604611665010452,-0.09486288577318192,-0.9925814867019653,-0.05352415144443512,0.03327842056751251,-0.1307552456855774,0.17738100246787483,0.04593218182386009,-0.0399935905027481,-0.9822560167506047,0.0950057399696183,0.07646510488269156,-2.7879098877683344
