time,seconds_elapsed,rotationRateX,rotationRateY,rotationRateZ,gravityX,gravityY,gravityZ,accelerationX,accelerationY,accelerationZ,quaternionW,quaternionX,quaternionY,quaternionZ,pitch,roll,yaw
1782905734188251136,0.16422128677368164,0.07700324058532715,0.06760269403457642,-0.3610203266143799,0.14017760753631592,0.7217953205108643,-0.6777622699737549,0.025364995002746582,0.04476040601730347,-0.016985595226287842,0.6034813440532457,-0.20206122895053166,0.34682866584227134,-0.6889784222935516,-0.8063927844014122,0.20394854810599192,-1.6156599900560462
1782905734198171392,0.17414140701293945,0.17354601621627808,0.0116440923884511,-0.36426326632499695,0.13844840228557587,0.721747100353241,-0.6781689524650574,0.016519874334335327,0.04277926683425903,0.010825812816619873,0.6023042069851029,-0.20210149744804665,0.34651191582140184,-0.6901551138763143,-0.8063231555978149,0.20138304337955965,-1.6203981935941019
1782905734208091136,0.18406128883361816,0.23969201743602753,-0.00640605203807354,-0.43024757504463196,0.1366230994462967,0.7217936515808105,-0.6784895658493042,0.001148521900177002,0.027565479278564453,0.0497664213180542,0.6010710137138239,-0.20220291304440877,0.34622132646385945,-0.6913454030120523,-0.8063904245618118,0.19870636941228678,-1.6252785744527989
1782905734218010368,0.19398045539855957,0.25137636065483093,-0.019186295568943024,-0.5170906186103821,0.1341266930103302,0.7225023508071899,-0.67823326587677,-0.020372390747070312,0.03004586696624756,0.07026207447052002,0.5994466575984183,-0.2027115333923095,0.34610896176370154,-0.6926617078360712,-0.8074149253945959,0.19523976845289184,-1.631212487674177
1782905734227930368,0.20390033721923828,0.321304053068161,-0.05189337581396103,-0.6412331461906433,0.13019925355911255,0.7239644527435303,-0.6774390339851379,-0.02187711000442505,0.04710787534713745,0.08576422929763794,0.5972964572289599,-0.20390194088664415,0.34598336720545236,-0.6942308301811764,-0.8095320645341704,0.18987798926729035,-1.639075449744245
1782905734237850368,0.2138204574584961,0.49810975790023804,-0.10576006770133972,-0.8432936072349548,0.12429409474134445,0.7256738543510437,-0.6767188906669617,-0.04494837671518326,0.0790136456489563,0.0890723466873169,0.5945321067993787,-0.20569060797890762,0.34544455615165093,-0.6963411435373328,-0.8120132750252544,0.18164710238446444,-1.6499431184128897
1782905734247769344,0.2237393856048584,0.7386838793754578,-0.19721423089504242,-1.0678151845932007,0.11539651453495026,0.7269795536994934,-0.6768931746482849,-0.06148722767829895,0.1298167109489441,0.08645439147949219,0.5910605827140477,-0.20811467700209538,0.34386288246366564,-0.6993525942040686,-0.8139129016245359,0.16885629373938235,-1.6653238021328893
1782905734257689344,0.2336592674255371,0.9646632075309753,-0.26956912875175476,-1.2071675062179565,0.10364323109388351,0.727582573890686,-0.6781458258628845,-0.060598187148571014,0.17425763607025146,0.10291993618011475,0.5870674654221454,-0.21110377947762926,0.341119180914947,-0.7031534795093326,-0.8147915295483401,0.1516597019576069,-1.6847115449198624
1782905734267609344,0.24357938766479492,1.1787358522415161,-0.2856958210468292,-1.383786916732788,0.08982541412115097,0.7274963855743408,-0.6802062392234802,-0.05245666950941086,0.13787531852722168,0.16056811809539795,0.5826046646362852,-0.21442826548435573,0.33751653795935577,-0.7075839683800423,-0.8146658835162114,0.13129644751889497,-1.7072160194835586
1782905734277529344,0.25349926948547363,1.746375560760498,-0.22080843150615692,-1.7788591384887695,0.07407700270414352,0.7255108952522278,-0.684212327003479,-0.01670396327972412,0.03607046604156494,0.24683445692062378,0.5773752552814994,-0.2173453413553206,0.33264823864943377,-0.7132628571908605,-0.8117764787729554,0.10784604555119613,-1.7342139080381644
1782905734287448320,0.26341843605041504,2.487079381942749,-0.37343454360961914,-2.133727788925171,0.05544337257742882,0.7189199328422546,-0.6928781867027283,0.05194799229502678,0.06101781129837036,0.278556227684021,0.5714755154124723,-0.21907656353199323,0.32490979008144555,-0.721009589582569,-0.8022472220196573,0.07984879957144152,-1.7672820508527785
1782905734297368320,0.27333831787109375,2.719119071960449,-0.42135733366012573,-2.124363422393799,0.0359579436480999,0.7085784077644348,-0.7047153115272522,0.0678170770406723,0.1992889642715454,0.3980289101600647,0.5658423249176767,-0.21980920890141037,0.3151607048456999,-0.7295067182918686,-0.7874815334783232,0.05098056801965692,-1.800976879161118
1782905734307288320,0.28325843811035156,2.1978752613067627,-0.09428545832633972,-1.9980040788650513,0.01911403052508831,0.6969864964485168,-0.7168294787406921,0.04926058650016785,0.10840290784835815,0.5613119006156921,0.5604788696635409,-0.21932567116741375,0.30574747002349273,-0.7377521291205161,-0.7711864345414018,0.026658366807868396,-1.8313959283192065
1782905734317207296,0.29317736625671387,1.6365381479263306,0.18843013048171997,-1.8909485340118408,0.006235857494175434,0.6871225237846375,-0.7265148758888245,0.12164803594350815,-0.043979763984680176,0.670103132724762,0.5548065759493059,-0.2181113767954915,0.29861344412803775,-0.7452833328716708,-0.7575210501178049,0.008583037097768552,-1.8583315559925746
1782905734327127552,0.3030974864959717,1.4945366382598877,0.3628830015659332,-1.9995194673538208,-0.004713863134384155,0.6782369613647461,-0.7348281145095825,0.16952407360076904,-0.040465354919433594,0.566386342048645,0.548533717172908,-0.21649633330064635,0.2927717346811051,-0.752678333932582,-0.7453607644100632,-0.0064148314966106885,-1.8845430808641046
1782905734337047296,0.3130173683166504,1.665764331817627,0.48209142684936523,-2.099107265472412,-0.01501384750008583,0.6685977578163147,-0.743472695350647,0.16264262795448303,0.1084713339805603,0.4940067529678345,0.49412805267219223,-0.19631325481226666,0.299540925558957,-0.7921956055652194,-0.7323215317809315,-0.020191470462900304,-2.0339427615732215
1782905734346967552,0.3229374885559082,2.1986777782440186,0.5136914253234863,-2.187474489212036,-0.024894068017601967,0.6558495163917542,-0.7544811367988586,0.18105250597000122,0.24310678243637085,0.46451830863952637,0.48661875678733907,-0.1932598624540556,0.29225001303051057,-0.8002767370576099,-0.7153074268848422,-0.03298298656958708,-2.0612660235000924
1782905734356886272,0.3328564167022705,3.1016862392425537,0.504898726940155,-2.3043012619018555,-0.03492593765258789,0.637407660484314,-0.769734799861908,0.2185502052307129,0.30166399478912354,0.43187469244003296,0.4792618927971657,-0.18859054011284063,0.2820748217636588,-0.8094291552744709,-0.6911292267736592,-0.045342886882556284,-2.0887402941472364
1782905734366806272,0.3427762985229492,4.331732749938965,0.4585820436477661,-2.429503917694092,-0.045141518115997314,0.6101282238960266,-0.7910156846046448,0.2552550435066223,0.3112584948539734,0.43006908893585205,0.4723147333121884,-0.18156696528556907,0.26744267273545846,-0.8200163188455071,-0.656222409867579,-0.057005961020594305,-2.1158590494738867
1782905734376726272,0.35269641876220703,5.5678205490112305,0.3088119924068451,-2.6483547687530518,-0.056077346205711365,0.5718175768852234,-0.8184619545936584,0.27998483180999756,0.3316400647163391,0.45542484521865845,0.4656953282641848,-0.17209801030515184,0.24728788037634414,-0.8320809955291207,-0.6087196691119705,-0.06840860789660638,-2.1426061705331474
1782905734386645248,0.36261534690856934,6.5154523849487305,0.007735827472060919,-2.942883014678955,-0.06900447607040405,0.522843599319458,-0.8496310710906982,0.30191463232040405,0.4050281047821045,0.42737460136413574,0.4587973644190508,-0.16122138422009288,0.22179296920628114,-0.8451748936482217,-0.5501834205546048,-0.08103911134143628,-2.1698136007742144
1782905734396565504,0.37253546714782715,7.299721717834473,-0.32194405794143677,-3.229053258895874,-0.0845240131020546,0.4643230438232422,-0.881623387336731,0.352010577917099,0.4485797584056854,0.36941635608673096,0.45119701445972127,-0.14991065558392766,0.19161184344011428,-0.8586227471262605,-0.48287012375017657,-0.0955810178603326,-2.197484354628611
1782905734406485248,0.38245534896850586,7.973325252532959,-0.5544179081916809,-3.385551929473877,-0.10154354572296143,0.39689093828201294,-0.9122316241264343,0.4078027009963989,0.44716423749923706,0.3222505450248718,0.4427735514552545,-0.13819472147132425,0.15743701081919875,-0.8718185181094151,-0.40812708244235474,-0.11085697728800029,-2.2247033187699095
1782905734416405504,0.39237546920776367,8.705923080444336,-0.8711668252944946,-3.342503547668457,-0.11877114325761795,0.32062000036239624,-0.939732015132904,0.47124916315078735,0.42602306604385376,0.25954097509384155,0.434077988165933,-0.1258765726726938,0.11953694804321077,-0.8839923553343575,-0.3263839652807246,-0.12572171061165835,-2.2494079840961128
1782905734426324480,0.402294397354126,9.503704071044922,-1.290915608406067,-3.3461830615997314,-0.1367332488298416,0.23471227288246155,-0.9624001979827881,0.5267936587333679,0.37389978766441345,0.18632292747497559,0.42536404303607933,-0.11320647552587741,0.07735755183857292,-0.8945755560808987,-0.23692256714954563,-0.14113071554511394,-2.270716953847092
1782905734436244224,0.4122142791748047,10.24280834197998,-1.8220361471176147,-3.3672351837158203,-0.15629158914089203,0.13911783695220947,-0.9778646230697632,0.5603901147842407,0.3350032567977905,0.18906152248382568,0.4161707863004239,-0.10064198766066905,0.030641356757960918,-0.9031800302710064,-0.13957052959922123,-0.1584889962081155,-2.2891229357926983
1782905734446164480,0.4221343994140625,10.750158309936523,-2.448364496231079,-3.3228254318237305,-0.1784101277589798,0.03560323268175125,-0.9833118915557861,0.6413159966468811,0.25086528062820435,0.27632641792297363,0.40628983294565857,-0.08907818301216316,-0.020227246826558232,-0.9091669010992813,-0.03561075957239224,-0.17948544079056705,-2.304282319412891
1782905734456083200,0.4320533275604248,10.986259460449219,-2.977264165878296,-3.1643834114074707,-0.20261529088020325,-0.07240384072065353,-0.9765780568122864,0.7680907249450684,0.09291165322065353,0.4300082325935364,0.39569104493853385,-0.07899139660417241,-0.07396839497911131,-0.9119855699166735,0.0724672515150986,-0.2045723791851407,-2.315417461900877
1782905734466003456,0.4419734477996826,11.013676643371582,-3.369539976119995,-2.961609363555908,-0.22785425186157227,-0.18129195272922516,-0.9566690325737,0.8640999794006348,-0.14648208022117615,0.5366861820220947,0.38453028340408535,-0.07049313890284772,-0.12921375729088322,-0.9113017441221546,0.18230001323496509,-0.23381826329790711,-2.3215427228905643
1782905734475923200,0.45189332962036133,10.502820014953613,-3.5699257850646973,-2.877800226211548,-0.25231119990348816,-0.2866039574146271,-0.9242278933525085,0.8882365226745605,-0.3889178931713104,0.591143786907196,0.3724159203109341,-0.06351515623917424,-0.1839887685796317,-0.9074251295482616,0.2906801970888074,-0.26650282656416086,-2.3234610256191903
1782905734485843456,0.46181344985961914,8.925725936889648,-3.608877420425415,-2.893465757369995,-0.2738758623600006,-0.37983593344688416,-0.8835816979408264,0.826518714427948,-0.584626317024231,0.7553316354751587,0.3588387556834953,-0.058743589538872897,-0.23400499109029338,-0.9016792679873901,0.38961894358030563,-0.3005700920236407,-2.3243482966842857
1782905734495762432,0.47173237800598145,7.105416297912598,-3.16934871673584,-3.0012218952178955,-0.28970223665237427,-0.4552046060562134,-0.8419390916824341,0.6926258206367493,-0.8623460531234741,0.6645404100418091,0.3437297192392379,-0.05597710022491892,-0.2754941418761296,-0.8960019769443612,0.47260199471061576,-0.33139949199348934,-2.3284734565229503
1782905734505682176,0.48165225982666016,5.2379350662231445,-2.4937946796417236,-3.1836090087890625,-0.29683080315589905,-0.5138152241706848,-0.8049132823944092,0.40002599358558655,-1.1036927700042725,0.4671599864959717,0.3276498137184793,-0.05336994216692619,-0.3077255513969462,-0.8916850651226064,0.5396260941835074,-0.35330080551950116,-2.33866531772782
1782905734515602432,0.49157238006591797,3.6479783058166504,-1.840786099433899,-3.4422178268432617,-0.294963538646698,-0.5572221875190735,-0.7762086987495422,0.0553242564201355,-1.0066511631011963,0.35033589601516724,0.3107312197024345,-0.05026444906698838,-0.3307100426935551,-0.8896912153332696,0.5910367150470144,-0.36315178232610096,-2.357896218552671
1782905734525521152,0.5014913082122803,2.9791500568389893,-1.3548429012298584,-3.4322798252105713,-0.2860923111438751,-0.5920079350471497,-0.7534439563751221,-0.07775351405143738,-0.7998530268669128,0.19222569465637207,0.2932977325493995,-0.04605917852544242,-0.34807553300208416,-0.8892122396626833,0.633548022249758,-0.36289601038082175,-2.384245909849402
1782905734535441408,0.5114114284515381,3.144813299179077,0.14020469784736633,-3.619051456451416,-0.2675507664680481,-0.6225499510765076,-0.735423743724823,0.020694077014923096,-0.5680323243141174,0.07853293418884277,0.276666958798266,-0.03788178071487905,-0.36173621467517986,-0.8894758101067923,0.6719968868401488,-0.3489198527657017,-2.4155216404099624
1782905734545361408,0.5213313102722168,4.441259860992432,-1.334614872932434,-1.8186300992965698,-0.25178465247154236,-0.657018780708313,-0.7105848789215088,0.42199644446372986,-0.862359881401062,0.2085707187652588,0.26384233666308055,-0.029129772662317397,-0.379287526375678,-0.8863857120915735,0.7168573450543975,-0.3405309494896266,-2.4343379873844855
1782905734555281408,0.5312514305114746,3.4167933464050293,-1.3050657510757446,-1.139128565788269,-0.2519133985042572,-0.6885339617729187,-0.6800445318222046,0.7077239751815796,-0.5751683712005615,0.34799808263778687,0.2558080717027565,-0.02712883388781542,-0.39905105641461525,-0.8801047945436143,0.7594655341909687,-0.3547638923806537,-2.433019218804472
1782905734565200384,0.5411703586578369,2.1322712898254395,-0.45675063133239746,-2.657123565673828,-0.24316146969795227,-0.7107554078102112,-0.6600751876831055,-0.16685743629932404,0.2719278931617737,0.8448896408081055,0.24603910568731585,-0.023150000215268828,-0.41161447107820487,-0.8772128971104814,0.7905715435665215,-0.35295819562716657,-2.446143292301005
1782905734575120384,0.5510904788970947,2.9981913566589355,0.014397459104657173,-3.0880188941955566,-0.22175650298595428,-0.734086811542511,-0.6418260931968689,-0.480040967464447,0.237382709980011,0.4833483099937439,0.23268342771185643,-0.014235583902622511,-0.4229471570179044,-0.8756549699629453,0.8243208799199391,-0.3326680803166064,-2.475609994807735
1782905734585040384,0.5610103607177734,2.5271267890930176,0.056487880647182465,-2.348395347595215,-0.2008403241634369,-0.7577757239341736,-0.6208375096321106,-0.11608470976352692,0.038369596004486084,0.4346802234649658,0.2208565517614373,-0.004884975007166105,-0.4353818906474211,-0.8727205919447423,0.8598975630035427,-0.3128737188723766,-2.5014654015906204
1782905734594959360,0.5709292888641357,1.3253953456878662,0.01939457654953003,-2.3597614765167236,-0.18270546197891235,-0.7740268111228943,-0.6062188148498535,-0.04196493327617645,-0.1474209427833557,0.6931023597717285,0.21073180542206493,0.0024711809011718393,-0.4437166816594166,-0.8710347807051967,0.8851766376644447,-0.2927272738755932,-2.5273399434038857
1782905734604879360,0.5808494091033936,0.02835194580256939,0.5154415965080261,-2.711466073989868,-0.16043098270893097,-0.7825003266334534,-0.6016271114349365,-0.31396475434303284,-0.31192106008529663,0.615466833114624,0.20010401371522196,0.01039564624308323,-0.4461819945103091,-0.8722224671136541,0.8986713897739425,-0.2605978693127115,-2.564342698829597
1782905734614799360,0.5907692909240723,-0.591220498085022,0.7036461234092712,-2.6187565326690674,-0.13504280149936676,-0.7846087217330933,-0.605105459690094,-0.37624868750572205,-0.30080997943878174,0.49025261402130127,0.18975642016975852,0.019095996106495417,-0.4439398664771287,-0.8755257137010181,0.902064757154204,-0.21957417528192175,-2.6080520791396427
1782905734624719360,0.6006894111633301,-0.38274669647216797,0.7079712152481079,-2.510962963104248,-0.11018974334001541,-0.7848613262176514,-0.609795868396759,-0.3180176317691803,-0.18149304389953613,0.24036532640457153,0.1800975901718668,0.02764698526782461,-0.4408375054736284,-0.8788986818289635,0.90247229246635,-0.17877030305378055,-2.650557411185364
1782905734634638336,0.6106083393096924,0.08285826444625854,0.6144806742668152,-2.5140628814697266,-0.08602035790681839,-0.7866851687431335,-0.6113321185112,-0.2366267293691635,0.07138365507125854,0.10879915952682495,0.1704533230765072,0.036173276690568995,-0.4393466018632832,-0.8812557768548285,0.9054210670980958,-0.13979193072733948,-2.6913896667989192
1782905734644558336,0.6205284595489502,0.9459275007247925,0.30817362666130066,-2.5348353385925293,-0.06333291530609131,-0.7919151782989502,-0.6073377728462219,-0.1755892038345337,0.30575495958328247,0.08910363912582397,0.1600032656260106,0.04407550733859238,-0.4408950543252112,-0.8820814968564352,0.9139390590775373,-0.10390401952605528,-2.7315867005395504
1782905734654478336,0.6304483413696289,1.848373532295227,0.09632105380296707,-2.443544864654541,-0.0420418344438076,-0.8020581603050232,-0.5957642793655396,-0.1560782790184021,0.44253063201904297,-0.022247135639190674,0.1490647254031082,0.051719195149022026,-0.446590383879143,-0.8807166367464875,0.9307334005549424,-0.07045110769620966,-2.7708747358830816
1782905734664397312,0.6403672695159912,2.110926866531372,-0.09613426774740219,-2.4016406536102295,-0.022229041904211044,-0.8147724866867065,-0.5793545842170715,-0.18242181837558746,0.5149067640304565,0.09697854518890381,0.13785940130093288,0.05876426750327761,-0.4548290422125641,-0.8778793765329691,0.9523366719698926,-0.03834981732235046,-2.810282542198147
1782905734674317312,0.650287389755249,2.0278711318969727,-0.06754549592733383,-2.4651966094970703,-0.0026183787267655134,-0.8268488645553589,-0.5624181628227234,-0.19737856090068817,0.5344294309616089,0.2531988024711609,0.12638335148678345,0.06541745397251128,-0.46315383702421004,-0.8747779272900326,0.9734816080392108,-0.004655539302246229,-2.8521649816990533
1782905734684237312,0.6602072715759277,2.178539514541626,-0.06248282641172409,-2.5179495811462402,0.01795867457985878,-0.8382280468940735,-0.545024037361145,-0.20368866622447968,0.371354877948761,0.3243666887283325,0.11457934015614855,0.07229226152621246,-0.47144652050014096,-0.8714261717558183,0.9940257244891514,0.032938328112344456,-2.8979907333568047
1782905734694156288,0.6701264381408691,2.6890668869018555,-0.009785071946680546,-2.4890217781066895,0.03903847187757492,-0.8503987193107605,-0.5246884226799011,-0.14681130647659302,0.1469685435295105,0.3369901180267334,0.1027585760823363,0.07951413378379597,-0.4809711859672233,-0.8670552817932281,1.0167426773407333,0.07426630628440203,-2.947060208603438
1782905734704076288,0.6800463199615479,3.065700054168701,-0.11723319441080093,-2.309145927429199,0.059636861085891724,-0.8642355799674988,-0.4995400607585907,-0.09978274255990982,0.051827192306518555,0.2120797336101532,0.09090458960972823,0.08663772613410024,-0.49267014789387986,-0.8611076405399574,1.0436289470446807,0.11882117271996617,-2.9996105679986247
1782905734713996288,0.6899664402008057,3.4639892578125,-0.23683202266693115,-2.3266494274139404,0.07855433225631714,-0.8783400058746338,-0.47153791785240173,0.12269382923841476,0.4225752353668213,0.3068803548812866,0.08027287795178596,0.09350266028231648,-0.505458495654981,-0.8540053868001918,1.072378529410656,0.16507579910693432,-3.0523943460013263
1782905734723916288,0.6998863220214844,3.675140857696533,-0.20681199431419373,-2.7205045223236084,0.10060124844312668,-0.8928917646408081,-0.43888920545578003,-0.13084416091442108,0.0898979902267456,0.08682316541671753,0.06665771163093748,0.10048325671569926,-0.5200562557395976,-0.8455775432013319,1.1037270683605298,0.22532542821018758,-3.1233479016273864
1782905734733835520,0.7098054885864258,3.027656078338623,-0.5486422777175903,-2.624725341796875,0.12267324328422546,-0.9038509726524353,-0.40988361835479736,0.06308723241090775,0.3953671455383301,0.27806296944618225,0.05282174270723852,0.10677222966691194,-0.5325954218651991,-0.8379448419724465,1.128686434575819,0.2908034423981675,3.0826370144973962
1782905734743755264,0.7197253704071045,3.2435355186462402,-0.4565231204032898,-2.6234054565429688,0.14439426362514496,-0.9127195477485657,-0.38222169876098633,-0.06988558173179626,0.3400571942329407,0.1790967583656311,0.03873107422284396,0.1123261523163068,-0.5443087172412507,-0.8304281239452977,1.1498913651347529,0.36120238260654497,2.999273965417963
1782905734753675520,0.7296454906463623,3.1429214477539062,-0.5872579216957092,-2.46637225151062,0.16585445404052734,-0.9205747842788696,-0.3536018431186676,-0.10172179341316223,0.2753111720085144,0.11364218592643738,0.025203218213072108,0.11789464161611184,-0.5561473992636109,-0.8222929167506485,1.1695496074083969,0.43857669853370695,2.909897627468176
1782905734763594496,0.7395644187927246,2.970130205154419,-0.6899072527885437,-2.5396080017089844,0.1866196244955063,-0.9266870617866516,-0.3262273073196411,0.011729374527931213,0.3204706311225891,0.1694890260696411,0.01128971104005828,0.1224640155673098,-0.5673525442605958,-0.8142396718889988,1.185499898669974,0.5196174389163954,2.814996370854907
1782905734773514240,0.7494843006134033,2.714216709136963,-0.49052008986473083,-2.4323909282684326,0.2079094499349594,-0.9306082725524902,-0.30123403668403625,-0.05817493796348572,0.39986181259155273,0.20565295219421387,-0.0023127164124183922,0.12722428128599983,-0.5772321554397482,-0.8066050658230699,1.1960712787884478,0.6041133139213174,2.7175208578509453
1782905734783434496,0.7594044208526611,2.8349673748016357,-0.4074419140815735,-2.371978521347046,0.22890083491802216,-0.9334568381309509,-0.27615755796432495,-0.14213931560516357,0.3315280079841614,0.054157406091690063,-0.01475850701910398,0.13245852751007858,-0.5868355533744923,-0.7986620677208379,1.2039324033609233,0.6921029676921945,2.618986059141694
1782905734793354240,0.7693243026733398,2.581482410430908,-0.4398871958255768,-2.526125192642212,0.25078436732292175,-0.934698224067688,-0.2518857419490814,-0.04309698939323425,0.201391339302063,-0.03682577610015869,-0.02758680341935689,0.1377968857075275,-0.5958767833209262,-0.7906844236405537,1.2074091181140416,0.7832071055356525,2.5170210178782306
1782905734803273472,0.7792434692382812,2.4680750370025635,-0.5853865742683411,-2.4045348167419434,0.27271586656570435,-0.9342343211174011,-0.2298525720834732,0.08365312218666077,0.1080472469329834,-0.038457974791526794,-0.04053690466788732,0.14286211830591874,-0.6038742684568135,-0.7831238555274175,1.206106169880693,0.8704807227181929,2.4183940101370958
1782905734813191680,0.7891616821289062,2.5619168281555176,-0.6864010691642761,-2.353986978530884,0.293504536151886,-0.9330203533172607,-0.20815403759479523,0.167188823223114,0.03348428010940552,-0.10887782275676727,-0.05347630052391815,0.1470703656125831,-0.6117951369903069,-0.7753820399037228,1.2027175389496383,0.9539210890039682,2.322409136224902
1782905734823111680,0.7990818023681641,2.736309289932251,-0.757067084312439,-2.2867379188537598,0.313700407743454,-0.9311772584915161,-0.1857450157403946,0.1447194516658783,0.05773353576660156,-0.07444782555103302,-0.06647889588602114,0.15073907898676142,-0.6200042092001148,-0.7671070433478645,1.197628834726086,1.0361987978961418,2.226735588060928
1782905734833030656,0.8090007305145264,3.2652997970581055,-0.9118704795837402,-2.2415409088134766,0.3333662748336792,-0.9289933443069458,-0.1607426553964615,0.10785681009292603,0.15447252988815308,-0.13607124984264374,-0.07987590699122361,0.15366150207580354,-0.6292986686998431,-0.7576220163107049,1.1916835216647967,1.1215058223905594,2.1263884282240575
1782905734842950912,0.8189208507537842,3.8854498863220215,-1.1244760751724243,-2.2354438304901123,0.352713942527771,-0.9264888763427734,-0.13119155168533325,0.16217860579490662,0.1862545609474182,-0.18463484942913055,-0.09425687789193145,0.15544922059944963,-0.64049961946188,-0.7461309438391701,1.1849728514619013,1.2147032880334816,2.0150924609631753
1782905734852870656,0.8288407325744629,4.506811618804932,-1.2180014848709106,-2.12514328956604,0.37168020009994507,-0.9232977628707886,-0.09682422131299973,0.20873358845710754,0.23012161254882812,-0.16800729930400848,-0.10927509827086247,0.15621525802505282,-0.6535936691336074,-0.7324418058951755,1.1765798296388705,1.3159561389743246,1.8933433090128904
1782905734862790912,0.8387608528137207,4.873963356018066,-1.4781256914138794,-2.011742353439331,0.3897613286972046,-0.9190402030944824,-0.058745820075273514,0.27420955896377563,0.21847879886627197,-0.12728935480117798,-0.12493835372587224,0.15541687694459283,-0.6681861154640821,-0.7167728121231228,1.165638564722909,1.4211998105595554,1.7643990878991438
1782905734872709632,0.848679780960083,4.92925500869751,-1.6886547803878784,-1.9426239728927612,0.4073435068130493,-0.9130454659461975,-0.020471740514039993,0.277364045381546,0.24142998456954956,-0.029271898791193962,-0.14114266947592113,0.15322551558665468,-0.6828514266557507,-0.7002246262583078,1.1506896914305544,1.52058187294617,1.6384823197364087
1782905734882629632,0.8585996627807617,4.777202606201172,-1.7198057174682617,-1.8510180711746216,0.4247347414493561,-0.9051668643951416,0.01653779111802578,0.2447904348373413,0.2019045352935791,0.011858820915222168,-0.15724038186652795,0.15041343499505722,-0.6968821237076214,-0.6833788417607105,1.1317721292295866,1.6097134203880161,1.5219874103800775
1782905734892549632,0.8685197830200195,4.5308308601379395,-1.788155436515808,-1.8807647228240967,0.44222015142440796,-0.895490288734436,0.05038577318191528,0.19777926802635193,0.18877947330474854,0.05494570732116699,-0.17315059130350874,0.14730748042725159,-0.7095726830610204,-0.666952861337072,1.109531599851267,1.6842452972172401,1.4198040385487918
1782905734902468608,0.8784387111663818,4.149384021759033,-1.6913758516311646,-1.845058560371399,0.46021243929862976,-0.8841087222099304,0.08097174018621445,0.11478450894355774,0.12499922513961792,0.017096519470214844,-0.1887193009308102,0.14448370359534402,-0.7208400168976482,-0.6510754222829653,1.0845831599954376,1.7449580613723403,1.332169785782991
1782905734912388864,0.8883588314056396,3.888221263885498,-1.4286465644836426,-1.6892534494400024,0.4776124656200409,-0.8718181848526001,0.10871854424476624,0.11897575855255127,0.09641218185424805,0.08888281881809235,-0.20302877928305746,0.14218722337986456,-0.7308502352742842,-0.6359404111818543,1.0589020539597014,1.7946118710517958,1.2580118171133625
1782905734922308608,0.8982787132263184,3.6533782482147217,-1.6817392110824585,-1.5756193399429321,0.49385809898376465,-0.8592005372047424,0.13371188938617706,0.17913088202476501,0.09650510549545288,0.09898461401462555,-0.2165308936967517,0.1395469337268623,-0.7398530909047356,-0.621497026845735,1.0337050849915892,1.8352066959974347,1.1934073211150567
1782905734932228864,0.9081988334655762,3.5041122436523438,-1.6945199966430664,-1.3771175146102905,0.5091168880462646,-0.8465667366981506,0.15532194077968597,0.22509026527404785,0.17972713708877563,0.13625824451446533,-0.22982265405052726,0.13605514665407079,-0.7477633074165508,-0.6078820982507908,1.009501762966507,1.8669081344671425,1.1365683917739953
1782905734942147840,0.9181177616119385,3.8199386596679688,-1.5710865259170532,-1.1910216808319092,0.5229892730712891,-0.8336983919143677,0.1772836446762085,0.2059841752052307,0.13103103637695312,0.2206503301858902,-0.2424267916966182,0.13180165843561342,-0.7558241514510022,-0.5937908354668507,0.9857715471429005,1.8976215181759355,1.0804014028073994
1782905734952067584,0.9280376434326172,3.841827869415283,-1.5200090408325195,-1.079710841178894,0.5355433225631714,-0.8201887607574463,0.20120523869991302,0.14582252502441406,0.07206565141677856,0.33576688170433044,-0.2541653299912734,0.12695475226702063,-0.764516258400538,-0.5786166873602648,0.9617408464499712,1.9301831850190418,1.0225488801254798
1782905734961987840,0.937957763671875,3.052030086517334,-1.4296047687530518,-1.1609811782836914,0.5479374527931213,-0.8067401647567749,0.22121243178844452,0.15286821126937866,0.0981677770614624,0.46064186096191406,-0.2652794227164365,0.12259307699828444,-0.7717364539389342,-0.56481913342371,0.9386145247766665,1.9545041209968108,0.974380772548404
1782905734971906560,0.9478766918182373,2.3277089595794678,-1.2589659690856934,-1.1864324808120728,0.5608739852905273,-0.7937825918197632,0.23522236943244934,0.08950138092041016,0.07005822658538818,0.3591378927230835,-0.2755145454307321,0.12004146249929798,-0.7766603078583041,-0.5536068627611455,0.9170033424608404,1.9679017855873893,0.9409993875016697
1782905734981826816,0.9577968120574951,1.4790656566619873,-1.0909148454666138,-0.9541950225830078,0.5723497867584229,-0.7829441428184509,0.2437502145767212,0.17130249738693237,0.007278919219970703,0.13079200685024261,-0.2841710773215672,0.11850919279541969,-0.779634962689524,-0.5453179745560321,0.8993844793875772,1.9734089626490499,0.9194101340138267
1782905734991746560,0.9677166938781738,-0.04035967215895653,-1.011236310005188,-0.9604701995849609,0.582888126373291,-0.7752153873443604,0.2434801310300827,0.254086971282959,-0.04741644859313965,-0.008265972137451172,-0.29149612931700253,0.11856668940786205,-0.7795396133114498,-0.5415625138029407,0.8870560149197299,1.966478952679641,0.9147980710458504
1782905735001666816,0.9776368141174316,-0.7929967045783997,-0.9103848934173584,-0.5709071159362793,0.5915794968605042,-0.7716021537780762,0.23380409181118011,0.3150673508644104,-0.035038650035858154,0.12642556428909302,-0.29726254792515605,0.11980756982468466,-0.7762397778509478,-0.5428933092129742,0.8813560150190476,1.947175306337077,0.9269756139114866
1782905735011585792,0.987555742263794,-0.8378781676292419,-0.8786213994026184,-0.3796628713607788,0.5975678563117981,-0.7703854441642761,0.22230347990989685,0.37714827060699463,-0.11366301774978638,0.07333552837371826,-0.3016039275023501,0.12060416203864885,-0.772402986675687,-0.5457868640263106,0.8794454525056161,1.9269463570896583,0.9417341565465682
1782905735021505792,0.9974758625030518,-0.575676441192627,-0.7648562788963318,-0.26904305815696716,0.6021544933319092,-0.7697398066520691,0.2119220495223999,0.3966858983039856,-0.029271483421325684,0.09694638848304749,-0.30535937327508117,0.12080391630344174,-0.7690041842322627,-0.548447629579517,0.8784334862793205,1.9091980644707967,0.9540361196945899
1782905735031425792,1.0073957443237305,-0.002818223787471652,-0.5363714098930359,-0.255124568939209,0.606029212474823,-0.768384575843811,0.205703467130661,0.3941539525985718,-0.023485660552978516,0.03965786099433899,-0.3085831448126688,0.12072125792711899,-0.766992901967369,-0.549476837357958,0.8763131687621319,1.8980222773927693,0.9600820464060356
1782905735041344768,1.0173146724700928,-0.12377187609672546,-0.4075241684913635,-0.25706323981285095,0.6093387007713318,-0.7664119005203247,0.20327116549015045,0.3882351517677307,-0.1533726453781128,-0.04967617988586426,-0.3111762335778027,0.12063258909146668,-0.7662136532999784,-0.5491209045148792,0.8732364500338878,1.8927806216109706,0.9610870539661714
1782905735051264768,1.0272347927093506,-0.9115889668464661,-0.22313062846660614,-0.2579948306083679,0.6124686002731323,-0.7655143141746521,0.1971559226512909,0.4180948734283447,-0.20265597105026245,0.05873408913612366,-0.3130563761422145,0.1217163425976245,-0.7640439066217779,-0.5508338167919512,0.8718402563697173,1.882225205065196,0.9703579529127432
1782905735061184768,1.0371546745300293,-1.5346277952194214,0.07242309302091599,-0.07946260273456573,0.6145156621932983,-0.7662572264671326,0.18767140805721283,0.3842484951019287,-0.440041720867157,-0.047351568937301636,-0.3133152244506735,0.12428608996280482,-0.7605186844546595,-0.5549756362420252,0.872995733949679,1.8671973536864241,0.988960654123358
1782905735071104768,1.047074794769287,-2.4196126461029053,0.25663474202156067,0.14429086446762085,0.6144359707832336,-0.7696263194084167,0.17361873388290405,0.3363848328590393,-0.6174585223197937,0.013347133994102478,-0.31154334375472836,0.12790475376790464,-0.7552812341644948,-0.5622555150023016,0.8782557078744543,1.8461829190843246,1.0184333263849243
1782905735081023744,1.0569937229156494,-2.4826769828796387,0.5177566409111023,0.19608163833618164,0.6129751801490784,-0.774405300617218,0.15670880675315857,0.28228843212127686,-0.6938715577125549,0.05959974229335785,-0.30815417924636695,0.13247966479446835,-0.7488681737933435,-0.5715649815511332,0.8857746350587298,1.82108812952053,1.0559716128325507
1782905735090943744,1.0669138431549072,-1.5813877582550049,0.5253301858901978,0.615302324295044,0.6098018884658813,-0.7793809175491333,0.14389875531196594,0.2772830128669739,-0.7214124202728271,-0.03307415544986725,-0.3040138426298674,0.1358898332928642,-0.7439646052232844,-0.5793324761468973,0.8936771529412825,1.8025332503721503,1.0863145789642206
1782905735100863744,1.076833724975586,-0.7420397996902466,0.417394757270813,0.8923760652542114,0.6036666631698608,-0.7852572202682495,0.13768786191940308,0.4013688564300537,-0.60408616065979,-0.11037467420101166,-0.299563233795317,0.13625479933941176,-0.7418076306643732,-0.5843099022927921,0.9031114639902574,1.7950460455313066,1.101485263412158
1782905735110782720,1.0867526531219482,0.22757591307163239,0.4080404043197632,0.9407129287719727,0.5966141819953918,-0.7905451655387878,0.1381661742925644,0.37784260511398315,-0.47248584032058716,-0.10940337181091309,-0.2954771966959107,0.13475550263810068,-0.7422425773633592,-0.5861827011510883,0.9116986861104381,1.7983684110172657,1.1024214422454768
1782905735120702720,1.096672773361206,0.5551478862762451,0.36800068616867065,1.1513928174972534,0.5884283781051636,-0.7956025004386902,0.14411315321922302,0.3766593933105469,-0.5865232944488525,-0.1690155416727066,-0.29156669207529945,0.13157689474161494,-0.744811453232216,-0.585604154566593,0.9200014242194834,1.8109805646959123,1.0912503229486112
1782905735130622720,1.1065926551818848,-0.0693282037973404,0.3971194326877594,1.2307006120681763,0.5789841413497925,-0.8017094731330872,0.14845626056194305,0.38994890451431274,-0.6896692514419556,-0.019504204392433167,-0.28716342326843386,0.1280264299239592,-0.7468851094345729,-0.585925786650583,0.9301497788773859,1.8217970595522857,1.0821216967482006
1782905735140542720,1.1165127754211426,-1.340078353881836,0.44171035289764404,1.2007323503494263,0.5694031715393066,-0.8090832829475403,0.1454802006483078,0.36913442611694336,-0.8589159846305847,0.05413532257080078,-0.2819582312635251,0.12598400530241963,-0.7462359751808011,-0.5897114167998314,0.942590600113485,1.820940919378187,1.0882008702112373
1782905735150461696,1.1264317035675049,-2.9220569133758545,0.560360312461853,1.0866081714630127,0.5602297186851501,-0.8178969025611877,0.13110043108463287,0.3567318916320801,-0.9872788190841675,0.09306643903255463,-0.2757035867803453,0.1264937478141682,-0.7413160890935482,-0.5986963524971678,0.9577462482429748,1.800671706556819,1.1191353793342387
1782905735160381696,1.1363518238067627,-4.031163215637207,0.328987181186676,1.1908165216445923,0.5515683889389038,-0.8275566101074219,0.10451020300388336,0.3375306725502014,-1.0270271301269531,0.08712493628263474,-0.26892981941383315,0.12886852719499028,-0.7318797738944464,-0.6127166102869863,0.9747411621383261,1.7580546416341816,1.1759545303648657
1782905735170301696,1.1462717056274414,-4.078150272369385,0.12297278642654419,1.4295254945755005,0.5417408347129822,-0.837500274181366,0.07148817181587219,0.4029766321182251,-0.9942411780357361,-0.009461157023906708,-0.2619936697514049,0.1306651562273753,-0.7201879644630502,-0.6289796415575466,0.9926924159070086,1.7019983729778518,1.2455254532783677
1782905735180221696,1.1561918258666992,-3.4047298431396484,-0.15346108376979828,1.5313986539840698,0.5311522483825684,-0.8463484644889832,0.039645951241254807,0.4436402916908264,-0.8147843480110168,-0.03999686241149902,-0.25575217507383624,0.13080563531353767,-0.7090224690413006,-0.6440247980268728,1.0090917884021995,1.6452995823083292,1.3121266199273902
1782905735190140672,1.1661107540130615,-2.727570056915283,-0.29361581802368164,1.4849286079406738,0.5229659080505371,-0.8522676825523376,0.01209391187876463,0.48596036434173584,-0.6105465888977051,-0.09203469753265381,-0.25154321393512447,0.13039722061102837,-0.6993164670019069,-0.6562613537917429,1.020305118288273,1.5939178271786514,1.369411002568732
1782905735200060672,1.1760306358337402,-2.2844269275665283,-0.4092000126838684,1.5805692672729492,0.5159868597984314,-0.8565164804458618,-0.011704960837960243,0.5173230171203613,-0.5404561161994934,0.03605794906616211,-0.24865230260937313,0.1293399584494242,-0.690954915235913,-0.6663516051474292,1.028481941860897,1.5481156061018013,1.4181200725232779
1782905735209980672,1.185950756072998,-2.477588415145874,-0.5525315999984741,1.7057770490646362,0.5030827522277832,-0.863569438457489,-0.03399399295449257,0.6220698356628418,-0.629258930683136,0.11893963813781738,-0.24377644746937335,0.12552007974421864,-0.6835552015733374,-0.6764392393388616,1.0423063288131549,1.5033275120806364,1.4647943485666324
1782905735219899648,1.1958696842193604,-3.534811019897461,-0.5675383806228638,1.6140986680984497,0.48917704820632935,-0.8699541687965393,-0.06233624368906021,0.6963698863983154,-0.7508497834205627,0.215046226978302,-0.23852859204632595,0.12178320287896517,-0.6737957619226405,-0.688674365898114,1.055109409593702,1.4440486038201124,1.526589094389914
1782905735229819648,1.2057898044586182,-4.9937028884887695,-0.8155708312988281,1.680273175239563,0.4748571813106537,-0.8740906715393066,-0.102353036403656,0.7467461824417114,-0.9103941917419434,0.3126649260520935,-0.23276533908609126,0.11911502253546764,-0.6592686035047056,-0.7049799955405173,1.0635606623644038,1.358499406060195,1.6168646570679064
1782905735239739648,1.2157096862792969,-6.357445240020752,-1.0112695693969727,1.665265679359436,0.4596911370754242,-0.8742470741271973,-0.15612821280956268,0.7780560255050659,-0.938161313533783,0.6139223575592041,-0.22661216318469704,0.11720600764331586,-0.6389042529923172,-0.7257485725028245,1.0638827815883147,1.2433830532488857,1.7382087964173816
1782905735249658880,1.2256288528442383,-6.507235050201416,-1.1187905073165894,1.6795927286148071,0.4435150921344757,-0.8695293664932251,-0.21728552877902985,0.6696593761444092,-0.8061144948005676,0.8520206809043884,-0.22013469113982564,0.11545120178390533,-0.6148400224334304,-0.7484540609860366,1.0542486468874614,1.115247684199723,1.8730714002689193
1782905735259578624,1.235548734664917,-5.553599834442139,-1.1696763038635254,1.9136899709701538,0.4254981279373169,-0.8624467849731445,-0.27411094307899475,0.5143212080001831,-0.5490674376487732,0.8865071535110474,-0.21349398971866068,0.11232351209444848,-0.591885088463649,-0.7690745954073908,1.040084066583026,0.9985008735300801,1.994689351684901
1782905735269498880,1.2454688549041748,-4.652084827423096,-1.1515947580337524,1.984360933303833,0.40577858686447144,-0.8553747534751892,-0.3219906985759735,0.35098111629486084,-0.29403942823410034,0.8357692956924438,-0.20660597366751016,0.10767771060096218,-0.5721976597407104,-0.7863265664276463,1.0262738032423198,0.9000232493681097,2.0961857175375354
1782905735279418624,1.2553887367248535,-4.07977294921875,-0.9748504161834717,2.0130839347839355,0.3856162130832672,-0.8483405709266663,-0.362792432308197,0.2317696511745453,-0.11856311559677124,0.829558789730072,-0.1994924336974148,0.1024665023218669,-0.5550715220783521,-0.8009987396992406,1.0128431796618238,0.8158851194119894,2.182852270038017
1782905735289337600,1.2653076648712158,-3.4123592376708984,-0.9096967577934265,2.238567352294922,0.36441770195961,-0.8422315716743469,-0.3972979784011841,0.2886432111263275,-0.10697191953659058,0.7954150438308716,-0.1917375602570213,0.09660754852535128,-0.5403868925818596,-0.8135635812286969,1.0014093053436224,0.7422588625709011,2.259042212182848
1782905735299257856,1.2752277851104736,-3.1889705657958984,-1.0000849962234497,2.2668042182922363,0.3421313762664795,-0.8367831707000732,-0.42748114466667175,0.3864453434944153,-0.25725680589675903,0.7301239371299744,-0.18364050835143284,0.08999413958778865,-0.5274092128851322,-0.8246313464634433,0.9913815073526118,0.6749497964661584,2.328338054265937
1782905735309177600,1.2851476669311523,-3.550419330596924,-0.9900414943695068,2.2025156021118164,0.31965503096580505,-0.8294239640235901,-0.4581229090690613,0.44030898809432983,-0.3243998885154724,0.646538496017456,-0.17561679178682155,0.08328624843535014,-0.5138111923642417,-0.8355957638961955,0.9780757519736025,0.609213937200403,2.3957457474992987
1782905735319097856,1.2950677871704102,-3.9066569805145264,-1.0568664073944092,2.241706609725952,0.297079861164093,-0.818795919418335,-0.4912402033805847,0.4607478976249695,-0.27948594093322754,0.6836687326431274,-0.16753358190961173,0.07676565101869429,-0.4984846397065647,-0.8470848345902472,0.9593104592425137,0.5439083508038813,2.462974844106476
1782905735329016576,1.3049867153167725,-4.469582557678223,-1.029222846031189,2.246098756790161,0.2740318179130554,-0.804138720035553,-0.5275106430053711,0.4510048031806946,-0.17736762762069702,0.6751699447631836,-0.15908096933582383,0.07041567429192959,-0.48092234103775366,-0.8593302993362884,0.934225107446894,0.4791107609205022,2.5303630662702963
1782905735338936832,1.3149068355560303,-5.049874305725098,-0.9099796414375305,2.2096753120422363,0.25156185030937195,-0.7842432260513306,-0.5671676993370056,0.37510135769844055,-0.08849847316741943,0.6883835196495056,-0.1501880700769064,0.06487547947245854,-0.46065965841359124,-0.8723688282967181,0.9014754430749969,0.4174692594320137,2.5962995370685835
1782905735348856576,1.324826717376709,-5.247289180755615,-0.8301244974136353,2.202402114868164,0.23020945489406586,-0.7594766616821289,-0.6084397435188293,0.33813467621803284,-0.1260366439819336,0.7272751331329346,-0.1410034066811989,0.060177114872086206,-0.4383592794981623,-0.8856285678227985,0.8625082374554662,0.36171344870719874,2.6579354052566524
1782905735358775552,1.3347456455230713,-5.103834629058838,-0.7761891484260559,2.314840316772461,0.20915311574935913,-0.7322146892547607,-0.6481639742851257,0.33215242624282837,-0.18552517890930176,0.690903902053833,-0.1312965682138036,0.05565790647836662,-0.4157164955691005,-0.898244463813423,0.8215680642472877,0.31213707884735115,2.7144516428675143
1782905735368695808,1.344665765762329,-4.667593002319336,-0.7880644798278809,2.415135383605957,0.18756261467933655,-0.7047440409660339,-0.6842193603515625,0.37063440680503845,-0.051008522510528564,0.6759185791015625,-0.12101418615937512,0.050665922274418025,-0.39411076773472997,-0.9096511418673143,0.7820622851792347,0.26755389533169704,2.7662274621951797
1782905735378615552,1.3545856475830078,-3.714836597442627,-0.7674072980880737,2.5160770416259766,0.16567279398441315,-0.6802460551261902,-0.7140153050422668,0.32753705978393555,0.12810677289962769,0.6404069066047668,-0.11032183049542013,0.045059200004186506,-0.37544907965990637,-0.9191500243058454,0.7480982440096257,0.22799529440956878,2.8128597297688462
1782905735388535808,1.3645057678222656,-2.635357618331909,-0.7335920333862305,2.6745853424072266,0.14362555742263794,-0.6618506908416748,-0.7357482314109802,0.16624994575977325,0.2431037425994873,0.5473784804344177,-0.09926893383443114,0.038794926949521684,-0.36141505167191557,-0.9262936584530389,0.7232848495595945,0.19278577537823657,2.8549509517434797
1782905735398454784,1.374424695968628,-1.6875604391098022,-0.6484553813934326,3.0037624835968018,0.12035231292247772,-0.6503288745880127,-0.7500584125518799,-0.04884963482618332,0.31974726915359497,0.39075976610183716,-0.0870839164985345,0.03168983278958498,-0.3520888179781552,-0.9313675463953331,0.7080172484213898,0.15910106154563192,2.8962249094870685
1782905735408374784,1.3843448162078857,-1.1072824001312256,-0.3229494094848633,3.0265724658966064,0.0979234054684639,-0.6439440250396729,-0.7587800025939941,-0.2920151948928833,0.38156914710998535,0.23731088638305664,-0.07378509644842496,0.025034563251932512,-0.34638601646564104,-0.9348506581192912,0.6996422654996606,0.12834437169314225,2.937185787958023
1782905735418294784,1.3942646980285645,-1.1030632257461548,-0.1389659345149994,2.8020105361938477,0.07847154885530472,-0.6391503214836121,-0.7650680541992188,-0.4211076498031616,0.38330620527267456,0.11586761474609375,-0.060514008635201316,0.01976586461500907,-0.34216265162473325,-0.9374818444038003,0.6933929651221732,0.10221063301407443,2.975716913192659
1782905735428213760,1.4041838645935059,-1.3707224130630493,-0.3731198310852051,2.7113397121429443,0.059875376522541046,-0.6323602795600891,-0.7723570466041565,-0.39500415325164795,0.3205011487007141,-0.0006379485130310059,-0.04810295404390331,0.014598008430378513,-0.3370584020418876,-0.9401407482783782,0.6845962160421368,0.07736817835583389,3.011770220364313
1782905735438133760,1.4141037464141846,-1.4684638977050781,-0.43682026863098145,2.57167649269104,0.04094685986638069,-0.6234814524650574,-0.780765175819397,-0.4110182523727417,0.3258892893791199,-0.08686482906341553,-0.03643734238472446,0.00892350569659143,-0.3309649105294892,-0.9428971321960098,0.6731877207818557,0.05239652183654687,3.046005348866122
1782905735448053760,1.4240238666534424,-1.7664787769317627,-0.2683905363082886,2.27109694480896,0.023654665797948837,-0.6127141118049622,-0.7899505496025085,-0.5717808604240417,0.44166308641433716,-0.05146479606628418,-0.025645722423260176,0.003718726116564603,-0.3240538263275751,-0.9456836708297839,0.6594902644591247,0.02993554331692803,3.0771227035946125
1782905735457973760,1.433943748474121,-2.320178508758545,-0.16947326064109802,2.0029242038726807,0.009758352302014828,-0.5976343750953674,-0.8017094135284424,-0.7256702184677124,0.5207605957984924,0.03149151802062988,-0.016074351763032384,-0.00019200235757410589,-0.31487340404584646,-0.9489975840059728,0.640547341325808,0.0121713306957517,3.103682220709506
1782905735467892736,1.4438626766204834,-2.104391574859619,0.0361909419298172,1.8226934671401978,-0.0016491864807903767,-0.5804703831672668,-0.8142797350883484,-0.7975451350212097,0.44770365953445435,0.10146540403366089,-0.007226139536182126,-0.0031777147131653457,-0.304713037975517,-0.9524115441861005,0.6193062041967763,-0.0020253288517608544,3.127066534924765
1782905735477812736,1.4537827968597412,-1.3080376386642456,0.21619905531406403,1.7428172826766968,-0.010226412676274776,-0.5674379467964172,-0.8233526349067688,-0.845990002155304,0.4486483335494995,0.13185489177703857,0.0012224565689152847,-0.0049747266115126336,-0.29715136355461447,-0.9548166365807498,0.6033910406943996,-0.012419814351241135,-3.135167015746938
1782905735487732736,1.46370267868042,-0.4428832232952118,0.39182600378990173,1.5222302675247192,-0.01667935773730278,-0.5613805651664734,-0.8273897171020508,-0.8856644034385681,0.7493383288383484,0.03704547882080078,0.009508672843885041,-0.005803134640520107,-0.29372006082898944,-0.9558266394993524,0.596053088471868,-0.02015627998510447,-3.1155053863163515
1782905735497651712,1.4736218452453613,0.15428590774536133,0.3335355520248413,0.9713335037231445,-0.020593781024217606,-0.5614993572235107,-0.8272208571434021,-1.0521296262741089,1.1804873943328857,-0.0965309739112854,0.01596556828024894,-0.005865051280903577,-0.29386250460696,-0.9556963777349352,0.5961966836074283,-0.02489000028466005,-3.100536476007286
1782905735507571712,1.48354172706604,0.7136629223823547,-0.09257901459932327,0.34949129819869995,-0.02336934208869934,-0.5669230818748474,-0.8234391808509827,-1.181830883026123,1.3955516815185547,-0.18531936407089233,0.019248300582792727,-0.006250355910697712,-0.29705444600601894,-0.9546460125457797,0.6027658524993005,-0.028372551026418353,-3.0924523824753254
1782905735517491712,1.4934618473052979,0.662382185459137,-0.355944961309433,0.21507395803928375,-0.029024813324213028,-0.5793355107307434,-0.814572274684906,-1.1808292865753174,1.0426075458526611,-0.309908926486969,0.02061054585360185,-0.008652009447368027,-0.30436657405832507,-0.9522927029785249,0.61791319344553,-0.03561690031158232,-3.086944068534124
1782905735527411712,1.5033817291259766,-0.2785998582839966,-0.08346789330244064,-0.27281519770622253,-0.033224307000637054,-0.5835879445075989,-0.8113699555397034,-1.2276246547698975,0.5123904347419739,-0.19899070262908936,0.020703623374276607,-0.010781270193554873,-0.306918193836602,-0.9514495500890463,0.6231400761749154,-0.04092554153722038,-3.0848972305281297
1782905735537330688,1.5133006572723389,-0.691630482673645,-0.07222223281860352,-0.592698872089386,-0.03338893502950668,-0.5799700617790222,-0.8139532804489136,-1.3048678636550903,0.3869006037712097,-0.07007992267608643,0.01881719328549869,-0.011509912426305372,-0.3047800729692879,-0.9521672928457726,0.6186919444020563,-0.04099771838025669,-3.0889680398866433
1782905735547250688,1.5232207775115967,0.7684140205383301,-0.9417086839675903,-0.13137203454971313,-0.0366106778383255,-0.5800105929374695,-0.8137858510017395,-1.082377314567566,0.6209957599639893,-0.2676045298576355,0.016264206653279337,-0.014018298390125056,-0.304812360610422,-0.9521703046040987,0.6187416581781285,-0.044957785039855154,-3.093061369797959
1782905735557170688,1.5331406593322754,1.9270068407058716,-1.0390506982803345,-0.029255053028464317,-0.04631439596414566,-0.5923077464103699,-0.8043795824050903,-0.6092947721481323,0.8392712473869324,-0.43341338634490967,0.015319395542153147,-0.019348255894956534,-0.3121471778462589,-0.9497131193890672,0.6339200516809612,-0.05751428794355335,-3.0904639202200332
1782905735567089920,1.5430598258972168,2.478619337081909,-0.5201936960220337,-0.8997966051101685,-0.05097771808505058,-0.6097005605697632,-0.7909908294677734,-0.9205951690673828,1.3343862295150757,-0.15377235412597656,0.012950235989378264,-0.022523982795518017,-0.32248605078982184,-0.9462175530221043,0.6556827337979662,-0.06435891618932724,-3.092325616116897
1782905735577009664,1.5529797077178955,3.9224863052368164,-1.2239099740982056,-1.3421804904937744,-0.04964524880051613,-0.6346372365951538,-0.7712138891220093,-0.8127052187919617,1.1016631126403809,-0.42165714502334595,0.005439094802014943,-0.02442780723884735,-0.3373371310607959,-0.941051154658386,0.6875390556068255,-0.06428417104142312,-3.1070135566173
1782905735586929920,1.5628998279571533,3.512166738510132,-1.0826172828674316,-0.46272048354148865,-0.054586976766586304,-0.6645398139953613,-0.7452563643455505,0.1256013661623001,0.5892072319984436,-0.8885784149169922,0.0007418647863129228,-0.028935104681912953,-0.35571699724727396,-0.9341453525047134,0.7268778305117968,-0.07311533620359066,-3.1121854597943654
1782905735596849664,1.572819709777832,3.1621105670928955,-0.788238525390625,-1.1217509508132935,-0.05656168982386589,-0.6881592869758606,-0.7233516573905945,0.05434917286038399,0.5630372166633606,0.011635959148406982,-0.003575797539412688,-0.031893991028283254,-0.37054952056976015,-0.9282580981972696,0.7589490238455734,-0.07803512100821727,-3.1181629711116003
1782905735606768640,1.5827386379241943,3.246715545654297,-0.1677505075931549,-0.5131474733352661,-0.05502370744943619,-0.7108966112136841,-0.701140820980072,0.303772509098053,0.12814819812774658,0.15545600652694702,-0.008409296397341419,-0.03334374173827785,-0.38512047402390126,-0.922225436321706,0.790772227404814,-0.07831688595687433,-3.1271285788411043
1782905735616688640,1.5926587581634521,2.9735679626464844,-0.2059384435415268,0.339992493391037,-0.05618242174386978,-0.7330069541931152,-0.6778969764709473,0.9090724587440491,-0.13656091690063477,0.10708093643188477,-0.008230509106025333,-0.03426357300699979,-0.39984686113287726,-0.9159043166265997,0.8227320269400845,-0.08268854650932374,-3.1234745423821986
1782905735626608640,1.6025786399841309,2.119882822036743,-0.9549501538276672,0.3819311559200287,-0.06389997899532318,-0.7491245269775391,-0.6593400239944458,0.9082298278808594,0.03620338439941406,0.0629349946975708,-0.007088960671046536,-0.038275957516858035,-0.41093178370164163,-0.9108346959021526,0.846739478069971,-0.0966133359924881,-3.113595261875789
1782905735636528640,1.6124987602233887,1.5960673093795776,-0.7854745984077454,-0.25508642196655273,-0.07120534777641296,-0.7600137591362,-0.6459945440292358,0.8111956119537354,-0.06498318910598755,-0.13907015323638916,-0.007812366673323463,-0.042850705345457436,-0.4185290266664076,-0.9071584122176692,0.8633343261583829,-0.10978275337755719,-3.108205661588085
1782905735646447616,1.622417688369751,1.8985153436660767,-0.9001207947731018,-0.8159191012382507,-0.07294628024101257,-0.7712413668632507,-0.6323492527008057,0.787362813949585,-0.07636904716491699,-0.07462090253829956,-0.011809067355351392,-0.04594814236871663,-0.4262794019644734,-0.9033466533212304,0.8807890007947754,-0.11484991634193903,-3.113565526876869
1782905735656367872,1.6323378086090088,1.5569981336593628,-1.2963223457336426,-0.28272145986557007,-0.0747019574046135,-0.7820154428482056,-0.6187660098075867,0.5827738642692566,0.027712523937225342,-0.06775736808776855,-0.01717582229399183,-0.049806866168851854,-0.433746770433754,-0.8994931622908857,0.8978930264454681,-0.12014584617305349,-3.1218434520103955
1782905735666287616,1.6422576904296875,1.6040260791778564,-0.8422074317932129,0.14428496360778809,-0.08193839341402054,-0.7917985320091248,-0.6052612066268921,0.36114370822906494,0.04504871368408203,-0.08181148767471313,-0.01893536961149587,-0.05505953099162755,-0.4408376635203544,-0.8956963462687116,0.9137480099284511,-0.13455887581727644,-3.1176473789923786
1782905735676206848,1.652176856994629,1.4253606796264648,-0.11902524530887604,-0.21002943813800812,-0.08434893935918808,-0.8012270927429199,-0.5923852920532227,-0.05813764035701752,-0.008205831050872803,-0.03008168935775757,-0.01914762665934051,-0.05688856519441973,-0.44785158857848645,-0.8920907874307352,0.929343206652663,-0.14143789799292783,-3.1135248947968805
1782905735686126592,1.6620967388153076,0.5213804841041565,-0.3431571424007416,-0.5694366097450256,-0.08261923491954803,-0.8069429993629456,-0.5848222374916077,0.05902915447950363,-0.04957860708236694,0.055006563663482666,-0.021642801825190235,-0.05741232399456063,-0.45198750780970076,-0.8899116394722772,0.9389578515268037,-0.14034365955480538,-3.1189387025904995
1782905735696046848,1.6720168590545654,0.5429559350013733,-0.7487754225730896,-0.16799326241016388,-0.08319191634654999,-0.8104975819587708,-0.5798041224479675,0.3951426148414612,-0.15332382917404175,-0.0003502368927001953,-0.024294991832098618,-0.059248739504358,-0.45451900123223865,-0.8884322656122702,0.9450011157702931,-0.1425101330845039,-3.123340527242294
1782905735705966592,1.6819367408752441,-0.07575394958257675,-0.3893927335739136,-0.2217465043067932,-0.08614545315504074,-0.811862051486969,-0.5774590373039246,0.32085615396499634,-0.21191108226776123,0.02138298749923706,-0.02593385664348884,-0.06182617280403178,-0.4554646190799104,-0.8877256692959125,0.9473343442973161,-0.14808809493636915,-3.1239930743982147
1782905735715885568,1.6918556690216064,-0.8849920630455017,-0.09540398418903351,-0.5741565823554993,-0.08346927165985107,-0.8088576197624207,-0.5820500254631042,0.2638891935348511,-0.20537883043289185,0.23962754011154175,-0.028534192203119143,-0.06148927648583472,-0.452983505213114,-0.8889379966753533,0.9422066567983982,-0.14243456615288216,-3.1331283296958805
1782905735725805824,1.7017757892608643,-0.6559575796127319,-0.7401896119117737,0.1136508658528328,-0.08365841209888458,-0.8046135306358337,-0.5878761410713196,0.3751470744609833,-0.45625072717666626,0.015061259269714355,-0.030731341825014122,-0.062489019002451796,-0.4496187719325778,-0.8905019548944925,0.9350243435683168,-0.14135706854730634,-3.1391341895944675
1782905735735725568,1.711695671081543,-1.2730860710144043,-1.1856502294540405,0.8087841868400574,-0.09546986222267151,-0.7991072535514832,-0.5935596823692322,0.5831102728843689,-0.5545609593391418,0.03835344314575195,-0.030884168811070534,-0.06893218562699524,-0.44549803787376396,-0.8920908119016218,0.9258087557167027,-0.15947701685468754,-3.131087701131032
1782905735745645824,1.7216157913208008,-1.8403551578521729,0.0973358303308487,-0.5924795269966125,-0.09908007085323334,-0.7890459299087524,-0.6062917113304138,0.36603257060050964,-0.25360238552093506,0.3828114867210388,-0.03250472280751793,-0.07120953190824182,-0.4379307576764328,-0.8955943337874539,0.9092543854688983,-0.16198791202478258,-3.1348412304539113
1782905735755564800,1.731534719467163,-1.579638123512268,-0.2295185774564743,-0.37593385577201843,-0.09380101412534714,-0.7792246341705322,-0.6196855902671814,0.09917210042476654,-0.1977192759513855,0.17774540185928345,-0.03562541672749802,-0.06921513563613398,-0.430542053596397,-0.8992071687524066,0.8934277386690443,-0.15022827092506433,3.1344617652562934
1782905735765484800,1.741454839706421,-1.1473344564437866,-0.14962801337242126,0.17136280238628387,-0.09472206979990005,-0.770738959312439,-0.6300708055496216,0.44231730699539185,-0.13357317447662354,-0.022929072380065918,-0.03660057535266307,-0.06972311031559818,-0.424385760063292,-0.902050932505671,0.8800001164893664,-0.14921813300569392,3.13083805157518
1782905735775404800,1.7513747215270996,-1.5243861675262451,-0.15787406265735626,-0.06128612160682678,-0.09654337912797928,-0.7626170516014099,-0.6396050453186035,0.4022226929664612,-0.05310255289077759,0.017565250396728516,-0.037360234492402424,-0.07064526394839823,-0.41857704020548075,-0.9046583292923959,0.8673493724538324,-0.14981127459191965,3.1285204383911718
1782905735785323520,1.761293649673462,-1.7377920150756836,-0.20168545842170715,0.12801909446716309,-0.09714966267347336,-0.7518019080162048,-0.6521930694580078,0.25109556317329407,-0.09074258804321289,0.1592732071876526,-0.03840375913848235,-0.07087086856130437,-0.4109510904065456,-0.9080867570888452,0.8507905220237895,-0.14787115593857866,3.1241529388569247
1782905735795243776,1.7712137699127197,-1.6713547706604004,0.06342808157205582,-0.030825551599264145,-0.098290354013443,-0.7407620549201965,-0.6645378470420837,0.2317284643650055,-0.27071255445480347,-0.006040096282958984,-0.03909599941723505,-0.07121949347351221,-0.40330986817600745,-0.9114496190829147,0.8342040394386516,-0.146843192676673,3.121017089938471
1782905735805163520,1.7811336517333984,-2.095529556274414,-0.34239906072616577,0.19933174550533295,-0.09932127594947815,-0.7282232046127319,-0.6781048774719238,0.12834349274635315,-0.3107171654701233,0.045170366764068604,-0.0400059028950391,-0.07152384740631862,-0.39475550522262276,-0.9151239616375539,0.8157257790834175,-0.14543477203838653,3.1171470810174426
1782905735815084288,1.7910542488098145,-2.2597270011901855,-0.08833987265825272,0.00807870365679264,-0.10072189569473267,-0.712798535823822,-0.694098949432373,0.28124862909317017,-0.270599901676178,0.06496381759643555,-0.040560372892581915,-0.07173193826802211,-0.3844542233673188,-0.9194587022723004,0.7934802325228454,-0.1441058432787656,3.113883451910633
1782905735825003264,1.8009731769561768,-2.1387600898742676,-0.0807674452662468,-0.14732979238033295,-0.09931574016809464,-0.6978296637535095,-0.7093448638916016,0.20827874541282654,-0.24897819757461548,-0.009893417358398438,-0.042222731124766474,-0.07089521765240632,-0.3745683385120746,-0.9235202322174292,0.7723629175181514,-0.13910625527037573,3.1068542026568027
1782905735834923264,1.8108932971954346,-1.6912273168563843,-0.23643039166927338,0.12476636469364166,-0.0990937128663063,-0.6846073269844055,-0.7221449613571167,0.3206971287727356,-0.18369406461715698,-0.0620194673538208,-0.043205497375710736,-0.07051211261996515,-0.36599941515314033,-0.9269335668000921,0.7540648259697246,-0.13636968761007792,3.1025074008738898
1782905735844843264,1.8208131790161133,-1.3557353019714355,-0.40295013785362244,0.14554540812969208,-0.10122915357351303,-0.673505961894989,-0.7322174310684204,0.30658194422721863,-0.09544545412063599,-0.04715573787689209,-0.043918187326057956,-0.07140158688985414,-0.3588775465659155,-0.9296127843680598,0.7389416381206947,-0.13737929496701684,3.100447777381754
1782905735854762240,1.8307323455810547,-0.9559068083763123,-0.6403794288635254,0.19666755199432373,-0.10437632352113724,-0.6649317741394043,-0.7395751476287842,0.15552380681037903,0.011840343475341797,-0.05987858772277832,-0.04506015231888213,-0.07311676264352987,-0.35336436101727253,-0.9315348832733565,0.7274024538431949,-0.14020416255617313,3.09836550315797
1782905735864682240,1.8406522274017334,-0.6949058175086975,-0.11992181092500687,-0.13362672924995422,-0.10614467412233353,-0.6590431928634644,-0.7445773482322693,0.18904569745063782,0.08841025829315186,-0.05333524942398071,-0.04603998513099116,-0.07414810703956046,-0.34959031819213127,-0.9328285599346005,0.7195459168153029,-0.14160285819886448,3.0963017267663573
1782905735874602240,1.8505723476409912,-0.5449553728103638,0.06087064370512962,0.0924093946814537,-0.10508892685174942,-0.6545524001121521,-0.748677134513855,0.03737041354179382,0.08414840698242188,0.054875314235687256,-0.046791337015198824,-0.07363784382565065,-0.34675483098832593,-0.9338892038599165,0.7135904345990155,-0.13945504374663714,3.093523213897163
1782905735884522240,1.86049222946167,-0.5654529333114624,0.06955042481422424,-0.004880937747657299,-0.10418333113193512,-0.6505561470985413,-0.752278208732605,0.2069818079471588,0.012647271156311035,0.07510846853256226,-0.04681504243769717,-0.07296316694308766,-0.34429241019700685,-0.9348515550150927,0.7083164893566134,-0.13761508140521164,3.0924735509743484
1782905735894441472,1.8704113960266113,-0.5017059445381165,0.17403626441955566,0.2553102672100067,-0.10415418446063995,-0.6466176509857178,-0.7556702494621277,0.23878249526023865,-0.08989357948303223,0.14280098676681519,-0.046411669637892936,-0.07260806697430947,-0.3418960891786084,-0.935778407260155,0.7031420540991181,-0.13696722364010885,3.0927891483223253
1782905735904361216,1.88033127784729,-1.0981166362762451,0.2466297745704651,0.5098085999488831,-0.10445985198020935,-0.6405602693557739,-0.760769784450531,0.26608094573020935,-0.1953619122505188,0.2661714553833008,-0.04465145237537423,-0.07184605321259593,-0.33830941530500636,-0.9372252069053408,0.6952276687525949,-0.1364548174493646,3.095888261575681
1782905735914281472,1.8902513980865479,-1.6605967283248901,0.5805138349533081,0.3154265880584717,-0.10338703542947769,-0.6297146081924438,-0.7699159383773804,0.2399074286222458,-0.21347075700759888,0.35708945989608765,-0.0425222731600912,-0.07002363954001307,-0.3318715262648446,-0.9397604906948387,0.681185797353808,-0.13348501953331982,3.0985275117295483
1782905735924201216,1.9001712799072266,-1.9830058813095093,0.5046217441558838,0.3913578391075134,-0.1003565713763237,-0.6154555082321167,-0.7817564010620117,0.2022242546081543,-0.2319260835647583,0.23825359344482422,-0.04048990157388368,-0.06709976660832123,-0.32344925646457984,-0.9429945675803907,0.6629637678737574,-0.12767491247683285,3.0997662459916655
1782905735934120192,1.9100902080535889,-2.0988943576812744,0.22069010138511658,0.3349996507167816,-0.09919100254774094,-0.5991148352622986,-0.794495165348053,0.31845980882644653,-0.10452896356582642,0.07991081476211548,-0.038953650856808075,-0.06531925465650272,-0.3138245054235809,-0.946430170021587,0.642395075971202,-0.12420517618687452,3.100694811697306
1782905735944040192,1.9200103282928467,-1.9403704404830933,0.18752150237560272,0.42053425312042236,-0.09952222555875778,-0.5828244686126709,-0.8064805865287781,0.2575269937515259,0.0600278377532959,0.0060808658599853516,-0.03754285048188054,-0.06443021799313248,-0.30431635131334234,-0.9496477932004707,0.6222002527783952,-0.12278237235873701,3.1020909946180484
1782905735953960192,1.9299302101135254,-1.7256184816360474,0.38800716400146484,0.3723670542240143,-0.09945864975452423,-0.567589521408081,-0.8172821402549744,0.15918155014514923,0.15046000480651855,-0.042260706424713135,-0.03575089249687746,-0.06329878969165502,-0.2955540344599536,-0.9525560451358732,0.6035751301255031,-0.12109892155134021,3.104304052724974
1782905735963879424,1.9398493766784668,-1.3608423471450806,0.18234719336032867,0.29902759194374084,-0.09925688803195953,-0.5546358227729797,-0.8261520266532898,0.13323821127414703,0.10901820659637451,-0.1508072018623352,-0.034367472042362956,-0.06234147304676679,-0.2881623429954633,-0.9549318275434113,0.5879252389339314,-0.11957050237903029,3.1058820172675614
1782905735973799168,1.9497692584991455,-1.0977771282196045,0.201785609126091,0.39592137932777405,-0.09926469624042511,-0.54465651512146,-0.8327639698982239,0.2439027577638626,0.03548598289489746,-0.18817108869552612,-0.032804673163754156,-0.06156571052246449,-0.28253793526170234,-0.9567161918757213,0.5759795029358612,-0.11863929791550629,3.1082234178621215
1782905735983719424,1.9596893787384033,-1.1374976634979248,0.06833434849977493,0.23146478831768036,-0.0997547134757042,-0.5351645350456238,-0.838837206363678,0.2873615324497223,0.021126508712768555,-0.12420594692230225,-0.03149811835452966,-0.061156138791321105,-0.2772026569264088,-0.9583456632447414,0.5647025089893767,-0.11836434908619364,3.110256416281882
1782905735993639168,1.969609260559082,-0.9415662288665771,0.031595390290021896,0.3321380019187927,-0.10054454952478409,-0.5261052846908569,-0.844454824924469,0.2405591905117035,-0.006121277809143066,-0.07490241527557373,-0.030703809928629772,-0.061080210741863684,-0.2721061987979434,-0.9598357516239566,0.5540143100736076,-0.11850654766959326,3.1113669368928667
1782905736003558144,1.9795281887054443,-1.0116121768951416,0.09514641016721725,0.3113754689693451,-0.10185448080301285,-0.5177883505821228,-0.8494238257408142,0.19795432686805725,-0.0521121621131897,-0.11448907852172852,-0.029242655964973798,-0.06112252760999715,-0.2674922625453294,-0.9611746677224839,0.5442637273798279,-0.11934028136553478,3.1141026264816687
1782905736013478400,1.9894483089447021,-0.7240378260612488,0.2490340769290924,0.26913633942604065,-0.10097642242908478,-0.510065495967865,-0.8541879057884216,0.12896104156970978,0.0033516883850097656,-0.06152254343032837,-0.02819115464157216,-0.060168406670785254,-0.2632219986604895,-0.9624443712891042,0.5352609343842397,-0.11766728324230478,3.1153268646880674
1782905736023398144,1.9993681907653809,-0.49099573493003845,-0.11397340893745422,0.45541778206825256,-0.10102418810129166,-0.5048830509185791,-0.8572556376457214,0.23635438084602356,-0.0368497371673584,-0.24229270219802856,-0.02671046049162438,-0.05965821820849192,-0.2604094704011845,-0.9632830873813556,0.529246501849359,-0.11730501931286118,3.1179706332508164
1782905736033317376,2.0092873573303223,-0.25462421774864197,-0.19660963118076324,0.5224514007568359,-0.10318035632371902,-0.5012833476066589,-0.8591093420982361,0.2742619216442108,-0.0033248066902160645,-0.2670503258705139,-0.024667052101891088,-0.06014294925585565,-0.25851141555647855,-0.9638186167751558,0.5250812706413268,-0.11952902748262914,3.1225759465802363
1782905736043237120,2.019207239151001,-0.027139410376548767,0.03902659937739372,0.08362186700105667,-0.10407951474189758,-0.5002892017364502,-0.8595802187919617,0.16650322079658508,-0.030457258224487305,-0.26354289054870605,-0.023315344350044745,-0.060225629135453436,-0.25803633565217415,-0.963974357072941,0.5239327288204643,-0.12049521948609712,3.1255731994410363
1782905736053157376,2.029127359390259,-0.3477262556552887,-0.2269010692834854,0.21271921694278717,-0.10454629361629486,-0.498323917388916,-0.8606644868850708,0.15029215812683105,-0.035123348236083984,-0.1282271146774292,-0.02307468119850881,-0.060359404541867306,-0.2569523227495422,-0.9642613238406527,0.5216644860988107,-0.12087938212081503,3.1260427711668473
1782905736063077120,2.0390472412109375,-0.3590393662452698,-0.12906770408153534,0.304580956697464,-0.10683523118495941,-0.4947817921638489,-0.8624252080917358,0.2535485029220581,-0.13607758283615112,-0.12590181827545166,-0.022199611462577453,-0.06123842702629954,-0.25502403178624566,-0.9647382135962634,0.5175837211618156,-0.12324978882502467,3.128244898905965
1782905736072996352,2.048966407775879,-0.5326993465423584,-0.12176471948623657,0.3641054034233093,-0.10914106667041779,-0.49104034900665283,-0.8642728924751282,0.16242477297782898,-0.25265777111053467,-0.11582964658737183,-0.020858633758989668,-0.062002989788919445,-0.25302013581775273,-0.9652468241586539,0.5132836075467765,-0.12561588882948801,3.1313857575896313
1782905736082916352,2.0588862895965576,-0.9008831977844238,-0.12096710503101349,0.3385270833969116,-0.11268505454063416,-0.4839874505996704,-0.8677892684936523,0.21725353598594666,-0.1731017827987671,0.06272029876708984,-0.019500096140925564,-0.06334358811004825,-0.24918459008911173,-0.9661854369878109,0.5052057031669708,-0.1291304659169986,3.134606992843396
1782905736092836352,2.0688064098358154,-0.7502619028091431,-0.15192578732967377,0.48590636253356934,-0.11555516719818115,-0.4763520658016205,-0.8716281652450562,0.10040318965911865,-0.10973799228668213,0.018036305904388428,-0.018196315494048966,-0.06434677600444853,-0.24504163306246565,-0.9672036548092192,0.49650114324192085,-0.13180530903816665,3.1374256936419775
1782905736102756352,2.078726291656494,-0.7654858827590942,-0.11602210253477097,0.33543136715888977,-0.11791568994522095,-0.46985337138175964,-0.8748335242271423,0.12133365124464035,-0.12334731221199036,-0.029234468936920166,-0.016589467506285198,-0.06504266834204742,-0.24156302191536547,-0.9680606618213371,0.48912465714077347,-0.1339789824336571,3.1408048661716745
1782905736112675072,2.0886452198028564,-0.5835614800453186,-0.07048071920871735,0.25414279103279114,-0.12007630616426468,-0.4631519317626953,-0.8781070709228516,0.16855348646640778,-0.016248703002929688,-0.04836082458496094,-0.015547986804739317,-0.06578207246925202,-0.23794788304191983,-0.9689230300823731,0.4815482656215308,-0.1359016052916748,-3.1402659775435087
1782905736122595328,2.0985653400421143,-0.18152910470962524,-0.27398619055747986,0.3602442145347595,-0.12285720556974411,-0.459794282913208,-0.8794858455657959,0.2271510362625122,-0.08538699150085449,-0.1940004825592041,-0.014548392947931922,-0.06691938240623488,-0.2361755116075254,-0.969294306737072,0.47776354320717157,-0.1387939246224283,-3.137757069066044
1782905736132515072,2.108485221862793,-0.2248869091272354,-0.31761109828948975,0.3204338550567627,-0.12713713943958282,-0.457750529050827,-0.8799435496330261,0.24533173441886902,-0.047269612550735474,-0.11651641130447388,-0.013337830403301444,-0.06880839964684421,-0.23514598921959146,-0.9694297387630189,0.47546344839064264,-0.14349032149685934,-3.1342818264515198
1782905736142434304,2.1184043884277344,-0.23454833030700684,-0.12346294522285461,0.33547672629356384,-0.1301937997341156,-0.45491647720336914,-0.8809657096862793,0.1649075448513031,-0.01337575912475586,-0.029068470001220703,-0.012214134492824746,-0.07007378466954232,-0.2336810045662146,-0.9697080075317104,0.47227840742604754,-0.14672329983448487,-3.131417081426374
1782905736152354304,2.128324270248413,-0.19920285046100616,-0.2917320728302002,0.3349941372871399,-0.13320934772491455,-0.45288944244384766,-0.8815590739250183,0.17865000665187836,-0.12152767181396484,-0.1282828450202942,-0.01094970015827644,-0.07130021454859414,-0.23267304008522152,-0.9698760514595032,0.47000355033119773,-0.149971962187224,-3.1282005753368916
1782905736162274304,2.138244390487671,-0.23537549376487732,-0.398898184299469,0.4204440414905548,-0.13788564503192902,-0.4503350853919983,-0.8821484446525574,0.22641713917255402,-0.1460241675376892,-0.11962157487869263,-0.009604830032605217,-0.07336312486223533,-0.23139497685316968,-0.9700422735214604,0.4671406139913637,-0.15505201880608002,-3.124436222484067
1782905736172194304,2.1481642723083496,-0.3825434446334839,-0.4378655254840851,0.4095779359340668,-0.14344148337841034,-0.4471110701560974,-0.882902204990387,0.21192292869091034,-0.1279316544532776,-0.14424318075180054,-0.008096808857475601,-0.07583734108104273,-0.22977729706644348,-0.9702503064719761,0.4635329816112059,-0.16105866331250362,-3.120193601243147
1782905736182113280,2.158083200454712,-0.29359039664268494,-0.39910775423049927,0.4081912338733673,-0.14866170287132263,-0.44337132573127747,-0.8839239478111267,0.16021263599395752,-0.039340466260910034,-0.09938287734985352,-0.006855384202481823,-0.07819800071502259,-0.22786637916987323,-0.9705230791351799,0.4593563987644962,-0.16662445754971048,-3.116676740065089
1782905736192033280,2.1680033206939697,-0.24178972840309143,-0.28474774956703186,0.3433408737182617,-0.15312223136425018,-0.4406474232673645,-0.884524405002594,0.13414031267166138,-0.070872962474823,-0.1681947112083435,-0.005520963434254382,-0.08016156452428101,-0.22652132246485726,-0.9706862801895048,0.4563197579850547,-0.17141366269956676,-3.1130726731290386
1782905736201953280,2.1779232025146484,-0.41686034202575684,-0.21539795398712158,0.2760326862335205,-0.1562931090593338,-0.43760624527931213,-0.8854791522026062,0.103558748960495,-0.15766963362693787,-0.10831058025360107,-0.004535417872424378,-0.08153657313202704,-0.22497161127660537,-0.9709372726261977,0.4529347565371672,-0.1747073485853478,-3.110581638712906
1782905736211873280,2.1878433227539062,-0.8777953386306763,-0.34505990147590637,0.42662903666496277,-0.1603652387857437,-0.4313236474990845,-0.8878304362297058,0.19604027271270752,-0.29061540961265564,-0.1406119465827942,-0.00340754479157202,-0.08330839632049411,-0.22168557804368563,-0.971546980222617,0.4459594169199296,-0.17869919906953785,-3.1079846233774924
1782905736221792256,2.1977622509002686,-1.068132758140564,-0.2704876661300659,0.5280241370201111,-0.1650490164756775,-0.4216132164001465,-0.8916283845901489,0.23275226354599,-0.3535027503967285,-0.13663089275360107,-0.0016759712201084276,-0.08522892236752606,-0.21661451557047867,-0.9725283796110971,0.43522364755996157,-0.18303778296151021,-3.1044594205920553
1782905736231712256,2.2076823711395264,-1.4258110523223877,-0.3909819424152374,0.4630877375602722,-0.17024169862270355,-0.4099070131778717,-0.896099328994751,0.19992004334926605,-0.3372701108455658,-0.17911124229431152,-0.00033967605954963304,-0.08749535545300828,-0.2104635221257121,-0.9736784069255466,0.42235211578637566,-0.1877434464494367,-3.101930243116118
1782905736241632256,2.217602252960205,-1.5576115846633911,-0.3229304552078247,0.46663427352905273,-0.175453320145607,-0.395677775144577,-0.9014739394187927,0.2279588282108307,-0.17544341087341309,-0.16625982522964478,0.0009648899903095554,-0.0897699403461415,-0.20298867231598364,-0.9750569094302863,0.40680574182714613,-0.19222622608215567,-3.099848547275866
1782905736251551232,2.2275211811065674,-1.3721606731414795,-0.4577513635158539,0.30292320251464844,-0.1799512356519699,-0.38175278902053833,-0.9065772891044617,0.21497014164924622,-0.11815565824508667,-0.22713547945022583,0.0018607851476943507,-0.09178091933422206,-0.19567225099048288,-0.9763631791640492,0.39169197475552375,-0.19594821116309344,-3.0987870985647574
1782905736261471232,2.237441301345825,-0.9740851521492004,-0.6954123973846436,0.48254701495170593,-0.1868811398744583,-0.37042316794395447,-0.9098692536354065,0.2112189084291458,-0.06571879982948303,-0.30459296703338623,0.0026893370871905555,-0.09509801818745504,-0.1897939061302762,-0.9772038374146599,0.3794645529471021,-0.20257609245265867,-3.0970567157325735
1782905736271391232,2.247361183166504,-0.5196570158004761,-0.6798718571662903,0.4471604824066162,-0.19435086846351624,-0.36267027258872986,-0.9114263653755188,0.16778531670570374,0.03111204504966736,-0.3008081316947937,0.003929303610711628,-0.09865510692522866,-0.18588704110703877,-0.9775979160080239,0.371131658402259,-0.21009154192298876,-3.0939739071611245
1782905736281311232,2.2572813034057617,-0.3895253837108612,-0.673988401889801,0.4524279534816742,-0.20187713205814362,-0.3578000068664551,-0.9117152690887451,0.11633637547492981,0.048885852098464966,-0.2445957064628601,0.005171721394670535,-0.10227358117976994,-0.18352783229208536,-0.9776660701670128,0.36591086635761266,-0.2179097078342406,-3.0905396203907767
1782905736291230208,2.267200231552124,-0.24081021547317505,-0.5795473456382751,0.44293099641799927,-0.20940984785556793,-0.3540637493133545,-0.9114748239517212,0.18191352486610413,-0.03563046455383301,-0.1614164113998413,0.006665787950136479,-0.10586485210498708,-0.18181091876676886,-0.9775955921213023,0.3619127883279195,-0.22582937844359385,-3.086467999067618
1782905736301150208,2.277120351791382,-0.4040156602859497,-0.6511967778205872,0.4749842882156372,-0.216342955827713,-0.3507322669029236,-0.9111436009407043,0.171573668718338,-0.21393448114395142,-0.08827656507492065,0.008087287645497467,-0.1091695916916509,-0.18030587685109012,-0.9775001485657734,0.3583529326472581,-0.23312406644930564,-3.082637101307765
1782905736311070208,2.2870402336120605,-0.7785302996635437,-0.6746773719787598,0.533682644367218,-0.22427405416965485,-0.344177782535553,-0.9117251634597778,0.25128212571144104,-0.277984082698822,0.007229924201965332,0.009681981187317905,-0.11294807603308346,-0.17714440518204985,-0.9776343554201501,0.35136293279835057,-0.24119973596289437,-3.0787684811909424
1782905736320990208,2.2969603538513184,-1.0343965291976929,-0.5705158114433289,0.41238629817962646,-0.23125912249088287,-0.33479297161102295,-0.9134730100631714,0.22463680803775787,-0.27185070514678955,0.019597887992858887,0.010922631974971272,-0.1162965698253001,-0.17244888132374506,-0.9780681070186333,0.34138551521168614,-0.2479549891126922,-3.076304724937351
1782905736330909184,2.3068792819976807,-1.164991855621338,-0.5721640586853027,0.4609934687614441,-0.23756058514118195,-0.3237738013267517,-0.9158250093460083,0.19714005291461945,-0.2115350365638733,0.004173398017883301,0.011760318372535649,-0.11936540172097239,-0.16685139351961145,-0.9786593800472309,0.3297154431289391,-0.2538014454232076,-3.075114177704499
1782905736340829440,2.3167994022369385,-1.1505590677261353,-0.5939478874206543,0.48065027594566345,-0.2444348931312561,-0.31222397089004517,-0.9180238842964172,0.2305188775062561,-0.16056963801383972,-0.07036417722702026,0.012970142085357742,-0.12267960987173085,-0.16105211153266902,-0.9792057362331515,0.3175331231283257,-0.2602245768441442,-3.073206848533954
1782905736350749184,2.326719284057617,-0.9960956573486328,-0.6448760628700256,0.4319506883621216,-0.2510797083377838,-0.30135658383369446,-0.9198604226112366,0.1758996546268463,-0.07690879702568054,-0.07978862524032593,0.013996718465800115,-0.12592311390642477,-0.15560577305715362,-0.9796603654374885,0.3061150719155495,-0.26646319461595364,-3.071675225403269
1782905736360668160,2.3366382122039795,-0.7473694682121277,-0.6883518695831299,0.46147793531417847,-0.25882118940353394,-0.29204291105270386,-0.9207184910774231,0.17201393842697144,-0.05771905183792114,-0.1680418848991394,0.01520212797195961,-0.12972706924547692,-0.1510352328426434,-0.9798613008092809,0.29636216714174635,-0.27403570401241356,-3.0694071341825113
1782905736370588416,2.3465583324432373,-0.681226909160614,-0.6434234380722046,0.37689757347106934,-0.2658163905143738,-0.28447315096855164,-0.9210953712463379,0.14519566297531128,-0.047527581453323364,-0.1954207420349121,0.016173564635946623,-0.13319675958119762,-0.14734632870914266,-0.9799418667237025,0.2884568174918002,-0.2809537901263341,-3.0675167887086876
1782905736380508160,2.356478214263916,-0.6055074334144592,-0.6952973008155823,0.4340234398841858,-0.2732296288013458,-0.2775198519229889,-0.9210473895072937,0.14859583973884583,-0.08171781897544861,-0.2255437970161438,0.01736619844707391,-0.13686323635213124,-0.1440303932741701,-0.9799092463985336,0.2812115789861505,-0.2883814823891197,-3.065054949175647
1782905736390428416,2.366398334503174,-0.5403194427490234,-0.7568089365959167,0.3529481887817383,-0.28100401163101196,-0.27123549580574036,-0.920580267906189,0.16149720549583435,-0.07874011993408203,-0.16474688053131104,0.018403806701613946,-0.14075320870693428,-0.14106164366231863,-0.9797712017146832,0.2746764006364557,-0.2962632298364257,-3.0627872185978555
1782905736400347136,2.376317262649536,-0.48975086212158203,-0.6941346526145935,0.2923663556575775,-0.28838327527046204,-0.2656503915786743,-0.9199265837669373,0.13579541444778442,-0.041539520025253296,-0.14152050018310547,0.019109242485665444,-0.1444957550328432,-0.13841127552852625,-0.9795907491924337,0.26887850127418955,-0.30378207384647815,-3.0611817561167376
1782905736410267392,2.386237382888794,-0.5082723498344421,-0.6258054375648499,0.3563283085823059,-0.29538843035697937,-0.26014086604118347,-0.9192782044410706,0.10975000262260437,-0.05049756169319153,-0.10249608755111694,0.01998115489551283,-0.1480284872644056,-0.135825136038132,-0.979407889729416,0.26316808211593157,-0.31090574157995,-3.0593190508202848
1782905736420187136,2.3961572647094727,-0.59921795129776,-0.5740716457366943,0.2510378360748291,-0.3015844523906708,-0.25434985756874084,-0.9188867807388306,0.14368653297424316,-0.09669381380081177,-0.07667285203933716,0.02056909318458518,-0.15118591102973514,-0.13303916145522163,-0.9792958023880093,0.25717540589306553,-0.31712915685338394,-3.05824447043029
1782905736430107392,2.4060773849487305,-0.559253454208374,-0.5680127143859863,0.1662747710943222,-0.30710989236831665,-0.24852165579795837,-0.9186514616012573,0.20060351490974426,-0.12515081465244293,-0.017688870429992676,0.020774215043822777,-0.15405028685501634,-0.13016443793391952,-0.9792313788028204,0.25115372877027764,-0.3226248997016594,-3.058089618152384
1782905736440026368,2.4159963130950928,-0.7569326758384705,-0.48102083802223206,0.21416667103767395,-0.31223735213279724,-0.2420768290758133,-0.9186438918113708,0.21351301670074463,-0.1348457634449005,0.07910537719726562,0.02086752119681961,-0.15672521840442208,-0.1269458665016573,-0.9792274552907833,0.24450576771171384,-0.3276394017896915,-3.058364663571247
1782905736449946112,2.4259161949157715,-0.9533476233482361,-0.4468226730823517,0.11972330510616302,-0.31718912720680237,-0.2338179647922516,-0.9190866351127625,0.22465983033180237,-0.12007912993431091,0.18852633237838745,0.020779194445276976,-0.15933529382619566,-0.12275568490360758,-0.9793423576521998,0.23600265598444412,-0.3323149122362316,-3.059406013902776
1782905736459866368,2.4358363151550293,-1.1100800037384033,-0.3587612509727478,-0.03333281725645065,-0.3210906982421875,-0.22430217266082764,-0.9201028943061829,0.2151031494140625,-0.08085834980010986,0.26478368043899536,0.0199657064415431,-0.16148515232859548,-0.11777567151303855,-0.9796187011267007,0.22622690165130274,-0.3357592549846079,-3.062336745546922
1782905736469785088,2.4457552433013916,-1.3949187994003296,-0.30006077885627747,-0.012046405114233494,-0.32414963841438293,-0.21298162639141083,-0.921718955039978,0.21250107884407043,-0.047699540853500366,0.3299373388290405,0.01862244600101022,-0.16324916558570232,-0.11175967352542056,-0.9800575525375149,0.21462559312164506,-0.3381702157458963,-3.066817496435346
1782905736479705344,2.4556753635406494,-1.5053315162658691,-0.05767609179019928,-0.02361198142170906,-0.3257317543029785,-0.1995994597673416,-0.9241530299186707,0.2055383026599884,-0.006378918886184692,0.37653040885925293,0.01721114432072786,-0.1642338708850897,-0.10464562941616246,-0.9807039905865406,0.20094914557583418,-0.3388692747885902,-3.072006610611549
1782905736489625088,2.465595245361328,-1.36698317527771,0.030241556465625763,-0.01919173263013363,-0.325764000415802,-0.1864403337240219,-0.9268860816955566,0.2041667103767395,0.04193960130214691,0.34981393814086914,0.01590538390512167,-0.16438268728867866,-0.0976488161861298,-0.9814224317325314,0.1875377019372945,-0.3379754854863868,-3.077094475385636
1782905736499545344,2.475515365600586,-0.8680777549743652,0.07687803357839584,-0.019951799884438515,-0.3250950872898102,-0.17615337669849396,-0.9291303157806396,0.22916308045387268,0.15340252220630646,0.34204840660095215,0.014906569962804473,-0.16412612938154483,-0.09218162793988241,-0.9820095948260228,0.1770773386425933,-0.3365784342350911,-3.0810743249981853
1782905736509464320,2.4854342937469482,-0.2955529987812042,-0.022909775376319885,0.01681487075984478,-0.3247508108615875,-0.17070387303829193,-0.9302672147750854,0.22895613312721252,0.3196144104003906,0.37469470500946045,0.014400425810243174,-0.1639911129144292,-0.08929338403745447,-0.9823065577028426,0.17154397970840513,-0.33586757408436946,-3.0831237342713873
1782905736519384320,2.495354413986206,0.2552845776081085,0.14022669196128845,-0.010939795523881912,-0.3238578736782074,-0.1708834171295166,-0.9305455088615417,0.1861625611782074,0.3036043643951416,0.41467636823654175,0.014480433525867132,-0.16351637545690323,-0.08938478521200825,-0.9823762817007026,0.17172619723853666,-0.33491885097925206,-3.0830158514181036
1782905736529304320,2.5052742958068848,0.1933523565530777,0.44356271624565125,-0.14447221159934998,-0.3207775950431824,-0.17340700328350067,-0.9311453700065613,0.06664249300956726,0.21703189611434937,0.549309492111206,0.014431105658557264,-0.1619096276585753,-0.09062326050799081,-0.9825296055205478,0.17428803521596176,-0.3317647487004152,-3.0829679011507714
1782905736539224064,2.5151941776275635,0.08155658096075058,0.7808507084846497,-0.07979442924261093,-0.3148398697376251,-0.1751883327960968,-0.9328370094299316,0.023473292589187622,0.0658438503742218,0.5694336891174316,0.01423406856186934,-0.15882468956706583,-0.09141229437951418,-0.9829628206560228,0.17609705361124983,-0.3255029507258221,-3.083644376882926
1782905736549143296,2.525113344192505,-0.15445294976234436,1.1224972009658813,-0.16693595051765442,-0.30531662702560425,-0.17525190114974976,-0.9359853267669678,0.04214829206466675,-0.09710222482681274,0.5270955562591553,0.014079889631412807,-0.1538712191003224,-0.09127423347624426,-0.9837654464589545,0.17616161656283708,-0.31531516236861834,-3.084893686161061
1782905736559063296,2.5350332260131836,-0.171665221452713,1.3091126680374146,-0.05864915996789932,-0.29292675852775574,-0.17429880797863007,-0.9401137232780457,0.09735488891601562,-0.15605394542217255,0.47679591178894043,0.013754426986132587,-0.14745648895310334,-0.09055229903573439,-0.9848185819249603,0.17519363761933934,-0.3020524475144895,-3.0869328855511644
1782905736568983296,2.5449533462524414,-0.28599047660827637,1.3219197988510132,-0.02258703112602234,-0.27772486209869385,-0.17307542264461517,-0.9449411630630493,0.21580469608306885,-0.14204908907413483,0.4582163095474243,0.013978275857983202,-0.13955618881472429,-0.08974124204191218,-0.9860401204617878,0.17395136203111003,-0.2858575907481247,-3.0881468429937864
1782905736578903296,2.55487322807312,-0.1486901342868805,1.2784037590026855,-0.11100690811872482,-0.264527827501297,-0.1713642030954361,-0.9490307569503784,0.207643061876297,-0.033118829131126404,0.4683331251144409,0.013893776104763332,-0.13274732625880828,-0.08867231332265113,-0.9870777075552147,0.17221418975434583,-0.2718350466848334,-3.0898337667744475
1782905736588822272,2.5647923946380615,0.24490170180797577,1.3074942827224731,-0.03116583824157715,-0.2518426179885864,-0.172183558344841,-0.9523277282714844,0.20174801349639893,0.03653290867805481,0.4305534362792969,0.01413977462309513,-0.1261893185762553,-0.08895158635382648,-0.987908918620063,0.1730459016725527,-0.2585313041689644,-3.0904192856591552
1782905736598742272,2.5747122764587402,0.3911411762237549,1.4859727621078491,-0.11950049549341202,-0.2381618320941925,-0.17562253773212433,-0.9552149772644043,0.16270712018013,0.16227109730243683,0.4050135612487793,0.014622938890755935,-0.11911035766199816,-0.0905827389828047,-0.9886321678300205,0.17653809321126873,-0.24434608604303631,-3.090280870309463
1782905736608662272,2.584632396697998,0.45349547266960144,1.455721378326416,-0.14306889474391937,-0.22369049489498138,-0.17998191714286804,-0.9578982591629028,0.09817169606685638,0.20352622866630554,0.42472565174102783,0.014770456236872748,-0.11167100618941092,-0.09263077140422706,-0.9893082905182687,0.1809680678080068,-0.22941103523261228,-3.0908288126532972
1782905736618581248,2.5945513248443604,0.46290308237075806,1.5717928409576416,-0.013821701519191265,-0.20914776623249054,-0.18480966985225677,-0.9602617621421814,0.09939129650592804,0.038752540946006775,0.3842424750328064,0.01532975256857559,-0.10417059098045553,-0.09496114225776857,-0.9898969570371116,0.1858781955704923,-0.2144536441609626,-3.0905577177637276
1782905736628501248,2.604471206665039,0.08064290881156921,1.718549132347107,-0.24170580506324768,-0.19297778606414795,-0.18773292005062103,-0.9630762934684753,0.06988514959812164,-0.15247704088687897,0.40040844678878784,0.015747540972315514,-0.09587382767292067,-0.09628119187008354,-0.9906009426948437,0.18885352194824903,-0.19775749041273724,-3.09101139900113
1782905736638421248,2.614391326904297,-0.03955459967255592,1.7291711568832397,-0.32278040051460266,-0.17594073712825775,-0.18826070427894592,-0.9662312269210815,0.09673236310482025,-0.21783670783042908,0.39015090465545654,0.014960376174459633,-0.0872800566541725,-0.09626309241193094,-0.9914090145818493,0.18939088881703048,-0.18011629833872564,-3.094261580470068
1782905736648341248,2.6243112087249756,-0.22321471571922302,1.8471029996871948,-0.023515276610851288,-0.15832538902759552,-0.1876082420349121,-0.9693999290466309,0.19662494957447052,-0.2608017921447754,0.29828786849975586,0.014934259203741748,-0.07834363364253269,-0.09571996815651754,-0.9922080987369069,0.1887265887688529,-0.1618937122348416,-3.09613626430692
1782905736658260224,2.634230375289917,-0.38252580165863037,1.837884545326233,-0.07436726987361908,-0.14015337824821472,-0.18444931507110596,-0.9727977514266968,0.19328448176383972,-0.13105666637420654,0.3377727270126343,0.015532457839328913,-0.06909731047535056,-0.09395042097416653,-0.9930546869394735,0.1855115288123451,-0.14308787387417035,-3.0969800444527507
1782905736668180224,2.6441502571105957,0.035177893936634064,1.5713551044464111,-0.10506463050842285,-0.12346310913562775,-0.18274186551570892,-0.9753780364990234,0.18587155640125275,0.030108198523521423,0.26866722106933594,0.01575156363600686,-0.060650109574677785,-0.09291155161744055,-0.9937006320591559,0.18377456071269155,-0.1259101406179677,-3.0982750429362755
1782905736678100224,2.6540703773498535,0.5209762454032898,1.4149622917175293,-0.10176550596952438,-0.10899488627910614,-0.18572713434696198,-0.9765375256538391,0.20175306499004364,0.20119954645633698,0.1556604504585266,0.016060536353134095,-0.0533036462561118,-0.09428656497280993,-0.9939873323864358,0.18681181786892717,-0.1111535695588922,-3.0988567505802314
1782905736688020224,2.6639902591705322,0.8377826809883118,1.435594081878662,-0.17928031086921692,-0.09468774497509003,-0.1925439089536667,-0.9767093062400818,0.13718347251415253,0.3307427763938904,0.1285342574119568,0.01627181660606742,-0.0460306171265422,-0.09760393496400105,-0.9940270800834676,0.19375390417077276,-0.09664366618036799,-3.099457201333652
1782905736697939200,2.6739091873168945,1.1591644287109375,1.4587318897247314,-0.32823196053504944,-0.07994863390922546,-0.2025189995765686,-0.9760093688964844,0.036354273557662964,0.2234388142824173,0.06467819213867188,0.015920565482355886,-0.03857941037709915,-0.10250341899158219,-0.9938566948437484,0.20392954868878413,-0.08173132388739504,-3.101190111270603
1782905736707859200,2.6838293075561523,1.1314971446990967,1.5527547597885132,-0.17136496305465698,-0.06531688570976257,-0.21397191286087036,-0.9746536612510681,0.028100699186325073,-0.01812952756881714,0.029127538204193115,0.015804544613494242,-0.03115065072705955,-0.10817955076424757,-0.9935174824280274,0.2156392390725492,-0.06691543328591394,-3.1025344446119374
1782905736717779200,2.693749189376831,1.1875889301300049,1.417419672012329,-0.1928364336490631,-0.05049484223127365,-0.2249346375465393,-0.9730646014213562,0.005695033818483353,-0.1924695372581482,0.0539972186088562,0.015629763424136023,-0.023634188621773824,-0.11361837426273168,-0.9931203011248759,0.22687595110912273,-0.05184608597948805,-3.104211196636372
1782905736727699200,2.703669309616089,0.7288690805435181,1.4040740728378296,0.07021667063236237,-0.03627851977944374,-0.2352152168750763,-0.9712660312652588,0.07120588421821594,-0.3861226737499237,0.007627725601196289,0.016283246029180704,-0.016325577638754654,-0.11874539243610369,-0.992656996011412,0.2374399971943711,-0.03733442822392187,-3.104334406017829
1782905736737618176,2.713588237762451,0.04800853505730629,1.2262462377548218,-0.09307105094194412,-0.023274635896086693,-0.2386326640844345,-0.9708309769630432,0.13377878069877625,-0.2702937126159668,0.09430509805679321,0.017112633726456754,-0.00964934193397272,-0.12038029259835634,-0.9925333864817264,0.24095759701873648,-0.02396934116740938,-3.1042113400153886
1782905736747538432,2.723508358001709,-0.1733911633491516,1.1598678827285767,0.13836246728897095,-0.01130832638591528,-0.23783375322818756,-0.9712400436401367,0.19091953337192535,-0.13574717938899994,0.010958671569824219,0.017803631689789726,-0.003546303498394726,-0.11986408951319322,-0.9926243320007028,0.24013499435589158,-0.011642657814390977,-3.1043199808291218
1782905736757458176,2.7334282398223877,-0.24238993227481842,1.124961495399475,0.2509569525718689,-0.0007370724342763424,-0.2360193133354187,-0.9717481136322021,0.19249427318572998,-0.2061498761177063,-0.21282219886779785,0.01965216766623252,0.0019812805501853137,-0.11883615038714616,-0.9927174321235795,0.23826737809389362,-0.0007585013978026838,-3.1019143623788916
1782905736767377408,2.743347406387329,-0.4476688504219055,0.8363088965415955,-0.05453777313232422,0.008585344068706036,-0.23241925239562988,-0.9725778102874756,0.09865342080593109,-0.14267230033874512,-0.2599813938140869,0.02063125380654371,0.006752354803680484,-0.11689955232729243,-0.9929064053461982,0.23456430898684502,0.008827181751823196,-3.1010813803701818
1782905736777297152,2.753267288208008,-0.4725710153579712,0.3439740240573883,0.2881607115268707,0.013537471182644367,-0.22809360921382904,-0.9735450744628906,0.07679455727338791,-0.15505458414554596,-0.3667716979980469,0.021368408206252926,0.009282041210803067,-0.11463551042481729,-0.993134350884611,0.23011922917891983,0.013904439493865614,-3.100173990203838
1782905736787217408,2.7631874084472656,-0.3892880380153656,0.3964099884033203,0.19014804065227509,0.016615865752100945,-0.22390657663345337,-0.9744689464569092,-0.019759180024266243,-0.08044523000717163,-0.4413635730743408,0.023154865214405598,0.010984986387384635,-0.11244932026178195,-0.9933268554437469,0.22582097776638227,0.01704954892538615,-3.0969135950668147
1782905736797137152,2.7731072902679443,-0.20317569375038147,-0.020545154809951782,0.41707277297973633,0.016785748302936554,-0.220990389585495,-0.9751315116882324,-0.25035202503204346,0.121930330991745,-0.4706387519836426,0.024593879755529055,0.011194679028189092,-0.11094555865713641,-0.9934590999166311,0.22282985191823446,0.017212129808522367,-3.094016867495984
1782905736807056128,2.7830262184143066,0.024786904454231262,0.3213590979576111,-0.2548423409461975,0.01746223308146,-0.22052544355392456,-0.9752249121665955,-0.14809273183345795,0.11423271894454956,-0.532328188419342,0.02523892323432587,0.011600687482310603,-0.11069316599712409,-0.993466345411204,0.2223531480011496,0.01790393864688149,-3.092792550211872
1782905736816976384,2.7929463386535645,0.2873378098011017,0.0951366275548935,0.6467527151107788,0.017186976969242096,-0.22240357100963593,-0.9748032093048096,-0.177999347448349,0.11804871261119843,-0.48608851432800293,0.026553613585075755,0.011635533441123608,-0.11163789049143033,-0.993325998537432,0.22427909370712437,0.017629400993349097,-3.0901266714587807
1782905736826896384,2.8028664588928223,0.0733678936958313,-0.08917002379894257,-0.15993787348270416,0.015647554770112038,-0.2244565486907959,-0.9743584394454956,-0.15047422051429749,0.019515767693519592,-0.4800940155982971,0.028337198994217404,0.01109275337911344,-0.11268416544394705,-0.9931646873228804,0.22638531344195278,0.016057960517789977,-3.0863691574268257
1782905736836816384,2.812786340713501,0.2816222906112671,0.07918330281972885,0.4451184868812561,0.014243315905332565,-0.22611863911151886,-0.9739956259727478,-0.12959976494312286,0.13429124653339386,-0.3758273720741272,0.028745591292931298,0.010458181767398716,-0.1135465130408359,-0.9930616746558429,0.22809126066293006,0.014622550703230259,-3.0853908871064966
1782905736846735360,2.8227055072784424,0.011425159871578217,-0.18929365277290344,0.0577704943716526,0.013633248396217823,-0.22809217870235443,-0.9735441207885742,-0.07857465744018555,-0.07400132715702057,-0.4478578567504883,0.030197915156414342,0.010349110991397924,-0.1145462806020961,-0.9929049086923512,0.23011775055810835,0.014002814594935006,-3.08240231515669
1782905736856655360,2.832625389099121,-0.14569547772407532,-0.35391056537628174,0.30337226390838623,0.01076754555106163,-0.22747305035591125,-0.9737248420715332,-0.06923922896385193,-0.10063669085502625,-0.4000849723815918,0.0307305383019525,0.008958610834254529,-0.11426863815555095,-0.9929340516607204,0.22948191354413022,0.01105764857367782,-3.080988331603472
1782905736866575360,2.842545509338379,-0.33988216519355774,-0.35678422451019287,0.3198281526565552,0.007254408672451973,-0.2256593108177185,-0.9741792678833008,0.08442039787769318,-0.1992979645729065,-0.4433317184448242,0.03229550915513442,0.007340468495651351,-0.11338642598381428,-0.9929988538093287,0.22761974993877204,0.007446550146508955,-3.0774203343281443
1782905736876495360,2.8524653911590576,-0.5510146021842957,-0.4475990831851959,0.4630768895149231,0.004368648398667574,-0.22210833430290222,-0.9750121831893921,0.05866540968418121,-0.23119977116584778,-0.4224182367324829,0.03371343182679308,0.005988219679000073,-0.11161558193012806,-0.9931613961165571,0.2239762923620365,0.004480579162703001,-3.0742314525802468
1782905736886414336,2.86238431930542,-0.636422872543335,-0.2672778069972992,0.23012082278728485,0.0008379347273148596,-0.21674416959285736,-0.9762280583381653,0.23285041749477386,-0.21897053718566895,-0.38725149631500244,0.03559029679492022,0.004324599519800144,-0.10893694421895503,-0.9934019362668878,0.2184781180290328,0.0008583388770241148,-3.070064061387634
1782905736896334336,2.8723044395446777,-0.7319179773330688,-0.7144433856010437,0.4753817021846771,-0.004818623885512352,-0.20968163013458252,-0.9777578711509705,0.2359282523393631,-0.09988868236541748,-0.33202606439590454,0.03656292400446438,0.0014552123395343397,-0.10544647920415913,-0.9937516148688189,0.2112493416723737,-0.004928198737687684,-3.0675177220229224
1782905736906254336,2.8822243213653564,-0.4262450039386749,-0.7103350758552551,0.7324588298797607,-0.012938665226101875,-0.20428845286369324,-0.9788252115249634,0.5101768374443054,-0.17284776270389557,-0.43777018785476685,0.039430544528306646,-0.0024280407812369716,-0.10286639033614932,-0.9939103343847452,0.20573678179037613,-0.013217795609431194,-3.06092543418209
1782905736916173568,2.892143487930298,-0.6234765648841858,-0.8158372640609741,0.24201136827468872,-0.02101607620716095,-0.19912321865558624,-0.9797490835189819,0.42361921072006226,-0.14595429599285126,-0.34044134616851807,0.04140761502492098,-0.006387714563033256,-0.10042238445954937,-0.9940623234561883,0.2004631400899686,-0.02144717821042131,-3.056173892351925
1782905736926093312,2.9020633697509766,-0.37209972739219666,-0.9304290413856506,0.21632705628871918,-0.02912299707531929,-0.1941753327846527,-0.9805344343185425,0.4578797221183777,-0.09592476487159729,-0.30372154712677,0.04193436250359309,-0.010508559878855852,-0.09809356870238772,-0.9942378177963898,0.1954167113791342,-0.029692418086141786,-3.054377161187376
1782905736936013568,2.9119834899902344,-0.28209713101387024,-1.1072198152542114,0.3943825364112854,-0.04037128761410713,-0.19099858403205872,-0.9807597398757935,0.488735556602478,-0.14324519038200378,-0.35877883434295654,0.043175599841470715,-0.01610105534651641,-0.09675162441054166,-0.9942413299662687,0.19217935642009393,-0.04114005402201448,-3.0508299454205816
1782905736945933312,2.921903371810913,-0.38579192757606506,-1.2532134056091309,0.3136224150657654,-0.05233277007937431,-0.18769827485084534,-0.9808316230773926,0.3484753370285034,-0.13508614897727966,-0.2835116386413574,0.04422553552683087,-0.022076016569726464,-0.09537738829606458,-0.9942132529314966,0.1888182497655953,-0.05330496331293061,-3.0476367141065897
1782905736955852544,2.9318225383758545,-0.48220980167388916,-1.1845943927764893,0.38518527150154114,-0.06481260806322098,-0.1832181066274643,-0.9809334874153137,0.2649926543235779,-0.1297854334115982,-0.2768179774284363,0.04532305663544133,-0.028336137757546155,-0.09343625300067017,-0.9941893843629954,0.18425897315640458,-0.06597648298491349,-3.044382005208458
1782905736965772288,2.941742420196533,-0.6059187054634094,-1.227612018585205,0.20572496950626373,-0.07680568844079971,-0.1778825968503952,-0.9810497760772705,0.22390040755271912,-0.1418958455324173,-0.2735583782196045,0.04615219700091605,-0.03440047392106889,-0.09105887980716318,-0.9941804488364887,0.1788343158941472,-0.07812992664208865,-3.0418061705875132
1782905736975692288,2.951662302017212,-0.6190411448478699,-1.2311220169067383,0.3791438937187195,-0.08923375606536865,-0.17152871191501617,-0.9811295866966248,0.22551000118255615,-0.16057883203029633,-0.22829729318618774,0.04687266968421685,-0.04072082682909522,-0.0881874614861028,-0.9941668091548338,0.1723811644744384,-0.09070047891583997,-3.0395247569089126
1782905736985612288,2.9615824222564697,-0.7480676174163818,-1.03260338306427,0.2702193856239319,-0.10048490762710571,-0.1650254726409912,-0.9811571836471558,0.1876278519630432,-0.1845076084136963,-0.18160831928253174,0.047974010161102115,-0.04642602593306037,-0.08524109254829293,-0.9941212383575441,0.16578384108506672,-0.10205886313836784,-3.036665453425865
1782905736995531264,2.971501350402832,-0.967270016670227,-0.996309757232666,0.29382243752479553,-0.11044260114431381,-0.1562688946723938,-0.9815204739570618,0.1294550597667694,-0.08440797030925751,-0.07696640491485596,0.04876069436290761,-0.05156617317543106,-0.08112144112636813,-0.9941742995302959,0.1569120050602018,-0.11205064312895752,-3.0347600367931626
1782905737005451520,2.98142147064209,-1.0427027940750122,-1.0302987098693848,0.299806147813797,-0.1206861212849617,-0.14607949554920197,-0.981883704662323,0.2069593220949173,-0.06124165654182434,-0.05754494667053223,0.049513370825696366,-0.05689369890829493,-0.07629709900626004,-0.9942284682890078,0.14660408845851386,-0.1222994264296959,-3.033081232917147
1782905737015371264,2.9913413524627686,-1.1486119031906128,-0.9908279776573181,0.2338646650314331,-0.1309877187013626,-0.13533355295658112,-0.9821034073829651,0.21262222528457642,-0.10323761403560638,-0.027769029140472412,0.05018505309357996,-0.062278697290838056,-0.07120164400934735,-0.9942500418394746,0.13575010751697594,-0.13259214390070784,-3.031700974544346
1782905737025291520,3.0012614727020264,-1.2558281421661377,-0.7891688346862793,0.19027847051620483,-0.13937899470329285,-0.12311684340238571,-0.9825557470321655,0.13339754939079285,-0.054175034165382385,0.04761922359466553,0.050464768516901154,-0.06677158282540503,-0.06529698314843863,-0.9943496511293914,0.12343000992857207,-0.14091337334587997,-3.031454700987093
1782905737035210496,3.0111804008483887,-1.2352725267410278,-0.7258164882659912,0.24806080758571625,-0.14694911241531372,-0.11094624549150467,-0.9829022884368896,0.12857753038406372,-0.06707804650068283,-0.0037767887115478516,0.050918009730330255,-0.07084517012186303,-0.0594123169721586,-0.9944136141753955,0.11117512111592129,-0.14840611568845133,-3.031000710436557
1782905737045130496,3.0211005210876465,-1.2940564155578613,-0.5765108466148376,0.23250049352645874,-0.15343961119651794,-0.09820585697889328,-0.9832659363746643,0.15018948912620544,-0.07693451642990112,-0.022486627101898193,0.05152446972550796,-0.07438825190234387,-0.05322990439972153,-0.9944737752337606,0.09836440249013717,-0.15480246362794464,-3.0304287483822727
1782905737055050496,3.031020402908325,-1.2771602869033813,-0.5310930609703064,0.1367396116256714,-0.15874525904655457,-0.08555974066257477,-0.9836053252220154,0.14734695851802826,-0.09237299114465714,-0.058081626892089844,0.05170931694014765,-0.07736206275991794,-0.0470365820132285,-0.9945495013618715,0.08566447448702272,-0.16001145554546634,-3.0308282959551454
1782905737064969216,3.0409393310546875,-1.1745375394821167,-0.5186018943786621,0.18645654618740082,-0.16385763883590698,-0.07323011755943298,-0.9837622046470642,0.20679587125778198,-0.08718553185462952,-0.10739380121231079,0.05199135518838086,-0.0802320264251556,-0.0410089320748336,-0.9945742848752622,0.0732957247123477,-0.165047079660186,-3.0310726773674315
1782905737074889472,3.0508594512939453,-1.064899206161499,-0.6294687390327454,0.16709749400615692,-0.16950713098049164,-0.06204450502991676,-0.9835739731788635,0.24036896228790283,-0.04728471487760544,-0.1770704984664917,0.05226122208852936,-0.08335182133597266,-0.03557351931620781,-0.9945127832036237,0.062084379359826004,-0.17066156527445508,-3.0312777810115445
1782905737084809216,3.060779333114624,-0.8366805911064148,-0.6870134472846985,0.1397591084241867,-0.17604060471057892,-0.05254458636045456,-0.9829795360565186,0.2737273573875427,-0.025794032961130142,-0.20282673835754395,0.052570844332264444,-0.08688095385107163,-0.031015025662841686,-0.9943470395894585,0.05256879647726469,-0.1772101799382301,-3.0312804176770265
1782905737094729472,3.070699453353882,-0.6517924666404724,-0.6864938139915466,0.1621435135602951,-0.1827978789806366,-0.04494344815611839,-0.9821227192878723,0.2266821563243866,-0.004113554954528809,-0.19371956586837769,0.05283270024492288,-0.09048286370658827,-0.02741343341211697,-0.9941176825073877,0.044958593839651145,-0.1840196049077073,-3.03125287015933
1782905737104648448,3.080618381500244,-0.4921385943889618,-0.7679102420806885,0.12488990277051926,-0.18977712094783783,-0.03926190361380577,-0.9810418486595154,0.22053885459899902,-0.003203306347131729,-0.18967342376708984,0.05318699590019942,-0.09415116439701166,-0.024791606770352116,-0.9938270327181175,0.039271996817382124,-0.19108429525512027,-3.0308958930889522
1782905737114568448,3.090538501739502,-0.457862913608551,-0.8492330312728882,0.14443139731884003,-0.1977645605802536,-0.03438594937324524,-0.9796462655067444,0.1812240332365036,0.00858333706855774,-0.15334933996200562,0.05353825238399678,-0.0983153502712431,-0.02260450872239949,-0.9934570072141798,0.03439273099403875,-0.19919629312427015,-3.030477938637824
1782905737124488448,3.1004583835601807,-0.3651609420776367,-0.8553118705749512,0.14023305475711823,-0.20602752268314362,-0.030308255925774574,-0.978076696395874,0.13579131662845612,0.030827054753899574,-0.15406441688537598,0.05392805282347261,-0.10260435566531916,-0.020832356809500623,-0.9930408304223461,0.030312897651391536,-0.2076104149259048,-3.0299290500760567
1782905737134408448,3.1103785037994385,-0.28639182448387146,-0.8756632208824158,0.1921183466911316,-0.2144324630498886,-0.026699764654040337,-0.9763738512992859,0.09668038785457611,0.04813836142420769,-0.1653040051460266,0.054510843509994925,-0.10695647978569138,-0.019323546326560626,-0.9925802175991831,0.026702937065635406,-0.2161890289711675,-3.028968321279387
1782905737144327424,3.120297431945801,-0.31948304176330566,-0.8501086831092834,0.09649961441755295,-0.22246620059013367,-0.02367200329899788,-0.9746529459953308,0.10544654726982117,0.018438240513205528,-0.20465302467346191,0.05499664626829915,-0.11111383660818035,-0.018089437412667286,-0.9921198449480237,0.023674214326825035,-0.2244072964731537,-3.0281713949744944
1782905737154247168,3.1302173137664795,-0.26862919330596924,-0.833859384059906,0.07953767478466034,-0.23067443072795868,-0.020435255020856857,-0.9728164076805115,0.13394896686077118,-0.04499443247914314,-0.19246679544448853,0.055153281432876324,-0.11537861651262954,-0.016720783981610875,-0.9916482734437223,0.020436677076053657,-0.2328202581570683,-3.028081641563981
1782905737164167424,3.1401374340057373,-0.3747236132621765,-0.8756552934646606,0.10053020715713501,-0.23882165551185608,-0.017347106710076332,-0.970908522605896,0.15991845726966858,-0.15196442604064941,-0.1990591287612915,0.05527984268305342,-0.11961567068715023,-0.015422218340291775,-0.99116016538596,0.017347976184600874,-0.24118921972037397,-3.0280600504484436
1782905737174087168,3.150057315826416,-0.46215519309043884,-0.818394124507904,0.0730045735836029,-0.24707889556884766,-0.01291380450129509,-0.9689093232154846,0.17673587799072266,-0.1785687506198883,-0.17469114065170288,0.055457721533928785,-0.123952628385513,-0.01345691054438569,-0.9906458348274928,0.0129141630223143,-0.24968577805072056,-3.0281259497034285
1782905737184006400,3.1599764823913574,-0.47150933742523193,-0.8708563446998596,0.042535312473773956,-0.2552028000354767,-0.008490301668643951,-0.9668502807617188,0.12271073460578918,-0.20011261105537415,-0.20046234130859375,0.055372826678019016,-0.12823243432930478,-0.011458831824201193,-0.9901308601949044,0.008490403308125808,-0.2580669518512593,-3.0287578709837724
1782905737193926400,3.169896364212036,-0.49657902121543884,-0.8584824800491333,0.0298719834536314,-0.26332271099090576,-0.003688787342980504,-0.9647007584571838,0.14074885845184326,-0.1635628044605255,-0.17085832357406616,0.05523986391780892,-0.13252865660272886,-0.009261622860535685,-0.9895953237363201,0.0036887957998017144,-0.2664667041213417,-3.0295726703339336
1782905737203846400,3.179816484451294,-0.49802538752555847,-0.8239381313323975,-0.010563057847321033,-0.2711856961250305,0.0009855920216068625,-0.9625265598297119,0.12291604280471802,-0.12958666682243347,-0.14500212669372559,0.05484412333052367,-0.13669885712479193,-0.007081751106769936,-0.989067939919702,-0.0009855921617594624,-0.2746248152801033,-3.030941679543345
1782905737213766400,3.1897363662719727,-0.3766065537929535,-0.7741649746894836,0.027048500254750252,-0.27873411774635315,0.0049933078698813915,-0.9603553414344788,0.13003721833229065,-0.12263856828212738,-0.14181751012802124,0.054613522110457426,-0.14069399748203107,-0.0052473182886494515,-0.9885317450949432,-0.004993328824721569,-0.2824793503792508,-3.0319206295925056
1782905737223685376,3.199655532836914,-0.37167781591415405,-0.8533725142478943,0.02252085879445076,-0.28639623522758484,0.008518961258232594,-0.9580733776092529,0.15926000475883484,-0.11328580230474472,-0.10380101203918457,0.054536159932666,-0.14474037235303672,-0.00367839627603569,-0.987958714741573,-0.008519063920375478,-0.29047423893588364,-3.0325489440321256
1782905737233605376,3.2095754146575928,-0.5165737867355347,-0.7580651640892029,0.012247716076672077,-0.2940120995044708,0.012707210145890713,-0.9557172060012817,0.18503382802009583,-0.12263152748346329,-0.05925166606903076,0.05423703358612724,-0.14878966786231335,-0.0017382436305697737,-0.987378822871007,-0.012707552530445377,-0.29844659812923163,-3.0337527996594478
1782905737243525632,3.2194955348968506,-0.5629155039787292,-0.7932084202766418,0.10973571985960007,-0.30136623978614807,0.017843347042798996,-0.9533414840698242,0.17361968755722046,-0.1410733312368393,-0.044796884059906006,0.05416735764874008,-0.15273776021071594,0.0006569568992471204,-0.9867809346885328,-0.0178442938318754,-0.30617552189632513,-3.034670095357861
1782905737253444352,3.229414463043213,-0.6032461524009705,-0.6500491499900818,0.06345690786838531,-0.308212548494339,0.023854892700910568,-0.9510183930397034,0.144577294588089,-0.10205618292093277,-0.01574796438217163,0.05420916223992492,-0.15645637783608432,0.003494334762749727,-0.9861898949123378,-0.023857156645179643,-0.3134057604838203,-3.035536176943851
1782905737263364352,3.2393343448638916,-0.5252493619918823,-0.7230783104896545,0.10853516310453415,-0.31431353092193604,0.0292049553245306,-0.9488698840141296,0.11182942986488342,-0.08660851418972015,-0.035062551498413086,0.05418492894264392,-0.15977695716475235,0.006031548628221615,-0.9856464313851413,-0.02920910812523244,-0.31987475111213187,-3.0364674033453163
1782905737273284352,3.2492544651031494,-0.4440842568874359,-0.7165194749832153,0.14798244833946228,-0.32104772329330444,0.034454405307769775,-0.9464361071586609,0.15527623891830444,-0.024627745151519775,-0.03526860475540161,0.054491013400754365,-0.16343373877695613,0.008448152165533256,-0.9850120996680884,-0.03446122478775896,-0.32703696260301157,-3.036751386728751
1782905737283204352,3.259174346923828,-0.17952482402324677,-0.699225127696991,0.12546324729919434,-0.3276689350605011,0.03777675703167915,-0.9440370798110962,0.1382158100605011,-0.06713467836380005,-0.05889260768890381,0.054931754230857846,-0.16698516696665655,0.009869769324271962,-0.9843786067814926,-0.03778574672853683,-0.33408296756950356,-3.0364732323102817
1782905737293123584,3.2690935134887695,-0.09597959369421005,-0.674566388130188,0.08247610181570053,-0.333894282579422,0.039219845086336136,-0.9417942762374878,0.1699080765247345,-0.11386584490537643,-0.025261998176574707,0.05535298590066457,-0.17028124435697584,0.010352205262244795,-0.9837852050813836,-0.03922990499120773,-0.34070471004110553,-3.0359297108107213
1782905737303043328,3.2790133953094482,-0.12186059355735779,-0.6231063604354858,0.04849623516201973,-0.3396861255168915,0.04026364907622337,-0.9396766424179077,0.20669052004814148,-0.12130308151245117,0.045664191246032715,0.055623094842459996,-0.17334318535527102,0.010668839240681422,-0.9832316219459448,-0.04027453602375925,-0.34687629110904056,-3.035626662171958
1782905737312963584,3.288933515548706,-0.1890297830104828,-0.5017620921134949,0.0552540048956871,-0.3450135290622711,0.04204368591308594,-0.9376555681228638,0.181424081325531,-0.12990379333496094,0.08206480741500854,0.055821725485325595,-0.17618917337182122,0.011383522360617173,-0.9827062918834283,-0.042056081867992416,-0.35257852875722073,-3.035599323517047
1782905737322883328,3.2988533973693848,-0.19609108567237854,-0.522255539894104,0.014441361650824547,-0.34955742955207825,0.04369203373789787,-0.9358956217765808,0.12947991490364075,-0.12221376597881317,0.07641381025314331,0.05577313291291822,-0.17862199583600455,0.012098316576836202,-0.9822612751305279,-0.04370594562308205,-0.3574553289430366,-3.036050704028217
1782905737332802304,3.308772325515747,-0.20337536931037903,-0.498043417930603,0.019738389179110527,-0.35415366291999817,0.04568079113960266,-0.934070885181427,0.08369162678718567,-0.055293817073106766,0.089710533618927,0.05572730696880256,-0.1810965283883694,0.012984704115443928,-0.9817992572778804,-0.0456966915871898,-0.3624046999918425,-3.0365671310327627
1782905737342722304,3.318692445755005,0.012868395075201988,-0.5094802975654602,0.0032678693532943726,-0.3587660491466522,0.04666803032159805,-0.9322601556777954,0.05482625961303711,-0.03261469304561615,0.07872933149337769,0.0557259157328904,-0.18355263224083382,0.013354595957401003,-0.9813382574150215,-0.04668498526267612,-0.367364856773142,-3.036817721380588
1782905737352642304,3.3286123275756836,0.22173531353473663,-0.4709584712982178,0.0313037671148777,-0.36311131715774536,0.04557238891720772,-0.930630624294281,0.04557591676712036,-0.06865894794464111,0.0734986662864685,0.05597201828658229,-0.1858096991332573,0.012627114865675238,-0.980909060071109,-0.04558817971307947,-0.3720102937222506,-3.036173773266594
1782905737362562304,3.3385324478149414,0.35552453994750977,-0.531221330165863,0.0644763633608818,-0.36765792965888977,0.04307251423597336,-0.9289630651473999,0.06593063473701477,-0.05114441365003586,0.1019519567489624,0.0564618515925489,-0.18813440528459632,0.011131395009851431,-0.9804558095258697,-0.04308584500396126,-0.37685658724169735,-3.034762305142601
1782905737372481280,3.3484513759613037,0.43425610661506653,-0.3871089220046997,0.07531463354825974,-0.37171849608421326,0.03964763507246971,-0.927498459815979,0.08735570311546326,-0.07835918664932251,0.1074758768081665,0.057236911729594796,-0.19017774701660778,0.00912070459635812,-0.9800373512304492,-0.03965803079183535,-0.3811745879188376,-3.032571764051484
1782905737382401536,3.3583714962005615,0.4683288633823395,-0.21571731567382812,0.04640894755721092,-0.37456002831459045,0.035787105560302734,-0.9265117645263672,0.057116180658340454,-0.10504675656557083,0.11697196960449219,0.05800123645404193,-0.191562476104653,0.0069229470240605015,-0.9797406631329683,-0.0357947496258572,-0.3841811462368336,-3.030291869666897
1782905737392321280,3.3682913780212402,0.43050211668014526,-0.22018742561340332,0.016336265951395035,-0.37652477622032166,0.03152364864945412,-0.9258700609207153,0.06732067465782166,-0.031187959015369415,0.11175262928009033,0.058504542211119254,-0.19246780222931542,0.004595577936565061,-0.9795469964321258,-0.03152887383991782,-0.3862442473781942,-3.02844841206876
1782905737402241536,3.378211498260498,0.49580228328704834,-0.1899784654378891,0.04761109873652458,-0.3783995509147644,0.02756916731595993,-0.9252316951751709,0.0979124903678894,0.09067118167877197,0.1153867244720459,0.059170351911095875,-0.1933349692952914,0.00239434309644658,-0.9793440346610462,-0.02757266115741086,-0.38822211607020235,-3.02632340318762
1782905737412160512,3.3881304264068604,0.38884228467941284,-0.12936891615390778,-0.08256501704454422,-0.37949302792549133,0.02308022975921631,-0.9249066710472107,0.06671836972236633,0.1465364694595337,0.1572064757347107,0.05951257993020201,-0.19376961294049638,8.562728674151287e-06,-0.9792403193360818,-0.023082278714050542,-0.3893575550418241,-3.0247449710611796
1782905737422080256,3.398050308227539,0.13565583527088165,-0.12028726935386658,-0.09719269722700119,-0.38065946102142334,0.020658178254961967,-0.9244845509529114,0.11398160457611084,0.20462258160114288,0.3092653751373291,0.05926836609077209,-0.19430972362035473,-0.0012126169318622385,-0.9791473691647106,-0.020659647942532333,-0.39059719547212324,-3.024766045312867
1782905737432000512,3.407970428466797,0.21334023773670197,0.05108341574668884,-0.12974505126476288,-0.38102811574935913,0.018547849729657173,-0.9243773818016052,0.15086454153060913,0.19496838748455048,0.3368682265281677,0.05891656324793986,-0.19443853096802116,-0.00222820242182386,-0.9791412320173739,-0.018548913931332907,-0.39097895707701485,-3.025067368389624
1782905737441919232,3.417889356613159,0.3157801330089569,0.0838075801730156,-0.11874282360076904,-0.380316823720932,0.015622248873114586,-0.9247243404388428,0.102332204580307,0.16040313243865967,0.3031575679779053,0.058511713944987186,-0.19397107307031447,-0.003613419046337672,-0.9792541627467474,-0.015622884113305707,-0.3901890137609097,-3.025319242858074
1782905737451839488,3.427809476852417,0.2528408467769623,0.04043719917535782,-0.16744911670684814,-0.37969619035720825,0.012172916904091835,-0.9250311255455017,0.17553359270095825,0.11856438964605331,0.2990087866783142,0.058090411081029296,-0.19353735401259908,-0.005264886733558577,-0.9793574848141737,-0.012173217100129037,-0.3894982844138827,-3.0255030333533313
1782905737461759232,3.4377293586730957,0.0441729873418808,0.18161478638648987,-0.1602248251438141,-0.3784615695476532,0.010323867201805115,-0.9255594611167908,0.1988656222820282,0.09305442869663239,0.33371680974960327,0.05744172613828418,-0.1928310722022238,-0.006038214532824036,-0.9795306209665133,-0.010324050617986934,-0.38815546149374924,-3.026471868113317
1782905737471679488,3.4476494789123535,-0.012152336537837982,0.3324277400970459,-0.15637442469596863,-0.3760056495666504,0.009542603977024555,-0.9265682101249695,0.1995835304260254,0.0021303733810782433,0.3158809542655945,0.05667930375771212,-0.1915132850212958,-0.006208753522374374,-0.9798324055489808,-0.009542748345027285,-0.38550031712429994,-3.0278921021018887
1782905737481598464,3.457568407058716,-0.06196589767932892,0.37999263405799866,-0.005978892091661692,-0.37255460023880005,0.00957968644797802,-0.9279608130455017,0.20875149965286255,-0.09197714179754257,0.3239874243736267,0.05627440945599264,-0.18969328360533075,-0.0060038447070324685,-0.9802109678714005,-0.00957983269082539,-0.38177869984988616,-3.0287487730414235
