time,seconds_elapsed,rotationRateX,rotationRateY,rotationRateZ,gravityX,gravityY,gravityZ,accelerationX,accelerationY,accelerationZ,quaternionW,quaternionX,quaternionY,quaternionZ,pitch,roll,yaw
1784546948443992320,1.2275173664093018,3.482015371322632,0.4477894604206085,-1.9959032535552979,0.03076316975057125,0.4299895763397217,-0.9023095965385437,-0.0949568822979927,0.28499147295951843,0.0493738055229187,0.9255739814292121,-0.20424222913003273,0.08444123641887549,-0.3073557644490899,-0.44448124424482277,0.03408060746893352,-0.6335250174224849
1784546948453911296,1.237436294555664,2.384690761566162,0.47936829924583435,-2.2659943103790283,0.025631699711084366,0.40175381302833557,-0.9153889417648315,-0.28948667645454407,-0.025365233421325684,0.503355860710144,0.9251232269745003,-0.189774540568221,0.0793168319478125,-0.319126019708315,-0.4134312001616183,0.027993569762983103,-0.658475962980497
1784546948463830528,1.2473554611206055,1.0587430000305176,0.43032538890838623,-1.745787262916565,0.022329416126012802,0.38607072830200195,-0.9221988916397095,-0.1824093759059906,-0.6312642097473145,0.795474648475647,0.9233229479570773,-0.18162028710495967,0.07690663722365407,-0.3295058912226869,-0.3963682712620371,0.024208503276180578,-0.6807013331898769
1784546948473749504,1.2572743892669678,-0.6518107056617737,0.4336754083633423,-1.6174647808074951,0.019218986853957176,0.3867945671081543,-0.9219655990600586,0.054938722401857376,-0.6326746940612793,0.5917959213256836,0.9203140579707064,-0.18183637661989704,0.07715390055640473,-0.33764600495975006,-0.3971530573461026,0.020842646362340768,-0.6990736378113069
1784546948483668224,1.26719331741333,-0.1907549500465393,0.9494431614875793,-1.2454878091812134,0.019787924364209175,0.39141759276390076,-0.9200003743171692,0.19026458263397217,-0.12150487303733826,-0.02656334638595581,0.9171651926654628,-0.18342393905112628,0.07972122298932141,-0.34468547867794386,-0.4021716022161966,0.021505289859001218,-0.7145880906465056
1784546948493587456,1.2771124839782715,0.8731033802032471,1.3163690567016602,-1.3316012620925903,0.02562451921403408,0.3887558579444885,-0.9209843873977661,0.15429183840751648,0.4714431166648865,-0.8989466428756714,0.9148003816058197,-0.1804408232583586,0.08336007485693468,-0.35161427381055854,-0.39928084095491906,0.027815790415863132,-0.7282773459622981
1784546948503506432,1.2870314121246338,1.0629172325134277,1.4171334505081177,-1.3194013833999634,0.03285828232765198,0.3796541094779968,-0.9245448112487793,0.016625981777906418,0.5824125409126282,-1.0344700813293457,0.9128113242711287,-0.17393663156802308,0.08645027633641482,-0.35923226981067324,-0.389422386736527,0.03552500305876462,-0.7428519824286268
1784546948513425408,1.296950340270996,1.1478193998336792,1.9079550504684448,-1.627231240272522,0.04277713596820831,0.3699682652950287,-0.9280590415000916,-0.2856665253639221,0.2869378626346588,-0.919612467288971,0.9103653391489477,-0.1665268412796412,0.0907705209933056,-0.3677831636727743,-0.3789748643306146,0.046060516815352996,-0.7590560171776956
1784546948523344640,1.3068695068359375,1.0361254215240479,2.1988461017608643,-1.3945554494857788,0.056323613971471786,0.36036184430122375,-0.9311106204986572,-0.2515903413295746,-0.037485867738723755,-0.5682026743888855,0.9074649901448485,-0.15834759443680238,0.09680251774608285,-0.3769118731166507,-0.36865575904270226,0.06041716762631866,-0.7760626525278573
1784546948533263360,1.3167884349822998,0.6900707483291626,2.3133153915405273,-1.3468674421310425,0.07250642776489258,0.3519148826599121,-0.9332195520401001,0.021640300750732422,-0.06730794906616211,-0.1116718053817749,0.9046060470462947,-0.15022739273702626,0.10402862381680507,-0.3850942830137627,-0.3596160528571145,0.07753915476171581,-0.7908320664471258
1784546948543182336,1.326707363128662,-0.035544250160455704,2.4510507583618164,-1.4911226034164429,0.08947870880365372,0.3493915796279907,-0.9326945543289185,-0.01489374041557312,-0.04670298099517822,0.23346054553985596,0.9008496079319341,-0.1446385858731714,0.11283799189884813,-0.39346836278614544,-0.35692168830864296,0.09564299843167356,-0.8063383688287501
1784546948553100288,1.336625337600708,-0.45992934703826904,2.646221399307251,-1.3756089210510254,0.10814608633518219,0.3526078164577484,-0.9295009970664978,0.03426419198513031,-0.025550931692123413,0.2940487861633301,0.8963982848791967,-0.14130798195113012,0.1236185300820262,-0.40152291966263864,-0.36035645027346697,0.11582776314467302,-0.8211396757452993
1784546948563019520,1.3465445041656494,-0.46158555150032043,2.668761730194092,-1.3152412176132202,0.12802718579769135,0.3581394851207733,-0.924848735332489,0.11011673510074615,0.055190593004226685,0.231184184551239,0.89169012269742,-0.13870248998380363,0.1354151508785912,-0.409039204750489,-0.36627444312151697,0.1375561999744014,-0.8346533123607034
1784546948572938496,1.3564634323120117,-0.25965744256973267,2.689727783203125,-1.3525155782699585,0.1478203386068344,0.3634585738182068,-0.9198081493377686,0.1239081621170044,0.2182980179786682,0.06365275382995605,0.8868585015169702,-0.13583881426730526,0.14711814083521485,-0.41639645937362035,-0.371977671106837,0.1593453215638462,-0.8478884759465509
1784546948582857472,1.366382360458374,0.25405648350715637,2.8152551651000977,-1.5217772722244263,0.16775579750537872,0.3655376434326172,-0.9155545830726624,0.04592828452587128,0.1289844512939453,-0.25091880559921265,0.8817929562906014,-0.13109133440363363,0.1582332568246159,-0.4245213848280838,-0.3742103431425688,0.18121845123198835,-0.8629636572455519
1784546948592776192,1.3763012886047363,0.6638292670249939,2.919585704803467,-1.7096538543701172,0.18814463913440704,0.3638792335987091,-0.9122464060783386,0.020122572779655457,-0.046481162309646606,-0.3605349659919739,0.8763612609050115,-0.12408826479441486,0.16875693728767677,-0.4337212723099197,-0.37242927635782164,0.20339139599289538,-0.8806907725866253
1784546948602695424,1.3862204551696777,1.0659772157669067,2.8778204917907715,-1.84834623336792,0.2082047313451767,0.3590560257434845,-0.909796416759491,0.05163717269897461,-0.1232161819934845,-0.32212191820144653,0.870546006845107,-0.11527543231917833,0.1783630024799949,-0.44390058436048474,-0.36725626690014,0.22497361878543454,-0.9011358802133703
1784546948612614400,1.39613938331604,1.2090963125228882,2.7688088417053223,-2.325563907623291,0.22658294439315796,0.35297051072120667,-0.907784104347229,0.08161409199237823,-0.034962087869644165,-0.2205880880355835,0.8640101963041664,-0.1057703302461531,0.18687051166278487,-0.4553881561249973,-0.360744085641709,0.244602191016748,-0.9253059377082148
1784546948622533376,1.4060583114624023,1.260271430015564,2.726867437362671,-2.746304750442505,0.24238935112953186,0.347712904214859,-0.9057279229164124,0.013363182544708252,-0.033198773860931396,-0.23848283290863037,0.8561936105071826,-0.09658855892673131,0.19443938840982802,-0.4688245028275362,-0.3551307005784056,0.2614906186900261,-0.9547623050910137
1784546948632452608,1.4159774780273438,1.3736646175384521,2.7652838230133057,-2.9078316688537598,0.25740939378738403,0.34304454922676086,-0.9033608436584473,0.03992334008216858,-0.20254161953926086,-0.40761327743530273,0.8473898536418577,-0.08736021094954727,0.2017120837981481,-0.4833330334727638,-0.3501562065497911,0.2775895528552397,-0.9872981453017179
1784546948642371328,1.425896406173706,1.8900249004364014,2.568007230758667,-2.8198060989379883,0.27180686593055725,0.33606573939323425,-0.9017654061317444,0.11515602469444275,-0.19960638880729675,-0.4942764639854431,0.8383479893784241,-0.07696331868040819,0.2078315266138316,-0.49805163322351614,-0.3427365648282076,0.29275572552967405,-1.0211008728886315
1784546948652290304,1.4358153343200684,2.5256009101867676,2.1602938175201416,-2.9316413402557373,0.2836278975009918,0.3240014314651489,-0.9025399088859558,0.17964422702789307,0.03654852509498596,-0.4784415364265442,0.8295165800781967,-0.06478839018557611,0.21102724523759253,-0.5130032806244335,-0.32995602506083954,0.30448312904716285,-1.0566532157544841
1784546948662209536,1.4457345008850098,3.3387668132781982,1.9653562307357788,-2.996873140335083,0.2925143539905548,0.30669909715652466,-0.9057433605194092,0.1722683608531952,0.15458935499191284,-0.4890930652618408,0.8204408397276276,-0.05085362315749005,0.21105031818218392,-0.5289125217290844,-0.3117230388961409,0.31238117871895166,-1.0957571040242118
1784546948672128512,1.455653429031372,4.058650970458984,2.0641074180603027,-2.9555413722991943,0.30148568749427795,0.28245940804481506,-0.9106717705726624,0.22923025488853455,0.10679230093955994,-0.44003623723983765,0.8112578803494145,-0.033909690504562995,0.20860069014324842,-0.5451573573347408,-0.28635695449469367,0.31970185143107666,-1.1368801258086214
1784546948682047488,1.4655723571777344,4.581688404083252,2.1720685958862305,-3.0034945011138916,0.3128320574760437,0.251658171415329,-0.9158626198768616,0.2211645245552063,0.002736330032348633,-0.2952427268028259,0.8015048482990672,-0.013562279564568458,0.2046576879737033,-0.5617128430929653,-0.2543931845545453,0.3291459881307415,-1.1800846251405994
1784546948691966208,1.4754912853240967,5.125232696533203,2.0436105728149414,-3.0013694763183594,0.3250139057636261,0.21709154546260834,-0.9204549193382263,0.272627055644989,-0.014485344290733337,-0.11840921640396118,0.7908607015179485,0.008519218180230471,0.1992485137514198,-0.578590454280584,-0.218833967089545,0.33943508262540234,-1.2255896162696545
1784546948701884416,1.4854094982147217,5.676645755767822,1.9552637338638306,-2.7012217044830322,0.33774474263191223,0.17731818556785583,-0.9243845343589783,0.5247888565063477,0.06671562790870667,0.02049964666366577,0.7800762894506628,0.032496904131151916,0.1917073011566564,-0.5947042891376373,-0.1782607767871556,0.35030357379468635,-1.2711108599542802
1784546948711803136,1.4953281879425049,6.563907146453857,1.6229915618896484,-2.2180187702178955,0.3506000339984894,0.1291525661945343,-0.9275770783424377,0.846116304397583,-0.006990700960159302,0.08501726388931274,0.7695961187841839,0.059297848968474134,0.1808182174920528,-0.609516453051366,-0.12951434293222977,0.36137546821391897,-1.3159900158133007
1784546948721722368,1.5052473545074463,6.72697639465332,0.8988463878631592,-1.750231146812439,0.3602575659751892,0.07414538413286209,-0.9299015998840332,1.179598331451416,-0.06250292807817459,-0.0756678581237793,0.7600003064500049,0.08698095521082093,0.16578155897687022,-0.6223746734244257,-0.07421348681561392,0.3696101398828182,-1.35845596811974
1784546948731641344,1.5151662826538086,5.871451377868652,0.19200509786605835,-1.3695021867752075,0.36446207761764526,0.021013593301177025,-0.9309810996055603,1.34330153465271,-0.060747481882572174,-0.012073099613189697,0.7516400309905611,0.11127163926012534,0.14875506258299315,-0.6328726792962556,-0.02101514007449696,0.3731415277889321,-1.395682671182135
1784546948741560320,1.525085210800171,4.3849778175354,-0.40811362862586975,-1.396432876586914,0.36349397897720337,-0.02113603800535202,-0.9313567280769348,1.276993751525879,-0.2920353412628174,-0.044336020946502686,0.7443415372748754,0.12889669012981994,0.13306866063751926,-0.641587138577885,0.021137612543788965,0.3721028755149816,-1.4267636021835959
1784546948751479040,1.5350041389465332,3.3253848552703857,-1.2152178287506104,-1.2828235626220703,0.3567844331264496,-0.051699891686439514,-0.9327550530433655,1.165295124053955,-0.7676665782928467,-0.21537727117538452,0.7379296420972604,0.13963426281298486,0.11884754276480554,-0.6494902093521013,0.051722951305890205,0.3653349911265808,-1.4530377703340034
1784546948761398272,1.5449233055114746,3.262856960296631,-1.584079384803772,-1.1259278059005737,0.3445822298526764,-0.07685139775276184,-0.9356051087379456,1.125419020652771,-0.6368021368980408,-0.36519140005111694,0.7325659453040954,0.1459792921313708,0.1043430877972121,-0.6566200151800857,0.07692724739834425,0.3528827302359867,-1.4752887742174379
1784546948771317248,1.554842233657837,3.767411470413208,-1.9824868440628052,-0.6567957401275635,0.3290662169456482,-0.10629700124263763,-0.9383050799369812,1.051701545715332,-0.6876025199890137,-0.6405065655708313,0.7278207874447814,0.15245351814956792,0.08720891257083781,-0.6628948682694338,0.10649819862399519,0.3373008001890937,-1.495643596427042
1784546948781236224,1.5647611618041992,4.653689861297607,-2.532438278198242,-0.11475381255149841,0.30873504281044006,-0.14480280876159668,-0.940061092376709,0.9705618619918823,-1.0726807117462158,-0.7063775062561035,0.7241276063731347,0.16028495966722453,0.06540793753209836,-0.6675849979963978,0.1453136818807631,0.3173222476168238,-1.5128758321439049
1784546948791155456,1.5746803283691406,4.5038251876831055,-2.8149778842926025,-0.04863741248846054,0.2830207347869873,-0.18825949728488922,-0.9404560923576355,0.8081963062286377,-0.886203408241272,-0.6333659291267395,0.7209103425557326,0.16783847641220834,0.04002761854675874,-0.6712051012552935,0.18938966015972572,0.29231884093862787,-1.527378676979702
1784546948801074176,1.584599256515503,3.3757565021514893,-2.048323392868042,-0.3834388256072998,0.26083776354789734,-0.22347991168498993,-0.9391593933105469,0.5837819576263428,-0.5749667286872864,-0.18623733520507812,0.7173900576953802,0.1734017690337271,0.018765030188678603,-0.674485851467199,0.22538322935259222,0.27090746839056534,-1.5400116719510704
1784546948810993152,1.5945181846618652,2.5488100051879883,-1.9020158052444458,-0.4486767053604126,0.2437399923801422,-0.251051127910614,-0.9367839097976685,0.2713051438331604,-1.1291978359222412,-0.25501900911331177,0.713268084004794,0.17777651553661142,0.0018831971715056054,-0.6779679233063488,0.25376601478153565,0.25454420866502153,-1.5527059947744701
1784546948820912384,1.6044373512268066,1.6634107828140259,-0.42636945843696594,0.5283949971199036,0.23246453702449799,-0.269752562046051,-0.9344483613967896,0.14233708381652832,-0.9240645170211792,-0.056869328022003174,0.7111970331276374,0.18080401665402673,-0.009258327017282094,-0.6792811634954313,0.2731360717166596,0.24382250777412015,-1.558568734644087
1784546948830831360,1.614356279373169,1.3691370487213135,0.536814272403717,2.1448309421539307,0.23010307550430298,-0.28677836060523987,-0.9299520254135132,0.383605420589447,-0.6314955949783325,0.08000695705413818,0.7144701717150056,0.18654541148347123,-0.014993258013788905,-0.674172435496734,0.29086223163659264,0.24256349623499615,-1.548472197878978
1784546948840750336,1.6242752075195312,1.0312514305114746,0.056945666670799255,3.1981735229492188,0.2257661670446396,-0.3043472468852997,-0.9254201054573059,0.9845762252807617,-0.8828322887420654,0.2465260624885559,0.7222340322881983,0.1920366981667675,-0.02029405278850425,-0.6641446235553539,0.3092530961698749,0.23928662035206677,-1.5245175298078335
1784546948850669056,1.6341941356658936,-0.013617310672998428,-1.088025450706482,4.350076675415039,0.20998920500278473,-0.3174755871295929,-0.9247236251831055,1.478075385093689,-1.6490771770477295,0.36605358123779297,0.7339080179633626,0.19207492435348197,-0.02730218669713871,-0.6509537758851514,0.32306615161955443,0.22329638197072998,-1.4876724820657103
1784546948860587264,1.6441123485565186,-1.1930214166641235,-2.384840965270996,5.227100372314453,0.17849725484848022,-0.3210878372192383,-0.930076003074646,1.7734527587890625,-1.9475584030151367,0.486350417137146,0.7495651949293524,0.1834213399394922,-0.03631286202955362,-0.63497236429006,0.3268779184554282,0.18961135408262392,-1.4370006262831168
1784546948870506240,1.6540312767028809,-1.8238470554351807,-3.0271108150482178,5.704547882080078,0.13571372628211975,-0.31550440192222595,-0.93916916847229,1.6217783689498901,-1.6634689569473267,0.3869536519050598,0.7673795775218774,0.16803569893167444,-0.046684140775269896,-0.6170196075190604,0.32098814355322414,0.14351062721669647,-1.377695262690926
1784546948880425216,1.6639502048492432,-2.1531929969787598,-3.20818829536438,5.879440784454346,0.08858457207679749,-0.3031955361366272,-0.9488019943237305,1.3369678258895874,-1.3850369453430176,0.20029741525650024,0.7856185203400284,0.1493943412728919,-0.05727413595907945,-0.5976659237267927,0.3080442432731692,0.09309477760989417,-1.3151653975266233
1784546948890344192,1.6738691329956055,-2.0675368309020996,-3.1950783729553223,6.086105823516846,0.04088672250509262,-0.2869296073913574,-0.9570786952972412,1.2370368242263794,-1.2404446601867676,0.09312605857849121,0.8035021704357163,0.1298568283268282,-0.067807426841656,-0.576995266435966,0.29102013623927714,0.0426943727009814,-1.2517993356035144
1784546948900263424,1.6837882995605469,-1.887682318687439,-3.2122323513031006,6.500573635101318,-0.006892187055200338,-0.2692182660102844,-0.9630545377731323,1.2881879806518555,-1.1056902408599854,-0.029117703437805176,0.821130990440358,0.11066577873948875,-0.07890386453941217,-0.5543205461270284,0.27258123818107727,-0.007156468482501292,-1.186613574671915
1784546948910182144,1.6937072277069092,-1.7297015190124512,-3.113802433013916,6.895402431488037,-0.05449603870511055,-0.25006482005119324,-0.9666942358016968,1.3627846240997314,-1.0551567077636719,-0.03217661380767822,0.8387033160350756,0.09198049473971405,-0.09051223615485306,-0.5290784102875313,0.25274721385058335,-0.0563139980969599,-1.118403514994343
1784546948920101120,1.7036261558532715,-1.611830234527588,-2.860358715057373,7.191629886627197,-0.09995618462562561,-0.22861602902412415,-0.968371570110321,1.3799091577529907,-1.1355044841766357,0.15726011991500854,0.8559896096552388,0.07395369523848778,-0.10171072409422317,-0.5014655343147032,0.2306558305682463,-0.10285663858346923,-1.0479470454996989
1784546948930020352,1.713545322418213,-1.4221612215042114,-2.3971023559570312,7.315293788909912,-0.1408742517232895,-0.20539800822734833,-0.968486487865448,1.3805898427963257,-1.1877903938293457,0.4603688716888428,0.8726033996604486,0.057269892551661004,-0.11170009350540554,-0.47202381953556816,0.2068703765112129,-0.14444510991366938,-0.9766973782219366
1784546948939939328,1.7234642505645752,-1.0655282735824585,-2.096463203430176,7.647409915924072,-0.17654652893543243,-0.18168672919273376,-0.967378556728363,1.4023919105529785,-1.2039333581924438,0.788820207118988,0.8885114183694459,0.04250459426454646,-0.12043290523313727,-0.4407229455471148,0.18270145271640095,-0.18051335810481822,-0.9043426945980776
1784546948949858304,1.7333831787109375,-0.7799841165542603,-1.841184377670288,8.096537590026855,-0.20873741805553436,-0.15807944536209106,-0.9651111960411072,1.4965944290161133,-1.2467515468597412,0.9349598288536072,0.9040063661586065,0.029530669798842408,-0.12873365137600962,-0.40660550802603107,0.15874534351112105,-0.21300242194875454,-0.8283385915978098
1784546948959777280,1.743302345275879,-0.9481909275054932,-1.4762768745422363,8.310077667236328,-0.23641252517700195,-0.13214020431041718,-0.9626256227493286,1.5125508308410645,-1.3260507583618164,1.1235753297805786,0.9188432767297049,0.017272185170613893,-0.13560553339947765,-0.3701889545662558,0.1325278078516625,-0.24082505573279864,-0.7499246635314363
1784546948969696256,1.7532212734222412,-1.659527063369751,-1.143710970878601,8.354375839233398,-0.25837334990501404,-0.09957235306501389,-0.9608998894691467,1.486538052558899,-1.4184329509735107,1.3239521980285645,0.9325530387433838,0.003495733423188995,-0.13977785446840255,-0.3328582944648718,0.09973762614752886,-0.2626740492967486,-0.6724884642529098
1784546948979615232,1.7631402015686035,-2.6060664653778076,-1.0443881750106812,8.408632278442383,-0.2751879394054413,-0.05729616433382034,-0.9596815705299377,1.5484271049499512,-1.5438390970230103,1.4278974533081055,0.9447879149269143,-0.013847690091099069,-0.14130621296633716,-0.2953246874541273,0.05732756139162565,-0.279256210121458,-0.5978619704003911
1784546948989534208,1.7730591297149658,-3.5213139057159424,-1.0912809371948242,8.44615650177002,-0.28790250420570374,-0.004663998726755381,-0.9576483964920044,1.6698453426361084,-1.6464591026306152,1.4449836015701294,0.9552236869356737,-0.035612366359639054,-0.14109420525868752,-0.25762769831434074,0.004664015812861641,-0.29203916601933677,-0.5261860969229261
1784546948999453184,1.7829782962799072,-3.9725112915039062,-1.0988057851791382,8.441020965576172,-0.29630547761917114,0.05534766986966133,-0.9534881711006165,1.7308909893035889,-1.5526010990142822,1.5768859386444092,0.9635447158093841,-0.06064385387770453,-0.13992225167478875,-0.21983086877660912,-0.05537596698035973,-0.30129840054273643,-0.45702569797697035
1784546949009372160,1.7928972244262695,-4.274819374084473,-0.9958111047744751,8.415376663208008,-0.2988380789756775,0.11887049674987793,-0.9468714594841003,1.7456765174865723,-1.326817274093628,1.6825129985809326,0.9697155126668695,-0.0871290958888431,-0.1377417219546277,-0.18189976614611914,-0.11915223680703657,-0.30571180917822766,-0.38922904891384014
1784546949019290112,1.8028151988983154,-4.6216301918029785,-0.9931066036224365,8.48331356048584,-0.2954280972480774,0.18492700159549713,-0.9372962713241577,1.7404506206512451,-1.1667842864990234,1.8292182683944702,0.9736467409650861,-0.11485978047363117,-0.13475573087448742,-0.14373676760681753,-0.18599757605779066,-0.30533531333774155,-0.3218365170146908
1784546949029209088,1.8127341270446777,-4.937803745269775,-0.9704461097717285,8.545611381530762,-0.28607964515686035,0.2533159852027893,-0.9241154789924622,1.7047808170318604,-1.117177128791809,2.028958559036255,0.9751923425820727,-0.14402183115833042,-0.13114862546151632,-0.10515546148626823,-0.25610651231970777,-0.30021450672840777,-0.2537738997369036
1784546949039128320,1.8226532936096191,-5.008211135864258,-0.8762814998626709,8.576041221618652,-0.27019935846328735,0.32158902287483215,-0.9075090885162354,1.6330534219741821,-1.0510964393615723,2.1045610904693604,0.9743533719611819,-0.17365266734500784,-0.12684712930256586,-0.06625726186724733,-0.3274071933264618,-0.28937967641047746,-0.18392082339735016
1784546949049047296,1.8325722217559814,-4.90871000289917,-0.8210094571113586,8.450448036193848,-0.248226135969162,0.38600954413414,-0.8884708285331726,1.6019096374511719,-0.8785480260848999,2.0990421772003174,0.9713265892472935,-0.20216588446120226,-0.12203912051885643,-0.02756758668780787,-0.3963019416061088,-0.2724390717583949,-0.1117763885665691
1784546949058966272,1.8424911499023438,-4.749178409576416,-0.7255990505218506,8.309624671936035,-0.22160618007183075,0.4443219304084778,-0.8680257797241211,1.5777767896652222,-0.7662518620491028,2.086684226989746,0.9663883117209969,-0.22863725868268372,-0.11709876443828209,0.010321102633221271,-0.4604172269470408,-0.24995977811415696,-0.03751200643908293
1784546949068885248,1.8524103164672852,-4.6830830574035645,-0.49475201964378357,8.319683074951172,-0.1880652755498886,0.5003951191902161,-0.8451249599456787,1.5673987865447998,-0.8992599248886108,2.046037435531616,0.9593003775731918,-0.2552669134401683,-0.11079855703626983,0.04801430061566042,-0.5240550848559209,-0.2189617834575651,0.04107643596687963
1784546949078804224,1.8623292446136475,-4.754342555999756,-0.40683653950691223,8.383817672729492,-0.14834971725940704,0.5528035163879395,-0.820000410079956,1.6154518127441406,-1.2072529792785645,1.9749228954315186,0.950094063622526,-0.28160528199903,-0.10343242901193969,0.08556543490220388,-0.5857247798568909,-0.17897830775183143,0.12553615152952488
1784546949088723200,1.8722481727600098,-4.991891860961914,-0.4009554982185364,8.532832145690918,-0.10317382961511612,0.6020092368125916,-0.7917954921722412,1.7577606439590454,-1.4358563423156738,2.0004594326019287,0.938445905223552,-0.3081968955617749,-0.0954826353798181,0.12335741499288733,-0.64601499559922,-0.12957358439928734,0.21797237879471115
1784546949098642432,1.8821673393249512,-5.325863838195801,-0.46092987060546875,8.635820388793945,-0.053370401263237,0.648134708404541,-0.7596532106399536,1.9033764600753784,-1.4729485511779785,2.0994815826416016,0.9240147480205307,-0.335450445629851,-0.08744369701890167,0.1613176118649631,-0.7051324965308456,-0.07014101965124313,0.3198659985549901
1784546949108561152,1.8920862674713135,-5.538066387176514,-0.6351964473724365,8.855294227600098,0.0006064905319362879,0.6904186606407166,-0.7234097719192505,2.006458282470703,-1.3891339302062988,2.2604122161865234,0.9065496638369568,-0.36324495634071047,-0.07967570723042729,0.19968131585878013,-0.7620676605823332,0.0008383773577755538,0.43394232422965073
1784546949118480128,1.9020051956176758,-5.7073469161987305,-0.7558445930480957,8.941964149475098,0.058248862624168396,0.7269128561019897,-0.6842549443244934,2.0541017055511475,-1.2628320455551147,2.317967653274536,0.886145606737554,-0.39070205269187336,-0.07228026736636664,0.23848165614422812,-0.8138157528582106,0.08492268629407551,0.5624036539250162
1784546949128399104,1.911924123764038,-5.551243305206299,-0.8608157634735107,8.965010643005371,0.1187700554728508,0.756247341632843,-0.6434155702590942,2.0062451362609863,-1.2360600233078003,2.244673013687134,0.8631155577702563,-0.417198406235514,-0.06509754787429275,0.27701863754696116,-0.8575584366593254,0.18253826627620368,0.7047625200219164
1784546949138318336,1.9218432903289795,-5.277768135070801,-0.6522692441940308,8.890002250671387,0.1819099336862564,0.7763329744338989,-0.6035029888153076,1.9429832696914673,-1.3420525789260864,2.0421321392059326,0.838272579307022,-0.4415519946112756,-0.057274379001551336,0.3147228668727018,-0.8888270945009152,0.2927621863374264,0.8584993046528122
1784546949148237312,1.9317622184753418,-5.401409149169922,-0.3467400074005127,8.590500831604004,0.24686570465564728,0.7883480787277222,-0.5635286569595337,1.8782258033752441,-1.3645963668823242,1.9859988689422607,0.8118097365122464,-0.46463651798312555,-0.04846207062557737,0.35032725499963985,-0.9081192907901903,0.41288981995403373,1.0185165513031782
1784546949158156032,1.941681146621704,-6.267552375793457,-0.08236321806907654,8.105912208557129,0.3113560974597931,0.7964391112327576,-0.5184034109115601,1.7985377311706543,-1.3544683456420898,2.1540541648864746,0.7828722829802488,-0.4890706014925447,-0.04010301541522874,0.3825083519595841,-0.92138366998286,0.5408648484923907,1.182427109712908
1784546949168075264,1.9516003131866455,-6.999312877655029,1.001259446144104,8.849154472351074,0.3777373731136322,0.8009039759635925,-0.4646151065826416,1.7189117670059204,-1.3655707836151123,2.510162591934204,0.7500337205654799,-0.5164078886254297,-0.031864467478319454,0.4120156225473373,-0.9288033630417265,0.6826245406928274,1.356854034093859
1784546949177994240,1.9615192413330078,-1.7768946886062622,-4.638728141784668,11.568398475646973,0.45487770438194275,0.7801334261894226,-0.42950913310050964,2.294832468032837,-0.5528079867362976,2.263646125793457,0.7174476614173,-0.5338506033438052,-0.01577867285554554,0.44723976892906153,-0.8948790737709306,0.8140752174800995,1.5228885924005382
1784546949187913216,1.9714381694793701,-13.821491241455078,-7.786714553833008,0.7297514081001282,0.4625306725502014,0.7982443571090698,-0.3858385682106018,5.454492092132568,6.714847564697266,3.421818733215332,0.6780547901611111,-0.5517196602930973,-0.05182792075894283,0.4828675260261124,-0.9243748275126112,0.8755525592529546,1.6958221766005213
1784546949197831168,1.981356143951416,-5.861949443817139,-3.238915205001831,6.8926825523376465,0.47094959020614624,0.8143191337585449,-0.339250385761261,0.42422252893447876,0.7934079170227051,3.5792558193206787,0.6428339894914561,-0.5689279966046212,-0.08182752311205604,0.5063493182497547,-0.9515551558628514,0.946540216961074,1.8503226875655572
1784546949207750400,1.9912753105163574,-4.700934410095215,1.7871606349945068,5.019905090332031,0.5199986696243286,0.8001152873039246,-0.29902610182762146,-0.6454564929008484,0.1896916627883911,1.7537075281143188,0.6108236118629341,-0.5866826229124295,-0.07931238572851511,0.5257446014696977,-0.9274874338708862,1.0489232495391698,1.9846233690345947
1784546949217669376,2.0011942386627197,-1.592617154121399,4.599571228027344,2.96018648147583,0.559436559677124,0.7883683443069458,-0.25594156980514526,-1.7797582149505615,1.9480055570602417,1.546926736831665,0.5939967361705932,-0.6065036866291257,-0.06467224508975652,0.5245366087239566,-0.9081522451708611,1.1417239249865887,2.0542494005170986
1784546949227588096,2.011113166809082,-0.0015873457305133343,5.102481365203857,2.467690944671631,0.592235267162323,0.7740150690078735,-0.22395992279052734,0.8566630482673645,1.614305853843689,0.8299627304077148,0.586477781899307,-0.6213837766499158,-0.043614665544179435,0.5177101234840492,-0.885158045223451,1.2092577835226208,2.079322668942928
1784546949237507328,2.0210323333740234,-0.5270735025405884,5.15941858291626,0.8674982190132141,0.6141155362129211,0.7665224671363831,-0.18789756298065186,2.059178590774536,0.9640226364135742,0.9545601606369019,0.5823236730426546,-0.6367424513150766,-0.02470366666619147,0.504824661485744,-0.8734085969548319,1.273876522303364,2.0934406286801077
1784546949247426304,2.0309512615203857,-2.140258550643921,2.200882911682129,-0.0447898767888546,0.6232072710990906,0.7663045525550842,-0.15617339313030243,2.9082257747650146,1.0477519035339355,0.5829464793205261,0.5776845332907374,-0.6493451024715422,-0.01625545012385386,0.4943352190785123,-0.8730693437454119,1.3252565758494035,2.113905777047915
1784546949257345280,2.040870189666748,-1.7771885395050049,-1.6434550285339355,1.2303860187530518,0.6265147924423218,0.7667179703712463,-0.1400817632675171,3.7830309867858887,1.480581283569336,0.4406036138534546,0.570379265725699,-0.6554305047353087,-0.01923468345834556,0.49468014855393655,-0.873713106469389,1.3508253825070649,2.144797724632461
1784546949267264256,2.0507893562316895,-2.329261302947998,-3.9137070178985596,1.361588716506958,0.634156346321106,0.760138750076294,-0.141544371843338,3.1987600326538086,1.459770917892456,0.0194740891456604,0.5593968449848764,-0.6545828661951892,-0.027369362271256217,0.5077867499970943,-0.8635266735636848,1.351194783604538,2.181595315397953
1784546949277183232,2.0607082843780518,-0.6429581046104431,-5.086499214172363,0.1360376924276352,0.6328107118606567,0.7581310272216797,-0.15744200348854065,1.4821946620941162,1.6921100616455078,0.08212465047836304,0.5509168000028488,-0.647672657840196,-0.04241611269349314,0.5246062425982725,-0.8604422223663166,1.32694934185144,2.2107019295583505
1784546949287102208,2.070627212524414,0.6325090527534485,-2.5238091945648193,-1.9269382953643799,0.620349109172821,0.7625001072883606,-0.18374003469944,-1.1174957752227783,1.3202481269836426,0.1519254595041275,0.5529658741652438,-0.6364997042880951,-0.05475496912679875,0.5348819248283305,-0.8671686054111577,1.2828403263838801,2.203269122944397
1784546949297021184,2.0805461406707764,0.875013530254364,-0.03445987403392792,-1.3098008632659912,0.6042312979698181,0.7718161940574646,-0.19800063967704773,-1.913862705230713,1.8941383361816406,0.09164690971374512,0.5598397224506285,-0.630210495670964,-0.06192259517549573,0.5343966678978108,-0.8816925664297047,1.2541332145738837,2.183167643224407
1784546949306940416,2.0904653072357178,0.3131546974182129,0.6199982762336731,-1.9458646774291992,0.5937531590461731,0.7791121602058411,-0.20110014081001282,-0.8735993504524231,1.421403408050537,0.10628201067447662,0.565995035457232,-0.6288154632492796,-0.06356922537383514,0.5293388187698729,-0.8932483235637113,1.2442296987193948,2.1654935558707864
1784546949316859136,2.10038423538208,-0.8785856366157532,-0.47248339653015137,-2.196058511734009,0.5766050219535828,0.7928718328475952,-0.19718211889266968,-0.08232706785202026,0.5276694297790527,0.22687575221061707,0.5706039955038186,-0.6295531243537633,-0.07121661044257403,0.5224959845534739,-0.9155073174267125,1.2412922295759188,2.1600826278192256
1784546949326778112,2.1103031635284424,-2.331048011779785,-0.3608010709285736,-1.1017560958862305,0.5629101395606995,0.8046230673789978,-0.18898138403892517,0.819215714931488,0.399173378944397,-0.06930416822433472,0.5701904960835337,-0.6315872931000441,-0.08128223398549872,0.5190120464905387,-0.9350403889422149,1.2468974025846897,2.173400814447136
1784546949336697344,2.120222330093384,-3.1479592323303223,-0.6032276153564453,-1.1561253070831299,0.5527353882789612,0.8161497712135315,-0.16847281157970428,0.633940577507019,0.8760956525802612,-0.03897039592266083,0.5638817234657243,-0.6379549019451775,-0.09368635869198429,0.5160172223936494,-0.9547161760710418,1.274943233760513,2.2139000220656158
1784546949346616320,2.130141258239746,-2.9343931674957275,-0.5840799808502197,-0.9493638277053833,0.5428372025489807,0.8270630240440369,-0.14592650532722473,0.5007266402244568,0.9385314583778381,-0.4490289092063904,0.5565244430362867,-0.6447148448822895,-0.10667479872853716,0.5130729137921226,-0.9738625273872513,1.3081828875617176,2.260793275791472
1784546949356535296,2.1400601863861084,-1.6919523477554321,-0.7799631953239441,-0.7475452423095703,0.5359346866607666,0.8343309760093689,-0.12909573316574097,0.4405210018157959,0.9144787788391113,-0.40767794847488403,0.550382868416678,-0.6494835843568293,-0.11671851009076623,0.511494387061794,-0.9869180967059753,1.3344198266601677,2.299068948314554
1784546949366454272,2.14997935295105,-0.028061363846063614,-0.7527759075164795,-0.7129347324371338,0.5283926725387573,0.8396532535552979,-0.12563300132751465,0.13907253742218018,0.9424359798431396,-0.42083001136779785,0.5490352528345315,-0.6495368230253332,-0.12363420696089164,0.5112502751563558,-0.9966445106031384,1.3373662090744125,2.311615977998704
1784546949376372224,2.1598973274230957,1.8362324237823486,-0.35776573419570923,-0.9075127243995667,0.5207169651985168,0.8427301645278931,-0.13660147786140442,-0.11043864488601685,1.0307745933532715,-0.4736432433128357,0.5537469765984303,-0.6449248816247831,-0.12558325758201908,0.511532173846214,-1.0023347484150587,1.3142437987983615,2.291329313887079
1784546949386291200,2.169816255569458,3.083669424057007,-0.5232819318771362,-1.250491738319397,0.5111101269721985,0.8445470333099365,-0.15970849990844727,-0.331865131855011,0.940716028213501,-0.47298192977905273,0.5639951997322479,-0.6362106732913034,-0.12402310680643788,0.5116284769015713,-1.0057187050728953,1.2679353733076493,2.2420572068832874
1784546949396210176,2.1797351837158203,4.056746006011963,-0.30171361565589905,-1.3734469413757324,0.49888381361961365,0.845207691192627,-0.19167454540729523,-0.27071911096572876,0.7688518762588501,-0.43759796023368835,0.578677852646423,-0.6242966169978951,-0.12006857715588663,0.5108516139711393,-1.00695368839271,1.2039784962562252,2.1700363285675652
1784546949406129408,2.1896543502807617,4.9151787757873535,-0.46805301308631897,-1.0929551124572754,0.4876258373260498,0.8415675163269043,-0.2323472946882248,-0.10087659955024719,0.544769823551178,-0.410200297832489,0.5953607270064348,-0.608999010370343,-0.11378293537128109,0.5115850933768998,-1.000178646237347,1.1261355647685218,2.083998592091026
1784546949416048384,2.199573278427124,5.245476245880127,-0.6661719679832458,-1.3078384399414062,0.47717592120170593,0.83393394947052,-0.2772315442562103,-0.20721742510795593,0.61851966381073,-0.4126640558242798,0.6131031046946467,-0.5918034105198311,-0.10560752323439904,0.5125625439959697,-0.9861982100964474,1.0444765842968642,1.9925331405829736
1784546949425967104,2.2094922065734863,5.899734020233154,-0.6741225719451904,-1.1038695573806763,0.4651750326156616,0.8230207562446594,-0.32595881819725037,-0.6655381917953491,0.9538195729255676,-0.33335819840431213,0.631715007598583,-0.5723311429853546,-0.09725046121411686,0.5137272357217737,-0.9667088538717874,0.9595853336136795,1.8987445174014268
1784546949435886080,2.2194111347198486,7.433855056762695,-0.04558409005403519,-1.2473878860473633,0.45347651839256287,0.8050930500030518,-0.3823404312133789,-0.7834631204605103,1.2462069988250732,-0.5327749252319336,0.653373226760135,-0.5491754489930913,-0.08506532620403381,0.5140755443820838,-0.9358323735666432,0.8703032014716233,1.7947578192807472
1784546949445805312,2.22933030128479,8.196029663085938,-0.4582991302013397,-1.2418540716171265,0.440900057554245,0.7792415618896484,-0.4454095959663391,-0.9189579486846924,1.282114028930664,-0.3692113757133484,0.6776808736553923,-0.5219150567209104,-0.06999908279953648,0.5132771414458188,-0.8934547409974798,0.7803102041621379,1.6854478419512575
1784546949455724288,2.2392492294311523,8.551668167114258,-0.7492965459823608,-1.2757591009140015,0.4282321333885193,0.745099663734436,-0.5113157629966736,-0.5556277632713318,1.071535587310791,-0.036734163761138916,0.7015827885658145,-0.4913235295038382,-0.05425221607388071,0.5132635945311727,-0.8406842224834487,0.6971981901367922,1.5853055837209513
1784546949465643264,2.2491681575775146,8.959643363952637,-0.3753666281700134,-0.827655553817749,0.4171454906463623,0.7015411257743835,-0.5777798891067505,-0.4140021800994873,1.0358397960662842,0.313421368598938,0.7252193697387757,-0.4580338005907048,-0.036264028976919764,0.5127833928138349,-0.7775578300478251,0.6253257840953181,1.4942210257753525
1784546949475562240,2.259087324142456,8.752052307128906,-0.6414238810539246,-2.0636940002441406,0.4017227292060852,0.6567821502685547,-0.6381661891937256,-0.3005264401435852,0.9009723663330078,0.9127633571624756,0.7487320580845302,-0.4248620988354948,-0.020226065274108716,0.5084126440005308,-0.7165435003852312,0.5618254642472909,1.4082720326244567
1784546949485481216,2.2690062522888184,7.019627094268799,-0.14411720633506775,-1.5148335695266724,0.386820524930954,0.6104122400283813,-0.6912067532539368,-0.16651412844657898,0.19030797481536865,0.7077777981758118,0.7695356467169872,-0.39289223207891477,-0.005684342900826194,0.5034066758067793,-0.6565809215579647,0.5102071535197031,1.3357915990864284
1784546949495400192,2.2789251804351807,5.747338771820068,-0.49155691266059875,-1.1149479150772095,0.3761937916278839,0.5727449655532837,-0.7283141016960144,-0.5252416729927063,-0.24683243036270142,0.9615294933319092,0.7850283292500624,-0.36852185658639164,0.005880128052821619,0.49788318020666805,-0.6098505545371853,0.47678150222453003,1.2830828835322083
1784546949505319424,2.288844347000122,3.6943862438201904,0.2014196515083313,-1.1343756914138794,0.3670269250869751,0.5416619181632996,-0.7562364935874939,-0.5316997766494751,-0.5067955255508423,0.2368425726890564,0.7968113935505337,-0.348817785461271,0.014419247589470833,0.4931630659720489,-0.5724128905096436,0.45184576284473915,1.2435071158282027
1784546949515238400,2.2987632751464844,2.527975559234619,0.06310012191534042,-0.8818497657775879,0.3641290068626404,0.522510290145874,-0.7709689140319824,-0.9691399931907654,0.14115548133850098,0.6421389579772949,0.8046078258221055,-0.3377196299399346,0.021471069241391593,0.48794533534125234,-0.5497924757966857,0.44124350989267336,1.2166184887395823
1784546949525157120,2.3086822032928467,1.1654810905456543,-0.630664050579071,0.7614405155181885,0.35871967673301697,0.5086027383804321,-0.7827154397964478,-0.32379230856895447,0.38548600673675537,0.42962706089019775,0.808485337214444,-0.32876427145558196,0.023586569137317822,0.4875543280989267,-0.533561153981901,0.42973598271521873,1.2044583468816523
1784546949535076096,2.318601131439209,0.8409004211425781,0.8003599643707275,-0.3409867584705353,0.36054104566574097,0.49921125173568726,-0.787907600402832,0.39098483324050903,0.13016802072525024,0.707402229309082,0.8090732069099371,-0.324563183414765,0.026550949188007263,0.48923865316196663,-0.5226882448214711,0.42915034110794764,1.2041662296061832
1784546949544995328,2.3285202980041504,0.29787254333496094,-0.027896704152226448,-1.4597281217575073,0.35662755370140076,0.500397264957428,-0.7889356017112732,0.34257593750953674,0.47476136684417725,0.41424083709716797,0.8120994624236251,-0.3237903538518561,0.026306149379837617,0.4847289624845525,-0.524057529159449,0.4245460455961226,1.1917241376418364
1784546949554914304,2.3384392261505127,-0.115996815264225,0.38485705852508545,-0.09363061934709549,0.3550831377506256,0.5018669962882996,-0.7886985540390015,0.9988597631454468,0.23320984840393066,0.06662213802337646,0.8139543013084705,-0.3239584402692847,0.026488608515383438,0.48148476577046745,-0.5257559567495935,0.4230318800541453,1.1837885897152252
1784546949564833280,2.348358154296875,-0.19677495956420898,-0.09585848450660706,-0.8803902864456177,0.35591647028923035,0.5050961971282959,-0.7862577438354492,1.0404000282287598,0.09228533506393433,-0.2361878752708435,0.8152900068491585,-0.3257694901638176,0.027301310000158886,0.47794452885235394,-0.5294934208014601,0.4250733082563751,1.1773363271909918
1784546949574751232,2.358276128768921,0.36924612522125244,-1.3928877115249634,-0.8631346225738525,0.3454726040363312,0.5064327716827393,-0.7900471687316895,1.0905778408050537,0.11946749687194824,-0.7249064445495605,0.8169790550943998,-0.3232036563709498,0.02271127744122276,0.4770418126063809,-0.5310427724767188,0.4122265757479282,1.1706029738181623
1784546949584670208,2.3681952953338623,0.7785322070121765,-0.6086714863777161,-0.8746123909950256,0.333895742893219,0.5041950345039368,-0.796430230140686,0.8529481291770935,0.10693478584289551,-0.606768012046814,0.8205388276590654,-0.3184470838542327,0.019399728156103847,0.4742691834168144,-0.5284495643104127,0.39698213602483573,1.1568973931546824
1784546949594589184,2.3781142234802246,1.2198281288146973,-1.0029370784759521,-0.8005414009094238,0.32266008853912354,0.4995105266571045,-0.8039774298667908,0.45970380306243896,-0.2335803210735321,-0.41935020685195923,0.8240983334220052,-0.31262259213472154,0.016684988578931928,0.4720707153926564,-0.5230336711093232,0.3816522025767912,1.1437225191857041
1784546949604508160,2.388033151626587,1.369903564453125,-0.9029795527458191,0.1090250164270401,0.3134194612503052,0.4896126389503479,-0.813663125038147,0.3689688444137573,-0.6902199387550354,-0.6024898290634155,0.8270712676452697,-0.3048409197887739,0.015506010184811797,0.472000772126688,-0.5116454403046446,0.36767916272352535,1.1343668687645847
1784546949614427392,2.3979523181915283,1.4781997203826904,-1.271714448928833,-0.5304497480392456,0.3029804527759552,0.47900429368019104,-0.8238675594329834,0.3357219398021698,-0.6802982091903687,-0.5058748722076416,0.8298157945606379,-0.29644162623947207,0.013732469972295313,0.47258815983917435,-0.49952004334427835,0.35240277348899085,1.1261695771692761
1784546949624346368,2.4078712463378906,1.2556735277175903,-1.0097150802612305,-0.5024147033691406,0.2904741168022156,0.4689525067806244,-0.834091305732727,0.17087537050247192,-0.5548137426376343,-0.48876941204071045,0.833185212279737,-0.2877979931941926,0.011254272592814876,0.4720677864735325,-0.488104413074168,0.3351168852692541,1.1151593617793707
1784546949634265088,2.417790174484253,1.4118915796279907,-0.9401575922966003,-0.01756521314382553,0.28016048669815063,0.4593048393726349,-0.8429408073425293,0.05466309189796448,-0.2294006645679474,-0.4833989143371582,0.836204148531301,-0.28006580768221834,0.009630086690030034,0.4714161029318813,-0.4772124305009659,0.3208750387201431,1.1053736714286502
1784546949644184320,2.4277093410491943,1.303640604019165,-1.1758381128311157,-0.8329588770866394,0.2690356373786926,0.4483412802219391,-0.8524141907691956,0.17629212141036987,-0.07857504487037659,-0.6235379576683044,0.8391565985224612,-0.27153559010678213,0.007831689311430636,0.47119348657219223,-0.4649087992221259,0.3057212035289999,1.0961830374157362
1784546949654103296,2.4376282691955566,0.792864978313446,-0.9806228876113892,-0.41881176829338074,0.2563812732696533,0.4418470859527588,-0.8596742153167725,-0.0034210681915283203,-0.06622147560119629,-0.22383713722229004,0.8423877486135324,-0.264842175401721,0.004637474089679363,0.4692760517617187,-0.45765661805585944,0.2898328320758657,1.0844776507762257
1784546949664022272,2.447547197341919,0.5215449929237366,-0.9275447130203247,-0.41054263710975647,0.24553336203098297,0.43804970383644104,-0.8647692799568176,0.2937427759170532,-0.17674294114112854,-0.20600104331970215,0.8444267287902854,-0.2600269189771047,0.0011719070803149457,0.4683249341146437,-0.4534279883319792,0.27664864344079004,1.0769521320575615
1784546949673941248,2.4574661254882812,0.6136040687561035,-0.9346151351928711,-0.4647555649280548,0.23310022056102753,0.4338599145412445,-0.8703044652938843,0.2967154383659363,-0.069892019033432,-0.17397654056549072,0.846547070458585,-0.25463539959985376,-0.0029288675108885202,0.4674508417217196,-0.4487724982485111,0.26169521929122236,1.069090601762889
1784546949683860224,2.4673852920532227,0.6714876294136047,-0.9427878260612488,-0.5537107586860657,0.22049255669116974,0.42916589975357056,-0.8758993148803711,0.27018433809280396,0.013796746730804443,0.052260398864746094,0.848925253873569,-0.2490046151549774,-0.006857860560463451,0.4661282733539115,-0.44356910355546875,0.24660883167537082,1.0601517135703284
1784546949693779200,2.477304220199585,0.22783192992210388,-0.7015650868415833,-0.6328319311141968,0.20998050272464752,0.42593446373939514,-0.880050003528595,0.3667406737804413,-0.08123841881752014,0.02926570177078247,0.8509266517213471,-0.24468366290614993,-0.010241767275400136,0.46470305658950833,-0.439994469279378,0.23422142304171176,1.0523143068100367
1784546949703698176,2.4872231483459473,-0.3917144238948822,-0.9069076180458069,-0.4437466859817505,0.19913628697395325,0.4269882142543793,-0.8820577263832092,0.34378665685653687,-0.13318023085594177,0.07494407892227173,0.8521876878785626,-0.242377199891947,-0.014980974780226069,0.463470776173795,-0.4411594790987244,0.2220408760087287,1.0462170463271074
1784546949713618432,2.497143507003784,-0.29244133830070496,-1.132187843322754,0.26543954014778137,0.18720625340938568,0.43123385310173035,-0.8826047778129578,0.3962287902832031,-0.022160977125167847,0.18434733152389526,0.8522006553616943,-0.24132157415412422,-0.02148291528883959,0.4637417154884348,-0.44585987706094754,0.20900891304795252,1.0442579319512602
1784546949723537408,2.5070624351501465,1.009247899055481,-0.7683255076408386,0.06514984369277954,0.17963236570358276,0.42790690064430237,-0.8857922554016113,0.38114339113235474,0.003092855215072632,-0.03838682174682617,0.8521919601963848,-0.2377106091502314,-0.024444776940713443,0.46547281653000216,-0.4421756720166324,0.2000795838593801,1.0449654034133447
1784546949733456640,2.516981601715088,1.5266132354736328,-0.6406809687614441,-0.6053678393363953,0.17002518475055695,0.4178636372089386,-0.8924580812454224,0.15791672468185425,0.10859507322311401,-0.18824565410614014,0.8543469606387099,-0.2304303080720792,-0.025939214054064855,0.46510236290953055,-0.43109255244206846,0.18825737365569303,1.0383945042228704
1784546949743375616,2.52690052986145,2.202854633331299,-0.45652419328689575,0.09217267483472824,0.1608448177576065,0.4003331959247589,-0.902143120765686,0.2192821353673935,0.046108394861221313,-0.05362159013748169,0.8572837649819408,-0.21973984903563284,-0.025354029137713133,0.46490432160693895,-0.41188043206877106,0.17643795311302637,1.0307732317790235
1784546949753294592,2.5368194580078125,2.2640581130981445,-0.14697954058647156,-0.13729138672351837,0.15419119596481323,0.38103511929512024,-0.9116125106811523,0.057661816477775574,-0.22156551480293274,0.17182064056396484,0.860173421132767,-0.20893491110497941,-0.023237053601436228,0.4646590444740965,-0.3909156285806193,0.1675553300948556,1.0238126290815357
1784546949763213312,2.546738386154175,2.0472469329833984,0.13816538453102112,0.19451558589935303,0.15310828387737274,0.36083221435546875,-0.9199771285057068,0.05166466534137726,-0.19551849365234375,0.26322364807128906,0.8624815309168123,-0.19916290408012954,-0.018589239939643325,0.4648808375626586,-0.3691600709632298,0.16491468061519884,1.0195812879745565
1784546949773132544,2.556657552719116,1.592677354812622,0.027856990694999695,-0.03555496782064438,0.15165065228939056,0.3443675935268402,-0.9265058040618896,0.16071200370788574,-0.05797538161277771,0.4252699017524719,0.8641860760072362,-0.19109701311939223,-0.01513331289427494,0.46522613425024867,-0.3515650808310524,0.1622415194245077,1.0165726798178587
1784546949783051520,2.5665764808654785,1.3279348611831665,0.027603037655353546,0.08272327482700348,0.15142086148262024,0.3311399817466736,-0.9313527941703796,0.15041323006153107,-0.0897916853427887,0.39714258909225464,0.8656992749959779,-0.18488643712660732,-0.011857481059922981,0.4650175805395816,-0.3375114644605857,0.16117143729338126,1.0133788565898458
1784546949792970496,2.576495409011841,0.9749735593795776,0.1603456288576126,0.12005812674760818,0.15211990475654602,0.3203369379043579,-0.9350100159645081,0.21834823489189148,-0.07715761661529541,0.25405609607696533,0.8664225998232598,-0.18004023617015824,-0.008971680264280791,0.46563601904080887,-0.3260851427325988,0.1612802621287547,1.0128600295398946
1784546949802889472,2.5864145755767822,0.5159599184989929,0.13152597844600677,0.2266431599855423,0.15388396382331848,0.31365782022476196,-0.9369837045669556,0.17739957571029663,-0.10117921233177185,0.25194042921066284,0.8666497359110914,-0.1773805913271553,-0.0066528989127965345,0.4662726361467806,-0.3190428065108636,0.16278018434408048,1.0134399746827294
1784546949812808448,2.5963335037231445,0.1845282018184662,0.10643872618675232,0.6056461334228516,0.15670143067836761,0.30918923020362854,-0.9380014538764954,0.2901064157485962,0.03070029616355896,0.16096287965774536,0.8659757380618621,-0.1760045817803269,-0.004655145646475317,0.46806712047352306,-0.31434037672971704,0.16553022487738273,1.0173449318895187
1784546949822727424,2.606252431869507,0.13970661163330078,0.10244873911142349,0.5088903903961182,0.15967603027820587,0.306986927986145,-0.938223123550415,0.3325572609901428,-0.02408897876739502,0.16910386085510254,0.8648397194019262,-0.1757212733749351,-0.0032379179821574707,0.47028053744251147,-0.3120254707251221,0.16857464908301942,1.0226835542664792
1784546949832645376,2.6161704063415527,-0.17200787365436554,-0.06488858908414841,0.6944610476493835,0.1608535349369049,0.305796355009079,-0.938410758972168,0.3125198781490326,-0.11916610598564148,0.06864452362060547,0.8635234526846928,-0.17545952510515977,-0.0029289011584453743,0.4727924541692962,-0.31077473879821,0.16976079384493908,1.0285230118670645
1784546949842564608,2.626089572906494,-0.3286815881729126,-0.08579862117767334,0.5968382954597473,0.16221925616264343,0.3073660731315613,-0.9376625418663025,0.33450010418891907,-0.06969514489173889,0.1767067313194275,0.8617283626837179,-0.17651566361109727,-0.0033100655238198135,0.4756632033896665,-0.31242385896856073,0.171308208772669,1.0357802600323132
1784546949852483584,2.6360085010528564,-0.39180809259414673,-0.1787988692522049,0.4282255470752716,0.1622752845287323,0.3098522424697876,-0.9368342161178589,0.1821766197681427,-0.03763541579246521,0.08952891826629639,0.8604807816398484,-0.1776639323525614,-0.004292761582286219,0.4774828679514381,-0.3150376189642586,0.17151479529075772,1.0405062925891415
1784546949862402560,2.6459274291992188,-0.2366236299276352,-0.21908032894134521,0.2620837986469269,0.162205308675766,0.31244033575057983,-0.935986340045929,0.2212022840976715,0.10131698846817017,0.04729926586151123,0.859086802832316,-0.17882256209164524,-0.005413605549641921,0.47954467674347434,-0.3177608967498472,0.17159452848656398,1.0457989977662867
1784546949872321536,2.65584659576416,0.10760911554098129,-0.10492126643657684,0.28610819578170776,0.16131430864334106,0.31262916326522827,-0.9360772967338562,0.10341042280197144,0.27811485528945923,-0.0801733136177063,0.8583391588728292,-0.17867187476048366,-0.0061412754596295764,0.4809288203069722,-0.317959683073924,0.1706539542425399,1.0488621287029722
1784546949882240512,2.6657655239105225,0.5157737731933594,-0.1607556939125061,0.21939189732074738,0.1604086309671402,0.30943259596824646,-0.9372942447662354,0.07096035778522491,0.33943212032318115,-0.14235657453536987,0.8580686752887798,-0.17696755552089563,-0.005945487091628183,0.4820429021445412,-0.3145962811556923,0.1694980249739841,1.0506263263248823
1784546949892159488,2.6756844520568848,0.8017067313194275,-0.07200158387422562,0.22545938193798065,0.1596800982952118,0.3030894100666046,-0.9394887685775757,0.09393623471260071,0.2673604190349579,-0.13579809665679932,0.8582235080418144,-0.1738750354385379,-0.00480645820617337,0.48290464804313404,-0.3079328899117668,0.16835602731810262,1.051239848580507
1784546949902078464,2.685603380203247,1.1222929954528809,-0.24705159664154053,0.200252965092659,0.1591096967458725,0.29382380843162537,-0.9425240755081177,0.11150491237640381,0.21739137172698975,-0.17390042543411255,0.8583965868752553,-0.16949750540227332,-0.002924255217711921,0.48416653764635875,-0.29822478400932956,0.16723563280035467,1.0522916238412978
1784546949911997440,2.6955225467681885,1.4797486066818237,-0.2458268105983734,0.20372651517391205,0.15779821574687958,0.281001478433609,-0.9466456174850464,0.13188989460468292,0.2699171006679535,-0.2230931520462036,0.8589605593615058,-0.16333099472986148,-0.0004241852926848608,0.48529345834493437,-0.2848374701143594,0.16517328410050686,1.05227623953824
1784546949921916416,2.705441474914551,1.4566854238510132,-0.002994399517774582,-0.009855096228420734,0.15674611926078796,0.26720187067985535,-0.9508069157600403,0.12075021862983704,0.25242093205451965,-0.12614315748214722,0.8598522428843067,-0.15681223369403774,0.0025407082213088736,0.4858576793517106,-0.2704881363569133,0.1633863245057093,1.0509271565974019
1784546949931835392,2.715360403060913,1.4004836082458496,-0.08495504409074783,0.1894170045852661,0.15513157844543457,0.25333231687545776,-0.9548596143722534,0.12242576479911804,0.07369402050971985,-0.1018572449684143,0.860620963628287,-0.15014235187666047,0.005239600852967836,0.4865814300061249,-0.25612340410783135,0.16105812066087094,1.0499385004021389
1784546949941754624,2.7252795696258545,1.4086004495620728,-0.22202128171920776,0.06897313892841339,0.153943732380867,0.24052554368972778,-0.9583573341369629,0.134355828166008,0.029356658458709717,-0.08126974105834961,0.8614489354218089,-0.14407876305960893,0.007914606708514493,0.4869130836271809,-0.2429072528426256,0.15927231375243603,1.048395652222369
1784546949951673600,2.735198497772217,1.2875150442123413,-0.15406407415866852,0.17854544520378113,0.15247488021850586,0.22713027894496918,-0.9618540406227112,0.14105843007564545,0.06580793857574463,-0.13947951793670654,0.8621231143930025,-0.13770037372319566,0.010562827373022866,0.48751488754982525,-0.22912992945260263,0.15721367023586894,1.0474305323540893
1784546949961592320,2.745117425918579,1.2264360189437866,-0.3294095993041992,0.017565742135047913,0.15068034827709198,0.21530793607234955,-0.9648512601852417,0.18272419273853302,0.051614075899124146,-0.0648576021194458,0.8627510356499554,-0.13195921494052432,0.012694128167734228,0.48794090710885074,-0.21700714434539756,0.1549181648474798,1.0463368147702223
1784546949971511552,2.7550365924835205,1.0475865602493286,-0.14834395051002502,0.11271249502897263,0.1489267647266388,0.20403513312339783,-0.9675693511962891,0.1489400416612625,0.009526863694190979,-0.11757463216781616,0.8634295748419054,-0.12648400777580054,0.014734637876570972,0.48813331731134757,-0.2054780030670575,0.1527199347935797,1.044868194072264
1784546949981430528,2.764955520629883,1.184386134147644,-0.06828483939170837,0.2535967528820038,0.1477607935667038,0.19319091737270355,-0.9699711203575134,0.1644187718629837,0.04554809629917145,-0.06750446557998657,0.8637060192811824,-0.12137056857841697,0.016840824009376032,0.48887364837753317,-0.19441328997143312,0.15117301535191247,1.0448859261207255
1784546949991349504,2.774874448776245,1.476313591003418,-0.0019044829532504082,0.04601745679974556,0.1467863917350769,0.18046393990516663,-0.9725669622421265,0.1432221531867981,0.08996757864952087,-0.11053240299224854,0.8641274214920366,-0.11547863388766705,0.019524296035289698,0.4894560779530925,-0.18145811266850753,0.14979620635902716,1.0443729210070687
1784546950001268480,2.7847933769226074,1.4563547372817993,-0.09244184195995331,0.17796094715595245,0.1455661654472351,0.1665746420621872,-0.9752247929573059,0.11009484529495239,0.1108606606721878,-0.08765667676925659,0.8647389207953704,-0.10901656606806481,0.022427596838409128,0.4897335518809672,-0.16735474997166952,0.1481702863533991,1.043048817195751
1784546950011187456,2.794712543487549,1.3913695812225342,-0.32469823956489563,0.19773118197917938,0.14302031695842743,0.15281793475151062,-0.977850615978241,0.14973480999469757,0.06252935528755188,-0.08384066820144653,0.8651921111327888,-0.10230090218776253,0.024682081967836406,0.4902734137452139,-0.1534190699509054,0.14523012978680983,1.0422763719871881
1784546950021106432,2.804631471633911,1.1453135013580322,-0.3747720718383789,0.061698779463768005,0.1392350196838379,0.14081040024757385,-0.9801969528198242,0.2201552391052246,-0.06411972641944885,-0.11605548858642578,0.8654757362654725,-0.09606519884603439,0.025942394477156464,0.4909686090209696,-0.1412799174572884,0.1411040101014954,1.0420296341364033
1784546950031025408,2.8145503997802734,1.108190894126892,-0.45706748962402344,0.06036187708377838,0.13533608615398407,0.1301438808441162,-0.9822152256965637,0.16613180935382843,-0.06108260154724121,-0.11310642957687378,0.8659141714943079,-0.09039061756600944,0.02686879114208909,0.4912232848136399,-0.1305140942690169,0.13692442575341363,1.0410013655165806
1784546950040944640,2.824469566345215,1.1448283195495605,-0.47225525975227356,0.03752527013421059,0.13067345321178436,0.11889861524105072,-0.9842700958251953,0.16076941788196564,-0.027834169566631317,-0.1818523406982422,0.8663551810916784,-0.08427950755777898,0.027603083895510482,0.4914914143898726,-0.11918055848455718,0.13198993233211156,1.0399568409049147
1784546950050863616,2.834388494491577,0.9279937744140625,-0.48476144671440125,0.08525630086660385,0.12623292207717896,0.10880422592163086,-0.9860156774520874,0.07211607694625854,-0.11332082748413086,-0.1647258996963501,0.866846661171143,-0.07873133034674665,0.028169924684774608,0.4915127603251738,-0.1090200558312479,0.1273306042633343,1.0385783880008905
1784546950060782336,2.8443074226379395,0.774497926235199,-0.46058207750320435,0.22414347529411316,0.12204105406999588,0.10001099109649658,-0.9874734282493591,0.14903134107589722,-0.15419495105743408,-0.14448457956314087,0.8668697059066136,-0.0738458610687841,0.028461745752136117,0.49221313249058657,-0.10017846620022655,0.12296566240759618,1.0389930714046995
1784546950070701568,2.854226589202881,0.6495171189308167,-0.46490466594696045,0.14228110015392303,0.11734684556722641,0.09296242892742157,-0.9887303709983826,0.183342844247818,-0.10909096151590347,-0.15264230966567993,0.8667859988016668,-0.06960737919973616,0.028100478426026202,0.4929983307523588,-0.09309684597467784,0.11813177810924244,1.0397824979246404
1784546950080620544,2.864145517349243,0.7352128028869629,-0.5498208999633789,0.2569165527820587,0.11195019632577896,0.08596043288707733,-0.9899888634681702,0.22867174446582794,0.009193375706672668,-0.17396676540374756,0.8665916082254677,-0.06522319086776154,0.02741351431688107,0.493977294316885,-0.08606664912082838,0.112603922921358,1.0410259922882434
1784546950090539520,2.8740644454956055,0.8076337575912476,-0.5102106332778931,0.24567803740501404,0.10688212513923645,0.07829847186803818,-0.9911839365959167,0.16129109263420105,0.024820424616336823,-0.14873915910720825,0.8663168390718884,-0.060639620927008794,0.027034729689593678,0.49506281533934177,-0.07837869561203835,0.10741772390703704,1.0425509965094621
1784546950100458496,2.8839833736419678,0.8304915428161621,-0.5349526405334473,0.22038529813289642,0.10158592462539673,0.07005641609430313,-0.9923570156097412,0.16080421209335327,-0.005176045000553131,-0.1612226963043213,0.86615532388127,-0.05574299863935838,0.02672493174833038,0.49593711113044764,-0.07011385112571558,0.10201297885857341,1.0435977253866118
1784546950110377472,2.893902540206909,0.9451536536216736,-0.5751965045928955,0.22207215428352356,0.09624411165714264,0.06112521514296532,-0.9934791326522827,0.20075295865535736,0.0037704184651374817,-0.14714586734771729,0.8657958242634415,-0.05054865419569873,0.026556899496547652,0.49712903465774627,-0.061163343578589775,0.09657446510896185,1.0454034481122612
1784546950120296448,2.9038214683532715,0.8795348405838013,-0.5601797103881836,0.19907246530056,0.0908873900771141,0.05199059098958969,-0.9945031404495239,0.1364075243473053,-0.004077989608049393,-0.14497745037078857,0.8656320352277985,-0.04525444707165063,0.026466455798274714,0.49792856909142685,-0.052014039795523964,0.09113658209606419,1.0463711648652778
1784546950130215424,2.913740396499634,0.6503804922103882,-0.5749727487564087,0.277543306350708,0.08542381972074509,0.04419183358550072,-0.9953641891479492,0.15024816989898682,-0.07258843630552292,-0.09286212921142578,0.8652467805425114,-0.040526845774703196,0.02599007773291704,0.49902916415404214,-0.04420622862251784,0.08561189561320635,1.048187349413705
1784546950140134656,2.923659563064575,0.5655706524848938,-0.6108392477035522,0.3141397535800934,0.07985176891088486,0.037999093532562256,-0.9960821866989136,0.18607839941978455,-0.045002877712249756,-0.054103970527648926,0.8646417965327037,-0.036479590864659565,0.025062634128583706,0.5004355221391267,-0.03800824379701439,0.07999477022524384,1.0508588651364703
1784546950150053376,2.9335784912109375,0.4518366754055023,-0.6128565669059753,0.30093368887901306,0.07386425137519836,0.033231221139431,-0.9967144727706909,0.19578906893730164,-0.028623066842556,-0.026860356330871582,0.8640373512948475,-0.0329429244557391,0.023611924542271314,0.501793371712014,-0.033237339248810005,0.07397251390331046,1.0535259145948495
1784546950159972352,2.9434974193573,0.4872995913028717,-0.604070246219635,0.295854777097702,0.06798268854618073,0.028556829318404198,-0.9972777366638184,0.19443796575069427,0.03430937975645065,-0.02602243423461914,0.8633950046531437,-0.029471717837199884,0.022193586668292537,0.5031777442773822,-0.02856071290274619,0.0680629642721365,1.0563098593211888
1784546950169891584,2.953416585922241,0.5872277617454529,-0.6002553105354309,0.29214978218078613,0.06202352046966553,0.023177649825811386,-0.9978055357933044,0.19560587406158447,0.06437727808952332,-0.029187262058258057,0.8627611211973472,-0.025672781024338183,0.020931851354944884,0.5045254668057685,-0.02317972621728761,0.06208005280842262,1.0590260301483874
1784546950179810560,2.9633355140686035,0.6111125946044922,-0.6241344213485718,0.2857074439525604,0.055660430341959,0.016935575753450394,-0.9983060956001282,0.2012670487165451,0.021318208426237106,-0.06532299518585205,0.862230853354712,-0.02139245578667384,0.019730798870003553,0.5056788500969093,-0.016936385112164935,0.05569720842932819,1.0613059019224622
1784546950189728512,2.9732534885406494,0.7269518375396729,-0.7377014756202698,0.2805747389793396,0.04917649179697037,0.010195441544055939,-0.9987380504608154,0.19267532229423523,0.0074284616857767105,-0.05486607551574707,0.8614980309262221,-0.01687198609078323,0.01860920973692984,0.507139317003133,-0.010195618397388258,0.049198891668168696,1.064347072084558
1784546950199647488,2.9831724166870117,0.7495995759963989,-0.6894949078559875,0.3539716899394989,0.042168717831373215,0.0026155521627515554,-0.9991070628166199,0.151389017701149,-0.0245729498565197,-0.06755852699279785,0.8608992344903502,-0.011849104159191982,0.017494527076326632,0.5083366094719944,-0.002615555225721995,0.04218136858776012,1.0668230572536255
1784546950209566720,2.993091583251953,0.6451871395111084,-0.6958028674125671,0.349814236164093,0.03519837185740471,-0.00482090562582016,-0.9993687272071838,0.144977405667305,-0.08915797621011734,-0.028356492519378662,0.8600458603977487,-0.00690303219677739,0.01637038330772102,0.509907243084169,0.004820924185357922,0.035206054395937394,1.07025617101088
1784546950219485440,3.0030105113983154,0.3735145628452301,-0.6516229510307312,0.3662791848182678,0.028461163863539696,-0.009706594981253147,-0.9995477795600891,0.08970289677381516,-0.17905989289283752,-0.02555292844772339,0.8592315948668132,-0.003107627937906871,0.014712502723000752,0.5113657094203646,0.009706746994993656,0.028466348341759568,1.0735428921158825
1784546950229404416,3.0129294395446777,0.20447467267513275,-0.7030967473983765,0.4197951555252075,0.021774109452962875,-0.012651166878640652,-0.9996828436851501,0.14019793272018433,-0.20902852714061737,-0.08794838190078735,0.8582853787664125,-0.00015612624051971022,0.012591335276828442,0.5130182072573397,0.0126515042608715,0.02177757318747573,1.0773515988772209
1784546950239323648,3.022848606109619,0.2545476257801056,-0.7452490329742432,0.4592580795288086,0.014427651651203632,-0.015177232213318348,-0.9997807145118713,0.23294784128665924,-0.13478614389896393,-0.12495988607406616,0.8571290719187247,0.0027896434159232005,0.010092387649101881,0.5149952520622844,0.015177815122230636,0.014429814226518333,1.0819605843878606
1784546950249242624,3.0327675342559814,0.33211058378219604,-0.6487658619880676,0.3706137239933014,0.0072710635140538216,-0.01820405200123787,-0.9998078346252441,0.17116521298885345,-0.15376250445842743,-0.13604116439819336,0.8561099262484207,0.005914420976255586,0.007816189968164782,0.5167007825010103,0.018205057539555106,0.007272332912426967,1.0859777229372556
1784546950259161600,3.0426864624023438,0.2802160382270813,-0.6019930243492126,0.5287215113639832,0.0007015583105385303,-0.021328916773200035,-0.9997722506523132,0.14277683198451996,-0.1887540966272354,-0.13465768098831177,0.8549901732115961,0.008937132866005932,0.005830465352472834,0.5185344673875815,0.021330533545593413,0.000701717991368074,1.0903337880855233
1784546950269080320,3.052605390548706,0.1818481981754303,-0.6773703694343567,0.46607568860054016,-0.005973524879664183,-0.023613600060343742,-0.9997032880783081,0.20972412824630737,-0.1301186978816986,-0.11931520700454712,0.8537673129653955,0.011636632586487889,0.0035961182608945583,0.52051232890087,0.02361579590253565,-0.005975226684642467,1.0950627353981275
1784546950278999552,3.0625245571136475,0.1755506694316864,-0.7631521224975586,0.44145944714546204,-0.01287171896547079,-0.02524976246058941,-0.9995983242988586,0.21997925639152527,-0.06535692512989044,-0.12639349699020386,0.8525585905724464,0.014128635889299242,0.001109012000522403,0.5224394805815139,0.02525244687805137,-0.012876179923390742,1.099704513419757
1784546950288918528,3.0724434852600098,0.143097922205925,-0.738239586353302,0.48933324217796326,-0.020391151309013367,-0.02689998783171177,-0.9994301199913025,0.15312735736370087,-0.04744083061814308,-0.13538122177124023,0.8513702417581506,0.01680118667784977,-0.0016289278040759517,0.5242936065449452,0.026903233098369242,-0.020399947355336463,1.104220617751215
1784546950298837504,3.082362413406372,0.0316082239151001,-0.624891459941864,0.3736836612224579,-0.027524122968316078,-0.027750002220273018,-0.9992358684539795,0.08849824219942093,-0.07044030725955963,-0.11366391181945801,0.8501862880789058,0.019044093504593025,-0.004402093599047866,0.5261191331167863,0.02775356577149144,-0.02753820741771031,1.1086798036172312
1784546950308756480,3.0922815799713135,-0.049642954021692276,-0.6360804438591003,0.5306599736213684,-0.034176453948020935,-0.027746273204684258,-0.999030590057373,0.11979351937770844,-0.0659121721982956,-0.10767412185668945,0.8489158709567035,0.0208109810085972,-0.007183973438660736,0.5280691951698204,0.027749835331540105,-0.03419628157715765,1.1134266293915809
1784546950318675456,3.102200508117676,-0.07166589796543121,-0.5484890937805176,0.45244333148002625,-0.040195297449827194,-0.027053305879235268,-0.9988255500793457,0.129840686917305,-0.03416495770215988,-0.1316065788269043,0.8476678260214234,0.022130327481344355,-0.009873160614649533,0.5299735517646961,0.027056606229756138,-0.04022085833150004,1.11805014073539
1784546950328594432,3.112119436264038,-0.04058148339390755,-0.6279698014259338,0.4393450915813446,-0.046255238354206085,-0.026255078613758087,-0.9985845685005188,0.11511815339326859,-0.023946339264512062,-0.1561242938041687,0.8464735456843433,0.02342716994567539,-0.01260506202005911,0.5317657879374703,0.026258095078618864,-0.0462877160470996,1.1224209665916673
1784546950338513664,3.1220386028289795,0.08517324924468994,-0.6788237690925598,0.2569322884082794,-0.05248522758483887,-0.02611171454191208,-0.9982802867889404,0.19886279106140137,0.05095302313566208,-0.17502903938293457,0.8455465269652715,0.025050704541252446,-0.015242436309405947,0.5330957856122206,0.026114683494137196,-0.05252728162114318,1.1257391342213237
1784546950348432640,3.131957530975342,0.29604846239089966,-0.5999709963798523,0.3594416081905365,-0.05899268761277199,-0.027888474985957146,-0.9978687763214111,0.1960471272468567,0.0630142092704773,-0.17809557914733887,0.8446670988990795,0.02756738369368407,-0.017482877286488462,0.5342956086053776,0.02789209128623564,-0.05904995212342431,1.128846389443988
1784546950358351360,3.141876459121704,0.34769532084465027,-0.4663350284099579,0.3036568760871887,-0.06425806134939194,-0.03088012896478176,-0.9974554181098938,0.15697047114372253,0.009533083066344261,-0.1287958025932312,0.8436375495139224,0.03027672813408958,-0.018857592718696352,0.5357269285247063,0.030885038905847612,-0.06433309058669423,1.1325387607316642
1784546950368270336,3.1517953872680664,0.37453147768974304,-0.5000788569450378,0.20275664329528809,-0.06879185140132904,-0.03427457436919212,-0.9970421195030212,0.17952488362789154,0.04361295327544212,-0.05344921350479126,0.8429039131103773,0.03295370597673418,-0.019824402862420997,0.5366880548032434,0.0342812892249276,-0.06888676580094495,1.1351373543389365
1784546950378189568,3.161714553833008,0.2676374614238739,-0.5605234503746033,0.11708750575780869,-0.07406946271657944,-0.03749919310212135,-0.9965478181838989,0.24812647700309753,0.04491496831178665,-0.0010565519332885742,0.8423899657762756,0.03575363008738013,-0.0211607206983424,0.5372644213332363,0.037507987790886405,-0.07418963632831733,1.1368738928606668
1784546950388108544,3.17163348197937,0.16264793276786804,-0.43686148524284363,0.0854177325963974,-0.07902512699365616,-0.039534252136945724,-0.9960883855819702,0.20587143301963806,-0.027039844542741776,0.11086499691009521,0.8419462501312973,0.037964829734297774,-0.022682119558033197,0.5377460485490554,0.03954455737279402,-0.07916963197852585,1.1383388099152347
1784546950398027520,3.1815524101257324,-0.012341390363872051,-0.4236101806163788,0.0882195383310318,-0.08336154371500015,-0.04015649855136871,-0.9957099556922913,0.16116610169410706,-0.07196508347988129,0.17320019006729126,0.8415913189421154,0.03941170430241234,-0.024325736709929654,0.5381254910821919,0.04016729858010621,-0.08352592363914087,1.1394738109124083
1784546950407946496,3.191471576690674,-0.1731523722410202,-0.35076767206192017,0.05953436717391014,-0.08711469173431396,-0.039137694984674454,-0.9954292178153992,0.11537396907806396,-0.07862963527441025,0.20970839262008667,0.8414140907995412,0.040002633751731985,-0.026176225744057577,0.5382721210130943,0.03914769279293575,-0.08729230976801945,1.139943516311585
1784546950417865472,3.201390504837036,-0.43011239171028137,-0.3560560345649719,0.05463128536939621,-0.0905173048377037,-0.03609407693147659,-0.9952405691146851,0.1532156765460968,-0.09124051034450531,0.22494643926620483,0.841226816044093,0.03964675398649196,-0.028422505446529387,0.5384773025099031,0.036101918837755084,-0.09070063017735833,1.1404203748568744
1784546950427784448,3.2113094329833984,-0.6596465110778809,-0.3936835527420044,0.04861706867814064,-0.09418579936027527,-0.030685894191265106,-0.9950816035270691,0.12162110954523087,-0.1310877948999405,0.2547251582145691,0.841156878320118,0.03836028621747608,-0.03142742523016889,0.5385128279310405,0.03069071174628049,-0.09437018754760747,1.1403666718915597
1784546950437703680,3.22122859954834,-0.7970216870307922,-0.16940520703792572,0.005905025638639927,-0.09701594710350037,-0.02340320311486721,-0.9950076341629028,0.07089290022850037,-0.05894848704338074,0.25735199451446533,0.8411575073545904,0.036053331374135,-0.0345881306119618,0.5384774592462481,0.02340534020482345,-0.09719548458452046,1.139995363007247
1784546950447622656,3.231147527694702,-0.8738170862197876,-0.08343358337879181,-0.00617107842117548,-0.09827185422182083,-0.015101416036486626,-0.995045006275177,0.02119971066713333,0.0074415020644664764,0.268879234790802,0.841264881985706,0.032884811750394816,-0.037364146269349335,0.5383270177204013,0.015101989736431029,-0.09844198123640573,1.1392312368720283
1784546950457541376,3.2410664558410645,-0.9441328048706055,0.09329219162464142,0.03799748048186302,-0.09813940525054932,-0.006182549521327019,-0.9951534867286682,0.048441529273986816,-0.010403754189610481,0.2995663285255432,0.8414027036381261,0.02907891747397529,-0.03972002874797782,0.5381618712399792,0.006182588957067169,-0.09829951568050596,1.1383640209946857
1784546950467460352,3.2509853839874268,-0.9182873368263245,0.30370616912841797,-0.0012860087445005774,-0.09612447768449783,0.0031264834105968475,-0.9953644275665283,0.08272725343704224,0.012590068392455578,0.3344604969024658,0.8414540940905066,0.02460775184839792,-0.04137938124744283,0.5381795123006586,-0.003126488453240116,-0.0962735965416423,1.1378836005262607
1784546950477379584,3.260904550552368,-0.8887930512428284,0.2321394383907318,0.08898786455392838,-0.09303272515535355,0.011925571598112583,-0.9955916404724121,0.08979786187410355,0.02565682679414749,0.3471236228942871,0.8416366041077564,0.020051486769401883,-0.042451419735787095,0.5379996935265677,-0.011925853843804691,-0.09317409646515289,1.1369780704470984
1784546950487298560,3.2708234786987305,-0.9405470490455627,0.3423096239566803,0.021178986877202988,-0.09012524783611298,0.020999018102884293,-0.9957090616226196,0.18245618045330048,0.03585522994399071,0.35801374912261963,0.8415318746066892,0.015450993327376518,-0.04366634248673545,0.5382180190470457,-0.021000561535619532,-0.0902676587794081,1.1370667791528042
1784546950497217536,3.2807424068450928,-1.011501431465149,0.43805718421936035,0.07780498266220093,-0.08629530668258667,0.030687440186738968,-0.9957968592643738,0.08110732585191727,0.020994074642658234,0.40352702140808105,0.8415945835952037,0.010328890435550494,-0.044664080360394424,0.5381608161509018,-0.030692257921252193,-0.08644358406042071,1.1365237151975305
1784546950507136512,3.290661573410034,-1.0211814641952515,0.5748576521873474,-0.11655250936746597,-0.08105728030204773,0.0406293123960495,-0.9958810210227966,0.08511611819267273,0.0430651418864727,0.42298978567123413,0.8418130185104634,0.0047072114500231466,-0.045136896441652606,0.5378581698708306,-0.040640499659634455,-0.0812135098920426,1.135453731267815
1784546950517055488,3.3005805015563965,-0.9094117879867554,0.6326496601104736,0.06566256284713745,-0.07486366480588913,0.05026469752192497,-0.9959261417388916,0.12595009803771973,0.08926166594028473,0.4305728077888489,0.8420510086959997,-0.001044993643002052,-0.045120217599006564,0.5375065134165832,-0.05028588765560017,-0.07502879398760849,1.1343676206124609
1784546950526974464,3.310499429702759,-0.7450526356697083,0.7723183631896973,-0.03517723083496094,-0.06749466061592102,0.058437641710042953,-0.9960067868232727,0.14400222897529602,0.10397690534591675,0.4000900387763977,0.842149482215822,-0.006484098674708475,-0.04421046023750741,0.5373895707043855,-0.05847095274224963,-0.06766181565048614,1.1339723338023397
1784546950536893696,3.3204185962677,-0.37021711468696594,0.898848295211792,-0.1092190369963646,-0.0588095486164093,0.06379205733537674,-0.9962288737297058,0.0476858913898468,0.15987128019332886,0.4101845622062683,0.8425061012838579,-0.011105117504772182,-0.0419789104629041,0.5369338914135584,-0.06383540361774132,-0.058963736292130114,1.1329157429741545
1784546950546812416,3.3303375244140625,0.017729559913277626,0.9613257646560669,-0.1952018439769745,-0.04983798414468765,0.06541075557470322,-0.996613085269928,0.09070102125406265,0.1940496861934662,0.391754686832428,0.8430842381989083,-0.014235809464732976,-0.03861097242764493,0.5362048350815501,-0.0654574874416787,-0.0499657336538978,1.131310080614896
1784546950556731392,3.340256452560425,0.11320874094963074,1.1268408298492432,-0.24161937832832336,-0.03966096043586731,0.06448544561862946,-0.9971302151679993,0.05795625224709511,0.08642397820949554,0.38177376985549927,0.8438245322866132,-0.016616173033179735,-0.034041194848301884,0.5352805654666257,-0.06453022519673322,-0.03975415262880218,1.129306886317038
1784546950566650368,3.350175380706787,0.1766074299812317,1.1264609098434448,-0.3107023239135742,-0.028727108612656593,0.06295059621334076,-0.9976031184196472,0.019129330292344093,0.02397872507572174,0.4082323908805847,0.844789042425767,-0.018942858085111855,-0.0289760310809746,0.5339784933156769,-0.06299224356765297,-0.028788175003195377,1.126448803384638
1784546950576569600,3.3600945472717285,0.1801077425479889,1.2265831232070923,-0.15402887761592865,-0.01742418482899666,0.06094089522957802,-0.997989296913147,0.14430102705955505,0.018389545381069183,0.3827396631240845,0.8454918873185315,-0.021139824653225392,-0.023631914701020464,0.5330460206279402,-0.06097868015924767,-0.01745751754219213,1.124494731061538
1784546950586488576,3.370013475418091,0.0386936292052269,1.2753807306289673,-0.1105053722858429,-0.005037400405853987,0.0599590428173542,-0.9981881380081177,0.07234391570091248,-0.0380016453564167,0.3813515901565552,0.8460427780837994,-0.02404512564010759,-0.018104369259212792,0.5322646638178781,-0.05999502639813959,-0.005046501150290954,1.1229653975427403
1784546950596407296,3.379932403564453,-0.14139285683631897,1.3333684206008911,-0.06526322662830353,0.007868406362831593,0.060378652065992355,-0.9981445074081421,0.09807336330413818,-0.07258568704128265,0.35440677404403687,0.8463763434326793,-0.02766907193273409,-0.0127340709386848,0.5317135260190033,-0.060415397573348406,0.007882870236305876,1.122066116949583
1784546950606326528,3.3898515701293945,-0.21372616291046143,1.2558763027191162,-0.025095300748944283,0.020636552944779396,0.0622384212911129,-0.9978479146957397,0.08860111236572266,-0.0816781222820282,0.3390344977378845,0.8464786716911165,-0.03185927817314646,-0.00781129807178154,0.531411093515623,-0.062278671382174876,0.02067811243840379,1.1218506684947185
1784546950616245504,3.399770498275757,-0.2844172418117523,1.126826524734497,0.06023351103067398,0.032441820949316025,0.06468306481838226,-0.9973783493041992,0.05412128567695618,-0.11471663415431976,0.268527090549469,0.846459366152902,-0.03603992325332486,-0.0034546846539518384,0.5312209136309194,-0.06472825235818334,0.03251563121878204,1.121957532627734
1784546950626164480,3.409689426422119,-0.10690424591302872,1.1424601078033447,0.007690142374485731,0.043799690902233124,0.06693559139966965,-0.9967954754829407,0.046105097979307175,-0.07149796932935715,0.22460919618606567,0.8463405438017804,-0.04002107585556518,0.0007599982949499632,0.5311358290722697,-0.06698567734581884,0.04391225100523942,1.1223583679032174
1784546950636083712,3.4196085929870605,0.11450637131929398,1.1957366466522217,0.12696723639965057,0.05527046322822571,0.06665732711553574,-0.996243953704834,-0.028292927891016006,0.023705221712589264,0.12591314315795898,0.8461368018684973,-0.0429611538454361,0.0056896515588543825,0.5312010247030756,-0.06670679008923218,0.05542203262667981,1.123064041499611
1784546950646002432,3.429527521133423,0.3679404854774475,1.2870229482650757,0.09970125555992126,0.06761124730110168,0.06420891731977463,-0.9956434965133667,-0.057998210191726685,0.08760077506303787,0.1007307767868042,0.8457792851843271,-0.045219056250121764,0.01155413996410285,0.531487665515275,-0.06425311837146035,0.06780299074581726,1.1242608445847289
1784546950655921408,3.439446449279785,0.47663190960884094,1.1752089262008667,0.09231754392385483,0.07988892495632172,0.05985968932509422,-0.9950048327445984,-0.017510995268821716,0.09417778253555298,0.06203669309616089,0.8455565606226065,-0.046656050576487605,0.017911081996627942,0.5315415691741283,-0.05989549585195175,0.08011812495927585,1.1248109813537426
1784546950665840384,3.4493653774261475,0.6719635725021362,1.166102409362793,0.08773211389780045,0.09152766317129135,0.05424801632761955,-0.9943237900733948,0.03527287393808365,0.07679446041584015,0.032440245151519775,0.845325234047078,-0.047390670444908,0.0243355583429001,0.5315892596905689,-0.05427465885212867,0.09179148650606969,1.1252304538033404
1784546950675759616,3.459284543991089,0.5906532406806946,1.1417474746704102,0.09330597519874573,0.10318481177091599,0.04764892905950546,-0.9935202598571777,-0.008854985237121582,-0.027156367897987366,-0.044474124908447266,0.8450991738704529,-0.04771363817905456,0.031036860568823706,0.5315709128391324,-0.047666976768662564,0.10348676762270853,1.1254163249914237
1784546950685678592,3.469203472137451,0.6164084076881409,0.9773513078689575,0.21084433794021606,0.11343754827976227,0.041674114763736725,-0.9926707148551941,0.10216913372278214,-0.005800701677799225,-0.06226086616516113,0.8446225985199736,-0.0479454910026548,0.036957561913628464,0.5319287130513984,-0.041686185933429876,0.1137815325457515,1.1264369336096587
1784546950695597312,3.4791224002838135,0.5549126863479614,0.7928783893585205,0.12546168267726898,0.12252196669578552,0.0357336662709713,-0.9918223023414612,0.06642761826515198,-0.0320257805287838,-0.18023580312728882,0.8441782343026039,-0.047883829963494474,0.04237911723784585,0.532235106066902,-0.035741275206563575,0.12290949294141948,1.12725595698503
1784546950705516544,3.489041566848755,0.6254032850265503,0.6213459968566895,0.11000203341245651,0.12937356531620026,0.0296259094029665,-0.9911532402038574,0.11498065292835236,0.06085870414972305,-0.2368587851524353,0.8438171961166395,-0.047153285639718795,0.0469034918074994,0.5324933673535016,-0.02963024542843698,0.1297945083696894,1.1278061671825124
1784546950715435008,3.498960018157959,0.6032988429069519,0.6175304651260376,0.15192857384681702,0.1350073218345642,0.0235469788312912,-0.99056476354599,0.1317163109779358,0.0835086852312088,-0.27414470911026,0.8433187461559352,-0.046126296444312306,0.05089184578724429,0.5330064265517307,-0.02354915575746684,0.13545863991035823,1.1288809595183957
1784546950725353984,3.5088789463043213,0.656714916229248,0.30300718545913696,0.13385769724845886,0.13951386511325836,0.016881084069609642,-0.9900762438774109,0.018719762563705444,0.0020703300833702087,-0.3292596936225891,0.8430314095367694,-0.044533229243532035,0.05457732186724327,0.5332318965077779,-0.016881886222400173,0.13999054540510533,1.1291571368106823
1784546950735272960,3.5187978744506836,0.6212387681007385,0.06769677251577377,0.3108082711696625,0.14150701463222504,0.010642685927450657,-0.9898800253868103,0.19700920581817627,-0.038093242794275284,-0.3395571708679199,0.8424836447428076,-0.04248082173040869,0.05705574462999827,0.5340050295829472,-0.010642886768838452,0.14199167291219775,1.1306275745159298
1784546950745191936,3.528717041015625,0.6423230171203613,-0.15588544309139252,0.20584723353385925,0.14079225063323975,0.00393681088462472,-0.990031361579895,0.16537535190582275,-0.004272504709661007,-0.3845566511154175,0.8418757190585608,-0.03951842050840516,0.058503225170096755,0.5350336351530964,-0.003936821070438825,0.14126270004498642,1.1325436924387804
1784546950755110912,3.5386359691619873,0.7964606285095215,-0.2986794114112854,0.06534778326749802,0.13839298486709595,-0.00304457382299006,-0.9903727173805237,0.04303401708602905,0.16455885767936707,-0.3531636595726013,0.841659682662777,-0.035948790416731144,0.059340771049314886,0.5355328875646228,0.0030445785757853643,0.13883925170403816,1.133130618425033
1784546950765029888,3.5485548973083496,0.9764575362205505,-0.5358530879020691,0.16039998829364777,0.13382947444915771,-0.012067053467035294,-0.9909309148788452,-0.037195563316345215,0.192670077085495,-0.3757225275039673,0.841650662438206,-0.030915482361891174,0.05982290852314194,0.5358074977644035,0.012067346304647779,0.13424205162722072,1.1330051746078593
1784546950774949120,3.558474063873291,1.055875539779663,-0.5295594334602356,0.05294230952858925,0.12874141335487366,-0.02249346859753132,-0.9914230704307556,-0.16681209206581116,0.11711322516202927,-0.3417831063270569,0.8416254963149791,-0.02514994286200295,0.06046443262429437,0.5360766033889169,0.022495366263909227,0.12913257579060441,1.1328439391385772
1784546950784868096,3.5683929920196533,0.9740176796913147,-0.6354355216026306,0.1343008130788803,0.12304822355508804,-0.032574478536844254,-0.9918659329414368,-0.18211498856544495,0.11028748750686646,-0.32243460416793823,0.8417512531747983,-0.019351089910230747,0.06076648932064578,0.5360856515608886,0.03258024120695093,0.12342670021805174,1.1321649570465475
1784546950794786816,3.5783119201660156,0.7181421518325806,-0.6834173202514648,-0.05716758221387863,0.1163850873708725,-0.04110751301050186,-0.992353081703186,-0.1607881784439087,0.03195224702358246,-0.2894003987312317,0.8417507405918451,-0.013961697377371483,0.06023718405245538,0.536313682536629,0.04111910004343153,0.11674858500413579,1.1321610091841274
1784546950804706048,3.588231086730957,0.7352447509765625,-0.7743149995803833,0.18605677783489227,0.10949916392564774,-0.04784267395734787,-0.9928348660469055,-0.28273218870162964,-0.01694614440202713,-0.22248190641403198,0.8421274853385595,-0.0092311106634609,0.05913855165911829,0.5359466547051338,0.04786094401027413,0.10984546478391481,1.130906756327947
1784546950814625024,3.5981500148773193,0.3379656970500946,-0.4288911521434784,0.11273736506700516,0.10391994565725327,-0.05334286019206047,-0.9931541681289673,-0.23432156443595886,-0.09831424057483673,-0.20272290706634521,0.8418614192722569,-0.005442196929266585,0.05825206178357504,0.5365132995902383,0.053368190439331754,0.10425688252962435,1.1319972919735626
1784546950824544000,3.6080689430236816,0.1191617101430893,-0.34069979190826416,0.1875825822353363,0.10013530403375626,-0.055635716766119,-0.9934171438217163,-0.29119059443473816,-0.045896269381046295,-0.08907186985015869,0.8415335632362777,-0.003495670007404308,0.057264447941415456,0.5371497050645396,0.05566445726564593,0.1004595325016258,1.1334114101492343
1784546950834462976,3.617987871170044,-0.1057550236582756,-0.39432477951049805,0.28508129715919495,0.09652215987443924,-0.05611056089401245,-0.9937480092048645,-0.07329828292131424,-0.06568509340286255,-0.1064106822013855,0.840961544934156,-0.0023880937868344114,0.055859642863200956,0.5381984914793838,0.05614004579425434,0.09682568746561568,1.1358770800558438
1784546950844381952,3.6279070377349854,-0.37633565068244934,-0.5169255137443542,0.18891775608062744,0.09211209416389465,-0.053624477237463,-0.9943036437034607,0.04861970990896225,-0.0993448793888092,-0.11176013946533203,0.8404046653505824,-0.002312654842865385,0.05331809417702035,0.5393254241389217,0.05365020927176496,0.0923761452743043,1.138619904308721
1784546950854300928,3.6378259658813477,-0.33755922317504883,-0.5107896327972412,0.14052651822566986,0.0870092362165451,-0.050103046000003815,-0.9949467778205872,0.2179376631975174,0.0013206973671913147,-0.17752331495285034,0.8400795818909231,-0.002459059713544045,0.050205253452863925,0.5401292988610682,0.050124031101929686,0.08722923165072331,1.1406185787725116
1784546950864219904,3.64774489402771,0.026993965730071068,-0.597250759601593,0.2111719250679016,0.0817478597164154,-0.04881810024380684,-0.9954566955566406,0.2634059488773346,0.11697911471128464,-0.2562674880027771,0.8398523296577796,-0.0016049349094504448,0.04763469674871441,0.5407184204529172,0.048837510753556794,0.08193709587657584,1.1420425318139067
1784546950874139136,3.6576640605926514,0.03156907483935356,-0.5061854124069214,0.04473531246185303,0.07629529386758804,-0.04907386004924774,-0.9958769083023071,0.27400070428848267,0.07133643329143524,-0.30134904384613037,0.8395398232973076,-5.342411994072191e-05,0.04540430688064771,0.5413975712732304,0.04909357793389223,0.07646181275244913,1.1436486190725899
1784546950884058112,3.6675829887390137,0.18732991814613342,-0.5804800987243652,0.13024328649044037,0.0705472081899643,-0.05029643699526787,-0.9962396025657654,0.4111270010471344,0.05655254051089287,-0.3165655732154846,0.8393605364134966,0.0019994319363664456,0.043315093670189764,0.5418428525044864,0.05031766660371522,0.07069547997912294,1.1446907085977636
1784546950893976832,3.677501916885376,0.21313488483428955,-0.7618061900138855,0.10443805158138275,0.06365849822759628,-0.052607692778110504,-0.9965841770172119,0.4280712306499481,-0.091450534760952,-0.3445413112640381,0.8392895569216356,0.004829784375041391,0.04104367946771788,0.5421116882531904,0.05263198808889366,0.06379002416047283,1.1453199287249136
1784546950903896064,3.6874210834503174,0.17305830121040344,-0.7807964086532593,0.0716172605752945,0.055962350219488144,-0.054510049521923065,-0.9969437718391418,0.37873002886772156,-0.15040022134780884,-0.29480427503585815,0.8390895891544796,0.007698950158572341,0.03832549696037843,0.5425869991679058,0.05453708148440832,0.056075060502829635,1.1464861612568673
1784546950913815040,3.6973400115966797,0.3659619092941284,-0.9806027412414551,0.07538226991891861,0.04712611809372902,-0.05719451606273651,-0.9972501993179321,0.3251883387565613,-0.05581207573413849,-0.27608048915863037,0.8391061456533802,0.011223839172369281,0.035340301268675774,0.5427023758241888,0.05722574433861494,0.04722093606451568,1.1468400041711588
1784546950923734016,3.707258939743042,0.2826020419597626,-1.0527433156967163,0.04536738246679306,0.037151042371988297,-0.060235507786273956,-0.9974926114082336,0.229114830493927,-0.048025600612163544,-0.23058050870895386,0.8391379315566792,0.015209879193768438,0.03197437342850567,0.5427648890670335,0.060271992807762936,0.03722722227780001,1.1471398954647676
1784546950933652992,3.7171781063079834,0.15144196152687073,-1.1085182428359985,0.0650741383433342,0.02649078145623207,-0.06266281008720398,-0.9976831078529358,0.20196381211280823,-0.14020279049873352,-0.17503106594085693,0.8391272237577392,0.01912267238033634,0.028156042465602993,0.5428692529177491,0.0627038909998157,0.02654606284165971,1.147616715282254
1784546950943571968,3.7270970344543457,-0.1637655347585678,-0.936231791973114,0.16697654128074646,0.016320589929819107,-0.06252557784318924,-0.9979099035263062,0.1157747432589531,-0.24670903384685516,-0.10024982690811157,0.8389418183108391,0.02181729957900705,0.023854769788265243,0.5432601374295288,0.06256639291271553,0.016353314531443928,1.148795826938397
1784546950953490944,3.737015962600708,-0.3600653409957886,-0.9359856247901917,0.14983932673931122,0.0071420385502278805,-0.06012163311243057,-0.998165488243103,0.11230376362800598,-0.24531354010105133,-0.0877719521522522,0.8386508742942211,0.023289878795625427,0.01936046985723054,0.5438266072388012,0.06015791012412106,0.007155042401331447,1.1503600631445121
1784546950963409920,3.7469348907470703,-0.521056592464447,-0.9867742657661438,0.2299797087907791,-0.002438961761072278,-0.0556054562330246,-0.9984498620033264,0.2103857398033142,-0.2070898562669754,-0.08672469854354858,0.8382264441210777,0.023987719363754927,0.014130426532958412,0.5446110945073886,0.05563415050936944,-0.002442743612146629,1.1524222562847783
1784546950973329152,3.7568540573120117,-0.5552109479904175,-0.8745150566101074,0.2381792813539505,-0.011959738098084927,-0.05020272731781006,-0.9986674189567566,0.2000548243522644,-0.20027029514312744,-0.09671527147293091,0.8377196490373774,0.0243060599027259,0.008688883063765123,0.5454901936840135,0.05022384067893262,-0.011975124412732768,1.1546824511183116
1784546950983247872,3.766772985458374,-0.4528754949569702,-0.9433380365371704,0.2318769097328186,-0.021145856007933617,-0.04502323642373085,-0.9987621307373047,0.16019919514656067,-0.11083003878593445,-0.09810066223144531,0.8371972205122418,0.02463827161455146,0.0034493955227342097,0.5463350880355176,0.04503846157241401,-0.021168901833650628,1.1568453816058268
1784546950993166848,3.7766919136047363,-0.23186522722244263,-0.8382664322853088,0.25700321793556213,-0.03005434200167656,-0.04142061248421669,-0.9986896514892578,0.17989565432071686,-0.05013212189078331,-0.11965745687484741,0.8365150620183878,0.025566289134186435,-0.0012355629123144776,0.5473459011070502,0.0414324644398648,-0.030084693952729877,1.159431371816094
1784546951003086080,3.7866110801696777,-0.09410922229290009,-0.8171499371528625,0.2770046293735504,-0.0383375808596611,-0.03973103314638138,-0.998474657535553,0.1672438383102417,-0.06320475786924362,-0.12292420864105225,0.8358818118244142,0.027134522114903258,-0.005136198311570499,0.548214367261099,0.039741491969588635,-0.03837729385895386,1.1617183999450285
1784546951013005056,3.79653000831604,-0.12201835215091705,-0.844694972038269,0.31948724389076233,-0.046654608100652695,-0.03867168724536896,-0.9981622099876404,0.2092064917087555,-0.05993060767650604,-0.08505916595458984,0.8350083367738552,0.02898828629783063,-0.008863492157872025,0.5494017354795333,0.03868133091243079,-0.04670651427527604,1.1648044237071737
1784546951022924032,3.8064489364624023,-0.27495142817497253,-0.8074682354927063,0.32739895582199097,-0.05492604151368141,-0.036562032997608185,-0.9978207945823669,0.1573430299758911,-0.1477488875389099,-0.03381067514419556,0.8341139388821792,0.030402815937043155,-0.01285569907737867,0.5506036730564766,0.036570185663447496,-0.05499049937216052,1.1678997103199655
1784546951032843008,3.8163681030273438,-0.42765769362449646,-0.8501640558242798,0.31472456455230713,-0.06321090459823608,-0.0329219251871109,-0.9974570274353027,0.08947128802537918,-0.2242649644613266,-0.05774921178817749,0.8332289357468224,0.031194580141749913,-0.01727374993155264,0.5517773318593036,0.032927876320136884,-0.06328742349406409,1.1708723013373228
1784546951042761984,3.826287031173706,-0.5784078240394592,-0.7641229033470154,0.2965886890888214,-0.07160086184740067,-0.027471227571368217,-0.9970549941062927,0.021307893097400665,-0.2514136731624603,-0.08905035257339478,0.8323293547630414,0.03127450823906294,-0.02223536766689349,0.5529514016667474,0.027474683541731316,-0.07168928787972018,1.1737682974163794
1784546951052680960,3.8362059593200684,-0.5348721146583557,-0.8517723679542542,0.3547293245792389,-0.07970570027828217,-0.021642763167619705,-0.9965834617614746,0.035516247153282166,-0.1914157122373581,-0.1290726661682129,0.8314859117657044,0.03112973158534611,-0.02718841807297704,0.5540061714626506,0.02164445365897431,-0.07980907087121177,1.1763400936006967
1784546951062599936,3.8461248874664307,-0.5102565288543701,-0.7914900779724121,0.2939820885658264,-0.08769484609365463,-0.016193820163607597,-0.996015727519989,0.07727310061454773,-0.10135988891124725,-0.1674363613128662,0.8305076242023886,0.03113135933879977,-0.03198379855874792,0.5552161502689026,0.016194527412633997,-0.08781918132867211,1.1792893891103062
1784546951072519168,3.856044054031372,-0.3955671191215515,-0.7740561366081238,0.3432985246181488,-0.09559240192174911,-0.011487806215882301,-0.9953542947769165,0.09157934039831161,-0.06118980422616005,-0.192130446434021,0.8295418278098771,0.03142975471411739,-0.036538138326053106,0.5563609426748596,0.011488058869707024,-0.09574492901396091,1.1821086056027705
1784546951082437888,3.8659629821777344,-0.24343833327293396,-0.7665308117866516,0.31900304555892944,-0.10331926494836807,-0.008030415512621403,-0.9946158528327942,0.14329728484153748,-0.012294290587306023,-0.1960579752922058,0.8285453667641658,0.03221441056004388,-0.04067331415505119,0.5575127905950732,0.008030501783298834,-0.10350732194704605,1.1850016016432237
1784546951092356864,3.8758819103240967,-0.12316084653139114,-0.8651392459869385,0.4133606255054474,-0.11125434190034866,-0.005859732162207365,-0.9937747120857239,0.16276800632476807,0.027923939749598503,-0.17730683088302612,0.8273927251370798,0.03361579476097261,-0.044526768643126435,0.5588458082582451,0.0058597655811283705,-0.11148705969458884,1.1884169238941236
1784546951102276096,3.885801076889038,-0.06340297311544418,-0.8718131184577942,0.21709176898002625,-0.11998266726732254,-0.004635247401893139,-0.9927651882171631,0.18168921768665314,0.054790884256362915,-0.16868805885314941,0.8262787610163899,0.03564154747141509,-0.048446847067987076,0.560041191255704,0.004635264080308917,-0.12027372544877028,1.191603202781886
1784546951112195072,3.8957200050354004,0.11819005012512207,-0.9111934304237366,0.31247425079345703,-0.12898989021778107,-0.004524289630353451,-0.9916355609893799,0.18018314242362976,0.11295323818922043,-0.19131726026535034,0.8252881310888119,0.03820816854416038,-0.05217606376071557,0.5609967711312457,0.0045243048549764246,-0.12935162427709934,1.1943163459599322
1784546951122114048,3.9056389331817627,0.12173552066087723,-0.8586745858192444,0.2618851065635681,-0.1376289576292038,-0.005455275997519493,-0.9904688596725464,0.1191505640745163,0.05646540969610214,-0.2110539674758911,0.8242394600287349,0.04111912977793944,-0.05545088117665812,0.5620176035440873,0.005455303001977333,-0.13806926005791487,1.1972749302812302
1784546951132033024,3.915558099746704,0.025342073291540146,-0.8282274007797241,0.23151810467243195,-0.1457236409187317,-0.0057599483989179134,-0.9893085956573486,0.09082251787185669,-0.02906060963869095,-0.18331408500671387,0.8233027877878151,0.04361625416296405,-0.05867996782457168,0.5628736814950999,0.0057599801017121375,-0.14624683000694394,1.1997961947861693
1784546951141952000,3.9254770278930664,-0.08492477983236313,-0.8945896625518799,0.25562983751296997,-0.15423749387264252,-0.0050389450043439865,-0.9880209565162659,0.17375348508358002,-0.08338573575019836,-0.18306058645248413,0.8223604084862672,0.04581654048013789,-0.06237281626299415,0.5636788355037571,0.005038966337110175,-0.15485765159002127,1.2021654676345026
1784546951151870976,3.9353959560394287,-0.15186525881290436,-0.8801705241203308,0.2576827108860016,-0.16303151845932007,-0.0034982417710125446,-0.9866146445274353,0.16007131338119507,-0.08703215420246124,-0.1802249550819397,0.8214140451888485,0.047766747069794134,-0.06641541850210242,0.5644345377156729,0.003498248928479117,-0.16376351700142086,1.2043862113637656
1784546951161789952,3.945314884185791,-0.1295972466468811,-0.8643023371696472,0.2752537131309509,-0.17156577110290527,-0.0015408743638545275,-0.9851714372634888,0.16338706016540527,-0.08558681607246399,-0.14843446016311646,0.820353516538948,0.04949523444482708,-0.07045913288680182,0.5653369662204527,0.0015408750097193396,-0.17241898832215244,1.2069310586219653
1784546951171709184,3.9552340507507324,-0.12696844339370728,-0.8706279397010803,0.24802528321743011,-0.18008975684642792,0.00032877924968488514,-0.9836501479148865,0.16341190040111542,-0.047463178634643555,-0.15230566263198853,0.8193390131249177,0.05126191490846119,-0.07447920607192382,0.5661348801405798,-0.00032877926692735085,-0.18107770657825517,1.209243564593313
1784546951181627904,3.9651529788970947,-0.11967457085847855,-0.88418048620224,0.24594056606292725,-0.18873459100723267,0.0018852166831493378,-0.9820263385772705,0.18026596307754517,-0.0063865650445222855,-0.155440092086792,0.8183763006824938,0.05319495998592084,-0.07846740615015566,0.5668099033425925,-0.0018852177712565955,-0.18987376129689099,1.2113091175266182
1784546951191546880,3.975071907043457,-0.15877896547317505,-0.8528203964233398,0.2648006081581116,-0.19708143174648285,0.00371372839435935,-0.980380117893219,0.19344985485076904,-0.021017197519540787,-0.156125009059906,0.8173388805286923,0.05495113738431091,-0.08240344804250788,0.5675801971737814,-0.0037137368851293253,-0.19838146324183714,1.2135790004955613
1784546951201467136,3.984992027282715,-0.25395503640174866,-0.8977372646331787,0.25009170174598694,-0.20560726523399353,0.006263087969273329,-0.9786145687103271,0.18491634726524353,-0.030127838253974915,-0.12850213050842285,0.8163334513240016,0.05646545110250855,-0.08662782548487392,0.5682490615108884,-0.006263128853848152,-0.20708830788769647,1.2155555383894912
1784546951211385856,3.994910955429077,-0.29909437894821167,-0.949753999710083,0.21074435114860535,-0.21457183361053467,0.009483788162469864,-0.9766621589660645,0.19424712657928467,-0.03632400184869766,-0.10726118087768555,0.8153526823341947,0.05783253649921243,-0.09123767948923403,0.5687979824273214,-0.00948393067929942,-0.2162633117244903,1.2172104558802093
1784546951221304832,4.0048298835754395,-0.37147724628448486,-0.9721828699111938,0.12620043754577637,-0.22382375597953796,0.013053884729743004,-0.9745422005653381,0.17806266248226166,-0.011619561351835728,-0.11411130428314209,0.8145088559920431,0.05912257396457445,-0.09609065512122253,0.5690751344564994,-0.013054255567127998,-0.2257555712917152,1.2181894878787054
1784546951231224064,4.014749050140381,-0.45228129625320435,-0.9347481727600098,0.09048625081777573,-0.23303772509098053,0.017303189262747765,-0.9723137617111206,0.13355042040348053,0.009643834084272385,-0.058524250984191895,0.8138745685198681,0.060090172969596144,-0.10115481977299749,0.5690036119262109,-0.017304051979737504,-0.2352361258681213,1.21823810617834
1784546951241143040,4.024667978286743,-0.47155484557151794,-0.881087601184845,0.08460306376218796,-0.24171313643455505,0.0220755897462368,-0.9700965881347656,0.10394154489040375,-0.0338248610496521,0.0056954026222229,0.8132883043618266,0.060681784702343436,-0.1061574994116287,0.5688677746644633,-0.022077382751569636,-0.2441916622863795,1.218026354903834
1784546951251062016,4.0345869064331055,-0.35482969880104065,-0.8384866118431091,0.037764254957437515,-0.24997568130493164,0.02626696415245533,-0.9678957462310791,0.09479379653930664,0.02962597645819187,0.0345156192779541,0.8127974821990002,0.061378726815517676,-0.11083668664676376,0.5686019527944947,-0.026269985139704542,-0.25274425552871355,1.2175257024056974
1784546951260980992,4.044506072998047,-0.1986483484506607,-0.8023549318313599,-0.02130012959241867,-0.25777649879455566,0.028757644817233086,-0.9657765030860901,0.10186222195625305,0.08386747539043427,0.03581434488296509,0.8124346625487769,0.06262255616475491,-0.11484841622535658,0.5681885697979409,-0.02876160939382844,-0.26083062020989217,1.2168271093337026
1784546951270899968,4.054425001144409,-0.10303014516830444,-0.7388529181480408,-0.014702381566166878,-0.2651102840900421,0.030102720484137535,-0.9637480974197388,0.10220745205879211,0.09515666961669922,0.06407463550567627,0.8121036063503287,0.06420117070886755,-0.11833920808696177,0.5677692441008739,-0.0301072691546753,-0.26844297023209307,1.2162233878493016
1784546951280818944,4.0643439292907715,-0.04568057134747505,-0.6837577223777771,-0.0032928669825196266,-0.2717609405517578,0.03077242523431778,-0.9618726968765259,0.11415290832519531,0.029240379109978676,0.08305799961090088,0.8117187146135809,0.06587791115273668,-0.12134148833808289,0.5674938340328963,-0.03077728485272461,-0.27535615387034124,1.2160140880608143
1784546951290738176,4.074263095855713,0.00418372405692935,-0.6190417408943176,-0.006841761991381645,-0.2780437767505646,0.030918341130018234,-0.9600706696510315,0.09672358632087708,-0.0023996662348508835,0.0876646637916565,0.8113589082268162,0.06766313359175617,-0.12404176507968635,0.567214248444079,-0.030923268867185615,-0.2818954277937339,1.2158441073066706
1784546951300657152,4.084182024002075,0.08268865197896957,-0.5907707214355469,-0.05334534868597984,-0.2836358845233917,0.030543414875864983,-0.9584454894065857,0.08978825807571411,0.046162523329257965,0.0872601866722107,0.8110599368988606,0.06945706605683656,-0.1263050520240471,0.5669254687641901,-0.03054816541304501,-0.2877216705894407,1.2156743947427582
1784546951310575872,4.0941009521484375,0.24136917293071747,-0.5259705185890198,-0.10481462627649307,-0.28903689980506897,0.02866590954363346,-0.9568886756896973,0.09578433632850647,0.07835923135280609,0.08124780654907227,0.8108806967605366,0.07179427835693751,-0.12806733711737064,0.5664953355619172,-0.02866983672754488,-0.29334478374646283,1.2153591873146852
1784546951320494848,4.1040198802948,0.4736199676990509,-0.4549677073955536,-0.18777157366275787,-0.29368075728416443,0.024786023423075676,-0.9555821418762207,0.06328830122947693,0.08710666745901108,0.0905919075012207,0.8108654411003224,0.07471311419818141,-0.12894520548222838,0.5659403437594624,-0.024788561804405508,-0.29816953594624723,1.214969042404514
1784546951330414080,4.113939046859741,0.7198739647865295,-0.40003734827041626,-0.1555599868297577,-0.29782193899154663,0.01858358457684517,-0.9544405341148376,0.03936856985092163,0.11905069649219513,0.11555808782577515,0.8108649870676548,0.07845240624280066,-0.12893778588768742,0.5654362777732104,-0.018584654491564614,-0.30246413560094715,1.215024209702113
1784546951340333056,4.1238579750061035,0.9116074442863464,-0.25621065497398376,-0.13537003099918365,-0.30086931586265564,0.010374759323894978,-0.9536089301109314,0.04961809515953064,0.0923474058508873,0.1671862006187439,0.8107518219083799,0.08274393347924523,-0.1278630838790943,0.5652309658240088,-0.010374945272739296,-0.3056210621519154,1.2160489660845442
1784546951350252032,4.133776903152466,0.8303304314613342,-0.18977835774421692,-0.08353383839130402,-0.3030093312263489,0.001725389389321208,-0.9529860615730286,0.06047087907791138,-0.039582446217536926,0.22501975297927856,0.8105065843744986,0.08699237826858036,-0.1262509776067496,0.5653072273098633,-0.0017253902939725202,-0.30784933937892184,1.2177896894598235
1784546951360171008,4.143696069717407,0.6230089664459229,-0.16315899789333344,-0.10807913541793823,-0.3044282793998718,-0.005542890168726444,-0.9525191187858582,0.09487932920455933,-0.05808625370264053,0.28876179456710815,0.8103999515655672,0.09043244920020628,-0.12474938425474906,0.5652533495143038,0.005542918687264781,-0.3093430741690105,1.218955369915964
1784546951370089984,4.1536149978637695,0.4098012149333954,-0.04571682959794998,-0.044591035693883896,-0.305556982755661,-0.010552145540714264,-0.9521152973175049,0.1276853084564209,-0.036795876920223236,0.29890185594558716,0.8102408506213715,0.09286441878381513,-0.12376807724651778,0.5653030606385641,0.010552341418239098,-0.3105412012480033,1.2200099492772989
1784546951380008960,4.163533926010132,0.17523503303527832,0.06463204324245453,-0.092788927257061,-0.3051874339580536,-0.01359447930008173,-0.9521952867507935,0.07102605700492859,-0.07299914211034775,0.29628098011016846,0.8104225449834849,0.09398236344605106,-0.12275863786564102,0.5650778455394253,0.013594897889211777,-0.3101648688993929,1.2198991600828697
1784546951389928192,4.173453092575073,0.08173917233943939,0.07577771693468094,-0.12566179037094116,-0.304313063621521,-0.015102667734026909,-0.9524523615837097,0.101615309715271,-0.09363146126270294,0.2705828547477722,0.8106642283195815,0.09430850424157815,-0.1219825045663078,0.5648449106122139,0.015103242042231827,-0.3092536456859989,1.2194613984101952
1784546951399846912,4.1833720207214355,0.003650226630270481,0.10746826976537704,-0.18426784873008728,-0.3034227192401886,-0.01589570753276348,-0.9527234435081482,0.138780415058136,-0.06157317012548447,0.24637889862060547,0.8111685172211996,0.09427729604492505,-0.12144983431729603,0.5642405456753593,0.015896376786178907,-0.30832290076977903,1.217990207218912
1784546951409765888,4.193290948867798,-0.02237424999475479,0.15168818831443787,-0.2270868420600891,-0.3021196126937866,-0.016513096168637276,-0.9531269669532776,0.12014329433441162,-0.004589812830090523,0.25802814960479736,0.811874848760161,0.09401416584675545,-0.12082151609163719,0.5634028670761444,0.016513846779005505,-0.30695859745678383,1.2158666107650928
1784546951419684864,4.20320987701416,0.06821104884147644,0.2716526985168457,-0.20030929148197174,-0.30000683665275574,-0.017231827601790428,-0.9537814259529114,0.08063122630119324,0.06786048412322998,0.2854922413825989,0.8125834131251791,0.09356600612993964,-0.1198110916913994,0.5626713670895174,0.01723268062345215,-0.30474652144530723,1.2139248886702476
1784546951429604096,4.213129043579102,0.24443967640399933,0.3932587802410126,-0.24951422214508057,-0.2968202531337738,-0.019433755427598953,-0.9547355771064758,0.03905355930328369,0.11721208691596985,0.2937401533126831,0.8133487858638059,0.0934224102620988,-0.11791715927626081,0.561988830457454,0.019434978521594606,-0.30141983265614,1.2122131105936889
1784546951439523072,4.223047971725464,0.47685426473617554,0.4900124967098236,-0.2667291462421417,-0.2924233675003052,-0.02362145483493805,-0.9559971690177917,0.017887234687805176,0.21269311010837555,0.28869980573654175,0.8141351120878735,0.09376333682367416,-0.11493410486301157,0.5614112324655838,0.023623651783578888,-0.2968453390614101,1.210929069824393
1784546951449441792,4.232966899871826,0.5997896790504456,0.6061268448829651,-0.29959556460380554,-0.2869149446487427,-0.02945515140891075,-0.957503080368042,-0.018169254064559937,0.27571675181388855,0.25318795442581177,0.8149996303762866,0.09446505682614646,-0.11101711924767318,0.5608271155179754,0.029459412179775095,-0.29113484584994315,1.2097514932575044
1784546951459361024,4.242886066436768,0.6928932666778564,0.5958811044692993,-0.27270403504371643,-0.28098487854003906,-0.03657979890704155,-0.9590148329734802,0.04955482482910156,0.30719444155693054,0.22604364156723022,0.8158430401431064,0.09559501332650859,-0.10655603716113903,0.5602744589922448,0.036587963154240614,-0.2850162767213539,1.208796369910511
1784546951469280000,4.25280499458313,0.4802592992782593,0.6774452924728394,-0.31020650267601013,-0.2746851146221161,-0.04302453249692917,-0.9605711698532104,0.09258672595024109,0.26281213760375977,0.22036731243133545,0.8167017889732193,0.0963414627225619,-0.10214076318889591,0.5597175644496567,0.043037816437696684,-0.27852698040116014,1.2076703980764933
1784546951479198976,4.262723922729492,0.27598100900650024,0.657157301902771,-0.30061617493629456,-0.2681238055229187,-0.04748306795954704,-0.9622135758399963,0.0560418963432312,0.21040116250514984,0.23856550455093384,0.8177248307203624,0.09616575429277982,-0.09821078007720017,0.5589568849356729,0.04750092791305613,-0.2717592972441122,1.2056976751353168
1784546951489118208,4.272643089294434,0.047395844012498856,0.6348438858985901,-0.2456771433353424,-0.26178503036499023,-0.04970381408929825,-0.9638454914093018,0.09476232528686523,0.18713973462581635,0.23944973945617676,0.8187072922036407,0.09513676835977132,-0.09500659949973066,0.5582481620190051,0.04972430099819461,-0.26520697343886807,1.2035360165752509
1784546951499036928,4.282562017440796,0.1143873929977417,0.6232871413230896,-0.2145429253578186,-0.25555771589279175,-0.05089370161294937,-0.9654533267021179,0.09028977155685425,0.20117750763893127,0.23097151517868042,0.8195845677523728,0.0937347681507634,-0.09212568276499394,0.5576807394346448,0.0509156972999344,-0.2587675590792418,1.2015854048219676
1784546951508955904,4.292480945587158,0.17526432871818542,0.6697596907615662,-0.13288241624832153,-0.24923937022686005,-0.052765753120183945,-0.967003345489502,0.06750719249248505,0.19288721680641174,0.20676469802856445,0.8202871486802615,0.09262554945366547,-0.08898776490093643,0.5573425937069229,0.05279026832944404,-0.25225379860241076,1.200293833959078
1784546951518874880,4.3023998737335205,0.3623751103878021,0.5860053896903992,-0.1772264540195465,-0.24257706105709076,-0.05561629310250282,-0.9685366153717041,0.02487991750240326,0.19048872590065002,0.2610933780670166,0.8209629429428602,0.09183617194054733,-0.08542718773500112,0.5570351641404164,0.05564500466212047,-0.24540901365004006,1.1991842856395307
1784546951528794112,4.312319040298462,0.5088784694671631,0.6467997431755066,-0.21259260177612305,-0.23628106713294983,-0.0603768490254879,-0.9698071479797363,-0.010453552007675171,0.1377846896648407,0.23834657669067383,0.8215019981426372,0.0919701748135217,-0.08147340286500285,0.5568106406168268,0.06041359237665289,-0.23898121257966756,1.198591422921358
1784546951538713088,4.322237968444824,0.490848571062088,0.8253191709518433,-0.17932119965553284,-0.228277787566185,-0.06558343023061752,-0.9713846445083618,-0.068841353058815,0.10832329839468002,0.3129373788833618,0.8221939101055334,0.09179249845670073,-0.07669308721691098,0.5564975829275104,0.06563053678111407,-0.23081430275955547,1.1976425415857752
1784546951548631808,4.3321568965911865,0.6151506304740906,0.7664445638656616,-0.18772023916244507,-0.21984055638313293,-0.07114026695489883,-0.9729384183883667,-0.05481763184070587,0.10866163671016693,0.3112868666648865,0.8228556831875095,0.09164872990811772,-0.07163305534747773,0.5562173268131024,0.07120040654832412,-0.22222348662063468,1.1967646442799504
1784546951558551040,4.342076063156128,0.886434018611908,0.6026998162269592,2.8893817216157913e-05,-0.21321511268615723,-0.07878560572862625,-0.9738234877586365,0.03207802772521973,0.04568929225206375,0.24671167135238647,0.8229731757650378,0.0929567071389095,-0.06668821195181929,0.5564412757422762,0.07886733996664959,-0.21554509811299075,1.1975956705247
1784546951568471040,4.351995944976807,0.6459798812866211,0.5437478423118591,0.05140020698308945,-0.207659050822258,-0.08616343885660172,-0.9743990898132324,0.040468499064445496,0.04143993556499481,0.24455595016479492,0.8226960008744473,0.09449716535090216,-0.06221528801675309,0.5571093789438543,0.08627041176887706,-0.209973738252736,1.1995813734888003
1784546951578389760,4.361914873123169,0.6256839632987976,0.5112743377685547,0.017644640058279037,-0.20231497287750244,-0.09180176258087158,-0.9750082492828369,-0.012330412864685059,0.14124023914337158,0.3039267063140869,0.8225379624025293,0.09535376120482429,-0.058339817245112294,0.5576158803430316,0.09193119545613532,-0.20459733441003872,1.2009515038584697
1784546951588308992,4.37183403968811,0.8049460053443909,0.5097275376319885,0.13316784799098969,-0.19753633439540863,-0.0987841859459877,-0.9753056168556213,-0.02051176130771637,0.0825641006231308,0.2135106325149536,0.8221036390806602,0.09695359144457362,-0.054287959708503856,0.5583891616060853,0.09894555490863335,-0.19983462563499868,1.2032135228423633
1784546951598227968,4.381752967834473,0.6132988333702087,0.5601483583450317,0.22767464816570282,-0.19221770763397217,-0.10545308887958527,-0.9756700396537781,0.000582575798034668,0.16990621387958527,0.20650500059127808,0.821384928066142,0.09828780190597919,-0.05004493173855124,0.5596086246565309,0.10564951785722003,-0.19451985778454595,1.2064460947799212
1784546951608146944,4.391671895980835,-0.0988367348909378,0.5627943277359009,0.3467369079589844,-0.18708008527755737,-0.10777044296264648,-0.9764151573181152,0.05141419172286987,0.17410039901733398,0.23038244247436523,0.8206261335669145,0.09785447051950069,-0.04708417323689864,0.5610529587982707,0.10798015616948572,-0.18930469825051796,1.2096508012142908
1784546951618066176,4.401591062545776,-0.9225332736968994,0.5084261298179626,0.37478986382484436,-0.18231692910194397,-0.10199243575334549,-0.9779356122016907,0.07407107949256897,-0.03493993729352951,0.3504636883735657,0.8199132358449104,0.09415243007313898,-0.04655650438769626,0.5627700516058195,0.10217009601662448,-0.18431447094021858,1.2125001708157985
1784546951627984896,4.411509990692139,-1.9679763317108154,0.05219295620918274,0.34790173172950745,-0.1794254332780838,-0.08748090267181396,-0.9798742532730103,-0.0224788635969162,-0.23753130435943604,0.38844358921051025,0.8197387158292692,0.08732205054922096,-0.04937326814488864,0.5638843430918914,0.08759287200030176,-0.18110434038674003,1.213053273404146
1784546951637903872,4.421428918838501,-2.556950569152832,-0.22853325307369232,0.28431451320648193,-0.1807243973016739,-0.06444229930639267,-0.9814203381538391,0.010421067476272583,-0.11365828663110733,0.3340356945991516,0.8196712338890056,0.07816144308911074,-0.05639697858602649,0.5646674222776994,0.06448698628417798,-0.18210567790598514,1.2123580907342841
1784546951647823104,4.431348085403442,-2.861896514892578,-0.17924274504184723,0.07457239925861359,-0.18288956582546234,-0.03769901022315025,-0.9824104309082031,-0.06856001913547516,0.13346317410469055,0.09437942504882812,0.8200827709415487,0.06767466468733313,-0.06492256292393637,0.56450822456391,0.03770794707028136,-0.1840571204115901,1.2092161691941103
1784546951657742080,4.441267013549805,-2.6630942821502686,-0.25958603620529175,0.028660571202635765,-0.18490611016750336,-0.010226509533822536,-0.9827029705047607,-0.18066397309303284,0.2484619915485382,-0.11739468574523926,0.8207503530533334,0.05680067026293691,-0.07363553896245491,0.5636668914385805,0.010226687910208573,-0.18598615687457798,1.2045370170048977
1784546951667661056,4.451185941696167,-2.5539705753326416,-0.24819418787956238,0.018955247476696968,-0.18749821186065674,0.01473189052194357,-0.9821544885635376,-0.14245785772800446,0.03334854543209076,-0.4035571813583374,0.8212651997033602,0.047121132845592245,-0.08186797279842299,0.5626729271327489,-0.014732423558110613,-0.188635275938033,1.1999580511902446
1784546951677579776,4.461104869842529,-3.1848888397216797,-0.44249361753463745,-0.07243672013282776,-0.19066326320171356,0.04240676015615463,-0.9807391166687012,-0.053050100803375244,-0.04863234609365463,-0.31105470657348633,0.8217250612749308,0.03644404666799269,-0.09111684920713498,0.5613711071113163,-0.04241948061400127,-0.1920126440417453,1.194585316713104
1784546951687499008,4.471024036407471,-3.5436534881591797,-0.4353466033935547,-0.16156406700611115,-0.1951102763414383,0.07518373429775238,-0.9778953790664673,0.014553025364875793,0.07152952253818512,-0.16971814632415771,0.8224500112492208,0.02388358415226132,-0.10238105941017996,0.5590381685304696,-0.0752547430707113,-0.19693455882031896,1.186536757422327
1784546951697417984,4.480942964553833,-3.2766380310058594,-0.36772575974464417,0.14381130039691925,-0.1990327090024948,0.10848411917686462,-0.9739698171615601,0.12025158107280731,0.12805762887001038,-0.25469839572906494,0.8226095609391775,0.010957604148447002,-0.1135562780329442,0.5570444034423548,-0.1086980413621273,-0.20157667773158552,1.1794709329338395
1784546951707336960,4.490861892700195,-2.678798198699951,-0.3082432150840759,0.142207533121109,-0.20189505815505981,0.13774797320365906,-0.9696720242500305,0.1577819138765335,0.13434673845767975,-0.3226252794265747,0.8220109480762446,-0.0004960474319093897,-0.12314109383280471,0.5559982388266048,-0.13818735412204344,-0.20527682159134317,1.175149236485179
1784546951717255424,4.500780344009399,-2.1495518684387207,-0.02113501727581024,-0.19759877026081085,-0.2038055956363678,0.16075655817985535,-0.9657228589057922,0.016153007745742798,0.21958403289318085,-0.29349344968795776,0.8219239629842261,-0.009742126430271985,-0.13055141081843946,0.5543485792401995,-0.16145712703616366,-0.2079875133339899,1.1698590382328389
1784546951727174400,4.510699272155762,-2.1999080181121826,0.46547889709472656,-0.519923985004425,-0.20168600976467133,0.18052898347377777,-0.9626692533493042,-0.039723291993141174,0.45327532291412354,-0.2769700288772583,0.822874784863097,-0.019010871040754548,-0.135292180617828,0.5515538544472333,-0.18152424146711552,-0.20652003835958474,1.1621330755610226
1784546951737093376,4.520618438720703,-2.5505712032318115,0.10753298550844193,-0.5892860293388367,-0.2001715451478958,0.20174750685691833,-0.9587644934654236,0.1294928342103958,0.43645134568214417,-0.2598176598548889,0.8243888967838,-0.02895847572501314,-0.1406384481971329,0.5475082069094295,-0.20314178215269937,-0.2058241357430027,1.1514487765287111
1784546951747012352,4.530537366867065,-2.6314430236816406,0.21671737730503082,-0.38247403502464294,-0.19950173795223236,0.2259235829114914,-0.953497588634491,0.25653910636901855,0.1439494639635086,-0.27047091722488403,0.8254421100581836,-0.03995770456738905,-0.1471550211166985,0.5435017941076402,-0.22789102494289737,-0.20625604863238076,1.140880214054569
1784546951756931328,4.540456295013428,-2.6875109672546387,0.11875966191291809,-0.1705324798822403,-0.1981993466615677,0.25016552209854126,-0.9476994276046753,0.302157461643219,-0.26716384291648865,-0.3170710802078247,0.825627001320403,-0.05103844121663507,-0.1534449558156207,0.5405459628214054,-0.2528512207776796,-0.2061658370907688,1.1330619039552512
