time,seconds_elapsed,rotationRateX,rotationRateY,rotationRateZ,gravityX,gravityY,gravityZ,accelerationX,accelerationY,accelerationZ,quaternionW,quaternionX,quaternionY,quaternionZ,pitch,roll,yaw
1784285981831127808,0.17121577262878418,0.48482704162597656,0.4842033088207245,-0.318656861782074,0.1230248212814331,0.736109733581543,-0.6655880808830261,0.060553647577762604,0.10571765899658203,0.09718286991119385,0.7826184098304342,-0.3112111183809113,0.26524255680882547,-0.469364005357242,-0.8273047274995514,0.18277346311913373,-1.0000353685047763
1784285981841046784,0.18113470077514648,0.6222532987594604,0.5329830646514893,-0.4003669023513794,0.12545576691627502,0.7351692318916321,-0.6661734580993652,0.08513076603412628,0.12374800443649292,0.12796545028686523,0.7814399913232449,-0.30928439835223476,0.26693900071646154,-0.4716336436226048,-0.8259162803113517,0.18614285220885124,-1.0042933273127337
1784285981850966016,0.1910538673400879,0.5826808214187622,0.6088619232177734,-0.4920860528945923,0.12970569729804993,0.7366564869880676,-0.6637120842933655,0.06015940010547638,0.07620972394943237,0.20077568292617798,0.7794247179182903,-0.30818545045043716,0.2704915606699944,-0.4736594692187864,-0.8281128908310558,0.19299233985587252,-1.0071041734201023
1784285981860885760,0.2009737491607666,0.49007976055145264,0.7182139754295349,-0.5015897750854492,0.13545650243759155,0.7412602305412292,-0.6574075818061829,0.04407840967178345,-0.027347326278686523,0.30985820293426514,0.7763553170274802,-0.308366815982659,0.27605455906148346,-0.47536947417951203,-0.8349459828459921,0.20320265123775152,-1.008462980049761
1784285981870804992,0.210892915725708,0.4320946931838989,0.7464359402656555,-0.49670493602752686,0.14217503368854523,0.7480034828186035,-0.648287832736969,0.04508081078529358,-0.11885309219360352,0.3188353180885315,0.7726004251898081,-0.3094935454848513,0.2829661266317777,-0.47668919613996247,-0.8450487686258324,0.2158906453154821,-1.0082748623039826
1784285981880723968,0.2208118438720703,0.4073270261287689,0.7861140966415405,-0.5295100808143616,0.14611482620239258,0.7502472400665283,-0.6448097229003906,0.04922819137573242,-0.15343016386032104,0.33441537618637085,0.7698811350711106,-0.3085916034406142,0.28699540072388774,-0.47925778702045246,-0.8484359940458507,0.22283822132423467,-1.0126363725969814
1784285981890643712,0.23073172569274902,0.522244393825531,0.8404049277305603,-0.5849222540855408,0.14940159022808075,0.7510525584220886,-0.64311683177948,0.04456813633441925,-0.12509125471115112,0.321064829826355,0.7673615511038968,-0.30689038931374835,0.2902755360073321,-0.4824051103923659,-0.8496548607482379,0.22825992324773597,-1.0188286112422058
1784285981900562944,0.24065089225769043,0.7211880683898926,0.8330548405647278,-0.6102334856987,0.15220198035240173,0.750495970249176,-0.643109917640686,0.02522723376750946,-0.08393102884292603,0.24978411197662354,0.7650188031714656,-0.30439650710001415,0.29289557830054846,-0.48610819072036004,-0.8488122529795299,0.2323897903817713,-1.0267274785580334
1784285981910481920,0.25056982040405273,0.9310913681983948,0.9110071659088135,-0.6872240304946899,0.15473279356956482,0.7484099268913269,-0.644934356212616,-0.0031825006008148193,-0.0015684962272644043,0.15013766288757324,0.7628874394928863,-0.3009694953973641,0.29487315200476394,-0.4903773626581996,-0.8456613882435069,0.23546953869223003,-1.0362350534517983
1784285981920401920,0.26048970222473145,1.216019868850708,1.011993169784546,-0.8716599345207214,0.15660572052001953,0.7450715899467468,-0.6483386158943176,-0.08212757110595703,0.047317326068878174,0.0533069372177124,0.7605422496814704,-0.2966773920819825,0.29633293871951155,-0.49572654385639586,-0.8406421677305912,0.23700935817594943,-1.0489569969369736
1784285981930320896,0.27040886878967285,1.5219857692718506,1.0977368354797363,-0.8014450669288635,0.15817448496818542,0.7397447228431702,-0.6540325880050659,-0.08801458775997162,0.010362088680267334,-0.04251587390899658,0.7583495559022311,-0.29116377903584106,0.2969972630251459,-0.5019185392309866,-0.8326908843010221,0.2372887408948865,-1.064004232868105
1784285981940239872,0.28032779693603516,1.8722753524780273,1.0139878988265991,-0.8768133521080017,0.1597396731376648,0.7319402694702148,-0.6623795032501221,-0.009638950228691101,-0.004233419895172119,-0.035023391246795654,0.75661742089612,-0.28426003515831233,0.2966588719395869,-0.5086449664951483,-0.8211652233710568,0.23664184375122863,-1.080324999369067
1784285981950158848,0.29024672508239746,1.2517518997192383,1.100809097290039,-1.052565336227417,0.16029779613018036,0.7248219847679138,-0.6700282096862793,-0.010761663317680359,0.014451086521148682,-0.030823230743408203,0.7543536842918872,-0.27790169283122595,0.29623732598333974,-0.5157177074945117,-0.8107759912197844,0.2348265933411615,-1.0981865018847194
1784285981960078848,0.3001668453216553,0.7199894785881042,1.1945949792861938,-1.12466561794281,0.16048099100589752,0.7218035459518433,-0.6732351779937744,-0.052082568407058716,-0.19507014751434326,0.027895212173461914,0.7506994857273959,-0.27371925392893665,0.29742257891736235,-0.5225590845894178,-0.8064047037581855,0.2340058899219209,-1.1160078395233064
1784285981969997824,0.3100857734680176,0.08742406964302063,1.1807888746261597,-1.0827445983886719,0.16081863641738892,0.7223808169364929,-0.6725350618362427,0.00383894145488739,-0.23109358549118042,-0.06844699382781982,0.746225886352826,-0.2714747227366038,0.30005657808715724,-0.5285967991415789,-0.8072391644503629,0.23471562795680956,-1.1320130755702977
1784285981979916800,0.3200047016143799,-0.07010510563850403,1.11890709400177,-1.0407843589782715,0.16108566522598267,0.72508704662323,-0.669552206993103,0.08606095612049103,-0.09772193431854248,-0.16783487796783447,0.7414480531893598,-0.27049980954960096,0.3034036202431898,-0.5338827942527951,-0.8111608050567132,0.23610008586601858,-1.146353533410758
1784285981989837056,0.3299248218536377,0.044428400695323944,1.0948143005371094,-1.02420973777771,0.16143757104873657,0.7275840640068054,-0.6667527556419373,0.06825299561023712,-0.08538740873336792,-0.25815868377685547,0.7368408436027731,-0.2694525050283851,0.3066251124506503,-0.5389266002847886,-0.8147936892085057,0.23755334985362994,-1.1600752745206517
1784285981999755776,0.33984375,0.29018622636795044,1.057399868965149,-1.0030444860458374,0.1616770178079605,0.7284709811210632,-0.665725588798523,0.01187644898891449,-0.04541128873825073,-0.28529369831085205,0.7326252340097371,-0.2675807643927635,0.3090917872350863,-0.5441719041098516,-0.816087387695089,0.23824589275663718,-1.174322200899565
1784285982009675008,0.3497629165649414,0.6462336778640747,1.0503793954849243,-0.9228430390357971,0.16219228506088257,0.7270126342773438,-0.6671927571296692,-0.01926320791244507,-0.027626097202301025,-0.29301220178604126,0.7290277234167348,-0.2644346098247093,0.31060898955182625,-0.5496497682595527,-0.8139610768538786,0.23847084847970962,-1.188857098482041
1784285982019593984,0.3596818447113037,1.2787573337554932,1.0199860334396362,-0.882959246635437,0.16292212903499603,0.7218125462532043,-0.6726388335227966,-0.03383275866508484,-0.05274522304534912,-0.32502657175064087,0.7263096211371285,-0.2593057817777724,0.31054968269533617,-0.5556920480202503,-0.8064177065635496,0.2376367635702779,-1.2044143436355508
1784285982029513728,0.3696017265319824,1.8441919088363647,1.0544288158416748,-0.8805785179138184,0.16390496492385864,0.7118465304374695,-0.6829419136047363,-0.006083309650421143,0.017279446125030518,-0.30779600143432617,0.7244975247104611,-0.25164862375888186,0.3085482284729541,-0.5626493827723724,-0.7921238778682476,0.23554346978433252,-1.2217538905958834
1784285982039432960,0.37952089309692383,1.924351692199707,1.0437370538711548,-0.8918652534484863,0.16503013670444489,0.698625385761261,-0.6961951851844788,0.03922399878501892,0.029951274394989014,-0.22459650039672852,0.7231412491226886,-0.242365573515589,0.3052234348745261,-0.5702319270103482,-0.773474457675635,0.23274980242050058,-1.240293794609594
1784285982049351936,0.38943982124328613,1.3912550210952759,0.96937096118927,-0.9003207683563232,0.1662275493144989,0.6865062713623047,-0.7078683376312256,0.0869157612323761,-0.1520214080810547,-0.020494699478149414,0.7215061778047486,-0.2338252207996507,0.3023104473825446,-0.5773760277356607,-0.7566732555665677,0.2306492969420982,-1.257747837247241
1784285982059271936,0.39935970306396484,0.8002296686172485,0.8274377584457397,-0.8107166290283203,0.16729038953781128,0.6784083843231201,-0.7153851985931396,0.10523158311843872,-0.3329951763153076,0.14769721031188965,0.7193885689273876,-0.22762713690427458,0.30082101669608624,-0.5832433039296577,-0.7455941018588785,0.22971863868587408,-1.2723461105857814
1784285982069190912,0.40927886962890625,0.6629266738891602,0.6218212246894836,-0.7980170845985413,0.16796070337295532,0.6734384894371033,-0.7199095487594604,0.10115858912467957,-0.21514075994491577,0.10931384563446045,0.7171243830664038,-0.22337593045437232,0.30024726592813655,-0.5879518256904108,-0.7388503812817349,0.22920796329194834,-1.284403425027798
1784285982079109888,0.41919779777526855,1.455840826034546,0.24770615994930267,-1.0590592622756958,0.16525337100028992,0.6663594841957092,-0.7270876169204712,-0.00935433804988861,-0.0031972527503967285,-0.2247098684310913,0.7154722489315521,-0.2193097991966113,0.2972531035667005,-0.5929952216435593,-0.729315612143857,0.223484687555958,-1.2985181618023267
1784285982089028864,0.42911672592163086,2.7713675498962402,0.36698949337005615,-1.3134856224060059,0.16051678359508514,0.6510215997695923,-0.7418930530548096,-0.27128034830093384,0.3107094168663025,-1.2130630016326904,0.7139810955650451,-0.211465094643744,0.29040657068351294,-0.60098056550028,-0.708929498348531,0.21307672873967193,-1.3202313895332671
1784285982098948864,0.43903684616088867,3.291841983795166,0.4068639278411865,-1.1190147399902344,0.15532733500003815,0.6193874478340149,-0.7695664763450623,-0.15427447855472565,0.1715061068534851,-1.609492301940918,0.7149452553898997,-0.196592222888912,0.27670968349970815,-0.6112581951660625,-0.667962264266095,0.19916170833272717,-1.34544054894856
1784285982108867840,0.448955774307251,2.599287509918213,0.26003754138946533,-1.1848937273025513,0.15084712207317352,0.5967819094657898,-0.7880967855453491,-0.18759030103683472,-0.2944137454032898,-0.3809553384780884,0.7140318610827717,-0.18601875264567513,0.26711165560827677,-0.619844330838117,-0.6394845517032117,0.18911943455373426,-1.3670219322431376
1784285982118786816,0.4588747024536133,1.6764287948608398,0.21260158717632294,-0.9903727173805237,0.14575225114822388,0.5799094438552856,-0.8015368580818176,-0.20037873089313507,-0.46765053272247314,0.4018328785896301,0.7124803582800382,-0.17861753346123058,0.2594751218016938,-0.6270090122988872,-0.6186175361905054,0.17987556595104995,-1.3857299011643796
1784285982128706816,0.4687948226928711,0.09768150001764297,0.11175061017274857,-0.631989598274231,0.1418646275997162,0.5716286301612854,-0.8081554174423218,-0.04268251359462738,-0.8796578049659729,0.30066341161727905,0.7108347512767633,-0.17517633828052726,0.2554125074228191,-0.6314995086745828,-0.6084893475170168,0.17377080844520734,-1.3980417957382525
1784285982138625792,0.4787137508392334,-0.9649407863616943,-0.09253647923469543,-0.32665497064590454,0.13730613887310028,0.5674723386764526,-0.8118634223937988,0.18701940774917603,-1.1751536130905151,0.28165102005004883,0.7102285227337618,-0.17442348322772358,0.25227909411608396,-0.6336459588116166,-0.6034327630527385,0.16753930765228278,-1.404695089070161
1784285982148545024,0.4886329174041748,-1.1027905941009521,-0.056684210896492004,-0.056288883090019226,0.1352250576019287,0.5707321763038635,-0.8099253177642822,0.1805860847234726,-0.4696579575538635,0.06302285194396973,0.7097200974185996,-0.17647226291324944,0.2527743801602757,-0.6334509974558485,-0.6073972579146075,0.16543397836753365,-1.405399787011169
1784285982158465024,0.4985527992248535,-0.5947681665420532,0.055838875472545624,-0.039310432970523834,0.13520413637161255,0.5739876627922058,-0.8076249361038208,0.03612154722213745,0.1745322346687317,-0.1043623685836792,0.7095044971686293,-0.17796376646937323,0.25400084322151384,-0.6327842742352415,-0.6113673424449688,0.1658714051378829,-1.4041549958538049
1784285982168383744,0.5084717273712158,0.11675453186035156,0.1971394270658493,-0.2552775740623474,0.13548830151557922,0.571733832359314,-0.8091744780540466,-0.11794069409370422,0.40362322330474854,-0.19641023874282837,0.7093944801559118,-0.1767382611078048,0.2533305022631207,-0.6335193641152538,-0.6086176237381571,0.16590116222459278,-1.405704209790778
1784285982178302976,0.5183908939361572,0.5717353820800781,0.3383362293243408,-0.5146545767784119,0.1352406144142151,0.5608261227607727,-0.8168133497238159,-0.23132522404193878,0.2783920168876648,-0.17291748523712158,0.7095184708712114,-0.17164719815585283,0.2492600321094176,-0.6363884197124968,-0.5953832617807745,0.16408244846859357,-1.411788299984936
1784285982188221952,0.5283098220825195,0.8711045384407043,0.46945008635520935,-0.8135247230529785,0.13345493376255035,0.5464456081390381,-0.8267932534217834,-0.25703585147857666,0.2192710041999817,-0.07817506790161133,0.7088996019345688,-0.16522548569300785,0.24352397502585404,-0.6409821080416447,-0.5781142260381694,0.16003240824787326,-1.422569680640148
1784285982198141696,0.5382297039031982,0.7769913673400879,0.5595672130584717,-1.0883054733276367,0.13058550655841827,0.5346312522888184,-0.8349352478981018,-0.23413166403770447,0.04259347915649414,-0.0974835753440857,0.706686195605509,-0.1598873199020437,0.23868058466312927,-0.6465773689987696,-0.5640713435250504,0.15514507029875946,-1.4369818343270095
1784285982208060928,0.5481488704681396,0.18068744242191315,0.6887195110321045,-1.280944585800171,0.12795783579349518,0.5285340547561646,-0.8392130136489868,-0.18688727915287018,-0.14743059873580933,0.030008971691131592,0.7028828675654358,-0.15660182692663863,0.23636699258922217,-0.6523512348965396,-0.5568728148879667,0.15130823127592002,-1.4529290025559487
1784285982217979904,0.558067798614502,-0.7506588697433472,0.6622676849365234,-1.2256726026535034,0.12493208795785904,0.5281937718391418,-0.8398829102516174,-0.08988266438245773,-0.5838730931282043,0.15612131357192993,0.6981933188978544,-0.15578337390220715,0.2361992292425334,-0.657622680528976,-0.5564719763767664,0.1476666500381413,-1.4687165751100177
1784285982227899904,0.5679879188537598,-1.334997534751892,0.7515149116516113,-1.0743147134780884,0.12352462112903595,0.5362377762794495,-0.8349794745445251,0.05778028815984726,-0.48275572061538696,0.18164390325546265,0.6930486324000306,-0.15802110376777906,0.23987411224991845,-0.6611909032563593,-0.5659735147256397,0.14687203869469528,-1.4809767585364535
1784285982237818880,0.5779068470001221,-1.5162689685821533,0.8397778868675232,-0.9429028630256653,0.12404702603816986,0.548538327217102,-0.8268724083900452,0.06095053255558014,-0.20318621397018433,0.06498587131500244,0.6877838139273047,-0.16145402056249783,0.24596013046401916,-0.6636185496814472,-0.5806150915386084,0.14890906485340083,-1.4904755614529208
1784285982247737856,0.5878257751464844,-1.5726354122161865,0.7801371216773987,-0.5579360127449036,0.1265762448310852,0.561130166053772,-0.8179922699928284,0.1941940188407898,0.06000936031341553,0.025252461433410645,0.6831225700922965,-0.16454227141391078,0.2528432230590856,-0.6650861786552669,-0.5957505274066613,0.15352252927865992,-1.4968248154280996
1784285982257656832,0.5977447032928467,-1.5772855281829834,0.8276460766792297,-0.5143179893493652,0.12962985038757324,0.5736594200134277,-0.8087713122367859,0.32047390937805176,0.06258630752563477,0.022623181343078613,0.6792512403339698,-0.16772666356062038,0.25977321402796716,-0.6655850121530497,-0.6109665267742749,0.15892824543807982,-1.5002591012787505
1784285982267576832,0.6076648235321045,-1.651573896408081,0.9857800006866455,-0.3877519369125366,0.13445629179477692,0.586272120475769,-0.7988783121109009,0.043079718947410583,-0.07676589488983154,-0.02534043788909912,0.6753146061279862,-0.170321160214151,0.2674912248122614,-0.6658748869437812,-0.6264494551914017,0.16674362670298623,-1.5026016424281625
1784285982277495808,0.6175837516784668,-1.8040776252746582,1.0179868936538696,-0.31081295013427734,0.14048799872398376,0.5993656516075134,-0.7880507111549377,0.17562833428382874,-0.029480397701263428,-0.002583444118499756,0.671565256605901,-0.17281618464778747,0.2758789728623974,-0.6656016081316439,-0.6427084277778615,0.17641943799920198,-1.5030120165026597
1784285982287415040,0.6275029182434082,-1.9796392917633057,1.159319519996643,-0.4957796037197113,0.1467597782611847,0.6138335466384888,-0.7756739258766174,0.018462389707565308,-0.17837822437286377,-0.0036687254905700684,0.6672998589143949,-0.1756967308173846,0.2851205098320637,-0.6652428306156283,-0.6609075507575423,0.18699252953072878,-1.503399397294217
1784285982297334784,0.6374228000640869,-2.330268383026123,1.4210087060928345,-0.761239767074585,0.15282177925109863,0.6304715275764465,-0.7610198259353638,-0.18564343452453613,-0.21137362718582153,0.03148186206817627,0.6616077831525521,-0.17912008303322327,0.295645190382073,-0.6654210167561807,-0.6821605353385526,0.19817603961220892,-1.505998445833527
1784285982307253760,0.6473417282104492,-2.9348649978637695,1.5653289556503296,-1.1136614084243774,0.15824387967586517,0.6507888436317444,-0.7425851821899414,-0.25702929496765137,-0.4622970223426819,0.054902076721191406,0.6540411793667844,-0.18378225036560375,0.30810954154059006,-0.6659750136571135,-0.7086229246033299,0.20995808389220663,-1.5109618722747387
1784285982317172992,0.6572608947753906,-3.267643690109253,1.6341806650161743,-1.355691909790039,0.16163475811481476,0.6747997403144836,-0.7200829982757568,-0.22352442145347595,-0.5802715420722961,0.11858153343200684,0.644576475329626,-0.19021708039338786,0.3221427558525827,-0.6667554043501411,-0.7406933373213618,0.2208069055146851,-1.5185919482433992
1784285982327092992,0.6671807765960693,-2.1816747188568115,1.644856572151184,-1.8299599885940552,0.16326601803302765,0.696334958076477,-0.6989004611968994,-0.11085209250450134,-0.12393200397491455,-0.0007913112640380859,0.6343926325041267,-0.1957699968596355,0.33499833235251125,-0.6685777647198557,-0.7702782353484339,0.22948870828641088,-1.5298833288943843
1784285982337011712,0.6770997047424316,-1.010572910308838,2.029184579849243,-2.06872820854187,0.16106167435646057,0.7105470895767212,-0.6849685907363892,-0.2553762197494507,0.4540494680404663,-0.18649137020111084,0.6229082577887932,-0.19823928401358265,0.34382683998312746,-0.6741435667636272,-0.7902753916070768,0.2309420944962256,-1.5530830685631822
1784285982346930944,0.687018871307373,-0.4881933629512787,1.9693998098373413,-1.9117474555969238,0.16089683771133423,0.7179005742073059,-0.6772967576980591,-0.02697044610977173,0.11652624607086182,-0.14878350496292114,0.6122098439180813,-0.1967003757144274,0.3502293357531623,-0.681063415656612,-0.8007818446035149,0.23323410674465567,-1.5780891600154512
1784285982356849920,0.6969377994537354,0.39438381791114807,2.016775608062744,-1.5572799444198608,0.1615980863571167,0.7207401990890503,-0.6741065382957458,0.227272167801857,0.16111093759536743,-0.12052541971206665,0.6028679189698976,-0.19311867400044078,0.35447414716312725,-0.6881885038163782,-0.8048694802772428,0.23528199063747238,-1.6022445515367547
1784285982366769920,0.7068579196929932,1.3180965185165405,2.1862070560455322,-1.270041823387146,0.16562239825725555,0.717265248298645,-0.6768305897712708,0.17303116619586945,0.4769180417060852,-0.3031650185585022,0.5953687614818318,-0.18595766283916593,0.35637682283242866,-0.695666039586323,-0.7998696551947908,0.2399869480662215,-1.6240117088384303
1784285982376688896,0.7167768478393555,2.098227024078369,2.2721476554870605,-1.1770439147949219,0.1719340831041336,0.7068659067153931,-0.6861335039138794,-0.029188096523284912,0.8189366459846497,-0.21135789155960083,0.5888993835691165,-0.17504678675700966,0.3553756912558564,-0.704460155968246,-0.7850575913983636,0.2455282420491302,-1.646944229612041
1784285982386607872,0.7266957759857178,2.4112560749053955,2.471066474914551,-1.027162790298462,0.18052242696285248,0.6905075311660767,-0.7004362344741821,-0.13685177266597748,0.7256911396980286,-0.2336304783821106,0.583220543099171,-0.16101180754387648,0.3519333305875192,-0.7141931687527286,-0.762190506229256,0.2522392739865278,-1.6704925302669043
1784285982396528128,0.7366158962249756,1.696394681930542,2.854954957962036,-0.7751049399375916,0.19289566576480865,0.6771769523620605,-0.7100862860679626,-0.24392105638980865,0.15813487768173218,-0.11372041702270508,0.5770377058058038,-0.1469989935292246,0.35120954502405566,-0.7225445070360272,-0.7439192645386572,0.2652500343455468,-1.689799700343462
1784285982406446848,0.7465348243713379,1.0967124700546265,3.0752599239349365,-0.4945572018623352,0.20966188609600067,0.6686233878135681,-0.7134316563606262,-0.18849796056747437,-0.13636630773544312,0.027076005935668945,0.5705766175051579,-0.13347366557523374,0.35421597740846344,-0.7288060202171711,-0.7323559534441294,0.28583088871720813,-1.7028998219767677
1784285982416365824,0.7564537525177002,1.093238353729248,3.146902561187744,-0.3744286596775055,0.2285730391740799,0.6615546941757202,-0.7142126560211182,0.042011067271232605,0.042394280433654785,0.024194955825805664,0.5642379032933588,-0.11988235199500208,0.35849950724576,-0.7339903832104407,-0.7228901085328128,0.30973467815122846,-1.7129303215403127
1784285982426285056,0.7663729190826416,1.292704463005066,3.3271000385284424,-0.18749690055847168,0.24955694377422333,0.6534492373466492,-0.7146505117416382,0.03898674249649048,0.17203593254089355,-0.02636200189590454,0.5582120370646886,-0.10521539444579212,0.3627732889069966,-0.7387316634628102,-0.7121321503231389,0.3359631737354979,-1.7214233549614946
1784285982436204800,0.7762928009033203,1.6486711502075195,3.528904438018799,-0.4112594425678253,0.27202969789505005,0.6434165239334106,-0.7155522704124451,-0.03477078676223755,0.16775596141815186,-0.05080515146255493,0.5517606426071249,-0.0889849460216792,0.36647721986887977,-0.743865777898022,-0.6989529503114067,0.3632933535137194,-1.7315222217550854
1784285982446123776,0.7862117290496826,1.8989970684051514,3.6283533573150635,-0.8911058306694031,0.29330798983573914,0.63249272108078,-0.7168844938278198,-0.020587623119354248,0.08105403184890747,-0.042560696601867676,0.5435458012297182,-0.07205494084576673,0.36927746987616983,-0.7503333198349591,-0.6847671887863656,0.38836301441347576,-1.747797032004945
1784285982456043008,0.796130895614624,2.2825098037719727,3.7989659309387207,-1.186156153678894,0.31303778290748596,0.6206554770469666,-0.7188839316368103,-0.03575506806373596,-0.03186458349227905,-0.1662173867225647,0.5334847782576275,-0.05455368756133086,0.37092037444719084,-0.7581793406356393,-0.6695783758112761,0.4106882307260684,-1.7706020720416982
1784285982465963008,0.8060507774353027,2.97605562210083,4.0989603996276855,-1.3867851495742798,0.33335965871810913,0.6060159802436829,-0.7222297787666321,-0.07646271586418152,0.13391315937042236,-0.30856233835220337,0.5219635397779737,-0.03515724627545403,0.37101086791015875,-0.7672475905740245,-0.6510424953557398,0.4324338373723094,-1.798814289262933
1784285982475881728,0.815969705581665,3.7114927768707275,4.244988918304443,-1.4235743284225464,0.35496821999549866,0.5864791870117188,-0.7280383110046387,-0.046649158000946045,0.42139434814453125,-0.36088991165161133,0.5092500739845534,-0.013099412544610962,0.36852307105149135,-0.7776140702396801,-0.6267051113466878,0.4536526905412797,-1.832693165375573
1784285982485800960,0.8258888721466064,4.353854656219482,4.255977630615234,-0.9878317713737488,0.3785777688026428,0.5616648197174072,-0.735670804977417,0.03955882787704468,0.5038716793060303,-0.304673433303833,0.4967771209844337,0.011132317323182591,0.3633739925051623,-0.7880659960812698,-0.5963966168309027,0.4752609549449143,-1.8680657342010636
1784285982495719936,0.8358078002929688,4.981910705566406,4.433717727661133,-1.0507140159606934,0.4053606688976288,0.5308252573013306,-0.7442494034767151,0.07086613774299622,0.34830981492996216,-0.31175029277801514,0.48499302666175764,0.03787145606360678,0.3555854854432787,-0.7980641688185833,-0.5595740784819638,0.49873185061908437,-1.9033680291743509
1784285982505639936,0.8457279205322266,5.946581840515137,4.342589378356934,-2.120652198791504,0.4302067160606384,0.4974856972694397,-0.7532796859741211,0.07516437768936157,0.2328457534313202,-0.5678110122680664,0.46939685744882853,0.06559367163505896,0.3450472864646635,-0.8101275342752476,-0.5206979234268648,0.5189070729865295,-1.9501199028137954
1784285982515558912,0.8556468486785889,7.377967357635498,3.0780115127563477,-2.492281198501587,0.44694212079048157,0.4567057490348816,-0.769196093082428,0.5683624744415283,0.1403401494026184,-1.0148310661315918,0.4515285856034941,0.09187069116488457,0.32705004051581704,-0.825057609613745,-0.4742886833627219,0.5263698277960251,-2.010047508517207
1784285982525477888,0.8655657768249512,8.66236400604248,1.9746161699295044,-3.310988426208496,0.4544697105884552,0.4082346260547638,-0.7917081117630005,0.7593364119529724,0.11135762929916382,-1.1414430141448975,0.43096863396337176,0.11555399847634294,0.3013191283252194,-0.842686185081637,-0.420519377329385,0.5211102136128979,-2.082428453817774
1784285982535397888,0.875485897064209,8.861178398132324,1.2598594427108765,-2.914571762084961,0.45488089323043823,0.3519069254398346,-0.8180738687515259,0.928389310836792,-0.06015890836715698,-0.6997483372688293,0.41000983310475236,0.1360030297943173,0.269195551313489,-0.8607721860466846,-0.3596075647568584,0.5074677825743186,-2.158327096715696
1784285982545316864,0.8854048252105713,8.460478782653809,0.6723371744155884,-2.374121904373169,0.4544626772403717,0.29161807894706726,-0.8416784405708313,1.0725606679916382,-0.5694500803947449,-0.0386011004447937,0.391104815529497,0.15430804443778662,0.2352653859608986,-0.8762855397882476,-0.2959180011407286,0.49509306723326424,-2.226709541054715
1784285982555235840,0.8953237533569336,7.1180219650268555,0.06175047904253006,-1.8424439430236816,0.4520374834537506,0.23423314094543457,-0.8606956601142883,1.1788066625595093,-1.138331651687622,0.18161851167678833,0.37536632176525486,0.16860148883102605,0.20304117656590132,-0.8885088763061175,-0.23642968254792188,0.4836038923529186,-2.283578618353188
1784285982565155072,0.905242919921875,4.724350929260254,-0.8328483700752258,-1.787902593612671,0.44493016600608826,0.19158083200454712,-0.8748336434364319,1.2463539838790894,-1.2692939043045044,0.22282558679580688,0.36244383450606027,0.17602768784595602,0.17775666978613983,-0.8978035352695157,-0.1927725615445338,0.47049464331625024,-2.3278675504370807
1784285982575074816,0.9151628017425537,2.832233428955078,-1.321873664855957,-1.2574336528778076,0.43274396657943726,0.16502827405929565,-0.8862833976745605,1.1930952072143555,-1.391606092453003,-0.06641429662704468,0.3533714922021534,0.17661000803331314,0.16020983768107366,-0.9045829157454633,-0.16578668443175434,0.4542181591049571,-2.358363757814009
1784285982584993792,0.925081729888916,1.5042084455490112,-1.4897871017456055,-1.2176283597946167,0.4183169901371002,0.15120483934879303,-0.8956271409988403,0.8932217359542847,-1.0210473537445068,-0.38089263439178467,0.3470724554708272,0.1730393019843092,0.14914364611480707,-0.9095901579250192,-0.15178700762454755,0.4369550353934351,-2.3787943807345178
1784285982594913024,0.9350008964538574,0.771476149559021,-1.4348604679107666,-0.8920035362243652,0.4040873944759369,0.1456960290670395,-0.9030426740646362,0.6825519800186157,-0.7512716054916382,-0.6010619401931763,0.3423920470973905,0.1677345084954579,0.1426316997291521,-0.9133942456353864,-0.1462164673085277,0.4207506492359867,-2.3930269242276334
1784285982604832768,0.9449207782745361,0.9038918614387512,-1.621168613433838,-0.1785246729850769,0.38948071002960205,0.14038294553756714,-0.9102732539176941,0.7283934354782104,-1.0017262697219849,-0.7062428593635559,0.34028750258375295,0.16178541128616544,0.13670714960460037,-0.9161556498523101,-0.14084818211687702,0.4043009823784667,-2.4014062108828855
1784285982614751744,0.9548397064208984,1.0423040390014648,-1.6323274374008179,0.29485487937927246,0.3751410245895386,0.13078869879245758,-0.9176946878433228,0.8589287996292114,-1.2951716184616089,-0.6986078023910522,0.3409872123220043,0.15630837472390283,0.1293071871419141,-0.9179188823094581,-0.13116447496927652,0.3880577473937419,-2.404423452739789
1784285982624670720,0.9647586345672607,0.9217994213104248,-1.6033120155334473,0.9476050138473511,0.36047202348709106,0.11971760541200638,-0.9250555038452148,0.8115708231925964,-1.4481935501098633,-0.46914005279541016,0.34400751267621826,0.1506536229211577,0.12155553773618616,-0.9187963316078902,-0.12000543995729374,0.371574922104663,-2.4025024902633514
1784285982634589952,0.9746778011322021,0.7846226692199707,-1.7361332178115845,1.5996617078781128,0.34687697887420654,0.10634149610996246,-0.9318625330924988,0.843354344367981,-1.2897368669509888,-0.33740925788879395,0.35029159449919145,0.145599169397041,0.11344427274612306,-0.9182738897242739,-0.1065429510343978,0.35634918785101155,-2.3935309225003962
1784285982644509696,0.9845976829528809,-0.003705770242959261,-2.1533782482147217,2.08681058883667,0.33088964223861694,0.09631488472223282,-0.9387414455413818,0.8052340149879456,-1.484574794769287,-0.33249878883361816,0.35936730053005933,0.1385918269342832,0.10687182356270718,-0.9166383690923869,-0.0964644235045256,0.3388844222474352,-2.3778099226702967
1784285982654428672,0.9945166110992432,-0.8744651675224304,-2.7815475463867188,2.8288981914520264,0.31037503480911255,0.09229043871164322,-0.9461236000061035,1.0100595951080322,-1.8012137413024902,-0.3825201988220215,0.37210797802025325,0.12805206355539572,0.1026687830938705,-0.913563121666825,-0.09242195813987167,0.31698727071381566,-2.3532173522574586
1784285982664347904,1.0044357776641846,-1.5439659357070923,-3.399282932281494,3.376995801925659,0.2842235267162323,0.09443449229001999,-0.9540959596633911,1.1638355255126953,-1.786130666732788,-0.4607752561569214,0.38852523381600107,0.11342334369869775,0.10043486591221751,-0.9088982959889311,-0.09457542013598602,0.2895274781521295,-2.319876070341544
1784285982674267648,1.0143556594848633,-1.743481159210205,-3.8034751415252686,3.7736575603485107,0.2536381483078003,0.1007135659456253,-0.9620417952537537,1.0727168321609497,-1.6154536008834839,-0.5574588775634766,0.4072607513133418,0.09581016128154939,0.09899244561896885,-0.9028618179660391,-0.10088460416415118,0.25777983292048223,-2.2810067320298444
1784285982684186880,1.0242748260498047,-2.1336309909820557,-4.23251485824585,4.155821323394775,0.2194025218486786,0.10931567847728729,-0.9694908857345581,0.971942663192749,-1.5606553554534912,-0.6494513154029846,0.42778597687658815,0.07600427581957857,0.0973544947756634,-0.8954019147245452,-0.10953457334499504,0.22255806133936828,-2.237947654985
1784285982694105856,1.034193754196167,-2.7008402347564697,-4.5022687911987305,4.29332160949707,0.1820991486310959,0.12392237782478333,-0.9754399657249451,0.8973991274833679,-1.564718246459961,-0.5436182618141174,0.449403112887543,0.05352068861792068,0.09703374942377489,-0.886429252258985,-0.12424176614236705,0.18455965564572396,-2.1916461141844144
1784285982704024832,1.0441126823425293,-3.265575647354126,-4.668379783630371,4.2921528816223145,0.1433897167444229,0.14550726115703583,-0.9789111614227295,0.7981081008911133,-1.7280267477035522,-0.4847118854522705,0.4710316853310153,0.02884815546877602,0.09855055707699055,-0.8761191187627658,-0.14602567385030552,0.14544444656889768,-2.144336038877065
1784285982713944832,1.054032802581787,-3.7729318141937256,-4.736382484436035,4.2620415687561035,0.1045081615447998,0.1741836965084076,-0.979151725769043,0.7892601490020752,-1.85222327709198,-0.29674243927001953,0.4921130332263737,0.0023402382397523652,0.10207185370579523,-0.8645234272722279,-0.1750767289458164,0.10633081316729431,-2.0972772111741707
1784285982723863808,1.0639517307281494,-4.178371906280518,-4.85286283493042,4.23284387588501,0.06627984344959259,0.20885899662971497,-0.9756971597671509,0.8023267388343811,-2.06632661819458,-0.2532457113265991,0.512494679370055,-0.025609276220982708,0.10721752086991503,-0.8515854719599748,-0.2104080846044983,0.06782655223096887,-2.0509257742439306
1784285982733782784,1.0738706588745117,-3.987154960632324,-5.288889408111572,4.361069679260254,0.027338776737451553,0.24738426506519318,-0.9685316681861877,0.8992511630058289,-2.1846706867218018,-0.24896711111068726,0.5322265605440304,-0.05525685822211609,0.11260923627514623,-0.837257853748419,-0.24997967922074757,0.028219540127834803,-2.005564384752506
1784285982743702784,1.0837907791137695,-2.961150884628296,-5.967078685760498,4.792752265930176,-0.014406786300241947,0.2801186442375183,-0.9598572850227356,1.2507349252700806,-2.1894052028656006,-0.6228148341178894,0.5530343991907702,-0.08507944197835943,0.11328216256797768,-0.821024729818292,-0.2839176843389561,-0.015008173494446038,-1.9581763337534397
1784285982753621760,1.0937097072601318,-1.7755563259124756,-6.470846652984619,5.269599437713623,-0.058984074741601944,0.3040074408054352,-0.9508419036865234,1.6348049640655518,-1.8929204940795898,-0.7741641402244568,0.5755269021087928,-0.11395383431127241,0.10767340671056905,-0.8026143233059214,-0.30889637466138575,-0.06195413521336532,-1.9070659492406128
1784285982763540736,1.1036286354064941,-0.7581835985183716,-6.531570911407471,5.981497764587402,-0.10280955582857132,0.31993526220321655,-0.9418447613716125,1.8449512720108032,-1.7549023628234863,-0.3620797395706177,0.6001483764833007,-0.1402555237588142,0.09698450058449275,-0.781501258964086,-0.3256611637906402,-0.10872716271195147,-1.849699862519726
1784285982773459968,1.1135478019714355,-0.22438354790210724,-6.218556880950928,6.644659996032715,-0.141819566488266,0.3315095901489258,-0.9327318072319031,1.7720686197280884,-1.9249238967895508,0.3299333453178406,0.626840114813104,-0.16308383400336576,0.08389141319372719,-0.7572564360471711,-0.33790321175953664,-0.15089181291883882,-1.7844775659387857
1784285982783379712,1.1234676837921143,-0.19954897463321686,-5.5809173583984375,7.0630669593811035,-0.17328956723213196,0.3435594141483307,-0.923004686832428,1.568415880203247,-2.1200180053710938,0.9358373284339905,0.654321701721292,-0.18271145931209806,0.07151347022055,-0.7303187338492284,-0.3507043824743939,-0.18558467755734204,-1.7134298886557686
1784285982793298688,1.1333866119384766,-0.6315048933029175,-4.860240459442139,7.23765754699707,-0.19589655101299286,0.3598894476890564,-0.9121974110603333,1.4545634984970093,-2.211513042449951,1.307415246963501,0.6811184087039165,-0.20006254243217977,0.06225965662638166,-0.7015529907131025,-0.36814940959387893,-0.21153945239390917,-1.6398797467308657
1784285982803217920,1.143305778503418,-1.119917631149292,-4.239791393280029,7.305505752563477,-0.2099917083978653,0.3820258677005768,-0.8999776244163513,1.5136263370513916,-2.135840654373169,1.526412010192871,0.7063169781691268,-0.21625041937943643,0.05698199784134639,-0.671643591523234,-0.39198744923411183,-0.22922870299896472,-1.5661852876125277
1784285982813137664,1.1532256603240967,-1.3805824518203735,-3.709007740020752,7.422773361206055,-0.21648383140563965,0.4083668291568756,-0.88677579164505,1.6790692806243896,-2.0808980464935303,1.6654012203216553,0.7299570355485471,-0.23150635094293298,0.054926498973861544,-0.6407422412283995,-0.42066419852721015,-0.2394413245967234,-1.4921581458636248
1784285982823056896,1.163144826889038,-1.9330542087554932,-3.1587352752685547,7.560739517211914,-0.21513894200325012,0.4378598928451538,-0.8729226589202881,1.8381705284118652,-2.1169371604919434,1.8598153591156006,0.7522473928692545,-0.2457903623468131,0.0559086569591545,-0.6087570223081867,-0.4532168630794059,-0.24164242859498966,-1.4166860902975584
1784285982832975872,1.1730637550354004,-2.638577461242676,-2.6607491970062256,7.773553848266602,-0.2057524174451828,0.4727875590324402,-0.856818437576294,1.9527006149291992,-2.1610352993011475,2.1688759326934814,0.7726911319531637,-0.26053028113232896,0.0609487619391567,-0.5756366445842136,-0.4924515527575767,-0.23567297896506675,-1.340045132351753
1784285982842894848,1.1829826831817627,-3.6388731002807617,-2.2952070236206055,8.08763313293457,-0.18800032138824463,0.5135571360588074,-0.8372066617012024,2.10514497756958,-2.3196332454681396,2.3450801372528076,0.7913686619809306,-0.2765403208956101,0.07015784218294181,-0.5406838312146067,-0.5393252191627096,-0.22089241869807713,-1.26004280875493
1784285982852814848,1.1929028034210205,-4.6287970542907715,-2.17313551902771,8.341421127319336,-0.16300010681152344,0.5605709552764893,-0.8119058609008789,2.2261104583740234,-2.3537075519561768,2.373490333557129,0.8076857525942412,-0.2951860830099048,0.08313987325288688,-0.5035838517204106,-0.5950751429420212,-0.1981284521330913,-1.175960076423933
1784285982862733824,1.2028217315673828,-5.329330921173096,-2.0551092624664307,8.553838729858398,-0.13177144527435303,0.6103265881538391,-0.7811131477355957,2.277477741241455,-2.377859115600586,2.330292224884033,0.8215352183724925,-0.3158671008303877,0.09834329041710843,-0.46436680738819336,-0.656472840008655,-0.16712348063658347,-1.085973311035813
1784285982872652800,1.2127406597137451,-5.517257213592529,-2.0212323665618896,8.657130241394043,-0.10157725214958191,0.6476910710334778,-0.7551015615463257,2.277099132537842,-2.2876598834991455,2.2669577598571777,0.8344002476612994,-0.33256635592446737,0.1088523926666568,-0.42582506367035267,-0.70455001947075,-0.13371857969248052,-0.9929850007594828
1784285982882572800,1.222660779953003,-5.0512871742248535,-2.0227715969085693,8.79500961303711,-0.060079947113990784,0.6910560727119446,-0.7202998399734497,2.2994446754455566,-2.1564035415649414,2.2067959308624268,0.844415482256444,-0.352602679761068,0.12458508390086412,-0.38355223791664345,-0.7629491542061979,-0.08321700938830741,-0.8861154708836146
1784285982892491776,1.2325797080993652,-4.4859232902526855,-1.883373737335205,8.908712387084961,-0.01221008412539959,0.7263237237930298,-0.6872442960739136,2.361529588699341,-1.9590508937835693,2.179309844970703,0.8532853835892711,-0.3697814271487583,0.1401412238459697,-0.3398913269680411,-0.8129583023156609,-0.017764861969089375,-0.7657831617255052
1784285982902410752,1.2424986362457275,-4.344152450561523,-1.7541751861572266,8.948320388793945,0.04073052853345871,0.7535592913627625,-0.6561169624328613,2.3494367599487305,-1.8818399906158447,2.159275531768799,0.8606674450581993,-0.3843500789393251,0.1556166015459575,-0.29548290672029903,-0.8534597674947021,0.061998590965199975,-0.6332240443948433
1784285982912329984,1.252417802810669,-4.790103435516357,-1.6363383531570435,8.935513496398926,0.09735345095396042,0.7757851481437683,-0.623441755771637,2.289273738861084,-1.9591500759124756,2.210203170776367,0.8654761870704666,-0.39856796886552304,0.17153046975985645,-0.25034327356812264,-0.8879584780330986,0.15490386083740795,-0.4893456532726208
1784285982922249728,1.2623376846313477,-5.5613627433776855,-1.4036294221878052,8.875572204589844,0.15722468495368958,0.7950527667999268,-0.5858083963394165,2.196809768676758,-1.9152004718780518,2.275902271270752,0.8666562618985343,-0.41422946132286653,0.18844033057277917,-0.20447760464082368,-0.9190945726621744,0.26220994482464743,-0.3330747186264248
1784285982932168704,1.27225661277771,-6.704494476318359,-1.1880910396575928,8.665849685668945,0.21978259086608887,0.8127699494361877,-0.5395374298095703,2.036595582962036,-1.7730056047439575,2.2763843536376953,0.8629973582550595,-0.43302912054161324,0.20668104145776162,-0.15812770444711724,-0.9488910914089397,0.3868296629719747,-0.1619361650701413
1784285982942087936,1.2821757793426514,-7.464157581329346,-1.1232517957687378,8.350142478942871,0.28296712040901184,0.8276167511940002,-0.48474764823913574,1.8803019523620605,-1.7481184005737305,2.2117526531219482,0.8543251754196017,-0.4549015148936389,0.22514615631099566,-0.11181425865402386,-0.9748482727126432,0.5283786148818725,0.024565693789422145
1784285982952007680,1.29209566116333,-7.3239874839782715,-1.1013649702072144,8.118889808654785,0.3457406759262085,0.8356030583381653,-0.4268853962421417,1.7795644998550415,-1.503251314163208,2.1892449855804443,0.8420745660061671,-0.47714284386327804,0.2426767588887249,-0.06597939006164105,-0.9892296282691051,0.6807571914966518,0.22108744149781273
1784285982961926912,1.3020148277282715,-6.047002792358398,-0.5167298913002014,7.658175945281982,0.40801557898521423,0.8327374458312988,-0.3742615878582001,1.5992628335952759,-1.1876721382141113,2.130258321762085,0.8286223967582693,-0.49536312628798584,0.2597779337422216,-0.022710658466549242,-0.9840336059872903,0.8285197868420895,0.4080991763153969
1784285982971845888,1.3119337558746338,-0.4060077965259552,-6.566225528717041,12.350912094116211,0.49022868275642395,0.788882315158844,-0.37059491872787476,2.483114242553711,0.5079163908958435,1.8800249099731445,0.8272176944473373,-0.4874850365950844,0.2775984264449078,0.031754841302419554,-0.908988135595815,0.9234895988874297,0.5537683729960942
1784285982981764864,1.321852684020996,-1.3198474645614624,-1.947909951210022,0.2317134141921997,0.5037908554077148,0.7774176597595215,-0.37658536434173584,6.177910804748535,6.870302677154541,4.6383957862854,0.8265373523718798,-0.4929904881968462,0.262045222866544,0.0716144892508491,-0.8905497289809381,0.9288949786072175,0.6422395072538344
1784285982991684864,1.331772804260254,-3.9111640453338623,2.5438039302825928,5.6712260246276855,0.537070095539093,0.763502299785614,-0.3586363196372986,-2.643134117126465,1.2250688076019287,2.2670531272888184,0.8192505519015822,-0.49606746924362527,0.2731280036100181,0.09025948383737516,-0.8687190361320718,0.982034125007171,0.7057453945988285
1784285983001603840,1.3416917324066162,-5.4237380027771,5.135557174682617,1.5876249074935913,0.5773200392723083,0.760389506816864,-0.2975050210952759,-2.445758819580078,1.3200547695159912,2.240940809249878,0.7992331419898364,-0.5128299241288149,0.29707398602600116,0.09989404848913637,-0.8639126219742145,1.094967344107121,0.7966351944800002
1784285983011522816,1.3516106605529785,-6.1382832527160645,3.037670850753784,0.7272270321846008,0.5948084592819214,0.7703312635421753,-0.22976674139499664,0.4236241579055786,-0.4481419324874878,0.784988284111023,0.7775091427642589,-0.5362726289182203,0.31229520452138826,0.1017986671714098,-0.8793605151470623,1.202167135995689,0.884423998829656
1784285983021442816,1.3615307807922363,-7.7634782791137695,2.1066982746124268,0.9285745024681091,0.6058552265167236,0.7788800597190857,-0.16212759912014008,3.6119182109832764,-0.05179864168167114,0.8728667497634888,0.7543905841653997,-0.56261769592828,0.3199961411957007,0.1093558579262958,-0.8928781671562036,1.3093216359510458,0.9921310977742636
1784285983031361792,1.3714497089385986,-8.076231002807617,0.9837100505828857,0.30132392048835754,0.6121544241905212,0.7854630351066589,-0.09118522703647614,3.4510931968688965,0.9868757724761963,1.1308733224868774,0.7289611233790767,-0.591595140248464,0.32314482052901056,0.11919840936205255,-0.9034438938191462,1.4229257148797962,1.1164673767251705
1784285983041280768,1.381368637084961,-5.243505001068115,-0.6631091833114624,1.483069658279419,0.6175900101661682,0.7856665849685669,-0.03619874641299248,3.1231632232666016,1.6702659130096436,1.1132556200027466,0.7075754634379327,-0.6151996055912923,0.32160546051122585,0.13204638861166607,-0.9037729189948891,1.5122504049854069,1.2275803506419296
1784285983051200000,1.3912878036499023,-3.2783443927764893,-0.7753081917762756,1.900521993637085,0.6317369937896729,0.7751443982124329,-0.007721174042671919,2.686805486679077,1.530672311782837,0.9141237735748291,0.6944090048457489,-0.626398614430443,0.3221244929012295,0.14716245864465288,-0.8869436414213606,1.5585748023600725,1.2951763947231103
1784285983061119744,1.401207685470581,-0.7510393261909485,-1.8234543800354004,0.6820899248123169,0.6411172151565552,0.7674421668052673,0.0010318432468920946,0.8695333003997803,1.589003086090088,0.9935512542724609,0.6886929026404687,-0.6309291805706725,0.3200691967414666,0.15870122441863596,-0.8748418993322494,1.572405770823138,1.329047029142043
1784285983071038720,1.4111266136169434,1.6623064279556274,-1.8918205499649048,0.5843734741210938,0.642925500869751,0.7657957077026367,-0.014276033267378807,-0.14109450578689575,1.6576509475708008,0.28318166732788086,0.6927688417391354,-0.6276118592763118,0.31458756714190794,0.16495274562258588,-0.8722777640696984,1.5485951741156037,1.3229040121173332
1784285983080957952,1.4210457801818848,2.581017017364502,0.2758038341999054,-0.33672332763671875,0.6475445628166199,0.7613162994384766,-0.03291536867618561,-1.0372388362884521,0.9599360823631287,0.06860566139221191,0.6994035559896065,-0.6190673865854742,0.31669841543988775,0.165203815066572,-0.8653408219898361,1.520008991263985,1.2912089053130162
1784285983090877696,1.4309656620025635,3.7709054946899414,-0.48411160707473755,-0.8550636768341064,0.6415122151374817,0.7648608088493347,-0.05873493850231171,-0.775957465171814,1.1643993854522705,0.0975228026509285,0.71030730603002,-0.608627003993068,0.3165528400145886,0.1575781445668556,-0.8708252142783509,1.479493871393461,1.239585846642733
1784285983100796928,1.4408848285675049,3.2996644973754883,-1.1889444589614868,-1.2800500392913818,0.6335456371307373,0.7683699727058411,-0.09070484340190887,0.6086570024490356,1.7459274530410767,0.24771779775619507,0.7228540455184727,-0.5970036842623666,0.31342332321475097,0.15111048082157932,-0.8762903269568596,1.4285925147528098,1.1838662311785006
1784285983110715904,1.4508037567138672,3.787999391555786,-0.8255581855773926,-1.5328381061553955,0.6207190752029419,0.7738933563232422,-0.12568451464176178,0.18445664644241333,1.0617082118988037,0.2702615261077881,0.7364093872928741,-0.5853059338761284,0.3075300142899619,0.1433294088218541,-0.8849658786753595,1.371015269069209,1.123815921222019
1784285983120634880,1.4607226848602295,2.196324348449707,-0.15066145360469818,-1.8867915868759155,0.6072344183921814,0.7797236442565918,-0.15263523161411285,-0.014323651790618896,0.7505955696105957,0.05708467960357666,0.7472764179253356,-0.5759858458534127,0.3031875443614008,0.13377466705652874,-0.894224335426933,1.3245368511336593,1.069868850377707
1784285983130554880,1.4706428050994873,0.7038691639900208,-0.42510873079299927,-1.8322609663009644,0.5917046070098877,0.7890400886535645,-0.16523170471191406,0.3777472972869873,0.9390636682510376,0.14978979527950287,0.752911590026122,-0.5735445563871053,0.29737314670090886,0.12545950534764394,-0.9092449598729192,1.2984860643791503,1.0407154826044633
1784285983140473856,1.4805617332458496,-0.5620200037956238,-0.3334811329841614,-1.4144032001495361,0.5771487951278687,0.7990887761116028,-0.16839417815208435,0.7869412302970886,0.7324817776679993,-0.11256588995456696,0.7549025892828076,-0.5754030432362461,0.29105711805296003,0.11966327564492789,-0.925778082134345,1.2869078071972484,1.0306436035926239
1784285983150392832,1.490480661392212,-0.9191078543663025,-0.25290507078170776,-1.447151780128479,0.565097987651825,0.8085429072380066,-0.1640809029340744,0.6930501461029053,0.8441211581230164,-0.09019152820110321,0.7539412089930959,-0.5803090636081222,0.2849577835338674,0.11667503573344691,-0.941671690934729,1.2882084123852926,1.0372827156620072
1784285983160312832,1.5004007816314697,-1.1524181365966797,-0.17061813175678253,-1.2325043678283691,0.553386926651001,0.8183368444442749,-0.15520209074020386,0.10876816511154175,0.8340679407119751,-0.20536307990550995,0.7514421552396876,-0.5867998015500564,0.2794010562566417,0.11373507390360701,-0.9585112198280324,1.2973624654648863,1.051028234578547
1784285983170231808,1.510319709777832,0.5465444326400757,-0.3445662260055542,-1.3080494403839111,0.5425015091896057,0.8257666230201721,-0.15427802503108978,0.2143039107322693,0.9731225967407227,-0.4544713497161865,0.751676296090307,-0.5894923231529422,0.27451737426901746,0.11009905218758044,-0.9715600534063481,1.2937282171714721,1.0497589121959603
1784285983180150784,1.5202386379241943,2.3252768516540527,-0.6748062372207642,-1.4064892530441284,0.5299541354179382,0.8311358690261841,-0.16840986907482147,0.26959115266799927,0.8824566602706909,-0.6474775671958923,0.7571674774744859,-0.5859621591898221,0.2691531345548148,0.10441470899267007,-0.9811472852023759,1.263106665226293,1.019020438619461
1784285983190070016,1.5301578044891357,4.915641784667969,-1.1277577877044678,-1.3677024841308594,0.5170774459838867,0.8320361971855164,-0.2008647620677948,0.003338754177093506,0.7320353984832764,-0.5750599503517151,0.7688355594375019,-0.5742770790034023,0.2641466594415786,0.09656207749599521,-0.9827682755339326,1.2002762178947413,0.9520126923528905
1784285983199989760,1.5400776863098145,5.456186771392822,-1.0946365594863892,-1.4070390462875366,0.5011817216873169,0.8285489678382874,-0.24964715540409088,0.03646177053451538,1.0233187675476074,-1.1037921905517578,0.7856903973096396,-0.5556990867525679,0.2576333608597894,0.08668503890538462,-0.9765111585765008,1.1086562149462005,0.8551403093207255
1784285983209908736,1.5499966144561768,5.691937446594238,-1.206780195236206,-1.0563350915908813,0.4875364303588867,0.8192760944366455,-0.301819384098053,0.15432453155517578,0.525892972946167,-0.558349072933197,0.8029624699925265,-0.5347252003585069,0.2513150702440002,0.07849198798604948,-0.9601474001712075,1.016472331302816,0.7595049518959756
1784285983219827968,1.5599157810211182,5.74153995513916,-1.1423945426940918,-1.1793529987335205,0.4723888337612152,0.8059871792793274,-0.3566981852054596,-0.2565380036830902,0.8364841341972351,-0.9733036756515503,0.8206845267550874,-0.5117409128624447,0.2444834373909161,0.06946999442803461,-0.9373412883028327,0.9240427431103886,0.6628389821573561
1784285983229747712,1.5698356628417969,5.709537506103516,-1.5747555494308472,-1.2892533540725708,0.45807722210884094,0.7902153134346008,-0.40709346532821655,-0.02756577730178833,1.0029823780059814,-0.739802896976471,0.8365175395621075,-0.48981223799648893,0.2377755952495788,0.06152390218539278,-0.9111602251889461,0.8442592213449476,0.5800336998137251
1784285983239666944,1.5797548294067383,5.8678178787231445,-1.303625226020813,-0.7145372629165649,0.4396800696849823,0.7726866602897644,-0.4578610956668854,-0.3915996551513672,0.1447480320930481,-0.5362489819526672,0.8521829842506732,-0.4673827200517467,0.2293966880339559,0.05210309106749676,-0.8830626770362534,0.765144450176952,0.49802902425489953
1784285983249585920,1.5896737575531006,6.545736312866211,-1.2275464534759521,-0.3769370913505554,0.42761409282684326,0.745293915271759,-0.5115497708320618,0.12681400775909424,0.35825222730636597,-0.35997122526168823,0.8681521891644731,-0.44097911088637176,0.2230752009349502,0.045679761311995026,-0.8409755623395169,0.6962622211686835,0.4268905099175247
1784285983259504896,1.599592685699463,6.703474044799805,-1.1822830438613892,0.20425046980381012,0.417496919631958,0.7121908068656921,-0.5643408298492432,-0.05482599139213562,0.6676614880561829,0.058283090591430664,0.8835165340915305,-0.41280577639426713,0.21776360709052084,0.03960871665604347,-0.7926141261348109,0.6369383148102028,0.3637874309500291
1784285983269424896,1.6095128059387207,5.946244239807129,-1.0558364391326904,0.027825895696878433,0.4049052298069,0.6766629815101624,-0.6149625182151794,-0.14056196808815002,0.26066917181015015,0.2503843307495117,0.8979402347775389,-0.3848625032790424,0.21071207943161765,0.034416854251529544,-0.7432209216592743,0.5822734165811732,0.30912506790765804
1784285983279343872,1.619431734085083,4.752495288848877,-0.5788275003433228,-0.25834381580352783,0.39151716232299805,0.6468740105628967,-0.6544221043586731,-0.5122294425964355,0.058127760887145996,0.4461395740509033,0.9090741140008897,-0.3621188081530846,0.20410518073808112,0.028200277764271472,-0.703478153643761,0.5391420504302258,0.26413288474080354
1784285983289262848,1.6293506622314453,3.017446517944336,-0.4122702181339264,0.5503085851669312,0.38604918122291565,0.6222727298736572,-0.6809865832328796,-0.38336366415023804,-0.17746376991271973,0.45190632343292236,0.9164363406872135,-0.34504888082671686,0.2011168546512109,0.025253815432186216,-0.6716426988458359,0.515723284588017,0.23868975561975825
1784285983299182848,1.6392707824707031,1.756457805633545,-0.4673328101634979,-0.17480547726154327,0.3814358115196228,0.6064488291740417,-0.6976578235626221,0.005023568868637085,-0.05400443077087402,0.20920872688293457,0.9210096086133989,-0.3343740738580963,0.19840630802178352,0.023876798788366023,-0.6515867820546363,0.5003350710573944,0.22405631941398665
1784285983309101824,1.6491897106170654,2.280653476715088,-0.4786304533481598,-0.2537943124771118,0.3753790855407715,0.5944082736968994,-0.7111746668815613,0.4789299964904785,0.31355077028274536,0.007088363170623779,0.9247296597138926,-0.3259397101137094,0.19538670890936885,0.021506007010821403,-0.6365296011901846,0.4856626760266613,0.20937349793646326
1784285983319020800,1.6591086387634277,2.5099399089813232,-0.4898926913738251,-0.195861354470253,0.3693680167198181,0.5786042213439941,-0.7271757125854492,0.9063735008239746,0.26435238122940063,0.04338359832763672,0.9291124359992693,-0.31518497547075286,0.19253722018392821,0.018386948831376343,-0.617016309809022,0.4699864172244885,0.19187546251482934
1784285983328940032,1.6690278053283691,2.738842248916626,-0.43528109788894653,-0.1091187447309494,0.3618638813495636,0.5619238018989563,-0.7438388466835022,0.9421675205230713,0.3187219500541687,0.3405032753944397,0.9336364451686711,-0.30408056461796407,0.18872093723573452,0.015572165776649473,-0.5967096845935644,0.452774486476725,0.17479115662294165
1784285983338859776,1.6789476871490479,3.706047296524048,-0.5944111943244934,0.19977359473705292,0.35592120885849,0.5382473468780518,-0.7639436721801758,0.9202781319618225,-0.09165304899215698,0.3335084915161133,0.9390451116869336,-0.2891397037311743,0.18554352326155438,0.012889497645183528,-0.5683561070750587,0.4359972562344671,0.15667445402167163
1784285983348778752,1.6888666152954102,4.347572326660156,-0.7060684561729431,0.7367952466011047,0.35111138224601746,0.5057687163352966,-0.7879840135574341,0.7715845108032227,-0.22406095266342163,0.5946551561355591,0.9454424220808365,-0.26968248235960884,0.18242627876259876,0.01142877710023498,-0.530272804538666,0.41917370902676865,0.13956138218310735
1784285983358697984,1.6987857818603516,2.4366376399993896,-0.6226412653923035,0.4872745871543884,0.34728026390075684,0.47650256752967834,-0.8076767325401306,0.6065924167633057,-0.22509875893592834,0.6589645743370056,0.9506264186114022,-0.2529194901942332,0.17942511235409947,0.012153616809123115,-0.4966723138457728,0.4060764148089793,0.12988123740047794
1784285983368616704,1.7087047100067139,0.17608974874019623,-0.14140163362026215,0.5620987415313721,0.34557709097862244,0.46480926871299744,-0.8151863813400269,-0.08071503043174744,-0.7176321744918823,0.49389731884002686,0.9525798435944921,-0.2465131226541682,0.17787097308169073,0.013598617590057883,-0.48341917921438055,0.400958918755248,0.12865961495038408
1784285983378536960,1.7186248302459717,-1.1391651630401611,-0.6303627490997314,0.29882556200027466,0.34432944655418396,0.4688989818096161,-0.8133701682090759,0.04241982102394104,-0.8222619891166687,0.4964298605918884,0.9520473018341339,-0.2494194480699713,0.1763656721450298,0.017064692132633435,-0.48804380460370295,0.4004609847733004,0.13682115705744244
1784285983388455936,1.728543758392334,-0.9590395092964172,-0.5950817465782166,0.2930896580219269,0.3411570191383362,0.47654563188552856,-0.810256838798523,0.04646199941635132,-0.20284873247146606,0.18034350872039795,0.9511705029251678,-0.2541773982419165,0.17396958474791438,0.020079551453588265,-0.4967212864020161,0.39851848799201917,0.144547036328153
1784285983398374912,1.7384626865386963,-0.10867299884557724,-0.42823705077171326,-0.15498532354831696,0.3375302255153656,0.4815143346786499,-0.8088369965553284,0.0386599600315094,0.5755687952041626,-0.01916593313217163,0.9507678172069086,-0.25709318252881963,0.17171082320354789,0.021424115049303194,-0.5023817317573642,0.39533334557609734,0.1477580362689029
1784285983408294912,1.748382806777954,0.3820517063140869,-0.5795032978057861,-0.14810983836650848,0.33331817388534546,0.4811010956764221,-0.8108271956443787,0.10940030217170715,0.4882287383079529,-0.22014814615249634,0.9513040944669579,-0.2565784051087848,0.16956981058046847,0.02083822660354205,-0.5019102972687993,0.3900249842717161,0.14499009601914756
1784285983418213888,1.7583017349243164,1.0122319459915161,-0.5639397501945496,-0.1903250515460968,0.3281620144844055,0.47667986154556274,-0.8155280947685242,0.24416464567184448,0.10054489970207214,-0.31943589448928833,0.9525566884967851,-0.25371522356904663,0.16692676419733768,0.019998015320305155,-0.4968739782165221,0.3825667833469796,0.1401528704619755
1784285983428132864,1.7682206630706787,1.2987598180770874,-0.5492356419563293,-0.21369002759456635,0.3225192129611969,0.46780022978782654,-0.8228877782821655,0.3376217782497406,-0.08449944853782654,-0.2698551416397095,0.9545083382267263,-0.24829794303338748,0.16402510454230232,0.01891386299630307,-0.48680022518866717,0.37353523012788825,0.13340795325193192
1784285983438051840,1.7781398296356201,1.6597152948379517,-0.7558673024177551,-0.02845735102891922,0.3165976107120514,0.45654627680778503,-0.8314634561538696,0.4329751133918762,-0.15175196528434753,-0.14425981044769287,0.9567716261060607,-0.241595343898964,0.16093465849455957,0.017885677495928152,-0.47410943087742174,0.36382102864068894,0.12620549104623063
1784285983447971840,1.7880597114562988,1.1162288188934326,-0.7475736737251282,-0.3430840075016022,0.30912747979164124,0.4452740252017975,-0.8403399586677551,0.40766939520835876,-0.22919431328773499,-0.14725464582443237,0.9591061789128225,-0.2348955165618724,0.15701626901184865,0.01689457827645108,-0.46148028747776604,0.3524963039484435,0.11885557689551753
1784285983457890816,1.7979786396026611,0.6903035044670105,-0.5402952432632446,-0.24407702684402466,0.30200859904289246,0.4381237030029297,-0.8466631174087524,0.19657230377197266,-0.10317802429199219,0.05685293674468994,0.9607823112706912,-0.23042208448350052,0.153538579510528,0.015133765116769731,-0.45351030553991156,0.3426351797681622,0.11129450921253008
1784285983467809792,1.8078978061676025,-0.19989538192749023,-0.5421410799026489,-0.5105142593383789,0.2950352430343628,0.4383496642112732,-0.8490016460418701,0.2985011041164398,-0.1330365538597107,0.13421893119812012,0.9614122683156524,-0.23010979928144112,0.15016210446094613,0.013688845817914956,-0.4537617176459331,0.3344534623262232,0.10637351568936669
1784285983477729792,1.8178176879882812,-0.627282440662384,-0.40557876229286194,-0.288085401058197,0.288644403219223,0.4426790177822113,-0.8489521145820618,0.3018249273300171,-0.1600709855556488,0.11874276399612427,0.9614140723861978,-0.2321527357217107,0.14706815541405988,0.012615888951720167,-0.4585841908315176,0.3277392358808548,0.1033900585131731
1784285983487648768,1.8277366161346436,-1.219037652015686,-0.44862982630729675,-0.4081912934780121,0.28305718302726746,0.45168834924697876,-0.8460829257965088,0.25817206501960754,-0.12403637170791626,0.1691725254058838,0.9606739819281027,-0.2369109511244876,0.14433208303271938,0.01212488515416251,-0.46865683477754105,0.32284531930239135,0.10294604408570442
1784285983497568000,1.837655782699585,-1.295374870300293,-0.383097380399704,-0.3101387619972229,0.27733519673347473,0.4641094505786896,-0.841241717338562,0.21668335795402527,-0.16862300038337708,0.2748812437057495,0.9594196993765118,-0.243582946607497,0.14158563271604893,0.011608184229219635,-0.4826289592618334,0.31845320500584057,0.10319980775539711
1784285983507486720,1.8475747108459473,-0.8008097410202026,-0.3659612536430359,-0.3627902567386627,0.2723903954029083,0.4740796387195587,-0.837288498878479,0.2999362647533417,0.002620220184326172,0.2780691385269165,0.9583921880877612,-0.24897859108571818,0.1391596728009974,0.011348987245324899,-0.4939184354940413,0.31452530099550097,0.1035934584133074
1784285983517406976,1.857494831085205,-0.12471694499254227,-0.5643718838691711,-0.38931941986083984,0.26609405875205994,0.4793104827404022,-0.8363345265388489,0.2925606966018677,0.10032513737678528,0.07919341325759888,0.9581553082692524,-0.25158335078144245,0.13615633907372077,0.01028729338352081,-0.49986890253402894,0.3080393366114811,0.10069242186990983
1784285983527325952,1.8674137592315674,0.660132884979248,-0.5413856506347656,-0.4712582230567932,0.2594453990459442,0.47850480675697327,-0.8388809561729431,0.2887113392353058,0.15830546617507935,-0.19302517175674438,0.958832864112881,-0.2507644072437888,0.1329539200735334,0.008941083010416438,-0.4989511305943302,0.2999446269655738,0.09561043421378007
1784285983537244672,1.8773326873779297,1.175095796585083,-0.7563347220420837,-0.5217384099960327,0.2519751191139221,0.47187164425849915,-0.8448938727378845,0.279045969247818,0.33264800906181335,-0.355347216129303,0.9604160730186995,-0.2465925122476887,0.12940321005969768,0.00692089451483156,-0.4914124309609909,0.2898347860287194,0.08757528393475235
1784285983547164928,1.8872528076171875,1.5153292417526245,-0.7226374745368958,-0.6469839811325073,0.24265910685062408,0.4617499113082886,-0.8531726598739624,0.3642592132091522,0.3251610994338989,-0.2911449670791626,0.9625850130770289,-0.24037624832809296,0.12503169665570946,0.004059955324699059,-0.47996699731437603,0.2771023625693031,0.07665297485373558
1784285983557083904,1.8971717357635498,1.1923214197158813,-0.6364251971244812,-0.5172538757324219,0.23411482572555542,0.4521105885505676,-0.8606894612312317,0.2199104279279709,0.10071533918380737,-0.1389138102531433,0.9645429359112861,-0.2345319087411137,0.12103744601805372,0.0013285876010066516,-0.46913013932500963,0.26558288929805174,0.06657358199527852
1784285983567002880,1.907090663909912,1.0570664405822754,-0.6738148927688599,-0.7939459085464478,0.22524599730968475,0.44465896487236023,-0.8669155836105347,0.22980162501335144,0.06281784176826477,0.009768366813659668,0.9661542124927791,-0.2298820808698815,0.11703176201127566,-0.0019476721087516814,-0.46079347301779633,0.25420375043079063,0.05589994610640875
1784285983576921856,1.9170098304748535,0.6208588480949402,-0.565265417098999,-0.6501902341842651,0.21667461097240448,0.4389418661594391,-0.8719989657402039,0.24459856748580933,0.1355820596218109,0.06195563077926636,0.9674575773972541,-0.22626381764565207,0.11316009823901785,-0.005039641626238764,-0.4544206832447776,0.24354790082375946,0.04615559444844791
1784285983586841856,1.9269297122955322,0.8622453212738037,-0.44199222326278687,-0.4591137170791626,0.2097845822572708,0.4344695806503296,-0.8759147524833679,0.2090386599302292,0.023141473531723022,0.20732039213180542,0.9684538588885448,-0.22347258288435842,0.11001200824599403,-0.007380153028892214,-0.44944928828794656,0.23507540569673074,0.03872976879143531
1784285983596760832,1.9368486404418945,1.0494041442871094,-0.5799837112426758,-0.7785863876342773,0.2018280327320099,0.4276619255542755,-0.8811190128326416,0.29241943359375,0.1700553596019745,0.0356142520904541,0.9697676925544476,-0.2193461576489669,0.10643196745484394,-0.010486910389100794,-0.4419046418878779,0.22517427019516714,0.029155610667811617
1784285983606679808,1.946767807006836,1.7846735715866089,-0.5052330493927002,-0.5638183951377869,0.19372932612895966,0.4174492061138153,-0.887809157371521,0.12554557621479034,0.2208106815814972,0.005866408348083496,0.9714486257266808,-0.21339312848751235,0.10275601371266745,-0.01385951410114642,-0.43063643948891783,0.21484283059252302,0.018629049340463614
1784285983616600832,1.956688642501831,2.554058074951172,-0.4627264738082886,-0.35846206545829773,0.1873229444026947,0.3986998200416565,-0.8977463841438293,0.2027985155582428,0.1400575041770935,-0.11473530530929565,0.9739538373291353,-0.20294657726284102,0.09969701252810427,-0.01694443108088129,-0.41009866493604535,0.205707578697084,0.00813475130755149
1784285983626519808,1.9666075706481934,2.4834673404693604,-0.4220743775367737,-0.42512285709381104,0.1808604598045349,0.37680497765541077,-0.9084643721580505,0.2552052140235901,0.03325971961021423,-0.04319578409194946,0.976645629054273,-0.19094331496076936,0.09648041755518061,-0.019885227870725795,-0.38634460867406645,0.19651435517856022,-0.002155972938968264
1784285983636438528,1.9765264987945557,2.0877726078033447,-0.2838505804538727,-0.08501679450273514,0.17628882825374603,0.3571811616420746,-0.917248010635376,0.19865013659000397,-0.3397708833217621,0.12817025184631348,0.9788519602505656,-0.18035956595611694,0.09405547077766824,-0.021745276302354448,-0.36524822224151215,0.18987787660844188,-0.009253750707496112
1784285983646357760,1.986445665359497,1.4998527765274048,-0.35572558641433716,-0.018579453229904175,0.17247433960437775,0.34155240654945374,-0.9239017963409424,0.24674563109874725,-0.44726529717445374,0.15076947212219238,0.9805247659756661,-0.17202500135987162,0.09195916984834429,-0.02285174493885432,-0.34856813701554634,0.1845560500496769,-0.014018305059632554
1784285983656277760,1.9963655471801758,1.0244426727294922,-0.44689562916755676,-0.007646510377526283,0.16834107041358948,0.3298569619655609,-0.9289002418518066,0.3409362733364105,-0.3940964639186859,0.09050607681274414,0.9817912798856132,-0.16587350558172423,0.08964293818252969,-0.023150900437434365,-0.33615204237934243,0.17928040794826078,-0.016652689756490303
1784285983666196480,2.006284475326538,0.6495363116264343,-0.22859950363636017,0.23383721709251404,0.16548442840576172,0.3217616379261017,-0.9322469234466553,0.1894807517528534,-0.22164872288703918,0.15476590394973755,0.9826550310427351,-0.16169471007913633,0.08792810358564537,-0.022640050892624906,-0.3275894789587057,0.17568137029708886,-0.016962526723383605
1784285983676115712,2.0162036418914795,0.5894356369972229,-0.40364590287208557,0.24023498594760895,0.16334310173988342,0.31603971123695374,-0.9345790147781372,0.19993814826011658,-0.11204496026039124,0.2146693468093872,0.983269430026324,-0.15879839455415679,0.08656536524004683,-0.021697479754946625,-0.3215523370549117,0.1730294802092697,-0.015996592229260975
1784285983686035712,2.026123523712158,0.4328172206878662,-0.3463298976421356,0.24673603475093842,0.1604968160390854,0.31073832511901855,-0.9368470907211304,0.2892559766769409,-0.060814619064331055,0.19568192958831787,0.9838709842061004,-0.15614641488493633,0.08482190563030394,-0.020528181723948713,-0.3159697211503962,0.16966883621990725,-0.014629619878371043
1784285983695954688,2.0360424518585205,0.3659912645816803,-0.11774881929159164,0.16877342760562897,0.15938034653663635,0.30697110295295715,-0.9382785558700562,0.14289626479148865,-0.09446194767951965,0.25753819942474365,0.9842534029436663,-0.1542669574206131,0.08403825716809134,-0.019607360559074277,-0.3120088263628308,0.16825859273124394,-0.013311646155641697
1784285983705873664,2.045961618423462,0.11668848246335983,-0.20057551562786102,0.019365565851330757,0.15802861750125885,0.3045997619628906,-0.9392794966697693,0.23245905339717865,-0.041172027587890625,0.1935977339744568,0.9845188942630039,-0.15308599170577925,0.08321622932553573,-0.019032693481387065,-0.3095181934834491,0.16668349002988989,-0.01259651277336283
1784285983715792640,2.055880546569824,-0.41052690148353577,-0.0739089697599411,0.12475652992725372,0.15681855380535126,0.30564603209495544,-0.9391424059867859,0.26314908266067505,-0.053677648305892944,0.1985265612602234,0.9844917081141255,-0.15366781415237113,0.08255304982552475,-0.018634454670409483,-0.31061686520046305,0.16545410412671382,-0.011888633527001409
1784285983725712896,2.065800666809082,-0.6580464839935303,-0.11709611117839813,0.07007943838834763,0.15604254603385925,0.310436874628067,-0.9376991391181946,0.25319817662239075,-0.13810411095619202,0.18707352876663208,0.98413792790029,-0.15622258338358794,0.08212756802494531,-0.017946050116228608,-0.31565257368070204,0.16489897851833646,-0.010164783173960057
1784285983735631616,2.0757195949554443,-0.5781239867210388,-0.30846282839775085,0.025368930771946907,0.1544215828180313,0.31621024012565613,-0.9360368847846985,0.2512943744659424,0.006070613861083984,0.061693012714385986,0.9837291926370183,-0.1593004652579429,0.08127065370352723,-0.01718466244058044,-0.3217320947982066,0.16350113157989557,-0.00834550953936722
1784285983745550592,2.0856385231018066,-0.348957896232605,-0.2221234291791916,0.0627322793006897,0.15238414704799652,0.32023361325263977,-0.9350023865699768,0.22893299162387848,0.08307144045829773,-0.04780095815658569,0.9834773247013021,-0.16145816629164023,0.08018762924134132,-0.016540775522221243,-0.3259760858035652,0.16155686431845181,-0.007010286003765472
1784285983755470848,2.0955586433410645,-0.12228994071483612,-0.20928695797920227,0.10523536801338196,0.1506527066230774,0.3223448693752289,-0.9345573782920837,0.1492740511894226,0.10746470093727112,-0.09065008163452148,0.9833753965947445,-0.16261948059088616,0.07922248126331667,-0.01585964399505614,-0.32820554073911545,0.15982722732306326,-0.005731704816526153
1784285983765389568,2.1054775714874268,0.1736261397600174,-0.32594141364097595,0.029389603063464165,0.14845815300941467,0.32190290093421936,-0.9350607991218567,0.19784006476402283,0.17147478461265564,-0.08855980634689331,0.9835122061050177,-0.16243580806344546,0.07800131777544249,-0.01530555045155155,-0.3277386893461859,0.1574542254530136,-0.005033940438671046
1784285983775308544,2.115396499633789,0.3075036406517029,-0.2607336640357971,-0.055835746228694916,0.145851269364357,0.31959933042526245,-0.936260461807251,0.1884535253047943,0.15160730481147766,-0.06167954206466675,0.9838188551806255,-0.16124474270434527,0.0766152191905959,-0.015193438272065415,-0.32530661371155994,0.1545385488520212,-0.005474740277045762
1784285983785227776,2.1253156661987305,0.2730433940887451,-0.23112277686595917,-0.05184206739068031,0.14346489310264587,0.31707900762557983,-0.9374853372573853,0.17187324166297913,0.14372116327285767,0.011170029640197754,0.9841271586865851,-0.1599187993450656,0.07538776854187904,-0.015374717345090012,-0.3226479665691217,0.15185352042974373,-0.006484141368813743
1784285983795147776,2.135235548019409,0.08061730116605759,-0.1078978180885315,-0.06263289600610733,0.14171767234802246,0.31550225615501404,-0.9382827281951904,0.17648911476135254,0.015430361032485962,0.03418421745300293,0.9843267740430486,-0.15908500487757107,0.07450239926527835,-0.015563187539064313,-0.3209858896084785,0.14990633703069609,-0.007307382781930601
1784285983805066496,2.1451544761657715,0.0546506829559803,-0.14330056309700012,0.00975235365331173,0.1404009461402893,0.3150118887424469,-0.9386453628540039,0.1849469393491745,-0.0716799795627594,0.022644996643066406,0.9844146056050032,-0.1588114463454949,0.07386640362399366,-0.01583446118619061,-0.3204691755655626,0.14847746915702356,-0.008127566684061118
1784285983814985728,2.155073642730713,-0.05025143176317215,-0.08296584337949753,-0.05952189490199089,0.13913212716579437,0.3156493604183197,-0.9386201500892639,0.22987116873264313,-0.0468200147151947,-0.033624112606048584,0.9844068947417032,-0.1591409807402339,0.07323992408558515,-0.01590930797940323,-0.3211409126772691,0.14715893400820587,-0.008443267840442515
1784285983824905728,2.1649935245513916,-0.09529108554124832,-0.14916643500328064,-0.01600690558552742,0.1377604752779007,0.31658437848091125,-0.9385075569152832,0.256419837474823,-0.08274343609809875,-0.1119532585144043,0.9843798527176189,-0.15963841190003208,0.07253831423788458,-0.01581710578177164,-0.322126466466422,0.14574593638801797,-0.008413105531145259
1784285983834824448,2.174912452697754,-0.032147400081157684,-0.1863502860069275,0.08112623542547226,0.136354461312294,0.316938191652298,-0.9385934472084045,0.247892364859581,-0.024533987045288086,-0.14233916997909546,0.9844057828342866,-0.15984473436961477,0.07178394560464924,-0.015560732387317804,-0.3224994934907516,0.1442660575431764,-0.008105533658780213
1784285983844743680,2.1848316192626953,0.19338053464889526,-0.13929569721221924,0.018882036209106445,0.13515187799930573,0.31626421213150024,-0.9389946460723877,0.24062632024288177,0.07288071513175964,-0.1231696605682373,0.9845139358435517,-0.15952518740468383,0.07109428333262746,-0.015153533186573007,-0.32178895879997876,0.14295078696645835,-0.007542275603501145
1784285983854662656,2.1947505474090576,0.35897770524024963,-0.23194056749343872,0.07534275203943253,0.1338442713022232,0.3136274516582489,-0.9400657415390015,0.2371731847524643,0.042634785175323486,-0.14834368228912354,0.9847889828050369,-0.1581675451783726,0.07035744211782112,-0.014953113870303738,-0.31901081511858037,0.14142704251910398,-0.007577161829804056
1784285983864582656,2.2046706676483154,0.445892870426178,-0.2716788947582245,0.04310092329978943,0.1317148059606552,0.3098737299442291,-0.9416100382804871,0.2671346664428711,0.004548877477645874,-0.10549384355545044,0.9851856990116585,-0.1562387650091265,0.06916949851727137,-0.014640408260099458,-0.31506022589791666,0.13898073377269596,-0.007607663922313012
1784285983874501632,2.2145895957946777,0.3245394825935364,-0.2893618047237396,0.09661658108234406,0.1295638084411621,0.3064705431461334,-0.9430212378501892,0.1720871925354004,-0.03393331170082092,-0.09881836175918579,0.9855491808033016,-0.15449854531490476,0.06796756414410136,-0.014262095283549228,-0.31148293501169766,0.13653741159399607,-0.007469721124722745
1784285983884420608,2.22450852394104,0.37633609771728516,-0.3187505900859833,0.0032221823930740356,0.12702080607414246,0.3029707670211792,-0.9444969296455383,0.17810919880867004,-0.0291060209274292,-0.08570021390914917,0.9859282832783558,-0.15270734415214945,0.06657333365492143,-0.01392287928717098,-0.3078083927142805,0.13368306261078264,-0.007472732848844096
1784285983894340864,2.234428644180298,0.4134661555290222,-0.3335176706314087,0.09761326014995575,0.12448856979608536,0.299300879240036,-0.9460029602050781,0.17192867398262024,0.03291347622871399,-0.07001876831054688,0.9863148360772445,-0.15082940642879655,0.06518450165165827,-0.013579290485536393,-0.30395986266664654,0.13084246095510924,-0.007465736624846326
1784285983904259584,2.24434757232666,0.45601680874824524,-0.34109437465667725,0.0736437514424324,0.12222160398960114,0.2951184809207916,-0.9476112127304077,0.16743598878383636,-0.008512645959854126,-0.08035814762115479,0.9867296943670132,-0.14869908762220066,0.06389824920229259,-0.013043099110076275,-0.2995795119380156,0.12827049085494005,-0.007050901965769957
1784285983914178560,2.2542665004730225,0.5419763922691345,-0.3666306734085083,0.049769945442676544,0.11940200626850128,0.2902278006076813,-0.949479341506958,0.20319931209087372,0.003976941108703613,-0.12086367607116699,0.9872091958180322,-0.14620119958414005,0.06233414536631185,-0.01255693564782249,-0.2944648637858315,0.1250985506460718,-0.0068613725527809045
1784285983924098816,2.2641866207122803,0.3218972980976105,-0.3898249566555023,0.10474104434251785,0.11646639555692673,0.2857629358768463,-0.9511966705322266,0.20476162433624268,-0.0835534930229187,-0.13242143392562866,0.9876502571459808,-0.14392701930440027,0.06071799592330488,-0.012054352220152578,-0.2898024802845977,0.12183553067657255,-0.00660867334075312
1784285983934017536,2.2741055488586426,0.16121692955493927,-0.46865200996398926,0.11404753476381302,0.1137758120894432,0.2833227515220642,-0.952251672744751,0.2021574079990387,-0.1959814727306366,-0.07269638776779175,0.9879271667120395,-0.14272054124964823,0.05920305631830144,-0.011213539269305312,-0.28725706443912624,0.11891708238008765,-0.0054819885864002375
1784285983943936512,2.284024477005005,0.134059876203537,-0.41156554222106934,0.09924408793449402,0.1109529361128807,0.2820422947406769,-0.9529646039009094,0.1723569929599762,-0.16741827130317688,-0.08239001035690308,0.9881184110383158,-0.1421212376854519,0.057612828457525654,-0.010215412759455032,-0.28592216786393576,0.11590737275276075,-0.0039733834380727764
1784285983953855744,2.2939436435699463,0.21717694401741028,-0.4365799129009247,0.14811058342456818,0.10834352672100067,0.28026413917541504,-0.9537891149520874,0.11667782813310623,-0.08583664894104004,-0.1358410120010376,0.9883359914206384,-0.14125757774067102,0.056140307398010965,-0.009300192434622873,-0.28406925317729653,0.11310792145293538,-0.0026282787863640966
1784285983963775744,2.303863525390625,0.19593824446201324,-0.40131860971450806,0.1019311174750328,0.10597264021635056,0.2782035171985626,-0.9546583890914917,0.16145288944244385,-0.052648067474365234,-0.1553117036819458,0.9885646727921071,-0.1402502512559173,0.05477847795015569,-0.008311908493888938,-0.28192327986299387,0.11055321961164424,-0.0011122365337371816
1784285983973694464,2.3137824535369873,0.07449954748153687,-0.456587016582489,0.2650529742240906,0.10344179719686508,0.2764604389667511,-0.9554420113563538,0.15795651078224182,-0.07882863283157349,-0.13986438512802124,0.9887724320685106,-0.1394185459905456,0.05330545140076022,-0.007072664226773932,-0.2801090528003699,0.1078458506267207,0.0009125944612934153
1784285983983613696,2.3237016201019287,-0.08339181542396545,-0.5459342002868652,0.3071040213108063,0.10018507391214371,0.27580496668815613,-0.9559783339500427,0.2509196698665619,-0.08085867762565613,-0.11370855569839478,0.9889191558345323,-0.13917231584641782,0.051399421617548166,-0.005298015294690393,-0.279427051589134,0.10441732588123082,0.003982616872621477
1784285983993533696,2.3336215019226074,-0.14280053973197937,-0.49401721358299255,0.45529457926750183,0.0970340222120285,0.27646613121032715,-0.9561123847961426,0.2757229208946228,-0.11266303062438965,-0.08571195602416992,0.9889634680229047,-0.1396401790747373,0.049441214456636504,-0.002710845325060135,-0.28011495671746434,0.10114179637382803,0.008788768878911165
1784285984003452672,2.343540668487549,-0.15326251089572906,-0.5388208627700806,0.40223586559295654,0.09356275945901871,0.2773388624191284,-0.9562056064605713,0.2281535416841507,-0.15865600109100342,-0.1512620449066162,0.9889907399635339,-0.14019446633753802,0.047357214837197126,-0.00038851520058991006,-0.281023200360314,0.0975374586785796,0.013021106322148349
1784285984013371648,2.353459596633911,-0.33624178171157837,-0.615311324596405,0.382713258266449,0.08954281359910965,0.2793115973472595,-0.9560163021087646,0.27628666162490845,-0.1886744201183319,-0.19930291175842285,0.9889407995202626,-0.14131203823452554,0.044975222461190754,0.002077492190898325,-0.28307710995147023,0.09338998050566981,0.017518189526823044
1784285984023290624,2.3633785247802734,-0.5642736554145813,-0.6865183711051941,0.3601861000061035,0.0847318172454834,0.2833350896835327,-0.955270528793335,0.2529146671295166,-0.24857553839683533,-0.21280503273010254,0.9887437144046535,-0.14347653158184767,0.04218090208938035,0.004598714038505682,-0.28726992151467295,0.08846776870881497,0.022105423410152588
1784285984033210880,2.3732986450195312,-0.4612443745136261,-0.7441515326499939,0.36949294805526733,0.07910245656967163,0.28802067041397095,-0.954351544380188,0.24331575632095337,-0.13434940576553345,-0.2598665952682495,0.9884956084327366,-0.14597087884571247,0.03894515872612507,0.007221376749136966,-0.29215927619960297,0.08269704548939968,0.02678439360245017
1784285984043129600,2.3832175731658936,-0.34420377016067505,-0.7437794804573059,0.3714309334754944,0.07310304045677185,0.29142990708351135,-0.9537948369979858,0.20666685700416565,-0.016420751810073853,-0.31291353702545166,0.9883350300723204,-0.14777863146446193,0.03555368246315196,0.009558689741694238,-0.29572128671153636,0.07649485591892799,0.030741581225371125
1784285984053048576,2.393136501312256,-0.22617413103580475,-0.7489214539527893,0.2986966371536255,0.06719082593917847,0.2935183048248291,-0.9535892009735107,0.18061190843582153,0.04847690463066101,-0.2837154269218445,0.9882580095994993,-0.1488895199753021,0.03220714875591939,0.011864092401291854,-0.29790518252589443,0.0703447112349391,0.03456942804897088
1784285984062968832,2.4030566215515137,-0.20524434745311737,-0.8268617987632751,0.28416988253593445,0.06068049743771553,0.2951172888278961,-0.9535322189331055,0.21078862249851227,0.008547842502593994,-0.25179004669189453,0.9882165962629977,-0.14972120275316853,0.0285912752453558,0.013931736217903199,-0.2995782869561062,0.06355189991187202,0.037788226931704694
1784285984072887552,2.412975549697876,-0.1443616896867752,-0.8604235053062439,0.2866628170013428,0.053622663021087646,0.2965857982635498,-0.9534996151924133,0.24725013971328735,-0.026871442794799805,-0.24117201566696167,0.9881762414272701,-0.15046817264792944,0.024688722503021822,0.0160467297954503,-0.3011156043503101,0.05617856495683383,0.04099941589241411
1784285984082806528,2.4228944778442383,-0.05753757804632187,-0.9226807951927185,0.26593250036239624,0.04613647982478142,0.2973681688308716,-0.9536475539207458,0.23198546469211578,0.007853388786315918,-0.26485830545425415,0.9881780192729827,-0.15084005797773387,0.020579439549111834,0.018112493760792037,-0.30193493834147933,0.048341272302180334,0.04400957251691858
1784285984092725760,2.4328136444091797,-0.14817872643470764,-0.9111795425415039,0.24650423228740692,0.03820515051484108,0.29834699630737305,-0.9536925554275513,0.21309185028076172,-0.017722606658935547,-0.27001655101776123,0.988153158437051,-0.15129111037070367,0.016270644267021864,0.019992489783270628,-0.3029603057319162,0.040038827899452664,0.04657154347692471
1784285984102645760,2.4427335262298584,-0.18548615276813507,-0.987372100353241,0.23587049543857574,0.02992877922952175,0.29983389377593994,-0.9535218477249146,0.23928202688694,0.014008879661560059,-0.21702563762664795,0.9880675203438787,-0.15198920254139414,0.01176258815347383,0.02198944829534482,-0.3045185211649411,0.03137731713430107,0.049317803825132796
1784285984112564480,2.4526524543762207,-0.19040453433990479,-1.000741720199585,0.2282012403011322,0.021247858181595802,0.3014841675758362,-0.9532344341278076,0.24028778076171875,0.02610677480697632,-0.20556378364562988,0.9879533240862926,-0.15275050351256866,0.007076592883856341,0.02378116713146916,-0.3062488538094643,0.0222865846964599,0.05157268299639491
1784285984122483712,2.462571620941162,-0.20246519148349762,-1.0233466625213623,0.1880229264497757,0.012291057966649532,0.30326348543167114,-0.9528274536132812,0.2494582086801529,0.04984012246131897,-0.17266076803207397,0.9878044856362143,-0.15356187575238828,0.0022394171150991182,0.025614577058887613,-0.308115576321656,0.012898847116004482,0.05385308454588261
1784285984132403712,2.472491502761841,-0.20699112117290497,-1.0239278078079224,0.1456138789653778,0.0030742166563868523,0.30522555112838745,-0.9522751569747925,0.18921703100204468,0.07041531801223755,-0.14470970630645752,0.9876213640471405,-0.15445106222277485,-0.002702737941312708,0.027234452181978938,-0.31017527568600806,0.003228275000404277,0.05564235812189813
1784285984142322688,2.4824106693267822,-0.17983460426330566,-1.011041283607483,0.1384848654270172,-0.005994703620672226,0.306983083486557,-0.9516960978507996,0.17303267121315002,0.0769127905368805,-0.12771064043045044,0.9874308318927957,-0.15522499305866141,-0.007560084353209963,0.028782147295138973,-0.31202142102368724,-0.006298885007531025,0.05728979087048926
1784285984152241664,2.4923295974731445,-0.02413361333310604,-1.0048630237579346,0.06226855516433716,-0.015194062143564224,0.30800706148147583,-0.9512627124786377,0.13648617267608643,0.057547688484191895,-0.11789005994796753,0.9872849499992326,-0.15560948395422947,-0.012422703697171508,0.029996356021743876,-0.3130975560648926,-0.0159711606958749,0.058225713160485845
1784285984162160640,2.502248525619507,0.22806774079799652,-0.9656066298484802,0.05079139769077301,-0.02436112053692341,0.3073553144931793,-0.9512829184532166,0.15978287160396576,0.09826907515525818,-0.13102293014526367,0.9872552588849915,-0.1551184718064823,-0.017227486979440876,0.031120516619760317,-0.3124125624886817,-0.025603104803325526,0.05899121746933355
1784285984172080640,2.5121686458587646,0.3144814670085907,-0.8732936978340149,0.034774746745824814,-0.03288440406322479,0.30471116304397583,-0.9518769383430481,0.11432056128978729,0.02356642484664917,-0.1224791407585144,0.9873758684837637,-0.15360108282023965,-0.021638735354601018,0.03205291927370616,-0.3096351679855187,-0.03453317275524806,0.05951268239025789
1784285984181999616,2.522087574005127,0.26893553137779236,-0.8678160905838013,-0.02625984139740467,-0.04102618247270584,0.3018451929092407,-0.9524738192558289,0.17626482248306274,-0.030757546424865723,-0.03719598054885864,0.9875041589657894,-0.15197631050314844,-0.02581277008870031,0.03274936229878495,-0.3066275190419599,-0.04304668232698432,0.05965039808555974
1784285984191918592,2.5320065021514893,0.08064693212509155,-0.8570284843444824,-0.0674716979265213,-0.049236830323934555,0.3001505434513092,-0.952620267868042,0.21728187799453735,-0.056757599115371704,0.016447782516479492,0.9875255424135364,-0.15096163480579827,-0.03000746729970938,0.03321854277189549,-0.30485047644159896,-0.051639732422954485,0.05931651546350137
1784285984201838848,2.541926622390747,-0.11379764974117279,-0.7758697271347046,-0.06174003705382347,-0.057077087461948395,0.3002922534942627,-0.9521380066871643,0.2276703417301178,-0.0859673023223877,0.0656633973121643,0.9873921846208176,-0.15090699637400043,-0.034030569477038544,0.03355029713380991,-0.30499902906293036,-0.05987458216921974,0.05872627190139562
1784285984211757568,2.5518455505371094,-0.20847761631011963,-0.7388030290603638,-0.03832542896270752,-0.06427594274282455,0.30180519819259644,-0.9512004256248474,0.19751569628715515,-0.11091777682304382,0.11858934164047241,0.9871457267189908,-0.15157443648331825,-0.037748964556135904,0.03381676190379128,-0.30658559285246806,-0.06747093398562692,0.058058992982218394
1784285984221676544,2.5617644786834717,-0.3114625811576843,-0.6650648713111877,-0.07460779696702957,-0.0709461197257042,0.30396944284439087,-0.9500364065170288,0.1860736906528473,-0.09776219725608826,0.11902755498886108,0.9868429595817348,-0.1525893597898514,-0.04121014185462234,0.03404483783264148,-0.30885651283421905,-0.07453890496065993,0.05736156982744731
1784285984231595776,2.571683645248413,-0.3779630661010742,-0.5516957640647888,0.015130741521716118,-0.07660072296857834,0.3071259558200836,-0.9485810399055481,0.16374367475509644,-0.115139901638031,0.1481049656867981,0.9864663583920072,-0.1541347442523652,-0.04418102996470316,0.03427350523246334,-0.31217155183009815,-0.08057810958675861,0.05677255658971926
1784285984241515520,2.581603527069092,-0.6520398855209351,-0.4923117756843567,0.05816395953297615,-0.08112276345491409,0.3118702471256256,-0.9466552138328552,0.1682504415512085,-0.1563221514225006,0.18045037984848022,0.9859606161798692,-0.15650978507355098,-0.04665929182028096,0.034776363511714245,-0.3171608232351697,-0.08548525609043078,0.05683469192766965
1784285984251434496,2.591522455215454,-0.8741098046302795,-0.5546271204948425,-0.051526617258787155,-0.08619990199804306,0.31932368874549866,-0.9437171220779419,0.17743220925331116,-0.20827022194862366,0.2865058183670044,0.985213371140465,-0.16031121514047836,-0.049414247049153266,0.034829904280091535,-0.32501573002798156,-0.09108807361170534,0.055731582534336375
1784285984261353728,2.6014416217803955,-1.1333831548690796,-0.2990587055683136,0.026770053431391716,-0.08995313197374344,0.32845938205718994,-0.9402248859405518,0.21237438917160034,-0.30433523654937744,0.39397549629211426,0.9843190184385683,-0.165009671090257,-0.051568923600989115,0.03505071026737879,-0.3346719832168344,-0.09538162434828398,0.05506479809689186
1784285984271273728,2.611361503601074,-1.3836071491241455,-0.11645672470331192,0.11566753685474396,-0.0915779247879982,0.34007933735847473,-0.9359270930290222,0.0630439817905426,-0.24918273091316223,0.5281054377555847,0.983221942337234,-0.17105548041846694,-0.05269223114613948,0.03518854637352494,-0.3470012536644681,-0.0975368028135961,0.05443978365843719
1784285984281192704,2.6212806701660156,-1.5099775791168213,0.0062638623639941216,0.08859570324420929,-0.0914984717965126,0.35390958189964294,-0.9307932257652283,0.05495366454124451,-0.18539151549339294,0.5880503058433533,0.981910606530525,-0.1783074187433955,-0.053007983246716316,0.0353314815641584,-0.3617479472220562,-0.09798679455883602,0.054000771606257505
1784285984291111680,2.631199598312378,-1.3285114765167236,0.24353739619255066,0.1558360606431961,-0.08968942612409592,0.36698564887046814,-0.92589271068573,0.03770273178815842,-0.07870137691497803,0.5757797956466675,0.980655484121317,-0.18521354161713952,-0.052436472794562046,0.03551253303960509,-0.37576649900473225,-0.09656676300051202,0.054020889799680644
1784285984301030656,2.6411185264587402,-1.0179784297943115,0.49132615327835083,0.09890486299991608,-0.08548835664987564,0.37771254777908325,-0.9219679832458496,-0.031195610761642456,0.05737653374671936,0.5505995750427246,0.9796543562459074,-0.19094566018247194,-0.05055450671128636,0.03551672940421059,-0.38732460145860687,-0.09245940259354807,0.05433136576020112
1784285984310950656,2.651038646697998,-0.5834909677505493,0.6588406562805176,0.1972506046295166,-0.07826365530490875,0.38475221395492554,-0.9196959137916565,0.05911388248205185,0.15861326456069946,0.520480215549469,0.9790705863184916,-0.19477664789153135,-0.04705436459665817,0.03561883478961279,-0.3949393593422839,-0.08489279441132266,0.05573352490939543
1784285984320869632,2.6609575748443604,-0.040048662573099136,0.7728394269943237,0.31201767921447754,-0.06966762989759445,0.3872961699962616,-0.9193193912506104,0.18386439979076385,0.16629266738891602,0.45746636390686035,0.9789561585572802,-0.19623080648445723,-0.04282270614720239,0.03611939689662268,-0.39769707119383607,-0.07563717534255315,0.05850946643567485
1784285984330788608,2.6708765029907227,0.6260038614273071,0.7459785342216492,0.3866596519947052,-0.06100182980298996,0.38506123423576355,-0.9208727478981018,0.21836572885513306,0.11248210072517395,0.4650774598121643,0.9793139806794332,-0.1951349577588707,-0.03854838398308763,0.03715406434429138,-0.39527418134759235,-0.0661468531604414,0.06259073136057922
1784285984340708608,2.6807966232299805,0.8365214467048645,0.8732129335403442,0.34621661901474,-0.05185502767562866,0.3779463768005371,-0.9243741631507874,0.12927812337875366,-0.07614278793334961,0.5556607842445374,0.9801566386949789,-0.19146573947187231,-0.033967500057201463,0.03847140776674984,-0.38757715090079886,-0.056038710791553495,0.06745981070580778
1784285984350627584,2.6907155513763428,0.6632905602455139,1.0412354469299316,0.18045233190059662,-0.042045414447784424,0.3710712194442749,-0.9276520609855652,-0.03768175467848778,-0.2910236120223999,0.7583863139152527,0.9809751405336308,-0.1879881790714974,-0.028886312540826676,0.03890695094342736,-0.3801623330163826,-0.04529355502165108,0.07056535656481071
1784285984360546560,2.700634479522705,0.33542880415916443,1.19110107421875,0.184572234749794,-0.030818605795502663,0.3666911721229553,-0.9298321604728699,-0.04388841986656189,-0.4117656648159027,0.7866742014884949,0.9815307644317949,-0.18588131871170563,-0.0230666196588949,0.03890274878482568,-0.3754499517387613,-0.03313213893637965,0.07293368358504441
1784285984370465792,2.7105536460876465,0.2890617847442627,1.2830135822296143,0.06816156953573227,-0.01892436109483242,0.36403799057006836,-0.9311918020248413,-0.03846394270658493,-0.27340081334114075,0.7193692922592163,0.9818993347320629,-0.184716605380901,-0.016848341708293583,0.038335456265674826,-0.3725997246413952,-0.02031993330880146,0.07421451118033626
1784285984380385536,2.720473527908325,0.4148346185684204,1.402169108390808,0.1336183398962021,-0.0060506281442940235,0.3608563244342804,-0.932601809501648,-0.02066751755774021,-0.0998547375202179,0.5667113065719604,0.9822846939544586,-0.1832947562417341,-0.010105997372103557,0.03765330013959589,-0.3691859116407549,-0.006487809932470325,0.07541583181075608
1784285984390304512,2.7303924560546875,0.5870354771614075,1.4891053438186646,0.07436809688806534,0.00782005861401558,0.35614144802093506,-0.9343993067741394,0.04143531247973442,-0.03086984157562256,0.4802062511444092,0.9827732006678763,-0.18108685421777682,-0.0028078708292078,0.03683055510167376,-0.36413532269274884,0.008368879842653948,0.07645801124836793
1784285984400223744,2.740311622619629,0.7018318176269531,1.558626413345337,0.1526237428188324,0.022243304178118706,0.3501075506210327,-0.9364453554153442,0.08238621056079865,-0.0950721800327301,0.4431440234184265,0.9833257346418083,-0.1781974592622864,0.0047933550636997824,0.03596135612282707,-0.357685911572067,0.02374844498178877,0.07740303341929208
1784285984410143488,2.7502315044403076,0.6848158240318298,1.5871220827102661,0.21002154052257538,0.03752116113901138,0.3434576988220215,-0.9384183287620544,0.1601564586162567,-0.12341070175170898,0.40013402700424194,0.9838434646835899,-0.17500924473983784,0.012751408271040252,0.03551350335745143,-0.3505961026167009,0.03996212072000886,0.0792409151371593
1784285984420062720,2.760150671005249,0.6247471570968628,1.5790361166000366,0.1947792023420334,0.053099580109119415,0.3373337686061859,-0.9398863911628723,0.1604776829481125,-0.2026139199733734,0.3666442036628723,0.9842320818394813,-0.1721118032908182,0.020840917851484893,0.03507888987586959,-0.34408320758126365,0.05643575422580715,0.08106035733280156
1784285984429981696,2.7700695991516113,0.5407382249832153,1.552680492401123,0.3048328161239624,0.06858669221401215,0.3316255807876587,-0.9409146308898926,0.19706882536411285,-0.2303072214126587,0.3146939277648926,0.984497378575016,-0.169447082336535,0.028816195594559415,0.03496003444571683,-0.33802614888475435,0.07276494122326299,0.0834132538105259
1784285984439900672,2.7799885272979736,0.39153411984443665,1.5647555589675903,0.2276882529258728,0.08406825363636017,0.3270518481731415,-0.9412596225738525,0.15320590138435364,-0.16321823000907898,0.28780198097229004,0.9845878435263385,-0.1673880229165783,0.03676209926338504,0.0348807050167299,-0.33318216887213564,0.08907827385639748,0.08581189857550695
1784285984449820672,2.7899086475372314,0.4636944532394409,1.5198490619659424,0.18335667252540588,0.09919122606515884,0.32296931743621826,-0.9411970973014832,0.12622687220573425,-0.11361873149871826,0.25061482191085815,0.9845842483697385,-0.1655760802683293,0.04456484485508272,0.034532568480131115,-0.3288652769616288,0.10500077481911561,0.08755621024745693
1784285984459739648,2.7998275756835938,0.541914701461792,1.4716013669967651,0.19357281923294067,0.11364895850419998,0.31806349754333496,-0.9412329792976379,0.17129366099834442,-0.08315443992614746,0.20955878496170044,0.9846079885379017,-0.16332129433099496,0.05205440422951319,0.03411249283249001,-0.3236862043191168,0.12016305545468985,0.08890598764963097
1784285984469658624,2.809746503829956,0.8165228366851807,1.4731396436691284,0.1354827880859375,0.12793922424316406,0.31159937381744385,-0.9415611624717712,0.12985801696777344,0.0005801916122436523,0.12127918004989624,0.9847124476902271,-0.16024272772421835,0.059512162059563674,0.03349447222331559,-0.3168757278060336,0.13505276836579477,0.08961306699872837
1784285984479578624,2.819666624069214,1.0461324453353882,1.330336093902588,0.09725896269083023,0.14156828820705414,0.3028082549571991,-0.9424784183502197,0.11027799546718597,0.0692315399646759,0.007129967212677002,0.9849728599661943,-0.1559264720535467,0.06669122386311564,0.032676290495845264,-0.3076378604078629,0.14909387083937894,0.08948324361309884
1784285984489497600,2.829585552215576,1.1480122804641724,1.2235558032989502,0.07127470523118973,0.15375952422618866,0.29234975576400757,-0.9438694715499878,0.13927024602890015,0.07151129841804504,-0.04961496591567993,0.9853573855817469,-0.15070198021265238,0.0731721486377183,0.03171189096718013,-0.29668302973867355,0.16148487336157094,0.0885276492482723
1784285984499416576,2.8395044803619385,1.4158375263214111,1.1882787942886353,0.07921464741230011,0.16525205969810486,0.28025689721107483,-0.9455938935279846,0.10104432702064514,0.13511782884597778,-0.12006467580795288,0.9858278190430809,-0.14461025084817525,0.07931535159157851,0.030666924454355607,-0.2840617244674695,0.17301286382408282,0.0869958953815078
1784285984509336832,2.8494246006011963,1.543480396270752,1.1156437397003174,0.08520925790071487,0.17638792097568512,0.2662961483001709,-0.9476147294044495,0.10593019425868988,0.1568758189678192,-0.23117250204086304,0.9863701574967692,-0.13755440365315091,0.0852726567927208,0.029686857977980645,-0.26954839224016547,0.18403271408573033,0.08519948521206708
1784285984519255552,2.8593435287475586,1.753830909729004,0.9531197547912598,0.194054514169693,0.18653318285942078,0.25042712688446045,-0.9499955773353577,0.09877564013004303,0.09674081206321716,-0.33346688747406006,0.9869985121979271,-0.12951357101644995,0.0907107263355972,0.02884050855231566,-0.25312140466460503,0.1938850572990699,0.0831706110462736
1784285984529174528,2.869262456893921,1.5678901672363281,0.7458213567733765,0.2592202425003052,0.19527755677700043,0.23406898975372314,-0.952406644821167,0.12103714048862457,0.024353861808776855,-0.394028902053833,0.9876140820228089,-0.12126971450909599,0.09534328349120941,0.02866673843479488,-0.2362608487562724,0.2022330515865893,0.08211881673008332
1784285984539093760,2.8791816234588623,1.2795017957687378,0.4187726378440857,0.2326432168483734,0.201366126537323,0.22005535662174225,-0.9544774889945984,0.07020978629589081,-0.03846052289009094,-0.43192076683044434,0.9881302650295994,-0.11423531689198892,0.09854712159038835,0.028937385110049212,-0.22187121704324925,0.20792105080225767,0.08179694011720909
1784285984549013504,2.889101505279541,1.1866741180419922,0.08541780710220337,0.24398937821388245,0.20436951518058777,0.2078721523284912,-0.9565679430961609,0.13762572407722473,-0.07962203025817871,-0.4976556897163391,0.9886441118250835,-0.1081121819270089,0.10013876095201274,0.029443109032094242,-0.2093990875008948,0.21048421316304716,0.08174460146355877
1784285984558932736,2.8990206718444824,1.3584718704223633,0.008403711952269077,0.1945536583662033,0.2049233317375183,0.19523510336875916,-0.9591087698936462,0.1404898762702942,0.07298389077186584,-0.5445380210876465,0.9892724708984555,-0.101714382500605,0.10049768440016828,0.02990798790587478,-0.19649716750986038,0.21049515631781848,0.08127005238810792
1784285984568851712,2.9089395999908447,1.556400179862976,0.1122492253780365,0.2850821614265442,0.20620928704738617,0.18082480132579803,-0.9616549015045166,0.08613383769989014,0.25696510076522827,-0.4734189510345459,0.9898952288594624,-0.09446261776817794,0.1012391664543638,0.030578001114870045,-0.18182501784497615,0.21123290451131402,0.08108876142704552
1784285984578771712,2.9188594818115234,1.4382994174957275,-0.138243168592453,0.18176962435245514,0.2068393975496292,0.16594655811786652,-0.9641987085342407,-0.059988826513290405,0.2365345060825348,-0.437244713306427,0.9905263247639294,-0.08694286707625277,0.10169350549107707,0.030935287848881873,-0.16671780424121846,0.2113168074208134,0.08016361290342047
1784285984588690688,2.928778648376465,1.4194648265838623,-0.430253267288208,0.12035159766674042,0.20401820540428162,0.15211378037929535,-0.9670770168304443,0.09374180436134338,0.19354355335235596,-0.36042237281799316,0.9912547276406919,-0.0798544392277547,0.10042290126978776,0.03086146625738849,-0.1527065951631845,0.20791506578737892,0.0782104963217259
1784285984598609664,2.938697576522827,1.2172088623046875,-0.5187777876853943,0.13415183126926422,0.1999850869178772,0.13954198360443115,-0.9698113203048706,-0.0345798134803772,0.05384792387485504,-0.3800269365310669,0.9919371099748909,-0.07342550863523314,0.0985039638276101,0.03109007648262879,-0.13999885629549974,0.20335980728430125,0.07697253718803035
1784285984608528640,2.9486165046691895,0.6599902510643005,-0.5792527198791504,-0.021397242322564125,0.19475626945495605,0.1308397650718689,-0.9720858931541443,-0.27108073234558105,-0.039546430110931396,-0.3997707962989807,0.9925143060848542,-0.06890655187319536,0.09596326071574722,0.0309582502684226,-0.1312159818514446,0.19773095297169385,0.07539695573260256
1784285984618448896,2.9585368633270264,0.21198557317256927,-0.4703192710876465,0.0075526488944888115,0.18978627026081085,0.12601953744888306,-0.9737043976783752,-0.25076040625572205,-0.18923671543598175,-0.39210981130599976,0.992919806019993,-0.06638023760049,0.09349582022829023,0.031022590159145328,-0.12635549786773737,0.19249811070254103,0.07468267737663034
1784285984628367872,2.9684557914733887,-0.2992958724498749,-0.4891037046909332,-0.02540546841919422,0.1850360929965973,0.12712010741233826,-0.9744753241539001,-0.3704304099082947,-0.25239473581314087,-0.33671241998672485,0.9931129799080338,-0.06684857550907555,0.09106927504178502,0.03105478167760059,-0.12746498362968767,0.18764882128431706,0.07453057961790299
1784285984638286848,2.978374719619751,-0.6449507474899292,-0.4435141086578369,-0.08067750930786133,0.180613175034523,0.13192477822303772,-0.9746664762496948,-0.2098032385110855,-0.2625094950199127,-0.3402138948440552,0.993150630343597,-0.06922182652429061,0.08874176852179531,0.03138667821995749,-0.1323104841706153,0.18322923797759286,0.07535846850172537
1784285984648206848,2.988294839859009,-0.6688808798789978,-0.5261444449424744,-0.04439793527126312,0.17589563131332397,0.13821899890899658,-0.9746569991111755,-0.07729333639144897,-0.17859375476837158,-0.32839781045913696,0.9931438383775891,-0.07232463914328094,0.08625923214216351,0.031524409890728786,-0.13866292441851258,0.17854744258171612,0.07589447951478713
1784285984658125824,2.998213768005371,-0.6220142841339111,-0.43859991431236267,0.2434607446193695,0.17156630754470825,0.14454075694084167,-0.9745116829872131,0.15101975202560425,-0.13292880356311798,-0.34915775060653687,0.993084743929638,-0.07549730506315266,0.08393048427188235,0.03222722130728337,-0.14504883408115005,0.17426779289034477,0.07757334479615943
1784285984668044800,3.0081326961517334,-0.2971251606941223,-0.39630693197250366,0.09470056742429733,0.1672409474849701,0.14871902763843536,-0.9746348857879639,0.3863021731376648,-0.10745926201343536,-0.37813305854797363,0.9930891220291159,-0.07759228292240292,0.08162110544535066,0.03303730909499194,-0.1492727617471764,0.16993842639835074,0.07924759374128823
1784285984677964032,3.018051862716675,0.1412074714899063,-0.5589988827705383,0.13953249156475067,0.1629403531551361,0.14921489357948303,-0.9752873182296753,0.4743277430534363,0.018235057592391968,-0.3841181993484497,0.9932230924870443,-0.07782816246761982,0.07936697634569614,0.03393449782402763,-0.14977423568817907,0.16554018040747737,0.08075383928769984
1784285984687883776,3.0279717445373535,0.5803598761558533,-0.6984185576438904,0.20191653072834015,0.15763351321220398,0.1447884440422058,-0.976825475692749,0.6166126728057861,-0.0070931315422058105,-0.4145472049713135,0.9935804703723078,-0.07554714570305643,0.07668050084300995,0.034793002242001575,-0.14529916366183135,0.159993968042265,0.08167575024383758
1784285984697803008,3.037890911102295,0.5925672650337219,-0.9723308086395264,0.29071831703186035,0.15117686986923218,0.13788512349128723,-0.9788427948951721,0.6663890480995178,-0.13413146138191223,-0.3663567900657654,0.994033898956084,-0.0720375616755294,0.07341106479667231,0.03630535631090416,-0.13832582690298723,0.15323377153468684,0.08364980991633442
1784285984707721984,3.0478098392486572,0.45460712909698486,-1.2639386653900146,0.16294975578784943,0.1409483551979065,0.1323200911283493,-0.9811345338821411,0.5352906584739685,-0.1792713850736618,-0.2847346067428589,0.9945640219155648,-0.06909820133399058,0.06825083578533828,0.03754585369128214,-0.1327092960325241,0.14268233567053817,0.08496390327136079
1784285984717641728,3.057729721069336,0.16503576934337616,-1.2500747442245483,0.22830292582511902,0.1291366070508957,0.12897324562072754,-0.9832037687301636,0.3870987296104431,-0.24597764015197754,-0.23864376544952393,0.9950342592083703,-0.06723900590801596,0.06226583969762763,0.038841420645252055,-0.12933350368159838,0.13059512971820963,0.08649984268107791
1784285984727560960,3.0676488876342773,-0.06350146234035492,-1.138060450553894,0.17300988733768463,0.11781023442745209,0.1282450258731842,-0.9847202301025391,0.10876752436161041,-0.1348063051700592,-0.19682884216308594,0.9953538337106465,-0.06671302127258417,0.056473452015687056,0.04038265946951049,-0.1285991905358278,0.11907232169439325,0.08877373973764859
1784285984737479936,3.0775678157806396,-0.3007478415966034,-1.087051510810852,0.18662689626216888,0.10743444412946701,0.12981683015823364,-0.9857004880905151,0.032549694180488586,-0.07320672273635864,-0.17511188983917236,0.9955481480101825,-0.06733779373781287,0.05114081818865263,0.041641898371485096,-0.13018424444205406,0.10856444595742741,0.09069109596154669
1784285984747398912,3.087486743927002,-0.4168217182159424,-1.110357403755188,0.19484354555606842,0.09739036858081818,0.1330796480178833,-0.986308753490448,0.10875587165355682,-0.0735245943069458,-0.1428263783454895,0.9956440156690909,-0.0688140401507266,0.04593756565068472,0.042981399645329314,-0.13347562782881608,0.09842322954128077,0.09286893173825331
1784285984757318912,3.0974068641662598,-0.40277913212776184,-1.1458407640457153,0.22130711376667023,0.08697616308927536,0.13695789873600006,-0.9867510795593262,0.17521560192108154,0.03482554852962494,-0.14908266067504883,0.9956901812013575,-0.0705848764054466,0.040524527812013884,0.04446003432951527,-0.13738971170654202,0.08791675793438632,0.09529850993101707
1784285984767237888,3.107325792312622,-0.3799944519996643,-1.1302443742752075,0.20504465699195862,0.07635381072759628,0.1406652331352234,-0.987108588218689,0.21910211443901062,0.09576968848705292,-0.14877086877822876,0.9957119924862567,-0.07225120441190754,0.03500662407842611,0.04595617331659121,-0.14113330390094306,0.077197254294365,0.09770201717521354
1784285984777156864,3.1172447204589844,-0.37417465448379517,-1.0643659830093384,0.243477001786232,0.0660490170121193,0.14400403201580048,-0.9873704314231873,0.1959901750087738,0.08812792599201202,-0.12897783517837524,0.9957021907889805,-0.07372895141899681,0.029645000000337658,0.04756498858987839,-0.14450643710507094,0.06679434534178252,0.1003043342236502
1784285984787076864,3.127164840698242,-0.3582817018032074,-1.0624784231185913,0.20470589399337769,0.05613865330815315,0.14737556874752045,-0.9874861240386963,0.14362940192222595,0.07206107676029205,-0.09141701459884644,0.9956609471487067,-0.07521445836402745,0.024488987851707715,0.049014478126399405,-0.14791433912348967,0.05678893909984288,0.10258549981439787
1784285984796995840,3.1370837688446045,-0.47832128405570984,-0.9624857902526855,0.21103490889072418,0.046647705137729645,0.1513836830854416,-0.9873737692832947,0.15293726325035095,0.01757688820362091,-0.11525684595108032,0.9955563219740756,-0.07702057184357398,0.019517792416604923,0.050542227546692055,-0.1519679450876915,0.04720911903201367,0.10504327139346252
1784285984806914816,3.147002696990967,-0.5569130182266235,-0.877178430557251,0.1463220864534378,0.03803887590765953,0.15621747076511383,-0.9869899153709412,0.14947637915611267,0.0038777291774749756,-0.18506813049316406,0.9953958352417803,-0.07924963339738506,0.014984129117928858,0.0517894829644875,-0.15685993603960008,0.03852122083547368,0.10699212801044557
1784285984816834816,3.1569228172302246,-0.6157709956169128,-0.9208646416664124,0.0717325359582901,0.029484912753105164,0.16197866201400757,-0.9863536953926086,0.23188288509845734,-0.03397269546985626,-0.22699469327926636,0.9951858144626267,-0.08193609280678851,0.010471093455748983,0.05274565704313562,-0.16269546893507236,0.029883942009637406,0.10833909232839543
1784285984826753792,3.166841745376587,-0.5527927875518799,-1.0059973001480103,-0.0699826180934906,0.020225809887051582,0.1677408069372177,-0.9856236577033997,0.2837445139884949,-0.028870567679405212,-0.23239392042160034,0.9949769562985067,-0.08459544749623947,0.005638774911225027,0.05322336328077188,-0.16853756256167354,0.020517945927026153,0.10861543877585812
1784285984836673024,3.1767609119415283,-0.4406907558441162,-0.9524776339530945,-0.03196200355887413,0.01064124796539545,0.1726607084274292,-0.9849238991737366,0.22316917777061462,0.0674515962600708,-0.21533244848251343,0.9947910563279089,-0.08681929210970733,0.0006870957224344664,0.05341102504562677,-0.173530316405571,0.01080371220612111,0.10821814845512738
1784285984846592000,3.1866798400878906,-0.23783963918685913,-0.934188961982727,-0.0836169421672821,0.0014128151815384626,0.17593494057655334,-0.9844008088111877,0.15370804071426392,0.10572704672813416,-0.21916669607162476,0.9946517728860853,-0.08822293724646924,-0.004040088624738132,0.053556240921888154,-0.17685544807086273,0.0014352021994545531,0.10771178128842251
1784285984856511744,3.1965997219085693,-0.15570269525051117,-0.9468445777893066,-0.08130132406949997,-0.007810327224433422,0.17784807085990906,-0.9840269684791565,0.1830727756023407,0.09847334027290344,-0.237759530544281,0.9945588344168576,-0.0889414520379947,-0.008714219506492317,0.05353679532362434,-0.17879923189092128,-0.007936940417792854,0.10684411631583748
1784285984866430976,3.2065188884735107,-0.18408779799938202,-0.8868205547332764,-0.05697524547576904,-0.016868827864527702,0.1794055998325348,-0.9836305379867554,0.19727349281311035,0.00722464919090271,-0.21630537509918213,0.9944603657685748,-0.08948695071869049,-0.013296902249378599,0.05351426232187848,-0.18038221414603053,-0.01714787597603988,0.1059701809017515
1784285984876349952,3.216437816619873,-0.2573031485080719,-0.8539409041404724,-0.0874018594622612,-0.02545478567481041,0.1815430074930191,-0.9830535054206848,0.1901276409626007,-0.047311440110206604,-0.16826790571212769,0.994314168263279,-0.09033951898856432,-0.017664115732343076,0.053534578934725616,-0.1825553075030641,-0.02588780587959971,0.10520783835010677
1784285984886269696,3.2263576984405518,-0.3117561340332031,-0.823773205280304,-0.045837171375751495,-0.033696550875902176,0.18429912626743317,-0.9822924137115479,0.17430630326271057,-0.09836162626743317,-0.17198920249938965,0.9941217480148519,-0.09151586716182014,-0.02187790677026501,0.053553846189935875,-0.18535871918513194,-0.03429054726128979,0.10444949793571111
1784285984896188928,3.236276865005493,-0.23321633040905,-0.7874056100845337,-0.019947519525885582,-0.04147467762231827,0.18694569170475006,-0.9814943671226501,0.17373785376548767,-0.08159901201725006,-0.19936805963516235,0.9939109382856515,-0.09264643026460612,-0.02587398834375875,0.05374304337365491,-0.18805210283005913,-0.04223154019805711,0.10405618738393888
1784285984906107904,3.2461957931518555,-0.16408778727054596,-0.7622696757316589,-0.04712491109967232,-0.048974040895700455,0.18873590230941772,-0.9808059334754944,0.15383243560791016,-0.07153315842151642,-0.23040622472763062,0.9937290012376335,-0.09335209301702951,-0.029705443710225387,0.05390495777055788,-0.18987475837757856,-0.04989101055462675,0.10363226431041107
1784285984916026880,3.2561147212982178,-0.002462140517309308,-0.7766246199607849,-0.050844281911849976,-0.05639396235346794,0.18959438800811768,-0.9802416563034058,0.16886650025844574,-0.07712185382843018,-0.23684513568878174,0.9935798328120427,-0.09358948881176679,-0.033469138185045266,0.0540368352486143,-0.1907490272954067,-0.05746732760545847,0.10316585872633097
1784285984925946880,3.2660348415374756,0.19549734890460968,-0.82647305727005,-0.13171713054180145,-0.06425923109054565,0.18869444727897644,-0.9799311757087708,0.17467182874679565,-0.010181888937950134,-0.2524906396865845,0.9935045145839541,-0.0929323491750513,-0.03738953407337392,0.0539860982961617,-0.18983254115687423,-0.06548149641293287,0.10233515093013627
1784285984935865856,3.275953769683838,0.20648954808712006,-0.8491171002388,-0.14002619683742523,-0.07249605655670166,0.18652227520942688,-0.9797723293304443,0.18618929386138916,-0.04734686017036438,-0.22146058082580566,0.9934784322188702,-0.09163205309313581,-0.04144169340013061,0.05373009595454261,-0.18762109624242868,-0.07385816895218261,0.10110814075568306
1784285984945784832,3.2858726978302,0.05495607852935791,-0.8270612955093384,-0.16278816759586334,-0.08081088215112686,0.18505769968032837,-0.9793994426727295,0.17272982001304626,-0.10678011178970337,-0.09874081611633301,0.9934010001613675,-0.09069372151897452,-0.04555141012142234,0.05342567781277724,-0.18613057334143826,-0.08232416840455822,0.09976962215223822
1784285984955704832,3.295792818069458,-0.1587657928466797,-0.7846201062202454,-0.20300695300102234,-0.08908795565366745,0.18548153340816498,-0.9786010384559631,0.17012739181518555,-0.12110468745231628,0.033639490604400635,0.9932254733175309,-0.09072464175239642,-0.049684348326694355,0.05294905470028037,-0.18656187189708132,-0.09078578623133159,0.09802055392426952
1784285984965623808,3.3057117462158203,-0.41468000411987305,-0.763411819934845,-0.1852216273546219,-0.09696406126022339,0.1880299597978592,-0.9773651957511902,0.1658269762992859,-0.1464345008134842,0.09452217817306519,0.9929491805609058,-0.09185642685484144,-0.053663814425247265,0.052292565998021734,-0.18915594749309075,-0.09888607353965849,0.09584255253205103
1784285984975543040,3.3156309127807617,-0.5742422342300415,-0.7518446445465088,-0.19006246328353882,-0.10458742082118988,0.19261996448040009,-0.975683867931366,0.17544923722743988,-0.13384310901165009,0.04567593336105347,0.9925628829548648,-0.09403954101702813,-0.05757280051237569,0.051583768560490705,-0.19383140948850014,-0.10678619893222463,0.09345556381130515
1784285984985462016,3.325549840927124,-0.6000516414642334,-0.7693899273872375,-0.1710439920425415,-0.11222002655267715,0.19817425310611725,-0.9737215638160706,0.18259355425834656,-0.13343121111392975,-0.028445184230804443,0.9921060928410548,-0.09672224836792173,-0.06151452160932009,0.050856138267143754,-0.19949487146018102,-0.11474235368914622,0.09093607027708804
1784285984995381760,3.3354697227478027,-0.5435057878494263,-0.7424259185791016,-0.1325051188468933,-0.11985112726688385,0.2035026252269745,-0.9717110395431519,0.18647101521492004,-0.07708357274532318,-0.06454378366470337,0.9916289468866696,-0.09929122368516996,-0.06546542226185616,0.050274761622007676,-0.20493408039935204,-0.12272049218710426,0.08867689430268771
1784285985005300992,3.345388889312744,-0.37428808212280273,-0.6167728304862976,-0.05563274398446083,-0.12662597000598907,0.20783470571041107,-0.969933271408081,0.13897034525871277,-0.013300403952598572,-0.05165785551071167,0.9911921959339763,-0.10135728400393068,-0.06899314566618533,0.050045584272264,-0.20936080249523956,-0.12981701619243122,0.08723676671911514
1784285985015219968,3.3553078174591064,-0.17391452193260193,-0.5647714138031006,-0.049158599227666855,-0.13229931890964508,0.21040676534175873,-0.9686205983161926,0.09663952887058258,0.03139926493167877,-0.029609382152557373,0.9908636549804896,-0.10254386071383378,-0.0719336515496218,0.049995999777009345,-0.21199101428389594,-0.1357453034009476,0.08636399838452834
1784285985025139712,3.365227699279785,0.06479878723621368,-0.5006653070449829,-0.06078845635056496,-0.13748884201049805,0.21089568734169006,-0.9677911996841431,0.10686445236206055,0.07206328213214874,0.019808411598205566,0.9906539280978682,-0.10267835031298422,-0.07457580684617748,0.05000463745814061,-0.21249117281191685,-0.1411202496036658,0.08579237073117849
1784285985035058944,3.3751468658447266,0.38734033703804016,-0.3776683211326599,-0.07635516673326492,-0.14174477756023407,0.20864219963550568,-0.9676656723022461,0.06589333713054657,0.09654884040355682,0.058058738708496094,0.9906249687967537,-0.10144305345817445,-0.07665814639717634,0.04995005373287898,-0.21018639919265564,-0.1454467611706721,0.08539141246003965
1784285985044977920,3.385065793991089,0.6647722125053406,-0.29295897483825684,-0.1437457948923111,-0.1450951099395752,0.20341752469539642,-0.9682813286781311,0.0722191333770752,0.13486984372138977,0.0945478081703186,0.9907880129449879,-0.09872485293993426,-0.07818402060214806,0.049797379045186,-0.20484716257062163,-0.1487413729237624,0.08512016912206861
1784285985054897920,3.3949859142303467,0.7467464804649353,-0.16741012036800385,-0.2004769891500473,-0.14758729934692383,0.1962190866470337,-0.9693895578384399,0.08758974075317383,0.07680642604827881,0.17814505100250244,0.9910897153725253,-0.09504789411410247,-0.07919047655445853,0.04935634389128231,-0.19750055006794884,-0.15108743278183057,0.08452107861220098
1784285985064816896,3.404904842376709,0.75101637840271,-0.05931682512164116,-0.23379375040531158,-0.1490146964788437,0.18865804374217987,-0.9706712961196899,0.1274235099554062,0.008149832487106323,0.32401907444000244,0.9914482260778206,-0.09123610506126939,-0.07962616806142694,0.048641635138165586,-0.18979547138650593,-0.15232792474552867,0.0835167997353287
1784285985074735872,3.4148237705230713,0.5682777166366577,0.0648498684167862,-0.15672294795513153,-0.14928635954856873,0.18206430971622467,-0.9718879461288452,0.13950547575950623,-0.04233956336975098,0.4069007635116577,0.9917856320472431,-0.08793663858535382,-0.07951841280606435,0.04801225464630729,-0.18308543879003708,-0.15241325845514123,0.08272594270110821
1784285985084654848,3.4247426986694336,0.6340137124061584,0.1145770251750946,-0.10885149240493774,-0.1487668752670288,0.17615622282028198,-0.9730557203292847,0.1290372610092163,-0.1364375799894333,0.48875701427459717,0.9921026797243411,-0.08499131018573772,-0.07904824528314068,0.04754061258858126,-0.17708023009792748,-0.1517115203742654,0.08227137970048114
1784285985094574848,3.4346628189086914,0.5431802272796631,0.21687301993370056,-0.08892972022294998,-0.14724741876125336,0.1701698750257492,-0.9743512868881226,0.12159739434719086,-0.2358132004737854,0.5092481374740601,0.9924438166550821,-0.08201647420456586,-0.07808752248190948,0.04723157310633591,-0.1710020593878078,-0.1499885925751471,0.08223109193447588
1784285985104493824,3.4445817470550537,0.45378902554512024,0.2556283473968506,-0.03899907320737839,-0.14505262672901154,0.16531270742416382,-0.9755159616470337,0.11206312477588654,-0.141020730137825,0.5387179255485535,0.9927486159438336,-0.07962356758874235,-0.07682507475491815,0.04699206626977792,-0.16607507648980332,-0.14761168633915445,0.08229225874264563
1784285985114413056,3.454500913619995,0.5308012366294861,0.36039257049560547,-0.04531502723693848,-0.14210493862628937,0.16072851419448853,-0.9767151474952698,0.10987839102745056,0.02397911250591278,0.48567211627960205,0.9930549956736306,-0.07737480298424558,-0.07520340895048087,0.0468970852247377,-0.16142871569169395,-0.14447895082952975,0.0826728490899298
1784285985124332800,3.464420795440674,0.7461291551589966,0.4796442687511444,-0.11005464196205139,-0.1378868669271469,0.15421631932258606,-0.9783682823181152,0.03449329733848572,0.01684996485710144,0.33905553817749023,0.9934846682684234,-0.07419484774189734,-0.07287640849394313,0.046609223108326894,-0.15483422843988393,-0.14001337416701182,0.08288222535459185
1784285985134251776,3.474339723587036,0.634835958480835,0.5042715668678284,-0.18194347620010376,-0.13317015767097473,0.1471853256225586,-0.9801031351089478,0.08051207661628723,-0.0263814777135849,0.28555357456207275,0.9939523596224713,-0.0707931470279654,-0.07026204102127866,0.0459372455145161,-0.14772199409239622,-0.13504660698507845,0.08235977528702344
1784285985144171008,3.4842588901519775,0.583297848701477,0.5346821546554565,-0.1935877799987793,-0.12832513451576233,0.14097556471824646,-0.9816611409187317,0.12187066674232483,-0.05912742018699646,0.3578055500984192,0.9943826719792339,-0.06782013131294726,-0.0676008124569943,0.04509734216221218,-0.1414467475943239,-0.12998537285237977,0.08142081581531128
