time,seconds_elapsed,rotationRateX,rotationRateY,rotationRateZ,gravityX,gravityY,gravityZ,accelerationX,accelerationY,accelerationZ,quaternionW,quaternionX,quaternionY,quaternionZ,pitch,roll,yaw
1782985276839170560,1.3212103843688965,-2.0758657455444336,-0.2001654952764511,1.0701483488082886,0.6550493836402893,-0.7198255062103271,0.22969909012317657,0.3106335997581482,-0.32736992835998535,0.036566734313964844,-0.2877659583730729,0.19867733592612347,-0.7585359968773046,-0.5498556798305352,0.8035509079102925,1.9080582674886601,1.0975640552803427
1782985276849089536,1.331129550933838,-2.0344362258911133,-0.07250230014324188,1.1868600845336914,0.6474950313568115,-0.7314085960388184,0.21398988366127014,0.3450281620025635,-0.35889291763305664,0.14224183559417725,-0.2832672313523427,0.197109319168259,-0.753752517958225,-0.5592537332138442,0.8203852437865558,1.8899846633095092,1.1205582528058948
1782985276859009536,1.3410494327545166,-1.9903736114501953,-0.12412501126527786,1.2889134883880615,0.638696551322937,-0.7433049082756042,0.19890901446342468,0.48320597410202026,-0.444790244102478,0.14595487713813782,-0.2787161851786041,0.19441336475666532,-0.7494384217152362,-0.5682102470178728,0.837997268541863,1.8727057181465006,1.1411019043432584
1782985276868929536,1.3509695529937744,-2.2131943702697754,-0.28364047408103943,1.2445650100708008,0.629953920841217,-0.7549646496772766,0.18217098712921143,0.6072438955307007,-0.5118656754493713,0.16160951554775238,-0.27396135336551053,0.19216725749889046,-0.7444173802070065,-0.5778058695106909,0.8556002257374498,1.8522985219899224,1.1657293427041264
1782985276878849536,1.3608894348144531,-2.321084976196289,-0.48660531640052795,1.333754539489746,0.621202826499939,-0.7665680646896362,0.16272778809070587,0.6708655953407288,-0.4537840485572815,0.0979992002248764,-0.2696272389242453,0.18952223417882927,-0.7385426303469445,-0.58816425416443,0.8734795897299805,1.8269956281373179,1.1939855960945924
1782985276888769536,1.370809555053711,-2.4218478202819824,-0.521073579788208,1.3464770317077637,0.6119447946548462,-0.7781345844268799,0.14152704179286957,0.687432587146759,-0.36203253269195557,0.059690579771995544,-0.26537858645066764,0.18644686134866403,-0.7321209529632434,-0.5990079928976549,0.8916904020259312,1.79807456998178,1.2250627993521304
1782985276898689536,1.3807294368743896,-2.4694528579711914,-0.5878883004188538,1.4579864740371704,0.6023044586181641,-0.7893006801605225,0.11930492520332336,0.6778926253318787,-0.3317776918411255,0.11346791684627533,-0.261123462597779,0.1831864827367271,-0.7253241862107099,-0.6100508380279323,0.9096692138928993,1.7663457839849976,1.2586522476933468
1782985276908608768,1.390648603439331,-2.540189027786255,-0.6194419264793396,1.5324430465698242,0.5917840600013733,-0.8003314733505249,0.0962335467338562,0.6619389653205872,-0.42240095138549805,0.18745790421962738,-0.25676847039738027,0.17941219734168865,-0.718281306755171,-0.621251226268263,0.9278479121608417,1.7320012192644116,1.2942218469078457
1782985276918528512,1.4005684852600098,-2.8645424842834473,-0.5929887294769287,1.650638461112976,0.580962061882019,-0.810776948928833,0.07158089429140091,0.5745859742164612,-0.5446459650993347,0.2725200653076172,-0.2521466175789025,0.1758774495307846,-0.7105332983655193,-0.6329546644799556,0.9454781650994704,1.6933894189511602,1.334785825064483
1782985276928448768,1.4104886054992676,-3.2646710872650146,-0.601078987121582,1.762471318244934,0.5727807879447937,-0.8184441328048706,0.045512132346630096,0.579150915145874,-0.6205511689186096,0.3877154588699341,-0.2481121273191418,0.17415244874931626,-0.7017314240014524,-0.6447358479615443,0.9586979811583022,1.6500879379852358,1.3817576572053818
1782985276938368512,1.4204084873199463,-3.4999618530273438,-0.6008398532867432,1.8247746229171753,0.5595241189002991,-0.8286793828010559,0.014944268390536308,0.5990299582481384,-0.5800730586051941,0.40322279930114746,-0.24195500735579928,0.17064808762770856,-0.691629499206322,-0.6587759062247818,0.9767441350919103,1.5974988672100776,1.438583803074779
1782985276948288768,1.430328607559204,-3.6222052574157715,-0.6392369866371155,1.8442046642303467,0.5450015068054199,-0.8382503390312195,-0.01760309375822544,0.5940060615539551,-0.4635685086250305,0.3338872790336609,-0.23523008405911616,0.16688496848250992,-0.6806965992640464,-0.6734006439796761,0.9940665347163872,1.5385083869411744,1.5022244685510233
1782985276958207488,1.4402475357055664,-3.557405710220337,-0.6707954406738281,1.9703916311264038,0.5293350219726562,-0.8468783497810364,-0.051003966480493546,0.593376100063324,-0.39413416385650635,0.23993831872940063,-0.22817503620892438,0.16268464251330328,-0.6693517197153573,-0.6880683918690095,1.0100874909307387,1.4747380814214284,1.5704368021065516
1782985276968127488,1.4501674175262451,-3.2191195487976074,-0.6270473599433899,2.0787599086761475,0.5120352506637573,-0.8549807071685791,-0.08263162523508072,0.55914705991745,-0.4229429364204407,0.2425742745399475,-0.22065510199238397,0.1576975702894026,-0.6586468436195496,-0.7018740708175111,1.025513696194306,1.4107969894665895,1.638312763933592
1782985276978047488,1.460087537765503,-3.2156741619110107,-0.49283522367477417,2.1449902057647705,0.49375614523887634,-0.8623039126396179,-0.11241357028484344,0.44520869851112366,-0.5516212582588196,0.36908167600631714,-0.212734501074122,0.15237063470722975,-0.6485186239461873,-0.7148082446372546,1.0398019165887504,1.346941791914921,1.706154933453737
1782985276987967488,1.4700074195861816,-3.2969284057617188,-0.34568676352500916,2.0892248153686523,0.47522249817848206,-0.8683142066001892,-0.14210568368434906,0.34226712584495544,-0.5853906273841858,0.5511175394058228,-0.20408125185622883,0.1475921716182866,-0.6380938104921283,-0.7276013182377861,1.0517934624114698,1.2802298707133268,1.7786841412637386
1782985276997887488,1.4799275398254395,-3.4956986904144287,-0.23205551505088806,2.0045225620269775,0.4574180543422699,-0.8723741173744202,-0.17243094742298126,0.35811853408813477,-0.4878554344177246,0.6162328720092773,-0.19516517646273607,0.1436287957500108,-0.6270209684813481,-0.7403554768169014,1.0600381611958452,1.2103033528540268,1.85594580958047
1782985277007806464,1.4898464679718018,-3.5224080085754395,-0.18987736105918884,2.0532150268554688,0.4397117793560028,-0.8747884035110474,-0.20346705615520477,0.4843910038471222,-0.34605205059051514,0.668677031993866,-0.185850802234115,0.14007577266894805,-0.6153415731063007,-0.7531221720993378,1.064998857895216,1.1374081727571166,1.9373095381942835
1782985277017726720,1.4997665882110596,-3.831993818283081,-0.17570720613002777,1.989768385887146,0.4220166802406311,-0.8754452466964722,-0.2355794459581375,0.5375933051109314,-0.32668793201446533,0.5873250365257263,-0.17626401566291602,0.13673386918851993,-0.6029213289005381,-0.7659770397806926,1.0663563234676623,1.0616617565631805,2.0221926567977992
1782985277027646464,1.5096864700317383,-4.240368843078613,-0.36875027418136597,2.0833375453948975,0.40397539734840393,-0.8735898733139038,-0.2713755965232849,0.5311442613601685,-0.3655458688735962,0.4321727156639099,-0.16659903584975014,0.13327336397265663,-0.5886853244530621,-0.7797003508640683,1.062530708293969,0.9792739962191165,2.113620538985287
1782985277037566720,1.519606590270996,-4.520078182220459,-0.5096852779388428,2.2407896518707275,0.38411426544189453,-0.869398832321167,-0.3108086585998535,0.5181074738502502,-0.4027112126350403,0.34735342860221863,-0.15661179763601052,0.12887867655053384,-0.5727005843147741,-0.7942777792776055,1.0539843941336187,0.890496890368656,2.210525906124376
1782985277047486464,1.5295264720916748,-4.58009147644043,-0.5913332104682922,2.314988613128662,0.36298152804374695,-0.8628612756729126,-0.35173141956329346,0.4162696301937103,-0.36237382888793945,0.28422650694847107,-0.14632410568937734,0.1238328861983732,-0.5556974934251783,-0.808983969145867,1.0409035196011436,0.8011375788225528,2.3074964706272914
1782985277057406720,1.5394465923309326,-4.37749719619751,-0.577162504196167,2.400493860244751,0.3408954441547394,-0.8545793890953064,-0.39177072048187256,0.33007925748825073,-0.29130983352661133,0.32789745926856995,-0.13565730405307927,0.11830885049286582,-0.5386257170832848,-0.8230932013320431,1.0247404184407554,0.7160709175767653,2.4000428090717185
1782985277067325696,1.549365520477295,-3.7772319316864014,-0.4872576594352722,2.5047831535339355,0.3181837201118469,-0.8461074829101562,-0.42762288451194763,0.2832872271537781,-0.22594451904296875,0.41941362619400024,-0.12470420055395429,0.11233179010882965,-0.5230393227301601,-0.8356197293903079,1.008639496007617,0.639698662781373,2.483681892455249
1782985277077245440,1.5592854022979736,-2.8628156185150146,-0.3098391890525818,2.555014133453369,0.296006977558136,-0.8389065265655518,-0.4567447006702423,0.316480815410614,-0.17456698417663574,0.5477023720741272,-0.11341082671371364,0.10656968652360577,-0.5101671772568875,-0.8458784383641694,0.9952710408834388,0.5750240738298413,2.5564788173190998
1782985277087165696,1.5692055225372314,-2.0382332801818848,-0.4700844883918762,2.8048431873321533,0.2718365490436554,-0.835628867149353,-0.4773145616054535,0.4181353449821472,-0.1566348671913147,0.4698682725429535,-0.10184407228154806,0.0994239317923834,-0.5014554776610866,-0.8533961415315259,0.9892766468583521,0.5177003732284361,2.6203195558480967
1782985277097085440,1.5791254043579102,-1.8579963445663452,-0.6241198778152466,2.8224427700042725,0.24614699184894562,-0.8337161540985107,-0.49429649114608765,0.13230149447917938,0.05255770683288574,0.20239585638046265,-0.09037003663441166,0.09118332390512042,-0.4945071829742729,-0.8596403208860451,0.9858036799304509,0.46202579640328273,2.680768000311477
1782985277107005696,1.589045524597168,-1.8931338787078857,-0.6907734274864197,2.793768882751465,0.21984341740608215,-0.8311418294906616,-0.5107564926147461,-0.15210965275764465,0.10262620449066162,0.0888509750366211,-0.0791770319175824,0.08238888365888342,-0.48768209557725306,-0.8655110020010308,0.9811579608609937,0.4064584167482258,2.7398813715380004
1782985277116924416,1.5989644527435303,-2.1650612354278564,-0.7130337357521057,2.6017649173736572,0.19411017000675201,-0.8264845013618469,-0.5284361243247986,-0.3121826648712158,0.08893567323684692,0.03394460678100586,-0.06845575665110668,0.07366455870224553,-0.4799536043080184,-0.8715113267207679,0.9728340376431238,0.3520289245583562,2.797272206642657
1782985277126844672,1.608884572982788,-2.7509942054748535,-0.6046029925346375,2.242377519607544,0.1711224615573883,-0.8180285692214966,-0.5491324067115784,-0.4258221387863159,0.07542908191680908,0.07116609811782837,-0.058708748809140156,0.06600018666960208,-0.4701890675342189,-0.8781341517318166,0.9579751176325213,0.302085965554157,2.8503222373199755
1782985277136764416,1.6188044548034668,-3.5457396507263184,-0.681085467338562,2.148000717163086,0.15013942122459412,-0.8041757941246033,-0.5751170516014099,-0.39435631036758423,0.02590125799179077,0.21652019023895264,-0.049737607244561305,0.05906434278977103,-0.45711364963098144,-0.8860501200098666,0.9342874861548812,0.2553596457347645,2.9001206038281153
1782985277146684672,1.6287245750427246,-4.49097204208374,-0.7407308220863342,2.079441547393799,0.1295604556798935,-0.7838513255119324,-0.6072817444801331,-0.3972606658935547,0.012107610702514648,0.35169702768325806,-0.04081897605588589,0.05228039207590944,-0.4400294252747866,-0.8955303514096942,0.9008441258827893,0.2101936446913883,2.94856200867467
1782985277156604416,1.6386444568634033,-5.268044471740723,-0.796027660369873,1.9955095052719116,0.10944820940494537,-0.7561285495758057,-0.6452059745788574,-0.5092284679412842,0.17528748512268066,0.3217654228210449,-0.03221963576208016,0.04549090547325247,-0.4187213847496543,-0.9064021601862711,0.8573768779749947,0.16803342667117316,2.9935887955352922
1782985277166524672,1.6485645771026611,-5.8461995124816895,-0.8851231932640076,1.6994645595550537,0.0904330387711525,-0.7214876413345337,-0.6864964962005615,-0.5931033492088318,0.4231325387954712,0.16612601280212402,-0.024327938113560554,0.03881531384370085,-0.39401157710586726,-0.9179631924776961,0.8059483882509904,0.13097709762390417,3.0326995051969443
1782985277176443648,1.6584835052490234,-5.68958854675293,-0.9091472625732422,1.4685115814208984,0.07335888594388962,-0.68206387758255,-0.7276037931442261,-0.6793922185897827,0.5798300504684448,0.10168832540512085,-0.01786854326294883,0.0324034669987821,-0.3676249670175975,-0.9292375939452346,0.7505811613067979,0.10048301149597809,3.0635241963119944
1782985277186363392,1.6684033870697021,-4.359394550323486,-0.8703058958053589,1.345428466796875,0.057388100773096085,-0.645891547203064,-0.761269211769104,-0.7372739315032959,0.657854437828064,-0.0003274679183959961,-0.012227229448484127,0.02609037861747726,-0.34450645393897694,-0.9383417287345771,0.7021905129273672,0.07524245190268361,3.0879624573063498
1782985277196283648,1.67832350730896,-2.2652673721313477,-0.7597231864929199,1.2061374187469482,0.043277639895677567,-0.6213248372077942,-0.7823569774627686,-0.8185003995895386,0.8013938665390015,-0.07474440336227417,-0.0071776268966511625,0.02041916774368794,-0.3292484760969281,-0.9439951987525748,0.6704323814530369,0.05526067553486681,3.1071309193324
1782985277206203392,1.6882433891296387,-0.11445752531290054,-0.6387463808059692,0.9450521469116211,0.031174063682556152,-0.6129571795463562,-0.7895009517669678,-0.8315433263778687,0.8866540789604187,-0.12337136268615723,-0.0032355321654764604,0.015369939453646835,-0.32405756210177084,-0.9459070054640402,0.6597978929643534,0.03946528361315947,3.121236629744591
1782985277216123648,1.6981635093688965,1.2615807056427002,-0.6204933524131775,0.8274722695350647,0.020894888788461685,-0.6185698509216309,-0.7854519486427307,-0.8257044553756714,0.8186583518981934,-0.06522554159164429,-0.00017372448768380766,0.010997160290077001,-0.3273424644836728,-0.9448418095621219,0.6669212693444779,0.02659610384511933,3.132011659705079
1782985277226042624,1.7080824375152588,1.611231803894043,-0.59612637758255,0.6728305220603943,0.011419350281357765,-0.6304745078086853,-0.776125967502594,-0.8778133988380432,0.6934780478477478,0.02614116668701172,0.002375664378601951,0.006902114992141381,-0.3344987168215528,-0.9423679298581529,0.6821643904318837,0.014712208135444903,3.1414122933955477
1782985277235962624,1.7180025577545166,1.1288493871688843,-0.23601160943508148,0.5546364784240723,0.004554987885057926,-0.6415150761604309,-0.7670969367027283,-1.0449755191802979,0.6189015507698059,0.08200782537460327,0.004213014134163662,0.003952376504323601,-0.34122707036122674,-0.93996318783279,0.6964716768597202,0.005937886311285427,-3.134784142594895
1782985277245882624,1.7279224395751953,-0.17865675687789917,-0.20014266669750214,0.09219786524772644,0.0002528948534745723,-0.6458520293235779,-0.7634625434875488,-1.0403071641921997,0.5445489287376404,0.16328859329223633,0.005558426000929749,0.002170381484372791,-0.3438953616505642,-0.938989001889643,0.7021387942443456,0.0003312472132940929,-3.1298749360364706
1782985277255802624,1.7378425598144531,-1.6730815172195435,0.09146441519260406,-0.25157415866851807,0.0004896138561889529,-0.6389322280883789,-0.7692628502845764,-1.151917815208435,0.5037088394165039,0.4176698923110962,0.004984016255263726,0.002060150474179979,-0.33965323072086295,-0.9405352557126048,0.6931093980306117,0.0006364713653724212,-3.1312243456364373
1782985277265722624,1.7477624416351318,-3.029299736022949,0.49806466698646545,-0.20422475039958954,0.003411864396184683,-0.6214267611503601,-0.7834648489952087,-1.0067840814590454,0.3873874545097351,0.5996727347373962,0.004465477385304815,0.0033624485966584385,-0.3290232211951937,-0.9443052685515414,0.6705624539469721,0.004354812946888799,-3.1336524028041763
1782985277275642624,1.7576825618743896,-3.8672730922698975,0.5251777172088623,-0.26574721932411194,0.006964647211134434,-0.5947011709213257,-0.8039166331291199,-0.6803045272827148,0.2557424306869507,0.6739270091056824,0.00457983799388949,0.00517650742344896,-0.31307329932378797,-0.9497037607393318,0.636893924543198,0.008663178111505573,-3.1348039337361913
1782985277285561600,1.767601490020752,-3.6641926765441895,0.7075132131576538,-0.09535551816225052,0.006901557557284832,-0.5670009851455688,-0.8236882090568542,-0.4556472897529602,0.15916407108306885,0.40695542097091675,0.00551859177354004,0.005329458683896392,-0.29686276575096027,-0.9548893297552922,0.6028604568140983,0.008378651298850869,-3.1326391527275326
1782985277295481600,1.7775216102600098,-2.663944721221924,0.8476383686065674,0.04517282918095589,0.01187564805150032,-0.5412924289703369,-0.840750515460968,-0.042164359241724014,0.3128073811531067,0.06416976451873779,0.0070758259114507525,0.00826990244587903,-0.28205735210729255,-0.9593357330305113,0.5719734258876639,0.014124117030051439,-3.1309946313194486
1782985277305401600,1.7874414920806885,-1.8109049797058105,0.5958442091941833,-0.3741014003753662,0.017657633870840073,-0.5229620933532715,-0.8521729707717896,0.30279219150543213,0.37208324670791626,-0.22677594423294067,0.007725320827114924,0.01135533403932909,-0.2716331313711863,-0.9623028443237676,0.5503224720261762,0.020717750907408596,-3.131386378861012
1782985277315321600,1.7973616123199463,-1.3527621030807495,0.07440100610256195,-0.02648218348622322,0.02025345340371132,-0.5102857947349548,-0.8597663640975952,0.6254680156707764,0.31028884649276733,-0.3907829523086548,0.007424120025652548,0.012538316791203588,-0.2644987795901191,-0.9642759506117144,0.535517076783966,0.02355257056064911,-3.132656467959063
1782985277325241600,1.807281494140625,-1.0530840158462524,-0.11222133040428162,-0.08440353721380234,0.01947401463985443,-0.4998812675476074,-0.8658749461174011,0.9144248962402344,0.2668338119983673,-0.2487947940826416,0.007338395723517565,0.012046616273246838,-0.2586839742763457,-0.9658589633182447,0.523461690492138,0.022486770330091478,-3.1324212574665826
1782985277335160576,1.8172004222869873,-0.916459858417511,0.07331447303295135,-0.1212315633893013,0.018325677141547203,-0.4910365641117096,-0.8709462285041809,0.790756344795227,0.2330256998538971,-0.09084576368331909,0.0066389372229650355,0.011215774547520367,-0.25377371381165165,-0.96717589483264,0.513279243970483,0.02103800898720564,-3.133385490351063
1782985277345080576,1.8271205425262451,-1.0393216609954834,-0.6417114734649658,-0.26715347170829773,0.015966400504112244,-0.4827791452407837,-0.8755965828895569,0.5905551910400391,0.2108370065689087,-0.033262670040130615,0.005414371981338685,0.009637233316802921,-0.24921642084555287,-0.9683848031104565,0.5038254245793548,0.018232860285358272,-3.1351033970531064
1782985277355000576,1.8370404243469238,-0.8216899633407593,-0.5868815183639526,-0.35187768936157227,0.012659206986427307,-0.4750405550003052,-0.8798728585243225,0.3226832151412964,0.042911648750305176,-0.07415241003036499,0.003485510768516189,0.007409448322385262,-0.24496668167573915,-0.9694969455536142,0.4950101133951052,0.014386548736980434,-3.138037673288822
1782985277364920576,1.8469605445861816,-1.226372480392456,-0.40932443737983704,-0.3251279592514038,0.010288197547197342,-0.4660685956478119,-0.8846887946128845,0.17248159646987915,-0.03708997368812561,-0.0011296868324279785,0.0010457298391464247,0.005557726043748801,-0.24005148551114067,-0.9707437701250092,0.4848420191130324,0.011628647509223055,3.1408715344584985
1782985277374840576,1.8568804264068604,-2.108863353729248,-0.33950167894363403,-0.5170058012008667,0.00859918538480997,-0.4518278241157532,-0.8920637369155884,0.290259450674057,-0.040466487407684326,0.05554640293121338,-0.001161629898132709,0.004143128519779804,-0.23227348199943548,-0.9726410414288503,0.46881315948162333,0.009639355025013552,3.1369021862419895
1782985277384760576,1.8668005466461182,-3.212369441986084,-0.46546199917793274,-0.27073678374290466,0.006819624453783035,-0.4283331334590912,-0.9035951495170593,0.46191513538360596,0.014163821935653687,0.16558855772018433,-0.003389267487228729,0.002732438946885345,-0.2195334782007258,-0.975595324134025,0.44264733198315565,0.007547069104795418,3.1329464109123393
1782985277394679552,1.8767194747924805,-3.8908143043518066,-0.22548960149288177,-0.5754964351654053,0.00563100166618824,-0.3956485688686371,-0.9183847308158875,0.3922571837902069,0.061175912618637085,0.26440829038619995,-0.005681611592128629,0.0017029415116186404,-0.20200183346687267,-0.9793671409762117,0.4067739326651382,0.00613134251878661,3.1287256406364414
1782985277404599552,1.8866395950317383,-3.924940586090088,-0.43558603525161743,-0.3422812223434448,0.003825717605650425,-0.3594561815261841,-0.9331541657447815,0.11487241089344025,0.08401978015899658,0.04323101043701172,-0.008376244762802732,0.0003880765484042531,-0.18281898140343036,-0.9831109172773395,0.36768504785796946,0.004099747362714788,3.1237904684694056
1782985277414519552,1.896559476852417,-3.975289821624756,-0.08941371738910675,-0.2442140430212021,0.0020841211080551147,-0.3228238523006439,-0.946456789970398,0.13139976561069489,0.18201574683189392,0.0037688016891479492,-0.00970007377982168,-0.000552532374459553,-0.1636193999263916,-0.9864756887324914,0.32871155863448537,0.002202020930089882,3.1215619594937922
1782985277424439552,1.9064795970916748,-4.249991416931152,-0.11926010251045227,-0.5141102075576782,0.0025853407569229603,-0.28442978858947754,-0.9586933851242065,0.04143626242876053,0.13669419288635254,0.009718775749206543,-0.011772342970748825,-0.00040337222390912923,-0.14371201716976315,-0.989549427736692,0.2884115953358664,0.002696727203906578,3.117408832912919
1782985277434359552,1.9163994789123535,-4.9392499923706055,-0.09216564148664474,-0.5210213661193848,0.00323739112354815,-0.24051879346370697,-0.9706391096115112,0.26814016699790955,-0.11218811571598053,0.01623237133026123,-0.014355175799470293,-0.00012152678321928835,-0.12116287483914397,-0.9925288724084241,0.24290029783648925,0.0033353067039427055,3.112261130918488
1782985277444279552,1.9263195991516113,-5.336884498596191,-0.08408351242542267,-0.5667411684989929,0.0032932318281382322,-0.1901182383298874,-0.9817556738853455,0.4139736294746399,-0.2434602528810501,-0.06930023431777954,-0.01708232503158506,1.5154685597421717e-05,-0.09550999525140952,-0.9952819620097679,0.1912825747957223,0.003354418667477927,3.106947621677988
1782985277454198528,1.9362385272979736,-5.0471038818359375,-0.26365116238594055,-0.46387234330177307,0.0029564222786575556,-0.1386672705411911,-0.9903346300125122,0.44606396555900574,-0.2583664059638977,-0.3066014051437378,-0.019576860003082938,0.00011758424355496057,-0.06951747984117722,-0.9973885799570344,0.13911556363146543,0.002985267287874321,3.1021334720138944
1782985277464118528,1.9461584091186523,-4.1861252784729,-0.37326931953430176,-0.3018163740634918,0.0009306592983193696,-0.0929296463727951,-0.9956722259521484,0.37413036823272705,-0.0852777436375618,-0.4447116255760193,-0.021751302126353393,-0.0005471387113955252,-0.046514293170692174,-0.9986805807608126,0.0930639225551917,0.0009347041779280375,3.097995931828108
1782985277474039296,1.9560792446136475,-3.32249116897583,-0.33164066076278687,-0.22395381331443787,-0.0005553037044592202,-0.05561203137040138,-0.9984523057937622,0.3812926113605499,-0.022696074098348618,-0.5434330701828003,-0.02278253475394205,-0.0009116693882635341,-0.02780322618712739,-0.9993533214916208,0.055640738329091416,-0.000556164447814218,3.0960214700078126
1782985277483959296,1.9659991264343262,-2.6235947608947754,-0.5236073136329651,-0.3555041253566742,-0.004441778175532818,-0.027220839634537697,-0.9996196031570435,0.305604487657547,0.017043227329850197,-0.522765040397644,-0.024393802361156507,-0.002552512383562637,-0.013553476925691496,-0.9996072673623801,0.027224201808532016,-0.004443439340799271,3.092856052318126
1782985277493879296,1.975919246673584,-2.078599452972412,-0.5688472390174866,-0.3957751393318176,-0.009805483743548393,-0.003937340807169676,-0.9999441504478455,0.26656511425971985,0.05842647701501846,-0.46406030654907227,-0.02642222169903249,-0.004953116880406464,-0.001838465767201941,-0.999636842579059,0.003937351107337936,-0.009805716684053709,3.0887606154014042
1782985277503798272,1.9858381748199463,-1.8067704439163208,-0.5796665549278259,-0.37237799167633057,-0.015321250073611736,0.015473447740077972,-0.9997628927230835,0.2064986228942871,0.03593341261148453,-0.559914231300354,-0.028226779948818413,-0.007439617201978983,0.00795035912527212,-0.9995422857135516,-0.015474064917506978,-0.01532368423373215,3.085009689309515
1782985277513718272,1.995758295059204,-1.3049942255020142,-0.5680615901947021,-0.26675036549568176,-0.020186029374599457,0.030774319544434547,-0.9993224740028381,0.29664477705955505,-0.022320952266454697,-0.4897369146347046,-0.02990732236515677,-0.009629862888904146,0.01568483737990387,-0.9993832107340831,-0.0307791790396551,-0.020196968122104263,3.081448091936937
1782985277523638272,2.005678176879883,-1.2390486001968384,-0.8914351463317871,-0.4615137577056885,-0.027868662029504776,0.043109577149152756,-0.9986816048622131,0.424459844827652,0.07088883221149445,-0.41338199377059937,-0.03160411446320393,-0.013250289279799975,0.02199179065898083,-0.999170648653053,-0.043122940064807595,-0.02789821338455315,3.0777513858554135
1782985277533558272,2.0155982971191406,-1.4484540224075317,-0.964440643787384,-0.4164128601551056,-0.037005841732025146,0.056325022131204605,-0.9977264404296875,0.27409690618515015,0.1155804991722107,-0.2364349365234375,-0.03386827501604371,-0.01754791220484948,0.02878972348491521,-0.9988574085492369,-0.0563548466826583,-0.037073173245388245,3.072759564702091
1782985277543478272,2.0255181789398193,-1.490540623664856,-0.9740505218505859,-0.5361486673355103,-0.04670744016766548,0.07059421390295029,-0.9964109659194946,0.2725070118904114,-0.021888166666030884,-0.2039521336555481,-0.03614043533016195,-0.022081460874473158,0.03615123187837559,-0.9984484180707177,-0.07065298011118952,-0.04684139034488671,3.0675753079974206
1782985277553398272,2.035438299179077,-1.3844314813613892,-0.9068642854690552,-0.34654492139816284,-0.0565149299800396,0.08435098081827164,-0.9948321580886841,0.2100183516740799,-0.11764565855264664,-0.24653136730194092,-0.0382584514400786,-0.026655527745392777,0.04328297788071865,-0.9979740898010723,-0.08445133155823077,-0.056747517422188094,3.0625596716777466
1782985277563317248,2.0453572273254395,-1.59881591796875,-0.9280555844306946,-0.4475761353969574,-0.06544932723045349,0.09919005632400513,-0.9929137229919434,0.225620836019516,-0.10553772002458572,-0.20220035314559937,-0.04039084028847021,-0.03074563389629104,0.05096890885189272,-0.9974094223608498,-0.0993534299150012,-0.06582120379948052,3.0573717440082193
1782985277573237504,2.0552773475646973,-1.559293508529663,-1.0134080648422241,-0.14782485365867615,-0.0750071108341217,0.11418649554252625,-0.9906237125396729,0.2857004702091217,-0.16931651532649994,-0.23682373762130737,-0.04173241996765539,-0.03516500857405902,0.058749941037146924,-0.996780047341518,-0.11443610135281096,-0.07557285414471478,3.0535761737084566
1782985277583157248,2.065197229385376,-1.5444601774215698,-1.0150020122528076,-0.35643741488456726,-0.08528879284858704,0.1291109174489975,-0.9879555702209473,0.27034738659858704,-0.159613236784935,-0.19638586044311523,-0.04297981643888513,-0.03994222999350148,0.06653447735419181,-0.9960575105787512,-0.1294723352473708,-0.08611507044794611,3.0497602924206633
1782985277593077504,2.075117349624634,-1.5722516775131226,-0.8758770823478699,-0.33346816897392273,-0.09478864073753357,0.14412228763103485,-0.9850096106529236,0.08055219054222107,-0.13310545682907104,-0.18155533075332642,-0.04478668074041766,-0.04427309017205703,0.07439826094909768,-0.9952382027110303,-0.14462594857199648,-0.09593578107568425,3.0446965901474936
1782985277602997248,2.0850372314453125,-1.570352554321289,-0.9311437010765076,-0.33531349897384644,-0.10392238944768906,0.1592440903186798,-0.9817543029785156,0.24819424748420715,-0.10211518406867981,-0.20483016967773438,-0.04635094931219558,-0.04841868694372898,0.08233160057035285,-0.9943484477821133,-0.15992492922944476,-0.10546103907779025,3.0399725833206714
1782985277612917504,2.0949573516845703,-1.656125545501709,-0.9548999071121216,-0.28228968381881714,-0.11365807056427002,0.17458467185497284,-0.9780603647232056,0.3084059953689575,-0.06623201072216034,-0.26524102687835693,-0.047891997162001064,-0.05285005315862013,0.09042510956732373,-0.9933461056054577,-0.17548394602774964,-0.11568872306065556,3.0350534929982613
1782985277622836224,2.1048762798309326,-1.789080262184143,-0.894929051399231,-0.2645038068294525,-0.12299486994743347,0.1908920705318451,-0.9738749861717224,0.26470324397087097,-0.11339268088340759,-0.2816486954689026,-0.04919145624674366,-0.057069861716036584,0.09902292470075043,-0.9922286459684669,-0.192070843622469,-0.1256291864180746,3.03040242517845
1782985277632756224,2.1147961616516113,-1.7412797212600708,-0.7979950904846191,-0.21858051419258118,-0.13155806064605713,0.20753979682922363,-0.9693398475646973,0.22253096103668213,-0.19514966011047363,-0.26981115341186523,-0.05051487810964084,-0.06087961384766792,0.1078135241515718,-0.9910187699401779,-0.20905932613294642,-0.13489501545700977,3.025562088791734
1782985277642676480,2.124716281890869,-1.748361587524414,-0.9305381774902344,-0.29793834686279297,-0.14036494493484497,0.22390331327915192,-0.9644505977630615,0.28163081407546997,-0.21897472441196442,-0.3347741961479187,-0.05174961356021219,-0.06481975324470135,0.1165036180346525,-0.9897207671325906,-0.22581762763360663,-0.14452404703310257,3.020697661633346
1782985277652596224,2.134636163711548,-1.6961028575897217,-0.8601071238517761,-0.3115242123603821,-0.14951811730861664,0.24002262949943542,-0.9591837525367737,0.29891693592071533,-0.12617678940296173,-0.3116750121116638,-0.053314865101144436,-0.06889243203311343,0.12514774115448568,-0.9883063072082656,-0.24238915459066943,-0.15463610630524982,3.014935328585496
1782985277662516480,2.1445562839508057,-1.5204983949661255,-0.9161914587020874,-0.19899892807006836,-0.15853875875473022,0.2547171413898468,-0.9539311528205872,0.24806207418441772,-0.0364554226398468,-0.34164685010910034,-0.05458215265777209,-0.07296064735139669,0.13308332017735178,-0.9869074361419479,-0.257555181902235,-0.1646898988282012,3.0097187979892936
1782985277672435200,2.154475212097168,-1.2837060689926147,-0.9201588034629822,-0.05444414168596268,-0.16744543612003326,0.2678055763244629,-0.9488109350204468,0.27244114875793457,-0.11973428726196289,-0.23917734622955322,-0.05517935336792973,-0.07709979413457466,0.14017900084176785,-0.9855762974160327,-0.27111468080876666,-0.174680588552766,3.005850648477841
1782985277682355456,2.164395332336426,-1.084359049797058,-0.9434748888015747,-0.11139514297246933,-0.17648948729038239,0.27858245372772217,-0.9440568089485168,0.24521507322788239,-0.27192962169647217,-0.23163288831710815,-0.0552629110297035,-0.08144555925835986,0.14607604592361445,-0.9843649709677287,-0.28231780986327076,-0.1848145947058448,3.003092661466311
1782985277692275200,2.1743152141571045,-1.0418182611465454,-0.8679671287536621,-0.040129486471414566,-0.1850787103176117,0.28835204243659973,-0.9394673705101013,0.1967059075832367,-0.20064452290534973,-0.23356729745864868,-0.05540971022424559,-0.08558541388842454,0.1514643377606942,-0.9831904408675822,-0.2925053401970277,-0.1945130144134916,3.0002563245508145
1782985277702195456,2.1842353343963623,-0.8138737678527832,-0.9012591242790222,-0.1176113560795784,-0.19331254065036774,0.2972550690174103,-0.9350239038467407,0.24664200842380524,-0.19834759831428528,-0.16156423091888428,-0.05536687209838423,-0.08960451310588664,0.1563939781138835,-0.9820624289930066,-0.3018164685168584,-0.20387369495949606,2.9978483680406667
1782985277712115200,2.194155216217041,-0.9132757186889648,-0.8991794586181641,-0.016729220747947693,-0.2017657458782196,0.3049405515193939,-0.9307534098625183,0.3092791438102722,-0.2861112356185913,-0.2210562825202942,-0.055430636005740844,-0.09375784584550349,0.160725771322099,-0.9809711178768448,-0.30987602136103315,-0.21347383542513618,2.995234467205112
1782985277722035456,2.204075336456299,-0.7703925967216492,-0.8941320776939392,0.038035791367292404,-0.21013474464416504,0.31264054775238037,-0.9263364672660828,0.34848618507385254,-0.28628864884376526,-0.12481093406677246,-0.054994358424604116,-0.09796373588614397,0.16502988761114484,-0.9798693587807852,-0.31797167265324644,-0.22306979492514453,2.993549968414977
1782985277731954432,2.213994264602661,-0.674627423286438,-0.8835955858230591,-0.13552801311016083,-0.21843205392360687,0.31933775544166565,-0.9221230149269104,0.21470892429351807,-0.20865049958229065,-0.0966605544090271,-0.054775681886196456,-0.10213220519432532,0.16884167849617415,-0.9788059669639777,-0.32503057740144814,-0.2325923752554859,2.991481468016466
1782985277741874176,2.22391414642334,-0.37702953815460205,-0.8940953016281128,-0.09731936454772949,-0.22686883807182312,0.32377588748931885,-0.9185312986373901,0.13018916547298431,-0.08592188358306885,-0.17550861835479736,-0.05505666752621104,-0.10634320044990096,0.17153859113748432,-0.9778723669712359,-0.3297176409074577,-0.24214454468754082,2.9886286224428464
1782985277751794432,2.2338342666625977,0.10126005858182907,-0.923895001411438,-0.0878121480345726,-0.23509277403354645,0.3247591257095337,-0.9161128997802734,0.21882691979408264,-0.05506005883216858,-0.2315921187400818,-0.0546608632272009,-0.11064011296170993,0.17234356586323862,-0.9772760783861906,-0.33075703242292037,-0.2511993476912753,2.9877038215503156
1782985277761714176,2.2437541484832764,0.4486267566680908,-0.9157440066337585,-0.14172881841659546,-0.24368822574615479,0.3219541311264038,-0.9148560166358948,0.17509998381137848,-0.0971464216709137,-0.21629321575164795,-0.054362989750120744,-0.11519090090834265,0.17118130061711329,-0.9769711152347459,-0.3277927922969168,-0.26032337717532067,2.9871281590380634
1782985277771634432,2.253674268722534,0.9926159977912903,-0.8125052452087402,-0.012035532854497433,-0.2514185309410095,0.31520262360572815,-0.9151152968406677,0.13188117742538452,-0.09765806794166565,-0.22407537698745728,-0.053615096449993536,-0.11944768756329788,0.16785287569463303,-0.977078907718394,-0.3206701397320713,-0.2681242150838087,2.9883402800035253
1782985277781554176,2.263594150543213,1.0618921518325806,-0.8676915764808655,-0.12455081939697266,-0.2588626444339752,0.3054980933666229,-0.9163302183151245,0.22247043251991272,-0.004487961530685425,-0.206030011177063,-0.05249391503413513,-0.12366795036000683,0.16291448846358086,-0.9774505722955419,-0.31046148353939207,-0.2753248082722214,2.990932949354939
1782985277791473408,2.2735133171081543,0.7218146920204163,-0.8508036732673645,-0.07337711751461029,-0.26720163226127625,0.29692792892456055,-0.9167535305023193,0.21948739886283875,-0.03362226486206055,-0.048380136489868164,-0.05179775747962783,-0.1282559431654155,0.1586620235381155,-0.9775958734166101,-0.30147388205794995,-0.2836083054186773,2.992360674880851
1782985277801393152,2.283433198928833,0.021961968392133713,-0.7615565657615662,-0.10724128037691116,-0.27446091175079346,0.2930893301963806,-0.9158437848091125,0.22059738636016846,-0.13749545812606812,-0.0006448626518249512,-0.05120058744203052,-0.13218734021806547,0.1568585644299553,-0.9773947042774496,-0.2974564649005955,-0.29116403745534736,2.992988573528559
1782985277811313408,2.293353319168091,-0.43148061633110046,-0.6895606517791748,-0.07062175124883652,-0.2813240885734558,0.29499971866607666,-0.9131439924240112,0.1667305827140808,-0.09741365909576416,0.06445014476776123,-0.05124276677884207,-0.13572062350046277,0.15813893351012906,-0.976701681891825,-0.2994552299718741,-0.2988557337002877,2.991343399833332
1782985277821233152,2.3032732009887695,-0.6663553714752197,-0.6606511473655701,-0.1715368777513504,-0.2875038981437683,0.29975730180740356,-0.9096631407737732,0.1733376383781433,-0.019377052783966064,-0.03203302621841431,-0.05175184583657967,-0.13878287739456868,0.16095879509175903,-0.975783443469501,-0.3044382606708893,-0.3061206091443123,2.988297504374554
1782985277831153408,2.3131933212280273,-0.6896961331367493,-0.548511266708374,-0.23227238655090332,-0.29351451992988586,0.3054565489292145,-0.9058396816253662,0.17164257168769836,0.08181151747703552,-0.11042618751525879,-0.052688494822610836,-0.14167517429198026,0.16434203920379511,-0.97475318357606,-0.31041785636582714,-0.31334961447089704,2.9841673494124556
1782985277841073152,2.323113203048706,-0.5397098660469055,-0.5731534361839294,-0.08617061376571655,-0.2987141013145447,0.3105246424674988,-0.9024102687835693,0.20151564478874207,0.06085899472236633,-0.2002355456352234,-0.05343882410392251,-0.1441872866581077,0.16734659283247713,-0.9738323284795867,-0.3157449134582714,-0.31966535256587003,2.980636659538458
1782985277850992128,2.3330321311950684,-0.3421739339828491,-0.6116515398025513,-0.11691121011972427,-0.3042198419570923,0.3140930235385895,-0.8993307948112488,0.2682853937149048,0.03695067763328552,-0.2585518956184387,-0.05380631479493693,-0.14695290049115717,0.1695271451060095,-0.9730211883019165,-0.3195011762335768,-0.3261901569834099,2.978093261032534
1782985277860912384,2.342952251434326,-0.009296085685491562,-0.5826643705368042,-0.1876884549856186,-0.31007277965545654,0.3151877522468567,-0.8969457149505615,0.21472060680389404,0.03729027509689331,-0.19822335243225098,-0.05420996216973767,-0.14993788778818537,0.17042823331392665,-0.9723858381498692,-0.32065447762312704,-0.3328376128820334,2.975895082671949
1782985277870832128,2.352872133255005,0.48990997672080994,-0.5686292052268982,-0.04492730274796486,-0.3154275417327881,0.3128339648246765,-0.8959020376205444,0.20870757102966309,0.042009174823760986,-0.16133368015289307,-0.05399370850919484,-0.1528271620914199,0.16938964907801268,-0.9721295368645447,-0.31817528283923674,-0.33852500162083643,2.975798248718172
1782985277880752384,2.3627922534942627,0.8612781763076782,-0.6465701460838318,-0.042392272502183914,-0.3209048807621002,0.306820273399353,-0.8960365056991577,0.22512546181678772,0.026294350624084473,-0.10640490055084229,-0.0532739873009978,-0.155924944586729,0.16634051017900808,-0.9722038089556638,-0.31185035472144845,-0.3439064074279403,2.9775197347159135
1782985277890672128,2.3727121353149414,1.3910729885101318,-0.6297184824943542,0.0995430275797844,-0.3263249397277832,0.2965751588344574,-0.897527277469635,0.23762556910514832,-0.0066123902797698975,-0.08742755651473999,-0.05158981859222746,-0.15921179637228447,0.1608973364966992,-0.9726779147635265,-0.30110445893290544,-0.34872313919136594,2.982182776066882
1782985277900592384,2.382632255554199,1.7144259214401245,-0.5037334561347961,0.1676339954137802,-0.3310588598251343,0.2833061218261719,-0.9000764489173889,0.16852226853370667,-0.034206390380859375,-0.002877652645111084,-0.04925373160723106,-0.16226538514147953,0.15372608720921993,-0.9734537853570475,-0.2872397344336374,-0.35245396679250274,2.9889918662515442
1782985277910511360,2.3925511837005615,2.5616650581359863,-0.40750810503959656,0.19264107942581177,-0.33476483821868896,0.26486197113990784,-0.904312252998352,0.11532819271087646,-0.04586783051490784,0.01594555377960205,-0.04631183939113161,-0.16490158829197943,0.14370576208703417,-0.9746852356992969,-0.2680607850883245,-0.3545445937361636,2.9983306191546846
1782985277920431360,2.4024713039398193,3.353618860244751,-0.24948886036872864,0.35249045491218567,-0.3368981182575226,0.239079549908638,-0.910681426525116,0.08598259091377258,-0.013676717877388,0.010138213634490967,-0.04223741860132018,-0.16689526184844652,0.1296351308440648,-0.9765022854841516,-0.24141780307439656,-0.3543277567761417,3.0117109555248773
1782985277930351360,2.412391185760498,3.7136802673339844,-0.07871820032596588,0.3138461410999298,-0.3374493718147278,0.20791693031787872,-0.9180949926376343,0.09549078345298767,0.12748649716377258,0.07234615087509155,-0.03749626639196291,-0.16809856371283804,0.1126736974296948,-0.9785915971284117,-0.20944486646493438,-0.35222662135282634,3.0275923310840196
1782985277940271360,2.422311305999756,4.047591686248779,0.023119937628507614,0.22841408848762512,-0.33686891198158264,0.17328958213329315,-0.9254674911499023,0.08961549401283264,0.20335836708545685,0.23367977142333984,-0.0328673379102314,-0.16860910173667684,0.09400655584161374,-0.9806393012708676,-0.1741688091221451,-0.34909094363388554,3.0437969029582446
1782985277950191360,2.4322311878204346,4.208834648132324,0.08428183197975159,0.26975542306900024,-0.33606383204460144,0.13579870760440826,-0.9319977760314941,0.13003966212272644,0.17090295255184174,0.36792612075805664,-0.02817137406888745,-0.16891314539007732,0.07395590297131975,-0.982448571461038,-0.13621959774696,-0.34607282315270255,3.06041423886947
1782985277960111360,2.4421513080596924,3.975181818008423,0.08625641465187073,0.16261152923107147,-0.3346232771873474,0.09820561110973358,-0.9372208714485168,0.1319255232810974,0.12336726486682892,0.43278056383132935,-0.02366239087807934,-0.16875235342577616,0.05396496075306943,-0.983895612958405,-0.09836415175695365,-0.3429307731211723,3.076455898445487
1782985277970030336,2.4520702362060547,3.05643367767334,0.13347025215625763,-0.039579641073942184,-0.3338518738746643,0.06521348655223846,-0.9403669834136963,0.1565142571926117,0.018023192882537842,0.5252516865730286,-0.020461114598048065,-0.16874734285278334,0.036617317049571795,-0.9847663979510931,-0.06525980138407729,-0.3411425970348526,3.088798819246235
1782985277979950336,2.4619903564453125,1.6412224769592285,0.3815253674983978,0.007203009445220232,-0.33107346296310425,0.0429733507335186,-0.9426259398460388,0.11774033308029175,-0.1317947655916214,0.6776418089866638,-0.018559330207295277,-0.1675231012055885,0.02496078249025834,-0.9853774078161072,-0.042986586736240645,-0.3377654080008019,3.0965970255205137
1782985277989870336,2.471910238265991,0.13336172699928284,0.45747286081314087,0.11116163432598114,-0.32683125138282776,0.03490811586380005,-0.9444378018379211,0.13977375626564026,-0.23057156801223755,0.8141582608222961,-0.017710328480470168,-0.16538929652362142,0.02067566382924052,-0.9858525462340827,-0.03491520771648368,-0.3331596624856567,3.099796407434733
1782985277999790336,2.481830358505249,-1.0032446384429932,0.6990967392921448,0.05428376793861389,-0.32079610228538513,0.0391656868159771,-0.9463381767272949,0.18778523802757263,-0.3175317645072937,0.7649111747741699,-0.017661568757249127,-0.16221269891633405,0.022758766801967326,-0.9863352473614443,-0.03917570625469793,-0.3268299893934729,3.0993236744582284
1782985278009710336,2.4917502403259277,-1.6785576343536377,0.6975569128990173,0.09446660429239273,-0.3139392137527466,0.05265910178422928,-0.9479816555976868,0.16747009754180908,-0.2710581421852112,0.7345111966133118,-0.018461364996227726,-0.15852474313426287,0.0296493717768394,-0.9867370529177156,-0.05268346870103005,-0.3197986148483542,3.0956795017022163
1782985278019630336,2.5016703605651855,-1.4556596279144287,0.7334838509559631,-0.014909083023667336,-0.30710357427597046,0.06734599173069,-0.9492902159690857,0.21344512701034546,-0.1915677934885025,0.5403394103050232,-0.019505288663816928,-0.1548320024401262,0.03717450784141234,-0.9870484129938116,-0.06739700407906238,-0.31288240274164475,3.0914408762635324
1782985278029549312,2.511589288711548,-0.9436262249946594,0.7182345986366272,-0.08930901437997818,-0.29981985688209534,0.0788770318031311,-0.9507294297218323,0.17515555024147034,0.028758466243743896,0.4646149277687073,-0.02099434601596824,-0.15090808924346075,0.043151196596081104,-0.9873823945243593,-0.0789590502360909,-0.3054861947002149,3.0869125093959675
1782985278039469312,2.5215091705322266,0.005350167863070965,0.6671615839004517,-0.09898830950260162,-0.292918860912323,0.08261656016111374,-0.9525613188743591,0.223643958568573,0.16439272463321686,0.29556363821029663,-0.021855175801989243,-0.14726692205632153,0.045075511662999536,-0.9878273828907368,-0.0827108335075134,-0.298329252299341,3.084914101825156
1782985278049389312,2.5314292907714844,0.6993992924690247,0.6973642706871033,-0.016141893342137337,-0.28600791096687317,0.0785815492272377,-0.9549996852874756,0.24078086018562317,0.2413494884967804,0.21572661399841309,-0.022057823846732775,-0.14371780573144172,0.04295747214337538,-0.9884398362710234,-0.07866264923602975,-0.2909840789820908,3.0854364121479496
1782985278059309312,2.541349172592163,0.8046228885650635,0.7818263173103333,-0.2057674378156662,-0.2783815562725067,0.07075393199920654,-0.9578609466552734,0.2094423472881317,0.17494308948516846,0.25398826599121094,-0.022303429957848567,-0.13983894740470879,0.03891781336803692,-0.9891577151567522,-0.07081310152046741,-0.28283693243733893,3.0864187816304427
1782985278069229312,2.551269292831421,0.9663782715797424,0.8481765389442444,-0.18723423779010773,-0.26955172419548035,0.06096518039703369,-0.9610541462898254,0.21970129013061523,0.04337441176176071,0.2510474920272827,-0.022650583749715108,-0.13536781375784052,0.03388911288362993,-0.9899566041325655,-0.06100301093899051,-0.2734491851579795,3.0874443488115575
1782985278079149312,2.5611891746520996,0.8941474556922913,0.826458752155304,-0.2211538702249527,-0.25980108976364136,0.05103093385696411,-0.9643128514289856,0.19626349210739136,0.00318353995680809,0.2740357518196106,-0.023353889456150197,-0.13043210920065954,0.02882784921848693,-0.990762907991298,-0.05105310807504204,-0.2631672113785311,3.0876999092695394
1782985278089068288,2.571108341217041,0.4576742947101593,0.9166994690895081,-0.26281291246414185,-0.2471844106912613,0.04217301309108734,-0.9680502414703369,0.1837841421365738,-0.009717568755149841,0.2802908420562744,-0.024264156674258252,-0.12403415134568341,0.024298165144487426,-0.9916835847917872,-0.04218552611087435,-0.2500005820709583,3.0873655185204667
1782985278098988288,2.5810282230377197,0.47776490449905396,0.7473863363265991,-0.17641675472259521,-0.23659344017505646,0.036698535084724426,-0.9709154367446899,0.16196270287036896,0.037657544016838074,0.35442984104156494,-0.02522219519099918,-0.11865825603349067,0.02150592599310978,-0.9923817756447861,-0.03670677714518807,-0.239022382283275,3.086363595171441
1782985278108908288,2.5909483432769775,0.5680684447288513,0.7366319894790649,-0.23612269759178162,-0.2286803126335144,0.030719421803951263,-0.9730167984962463,0.1425139307975769,0.03132281452417374,0.19011884927749634,-0.02586392725442164,-0.11467763039831948,0.01845687074669284,-0.992894480350882,-0.03072425601579766,-0.23083276947682851,3.0859442057288837
1782985278118828288,2.6008682250976562,0.0826045423746109,0.6577673554420471,-0.31673699617385864,-0.22134464979171753,0.02660788595676422,-0.9748325943946838,0.07099980115890503,0.16221962869167328,0.18175703287124634,-0.02725092178957584,-0.1109662458510376,0.016437770357117916,-0.9933144771158428,-0.02661102620111901,-0.22327349266652766,3.0837543963300935
1782985278128748544,2.610788345336914,0.013479268178343773,0.4951656460762024,-0.18037940561771393,-0.21528340876102448,0.025828413665294647,-0.9762099981307983,0.10178853571414948,0.19688886404037476,0.14571988582611084,-0.028419300324811863,-0.10787197616080661,0.016082323454501782,-0.9936283995427305,-0.025831287037505934,-0.217055610437504,3.0815905460900685
1782985278138668288,2.6207082271575928,-0.20901238918304443,0.36489617824554443,-0.1983550637960434,-0.21092872321605682,0.026029305532574654,-0.9771548509597778,0.06670264899730682,0.135118767619133,0.06551849842071533,-0.02956930366303754,-0.10563571258221167,0.016238377254980507,-0.9938324997365693,-0.026032245338110657,-0.21259809923871228,3.0793267647427793
1782985278148587264,2.630627155303955,-0.8176525831222534,0.40390294790267944,-0.05872926861047745,-0.20688045024871826,0.030316056683659554,-0.9778964519500732,0.0011461973190307617,0.1766541600227356,0.12918734550476074,-0.030404356502551706,-0.10350195027238712,0.018415543003219348,-0.993993951238943,-0.030320701968956025,-0.2084825867312512,3.0772631877903436
1782985278158507264,2.640547275543213,-1.5682464838027954,0.5430275201797485,-0.15859687328338623,-0.20209139585494995,0.04162381589412689,-0.9784817695617676,-0.07807523012161255,0.045381806790828705,0.21011018753051758,-0.03152007696765265,-0.10087955621259606,0.02413387754824632,-0.9941062625851038,-0.04163584341778855,-0.20367190492939938,3.0739446331105014
1782985278168427264,2.6504671573638916,-2.577631711959839,0.6090168952941895,-0.06836818158626556,-0.19598789513111115,0.06145148351788521,-0.9786789417266846,-0.09464626014232635,-0.1626325249671936,0.26815342903137207,-0.03330541695562866,-0.09743088626480774,0.0341724136492969,-0.9940977217406544,-0.06149022678550336,-0.1976432418308646,3.0685130640175164
1782985278178347264,2.6603872776031494,-3.168064832687378,0.5540903806686401,-0.09768465906381607,-0.1903594583272934,0.08960092067718506,-0.9776169657707214,0.03729856014251709,-0.27923715114593506,0.2748582363128662,-0.03510534109510313,-0.0940666426421667,0.04840432755952492,-0.993768660061344,-0.08972125044511302,-0.1923114370391111,3.062311437481779
1782985278188267264,2.670307159423828,-3.403632879257202,0.5847142934799194,-0.04611413925886154,-0.1848251074552536,0.12125259637832642,-0.9752627611160278,0.0818282961845398,-0.12378556281328201,0.1424991488456726,-0.037068607146632127,-0.09064922875692322,0.06443079561491731,-0.9931048902453278,-0.12155169134230592,-0.18729200066450868,3.0555451742114297
1782985278198187264,2.680227279663086,-3.581578016281128,0.581928014755249,-0.2236815094947815,-0.17899078130722046,0.15508510172367096,-0.9715507626533508,0.006352841854095459,0.20520544052124023,0.13144761323928833,-0.03949969744433419,-0.08696031979538328,0.08162423322292367,-0.9920761433145997,-0.15571359129254025,-0.18218911921734804,3.0477517096748676
1782985278208107264,2.6901471614837646,-2.800760507583618,0.580125093460083,-0.13892799615859985,-0.17330574989318848,0.18553146719932556,-0.9672347903251648,0.0011408478021621704,0.38697826862335205,-0.03465723991394043,-0.042060831419276946,-0.08332612042244736,0.09715632147276135,-0.9908825452867476,-0.18661269947820328,-0.17729516721521626,3.040113728678806
1782985278218026496,2.700066328048706,-2.3505115509033203,0.6227284073829651,-0.05865303426980972,-0.167715921998024,0.20993369817733765,-0.9632233381271362,0.194022074341774,0.41299110651016235,-0.21895134449005127,-0.04376918886849503,-0.07987675288444689,0.10958116959216893,-0.9897958573135868,-0.21150714203718785,-0.17239115166577293,3.034865190035264
1782985278227946240,2.7099862098693848,-1.9924113750457764,0.6781677007675171,-0.04257846251130104,-0.16107499599456787,0.2301008403301239,-0.9597439169883728,0.22731342911720276,0.3883073329925537,-0.23187589645385742,-0.04528648936558315,-0.0759580368302732,0.11982656462640881,-0.9888483120515049,-0.23218130893280392,-0.16628154719274002,3.030627065719795
1782985278237866496,2.7199063301086426,-1.813054084777832,0.5963980555534363,-0.1304658055305481,-0.15491093695163727,0.2481497973203659,-0.956255316734314,0.29454413056373596,0.2512398362159729,-0.27840954065322876,-0.04686196592060004,-0.07228430750989655,0.12902444134122182,-0.9878925327149015,-0.25076984140392417,-0.1606022505553032,3.026504900039131
1782985278247786240,2.7298262119293213,-1.9231277704238892,0.47241833806037903,-0.011029955931007862,-0.14957758784294128,0.26508885622024536,-0.952551543712616,0.3840135931968689,0.07800501585006714,-0.30939608812332153,-0.048110562000038375,-0.06907051733046277,0.13767167603550343,-0.9868947209116082,-0.2682960758648864,-0.15575643499589514,3.023108425385424
1782985278257706496,2.739746332168579,-2.3429882526397705,0.4172491729259491,-0.2480674684047699,-0.1452648639678955,0.2851547598838806,-0.9474095702171326,0.396775484085083,-0.009825170040130615,-0.22733408212661743,-0.04975190672134849,-0.0662279494781965,0.14801713866299068,-0.9855098214403146,-0.28916788203973476,-0.152143573921354,3.0185174571160616
1782985278267626240,2.749666213989258,-2.582994222640991,0.262294203042984,-0.2609659433364868,-0.14240340888500214,0.30794093012809753,-0.940687894821167,0.32776719331741333,-0.021579235792160034,-0.2663891315460205,-0.05209042792578717,-0.06391491988879307,0.15990919090627376,-0.9836821296668714,-0.3130280171253406,-0.15024146436124278,3.0120300318691617
1782985278277545216,2.75958514213562,-2.5003297328948975,0.2757517397403717,-0.32155415415763855,-0.14005614817142487,0.33141422271728516,-0.9330320954322815,0.31609678268432617,0.10661983489990234,-0.2804688811302185,-0.05451578744684944,-0.061774554729998876,0.1722435826717217,-0.9816028683599934,-0.33780210507955344,-0.14899616272832675,3.0051782179894126
1782985278287465216,2.769505262374878,-2.1370458602905273,0.275765061378479,-0.3413369059562683,-0.1377662867307663,0.35226401686668396,-0.9257054328918457,0.2215980738401413,0.21966588497161865,-0.2871851921081543,-0.056975913222883305,-0.059658452680909996,0.18327073233083985,-0.9795950947546598,-0.3599890991260468,-0.14773868381522917,2.998467661298057
1782985278297385216,2.7794251441955566,-1.6761474609375,0.16223156452178955,-0.35132449865341187,-0.1347121000289917,0.36922547221183777,-0.9195244312286377,0.1918104887008667,0.22014525532722473,-0.2916724681854248,-0.05930394743242891,-0.0572201425123322,0.19225929996178628,-0.9778778911121572,-0.37817547048863637,-0.1454670997571166,2.9925638875078913
1782985278307305216,2.7893452644348145,-1.4655615091323853,0.15970075130462646,-0.43443748354911804,-0.13208752870559692,0.38296443223953247,-0.91427081823349,0.20198804140090942,0.21447819471359253,-0.2804771065711975,-0.061456288548612466,-0.055078309445304424,0.199576981405124,-0.9764007695634461,-0.39300323915308605,-0.14348032178725295,2.987265307179858
1782985278317225216,2.799265146255493,-1.0400642156600952,0.16189247369766235,-0.41393131017684937,-0.13139846920967102,0.39409157633781433,-0.909629762172699,0.09267166256904602,0.23742392659187317,-0.23732763528823853,-0.064057557665023,-0.05387159117971299,0.20562825270084714,-0.9750443847530933,-0.4050792316877624,-0.14346034942705638,2.980878234215728
1782985278327145216,2.809185266494751,-0.7031134963035583,0.09772147238254547,-0.4575197994709015,-0.13155798614025116,0.401247501373291,-0.9064728021621704,0.10561804473400116,0.252469539642334,-0.3626769781112671,-0.066340195570045,-0.05325509996757918,0.20958886640422092,-0.9740817927441968,-0.4128783741456697,-0.14412545096644602,2.9753587374278045
1782985278337064192,2.8191041946411133,-0.4459726810455322,0.15888187289237976,-0.4882671535015106,-0.13186223804950714,0.4056004285812378,-0.9044891595840454,0.08967170119285583,0.2426234483718872,-0.3224242925643921,-0.06898861173876057,-0.05270251977701233,0.2120798716189117,-0.9733884307085854,-0.4176356346580568,-0.144766565347879,2.969351563054131
1782985278346984448,2.829024314880371,-0.8212131261825562,0.08320922404527664,-0.5687271356582642,-0.13282370567321777,0.4105721414089203,-0.9021022319793701,0.10303853452205658,0.12017431855201721,-0.2781803607940674,-0.07178915983235262,-0.0524188734589476,0.21494453774585878,-0.9725726317704035,-0.42308143370060125,-0.14618760754814408,2.9627848059104656
1782985278356904192,2.83894419670105,-1.0805379152297974,0.18214482069015503,-0.6050019264221191,-0.13402052223682404,0.4183761179447174,-0.8983317613601685,0.14773815870285034,0.029911845922470093,-0.15611159801483154,-0.07499229019790771,-0.05204954834476058,0.21937403579215706,-0.9713609253871215,-0.4316566889272869,-0.1480959388212671,2.9549660575742975
1782985278366824448,2.8488643169403076,-1.2770835161209106,0.23343303799629211,-0.6240094304084778,-0.13458341360092163,0.4282459616661072,-0.8935841917991638,0.13740628957748413,-0.04190868139266968,-0.16030985116958618,-0.07853503326431321,-0.05116988286639861,0.22492120998075033,-0.9698578800969732,-0.44255084591716026,-0.14948724108966252,2.9463055244261938
1782985278376744192,2.8587841987609863,-1.205460548400879,0.25888559222221375,-0.5740842223167419,-0.13489437103271484,0.4385720193386078,-0.8885145783424377,0.17432306706905365,0.023250490427017212,-0.18776410818099976,-0.08194030999916259,-0.05013314665658585,0.23071495159267383,-0.9682681195768464,-0.45400910241326475,-0.15066951466593567,2.937878712752419
1782985278386664448,2.868704319000244,-0.9552533626556396,0.2491416186094284,-0.5213893055915833,-0.13490884006023407,0.4474654495716095,-0.8840668797492981,0.18274514377117157,0.057646244764328,-0.2050291895866394,-0.08512189285035861,-0.049014566339542896,0.2357204294168108,-0.9668442215800749,-0.4639292049641286,-0.15143201346851273,2.93012815264429
1782985278396584192,2.878624200820923,-0.6847037076950073,0.25648215413093567,-0.5349775552749634,-0.1351201981306076,0.45386919379234314,-0.8807640671730042,0.1537206619977951,0.05667462944984436,-0.24553292989730835,-0.08806923822867917,-0.048127842439108656,0.23937770542292564,-0.9657255756136727,-0.4711027422936604,-0.15222565835335972,2.923104181644107
1782985278406503168,2.888543128967285,-0.2924940884113312,0.21990658342838287,-0.47976991534233093,-0.13522033393383026,0.4576241075992584,-0.878803551197052,0.09182432293891907,0.04475626349449158,-0.249217689037323,-0.09092741146796637,-0.04730173360127287,0.24157974279517985,-0.9649528952354631,-0.4753212356383844,-0.1526713214750432,2.9166370832790705
1782985278416423424,2.898463249206543,0.11023563891649246,0.21470926702022552,-0.36246344447135925,-0.13505560159683228,0.45752325654029846,-0.8788813948631287,0.14811715483665466,-0.03267282247543335,-0.30349165201187134,-0.09312668330854078,-0.04667088674345685,0.2416219041381185,-0.9647632629623775,-0.47520783505286424,-0.15247491675590116,2.9121392679982514
1782985278426343168,2.9083831310272217,0.20558053255081177,0.11362605541944504,-0.4748448431491852,-0.13534997403621674,0.4554550051689148,-0.8799097537994385,0.13065025210380554,-0.0740310549736023,-0.23781180381774902,-0.09525869751014543,-0.04638654720738526,0.24061051086864374,-0.9648216123196366,-0.4728832323674588,-0.15262628599720973,2.907924268763021
1782985278436263424,2.9183032512664795,0.3428702652454376,0.035774290561676025,-0.2668643295764923,-0.13629768788814545,0.45248571038246155,-0.881294310092926,0.10642097890377045,-0.15977635979652405,-0.22675317525863647,-0.0971547779895119,-0.046545043899195636,0.23913680636079726,-0.9649912411981202,-0.4695507474459694,-0.1534406146298691,2.9041410992880676
1782985278446183168,2.928223133087158,0.15601304173469543,0.09161225706338882,-0.3235819339752197,-0.13709037005901337,0.44977548718452454,-0.88255774974823,0.11980217695236206,-0.18668347597122192,-0.21590715646743774,-0.0985596677012554,-0.046737807338279466,0.23777445449358717,-0.9651760425355065,-0.4665139503382523,-0.15410149304879905,2.901386434563828
1782985278456103424,2.938143253326416,0.012067059986293316,0.08037113398313522,-0.3012421429157257,-0.13767319917678833,0.44875866174697876,-0.8829845786094666,0.039223507046699524,-0.19645458459854126,-0.10950809717178345,-0.10017453683242333,-0.04669025056033047,0.23733465691011582,-0.9651203401493366,-0.46537579244226474,-0.1546726518470611,2.898020082346154
1782985278466022144,2.9480621814727783,-0.2559998035430908,0.12000642716884613,-0.2762342691421509,-0.13797231018543243,0.44919493794441223,-0.8827160000801086,0.029711201786994934,-0.17999938130378723,-0.07404059171676636,-0.10166748121190534,-0.046454282162773204,0.2376636193834207,-0.9648946885095776,-0.46586405872032605,-0.15504974266133742,2.8947811358816304
1782985278475941888,2.957981824874878,-0.24020792543888092,0.12341979146003723,-0.3183056116104126,-0.13807989656925201,0.45128118991851807,-0.8816344141960144,0.026583924889564514,-0.055529236793518066,0.053250014781951904,-0.10334082687652657,-0.04598849133777933,0.23888880182677777,-0.9644364957079814,-0.46820050505365757,-0.1553560348843338,2.8909855685523334
1782985278485862144,2.9679019451141357,-0.1241670772433281,0.17346352338790894,-0.270948201417923,-0.13776807487010956,0.4523625671863556,-0.8811288475990295,0.03409986197948456,-0.02810719609260559,-0.02451080083847046,-0.10489595967190617,-0.04538571255740921,0.23953226353206003,-0.9641376214301476,-0.4694126872605234,-0.15509832476281335,2.8876934741850513
1782985278495781888,2.9778218269348145,0.10872362554073334,0.144046813249588,-0.2928639352321625,-0.13755159080028534,0.4521201550960541,-0.8812870979309082,0.02301912009716034,0.026548057794570923,-0.023665904998779297,-0.10654336140810981,-0.044878342637837555,0.23946271237036992,-0.9639979827787938,-0.469140891438511,-0.15483112091330256,2.8843716144463807
1782985278505701888,2.987741708755493,0.2555610239505768,0.1702624410390854,-0.25884097814559937,-0.13705036044120789,0.4501346945762634,-0.8823808431625366,0.055843085050582886,-0.05430644750595093,-0.05472242832183838,-0.10789710751717566,-0.04439392638031851,0.23840879701041953,-0.9641310263914049,-0.466916161713829,-0.1540876367249366,2.8819879268296047
1782985278515621888,2.997661828994751,0.3985106348991394,0.1673211306333542,-0.1932375133037567,-0.13642537593841553,0.4470413029193878,-0.8840487599372864,0.02776755392551422,-0.11822965741157532,-0.024657905101776123,-0.10916498977918968,-0.043932096906628006,0.23673951828494386,-0.9644207005624554,-0.46345497524098533,-0.15311105815161524,2.879971677632396
1782985278525541888,3.0075817108154297,0.6180129051208496,0.15399014949798584,-0.24231503903865814,-0.13590000569820404,0.44251611828804016,-0.8864032030105591,-0.0023751258850097656,-0.10084134340286255,-0.04760247468948364,-0.11032445244584274,-0.043633002925748,0.23429586118606754,-0.9648990467269662,-0.45840253867008274,-0.15213162800749172,2.8783484645896684
1782985278535460864,3.017500877380371,0.971074104309082,0.22414851188659668,-0.24153590202331543,-0.135106161236763,0.4350280463695526,-0.89022296667099,0.0012102723121643066,-0.10943600535392761,-0.08713299036026001,-0.11151992033244776,-0.04336239562780327,0.23023512813764388,-0.9657509404397062,-0.45006941903350556,-0.1506172689645231,2.877121448969914
1782985278545380864,3.02742075920105,1.299468994140625,0.19487504661083221,-0.17163963615894318,-0.13396485149860382,0.4247012138366699,-0.8953671455383301,0.025383323431015015,-0.13196134567260742,-0.08279752731323242,-0.11252779985275163,-0.04313075556630983,0.22462452880384554,-0.9669648297453357,-0.4386318385379534,-0.14851831856078046,2.8767276048864496
1782985278555300864,3.0373408794403076,1.519139289855957,0.1715502291917801,-0.1281326413154602,-0.13283970952033997,0.41183263063430786,-0.90152508020401,0.050167590379714966,-0.11100560426712036,-0.07595294713973999,-0.11319946284407667,-0.04314064515154023,0.2176610676090325,-0.9684773586901972,-0.4244642526203164,-0.14629724345347328,2.87730323504038
1782985278565220864,3.0472607612609863,1.5459210872650146,0.09328950941562653,-0.10578233748674393,-0.13218790292739868,0.3978146016597748,-0.9078931212425232,0.04388527572154999,-0.07809719443321228,-0.04658991098403931,-0.11361627243936633,-0.04352101372416189,0.2101412830269651,-0.9700711230285377,-0.4091336056044515,-0.14458256762216054,2.8783653513488647
1782985278575140864,3.057180881500244,1.6226321458816528,0.0981471985578537,-0.020643334835767746,-0.13149282336235046,0.38336068391799927,-0.9141904711723328,0.03990955650806427,-0.09211617708206177,-0.026895344257354736,-0.11367043030729695,-0.0439836046425721,0.2024109612894457,-0.971686396314956,-0.39343224559199264,-0.1428554733927369,2.8801692923295246
1782985278585060864,3.067100763320923,1.4167304039001465,0.14435625076293945,-0.22529953718185425,-0.13083256781101227,0.36939525604248047,-0.9200162887573242,0.03903570771217346,-0.16320326924324036,0.014178335666656494,-0.11399749674771317,-0.04437932612267096,0.194993140204515,-0.9731458048384802,-0.3783581569168035,-0.14125965601435272,2.8812788176344646
1782985278594980096,3.0770199298858643,1.4678008556365967,0.18514232337474823,-0.11103348433971405,-0.12965072691440582,0.3559553921222687,-0.9254655241966248,-0.01713883876800537,-0.11218097805976868,0.059666574001312256,-0.11474506560755292,-0.04440220687425348,0.1878714447792153,-0.974456958458137,-0.36393623553420457,-0.1391866005875981,2.881515671910309
1782985278604899840,3.086939811706543,1.5423731803894043,0.12285098433494568,-0.06843462586402893,-0.12841778993606567,0.34207072854042053,-0.9308578968048096,0.04927046597003937,-0.07711714506149292,0.036708176136016846,-0.11488845157664283,-0.04454651759863659,0.18051771891219168,-0.9758224915633491,-0.34911969437869594,-0.13709104740013406,2.8829882728060054
1782985278614820096,3.096859931945801,1.5251506567001343,0.05975107103586197,-0.03816034272313118,-0.1275520920753479,0.3275546133518219,-0.9361829161643982,0.0474587082862854,-0.0344943106174469,0.005412042140960693,-0.1148915598573483,-0.044938307582489324,0.17288462984804118,-0.9771854343319476,-0.33371424661710847,-0.13541318030214122,2.8846787423056086
1782985278624739840,3.1067798137664795,1.4055752754211426,0.15924996137619019,0.08472456783056259,-0.12629683315753937,0.31381890177726746,-0.9410455822944641,0.03079208731651306,-0.09888362884521484,0.014684557914733887,-0.11449504288713909,-0.04515484057524897,0.16564492626423752,-0.9784752245058745,-0.3192124597164188,-0.1334118492637767,2.887117516714064
1782985278634660096,3.1166999340057373,1.2077831029891968,0.16013234853744507,-0.12128958106040955,-0.12477372586727142,0.3015561103820801,-0.9452489018440247,-0.050793908536434174,-0.18241548538208008,0.028683960437774658,-0.11438471684736347,-0.04509968840023941,0.15919037615396486,-0.979561501748876,-0.30632430697138,-0.13124217184138195,2.888814458183496
1782985278644579840,3.126619815826416,1.3359898328781128,0.2299921214580536,-0.11050937324762344,-0.12322802096605301,0.2896699011325836,-0.9491608142852783,-0.0800495594739914,-0.08691111207008362,0.04991459846496582,-0.11493028828464258,-0.04490787962391466,0.15298002660511223,-0.9804954885877709,-0.29388193408166924,-0.129106249566987,2.889089756265043
1782985278654500096,3.136539936065674,1.8512921333312988,0.26597335934638977,-0.02254866063594818,-0.12094208598136902,0.2745991349220276,-0.9539226293563843,-0.06761077046394348,-0.04693800210952759,0.009769797325134277,-0.11504376186523901,-0.04459613470370661,0.14508578464393782,-0.9816956008019169,-0.2781727907754207,-0.12611112439827835,2.89060185382928
1782985278664418816,3.146458864212036,2.0629780292510986,0.1652163863182068,-0.12184568494558334,-0.11892969906330109,0.25585174560546875,-0.9593725204467773,-0.061825916171073914,0.03585052490234375,0.040717124938964844,-0.1149808384363681,-0.044657423711860676,0.13534939904426035,-0.9830898945910392,-0.25872868338759275,-0.12333690257452486,2.8926683467519125
1782985278674338816,3.156378746032715,2.5535080432891846,0.2995472550392151,-0.10526624321937561,-0.11680630594491959,0.23374509811401367,-0.9652562141418457,-0.021758757531642914,0.07704591751098633,0.0990605354309082,-0.11525764438936455,-0.04480893577639067,0.1239518554511126,-0.984552615908534,-0.23592771599293982,-0.12042513863404587,2.894232394980578
1782985278684258816,3.1662988662719727,2.7497847080230713,0.17665086686611176,-0.10032527893781662,-0.11468496173620224,0.20797811448574066,-0.9713868498802185,-0.06660471111536026,0.048079609870910645,0.055035531520843506,-0.11534188674955413,-0.0451976465018091,0.11074175058399027,-0.9860982158533416,-0.20950742571150435,-0.11751910273272075,2.8963450743144454
1782985278694178816,3.1762187480926514,2.393857955932617,0.16883699595928192,-0.21371962130069733,-0.11310416460037231,0.18239809572696686,-0.9766976833343506,0.055639564990997314,0.04799434542655945,0.10090422630310059,-0.1152972073486716,-0.04586163887256476,0.09771317299886954,-0.9874489528276166,-0.18342492017623815,-0.11528911333301449,2.8985050668735695
1782985278704098816,3.186138868331909,1.940414547920227,0.19273461401462555,-0.2568572461605072,-0.11177820712327957,0.1612398326396942,-0.9805648326873779,0.04917139559984207,-0.01812763512134552,0.21529078483581543,-0.11627574948235017,-0.04631181970372993,0.08702189111263728,-0.9883128664116482,-0.1619467884844469,-0.11350374303697565,2.8981471155306586
1782985278714018816,3.196058750152588,1.421985387802124,0.13338708877563477,-0.15197259187698364,-0.11009462177753448,0.14447824656963348,-0.9833642244338989,0.058840349316596985,-0.19055980443954468,0.14539730548858643,-0.11672436555724953,-0.04639385698817122,0.0785206644869718,-0.9889679413604868,-0.1449856727310743,-0.11149283188268547,2.898521833600827
1782985278723938816,3.2059788703918457,0.9705768823623657,0.14280056953430176,-0.1745183914899826,-0.10910381376743317,0.13275538384914398,-0.9851255416870117,0.07661784440279007,-0.14140713214874268,0.16206645965576172,-0.11745013887033241,-0.04651958728176905,0.0726164427120268,-0.9893272649181646,-0.13314846144906817,-0.110301661815272,2.8979029128640925
1782985278733857792,3.215897798538208,0.768420398235321,0.16114255785942078,-0.061515867710113525,-0.10755957663059235,0.12409991025924683,-0.9864228963851929,0.023270025849342346,-0.10624713450670242,0.12422502040863037,-0.11786129159524437,-0.046221291879054535,0.06820659069405524,-0.9896060918042603,-0.12442068044371814,-0.10861092932539862,2.8977389469422508
1782985278743778048,3.225817918777466,0.5558639764785767,0.03233318030834198,-0.027314752340316772,-0.10699878633022308,0.11783722043037415,-0.9872515797615051,-0.059718742966651917,-0.07804229855537415,0.10895568132400513,-0.11780219703526512,-0.04630934201939881,0.0650358588253863,-0.9898224268816782,-0.11811164394847319,-0.10795907468631386,2.8982908725194267
1782985278753697792,3.2357378005981445,0.5420300960540771,0.3366645574569702,-0.24441340565681458,-0.10502886027097702,0.11203241348266602,-0.9881384968757629,-0.08102155476808548,-0.047945499420166016,0.12255316972732544,-0.11833485455058995,-0.04563033954688308,0.06203729796707459,-0.9899829168282571,-0.11226810285321495,-0.10589204087708241,2.8977012020648463
1782985278763618048,3.2456579208374023,0.8531832098960876,0.2693811058998108,-0.0676780566573143,-0.10213179141283035,0.10551755130290985,-0.9891588091850281,-0.08228593319654465,0.06316836178302765,0.15303820371627808,-0.11924500293971863,-0.04451200270022792,0.05864535865043356,-0.990131354370291,-0.1057143411517646,-0.10288657255236451,2.8964319762480573
1782985278773537792,3.255577802658081,1.1713974475860596,0.23836639523506165,-0.10178645700216293,-0.09949552267789841,0.09526342898607254,-0.9904673099517822,0.04595243185758591,0.14962488412857056,0.020069360733032227,-0.11918358284644627,-0.043805491113486875,0.053361193097859125,-0.990469015770039,-0.09540810552493131,-0.10011725274020494,2.8972996795728565
1782985278783458048,3.265497922897339,1.497580647468567,0.1808921843767166,-0.17504149675369263,-0.09759167581796646,0.08232337236404419,-0.9918158650398254,0.003917969763278961,0.2675148844718933,0.04720526933670044,-0.11977284365414678,-0.043592235010082796,0.04681645103083129,-0.9907382978352032,-0.08241664097323295,-0.09808123904116124,2.8969279999632813
1782985278793377024,3.275416851043701,1.9475218057632446,0.2800474464893341,-0.34287264943122864,-0.09538690000772476,0.0647626742720604,-0.9933313131332397,0.11980096995830536,0.227168470621109,0.0062708258628845215,-0.120574228671017,-0.04350603565940633,0.03796786130547876,-0.9910234973954823,-0.06480802897972991,-0.09573373131369498,2.89634442728364
1782985278803296768,3.28533673286438,2.4244489669799805,0.2592340409755707,-0.23516269028186798,-0.09271935373544693,0.043153829872608185,-0.9947566986083984,0.13817527890205383,0.2253398299217224,0.08780479431152344,-0.1217238475100415,-0.04344114130066461,0.027102082719489645,-0.9912425236676237,-0.043167233151102644,-0.09293954726844741,2.895209893393445
1782985278813217024,3.2952568531036377,2.6163454055786133,0.2189124971628189,-0.3150099515914917,-0.09008597582578659,0.01752415858209133,-0.995779812335968,0.2382793426513672,0.19619044661521912,0.07997781038284302,-0.12236767952154905,-0.04367653800807126,0.014228740467364198,-0.9914212706791841,-0.017525055755021522,-0.09022216137976127,2.895190692001861
1782985278823136768,3.3051767349243164,2.8717567920684814,0.21336565911769867,-0.46007871627807617,-0.08799810707569122,-0.009713500738143921,-0.996073305606842,0.19041509926319122,0.24605688452720642,0.18947845697402954,-0.12378271489153543,-0.04430528926237805,0.000632972953255496,-0.991319625671286,0.009713653710430715,-0.08811624450988488,2.8935736320012193
1782985278833057024,3.315096855163574,3.0572891235351562,0.2609541416168213,-0.4879642724990845,-0.0852556973695755,-0.03982272744178772,-0.9955629706382751,0.204106405377388,0.13483920693397522,0.14297813177108765,-0.12530662515027083,-0.04483867346389862,-0.014422593791893585,-0.9909993669289918,0.039833261325759796,-0.08542725026619781,2.8917408960675814
1782985278842976768,3.325016736984253,2.9519577026367188,0.21096928417682648,-0.4636448323726654,-0.08211933821439743,-0.06993286311626434,-0.9941658973693848,0.13274800777435303,0.14914123713970184,0.20498132705688477,-0.12714150100450658,-0.045243696881051676,-0.029496865411176916,-0.9904129900313681,0.06998998854970577,-0.08241414735635774,2.8891316613281237
1782985278852897024,3.3349368572235107,2.792398691177368,0.172983318567276,-0.40658795833587646,-0.07969155162572861,-0.09833960980176926,-0.9919569492340088,0.205423966050148,0.13845497369766235,0.2150099277496338,-0.1284592688965954,-0.045935823166108586,-0.043719889761292,-0.9896850971937129,0.09849880678585796,-0.08016553897041137,2.8873930867812203
1782985278862816768,3.3448567390441895,2.8304219245910645,0.2934167981147766,-0.43484383821487427,-0.07623343914747238,-0.12633918225765228,-0.9890535473823547,0.15005546808242798,0.14104865491390228,0.18033772706985474,-0.1299005322848625,-0.0461467430960079,-0.057824869807059434,-0.9887632287929434,0.12667771588888455,-0.07692507206869417,2.8852166158494583
1782985278872736000,3.354775905609131,2.65952205657959,0.22861701250076294,-0.39876607060432434,-0.07227000594139099,-0.15350967645645142,-0.9855008125305176,0.1295057237148285,0.13162857294082642,0.18653535842895508,-0.13123232208004618,-0.0460970220809188,-0.07158675751046323,-0.9876884953828968,0.15411907164295172,-0.07320224373360197,2.8830584568049007
1782985278882655744,3.3646957874298096,2.687471866607666,0.2436329871416092,-0.2379886507987976,-0.06845463812351227,-0.17964963614940643,-0.9813460111618042,0.16667546331882477,0.08966855704784393,0.1809767484664917,-0.13215578186634075,-0.046066227871200495,-0.0848817069489862,-0.9865129098633484,0.18063028135125858,-0.06964305438608268,2.8815627232908234
1782985278892576000,3.3746159076690674,2.506899833679199,0.31934988498687744,-0.36153367161750793,-0.06315670907497406,-0.20512397587299347,-0.9766961336135864,0.15139830112457275,0.04063424468040466,0.1243097186088562,-0.13298262252683088,-0.045278253091528615,-0.09798878229688496,-0.9852226419699716,0.20659037470754088,-0.06457371829346432,2.8799561936445417
1782985278902495744,3.384535789489746,2.048762559890747,0.2791987359523773,-0.21828784048557281,-0.05780141428112984,-0.22752265632152557,-0.9720557928085327,0.15460318326950073,-0.0016796141862869263,0.20096814632415771,-0.13381090823560843,-0.04427749062413108,-0.10959750643292757,-0.9839322052201981,0.22953285455172878,-0.059393127135782035,2.8781074054659235
1782985278912416000,3.394455909729004,1.8455047607421875,0.3251011371612549,-0.21996310353279114,-0.053672295063734055,-0.24610358476638794,-0.9677563309669495,0.26665449142456055,-0.06712883710861206,0.23267942667007446,-0.1342848481486412,-0.04360079663052497,-0.11925101792706656,-0.9827745383925783,0.24865812846050298,-0.05540378898287384,2.876923306008854
1782985278922335744,3.4043757915496826,1.5017529726028442,0.25331777334213257,-0.2029106169939041,-0.049829453229904175,-0.262113481760025,-0.9637497067451477,0.22547337412834167,-0.08755692839622498,0.1929367184638977,-0.13488745236858282,-0.04291382202110406,-0.12760696770634566,-0.9816721669870885,0.26521161389768355,-0.05165772669965476,2.8753832858152832
1782985278932254720,3.414294719696045,1.5857698917388916,0.22828316688537598,-0.19999104738235474,-0.046739328652620316,-0.2768780589103699,-0.9597676396369934,0.2516801357269287,0.04091617465019226,0.21783959865570068,-0.13531325028153243,-0.04250391965824872,-0.1353129082877581,-0.9805988447572029,0.28054361320607085,-0.04866014557052183,2.8742158262751922
1782985278942174976,3.4242148399353027,1.6597601175308228,0.13178566098213196,-0.09119932353496552,-0.044364988803863525,-0.2922233045101166,-0.9553205370903015,0.24863439798355103,0.14055094122886658,0.176435649394989,-0.1356877730809511,-0.04250083933054741,-0.14329488201444956,-0.9794125979943628,0.29655080538755446,-0.04640655706952898,2.8731983376784083
1782985278952094720,3.4341347217559814,1.867150068283081,0.11972419917583466,-0.12483984231948853,-0.0427042655646801,-0.30888140201568604,-0.9501413702964783,0.2341105192899704,0.20274129509925842,0.15743201971054077,-0.13577361310536382,-0.0429230656100748,-0.15194383390939062,-0.9780777858164151,0.31401671383933594,-0.044914944832639386,2.872833786018733
1782985278962014976,3.4440548419952393,2.097170352935791,0.1610223799943924,0.006863323040306568,-0.04081723466515541,-0.32759666442871094,-0.9439355731010437,0.1534728705883026,0.20621302723884583,0.15751290321350098,-0.13554665073497443,-0.04334688446174196,-0.1617196902691215,-0.9765218353903008,0.333758749923102,-0.04321462457009237,2.873024560552475
1782985278971934720,3.453974723815918,2.260795831680298,0.21284611523151398,-0.028567172586917877,-0.03900809958577156,-0.34791073203086853,-0.9367157816886902,0.13468071818351746,0.23609432578086853,0.18775337934494019,-0.13501452881517048,-0.04388665476035895,-0.17238347164456636,-0.9747456056479304,0.3553416959772841,-0.041619427954874895,2.873793429434413
1782985278981854976,3.463894844055176,2.344977378845215,0.32067590951919556,0.07908712327480316,-0.03644058480858803,-0.3693510591983795,-0.9285752177238464,0.13304398953914642,0.2287871241569519,0.21531838178634644,-0.1341794931125845,-0.04407796937120018,-0.1837648958168893,-0.9727710791243311,0.37831061763295665,-0.03922342236994239,2.8749619363210126
1782985278991774720,3.4738147258758545,1.9232460260391235,0.35166609287261963,0.16824042797088623,-0.033750008791685104,-0.3891504108905792,-0.9205557703971863,0.1732611209154129,0.12732484936714172,0.3516928553581238,-0.13282913265998322,-0.04397590148709259,-0.19439197171552683,-0.9708935945247493,0.3997091139428437,-0.03664623045870546,2.8770822870349173
1782985279001693952,3.483733892440796,1.1320972442626953,0.4023686647415161,0.2167227417230606,-0.030972640961408615,-0.40303125977516174,-0.9146619439125061,0.14051547646522522,-0.04717928171157837,0.4812513589859009,-0.13124159223790216,-0.043310654674997416,-0.20197329812094586,-0.9695909151948319,0.4148266276947559,-0.0338494565816957,2.8796365442595078
1782985279011613952,3.4936537742614746,0.3905292749404907,0.5050272941589355,0.24219298362731934,-0.02785729058086872,-0.40982455015182495,-0.9117388725280762,0.12166833132505417,-0.18743494153022766,0.47069889307022095,-0.1294215812735453,-0.04186562126867667,-0.2058587443003425,-0.9690817544585126,0.4222616938122367,-0.03054452028516586,2.882609315142033
1782985279021533952,3.5035738945007324,-0.1849939525127411,0.5416236519813538,0.15852072834968567,-0.02370300143957138,-0.4104416072368622,-0.9115787744522095,0.11212768405675888,-0.11870267987251282,0.384860634803772,-0.12796772654191463,-0.039494593797444306,-0.20652068626449996,-0.9692335073915725,0.4229382854588898,-0.025996285795986243,2.8846326497361146
1782985279031453952,3.513493776321411,-0.33939722180366516,0.531292736530304,0.09968117624521255,-0.01926407963037491,-0.40772512555122375,-0.9129014611244202,0.1407087743282318,0.07700613141059875,0.29299789667129517,-0.12684968794930748,-0.03680304446537639,-0.20541371426673918,-0.9697215387737409,0.4199612993075703,-0.0210989032341757,2.8859456900476506
1782985279041373952,3.523413896560669,-0.18723459541797638,0.5900886654853821,0.11934302747249603,-0.014696399681270123,-0.40534937381744385,-0.9140437245368958,0.1684592217206955,0.24560511112213135,0.18517714738845825,-0.1258306707360568,-0.034096960892660615,-0.20448848464843658,-0.9701487179385292,0.417360972752779,-0.016077057348263424,2.8870324787415576
1782985279051293952,3.5333337783813477,-0.06586103141307831,0.6349871158599854,0.09897597134113312,-0.009505168534815311,-0.4042014479637146,-0.9146206378936768,0.14198198914527893,0.3711661696434021,0.16295742988586426,-0.12464154237191323,-0.031131277325396993,-0.20425606125617005,-0.9704508548671978,0.41610560327529406,-0.010392097095231007,2.888311710010242
1782985279061213952,3.5432538986206055,0.10900425910949707,0.6063669323921204,-0.0037924833595752716,-0.00409224396571517,-0.4042836129665375,-0.9146245121955872,0.1328154057264328,0.4498768746852875,0.15902453660964966,-0.12388460889376034,-0.02823333303617933,-0.2046719601275787,-0.9705488068580034,0.41619543514072477,-0.0044742038455688376,2.8886227545465144
1782985279071133952,3.553173780441284,0.4415479302406311,0.6963673830032349,0.04210766404867172,0.0018530196975916624,-0.4067237079143524,-0.9135493636131287,0.18668459355831146,0.4206397235393524,0.13185685873031616,-0.12307902058249114,-0.02522068418660257,-0.20637160533388887,-0.9703743562857341,0.41886485429170933,0.0020283712137751917,2.8888356374527313
1782985279081052672,3.5630927085876465,0.48287510871887207,0.7283346056938171,-0.09623370319604874,0.008340487256646156,-0.41097137331962585,-0.9116100668907166,0.2030700296163559,0.29657626152038574,0.12366145849227905,-0.122420358517892,-0.022086800473611494,-0.20906251668335535,-0.9699578051872303,0.42351933569318423,0.009148927804112934,2.8885293082223846
1782985279090972928,3.5730128288269043,0.26029062271118164,0.7760413885116577,-0.19295498728752136,0.015716126188635826,-0.4144744277000427,-0.9099252223968506,0.17968791723251343,0.1549377143383026,0.18754369020462036,-0.12234803816593663,-0.018572893387083754,-0.21140583335875207,-0.9695326212276993,0.4273652026444481,0.017270169747924457,2.8867864504615097
1782985279100892672,3.582932710647583,-0.4702216386795044,0.847296416759491,-0.22600561380386353,0.02412993833422661,-0.4138023853302002,-0.9100468754768372,0.1768893450498581,0.0753624439239502,0.25927478075027466,-0.12253892224243142,-0.014299106265590535,-0.21159418153557844,-0.9695398902641669,0.4266268878031861,0.026508838466421523,2.88440600450653
1782985279110812928,3.592852830886841,-1.3023213148117065,0.8680131435394287,-0.16810522973537445,0.03275628387928009,-0.40564829111099243,-0.9134421348571777,0.1744885891675949,0.06647589802742004,0.37419652938842773,-0.12263008581653262,-0.009385111333623533,-0.2078241038302447,-0.9704035173985733,0.4176879707118769,0.03584491473381585,2.882587360693037
1782985279120732672,3.6027727127075195,-1.9133785963058472,0.8677660226821899,-0.18613749742507935,0.04143397510051727,-0.39073067903518677,-0.9195720553398132,0.20139439404010773,0.04009896516799927,0.39100760221481323,-0.12270424001589271,-0.003996539362339117,-0.20049439426157287,-0.971972037933062,0.4014252348925548,0.04502743385257741,2.8812737259118366
1782985279130652928,3.6126928329467773,-2.318997859954834,0.8886452913284302,-0.16780970990657806,0.050203680992126465,-0.37107545137405396,-0.9272446632385254,0.21088945865631104,0.10842591524124146,0.3364548683166504,-0.12268263453324643,0.0017492202957602343,-0.19072132293549487,-0.9739462590226537,0.38016688028801243,0.054090053003639345,2.88057389934394
1782985279140572672,3.622612714767456,-2.170375347137451,0.9622893929481506,-0.0991012305021286,0.05917934700846672,-0.3501354157924652,-0.9348278045654297,0.2052401900291443,0.2356182038784027,0.2740612030029297,-0.12245533240947112,0.007689739081762824,-0.18035237001344553,-0.9759193144540436,0.3577156749805507,0.06322071825975557,2.880510222693861
1782985279150491904,3.6325318813323975,-1.9432079792022705,0.9821440577507019,-0.13684886693954468,0.06878066062927246,-0.33091798424720764,-0.9411495923995972,0.20084214210510254,0.37805238366127014,0.24020659923553467,-0.1220805232586037,0.0138269907728121,-0.1709796177612376,-0.977584313146551,0.3372761881006235,0.0729518491342551,2.880693601043858
1782985279160411904,3.642451763153076,-1.7229912281036377,1.046018362045288,-0.08627410978078842,0.07874877005815506,-0.3137342035770416,-0.9462396502494812,0.24554628133773804,0.4506360590457916,0.2398797869682312,-0.12159083908619982,0.02000966242574847,-0.1627261057603518,-0.9789461286611961,0.31912325166010685,0.08303151966099571,2.8810769628934776
1782985279170331904,3.652371883392334,-1.5318106412887573,1.0728613138198853,-0.16304361820220947,0.08905772864818573,-0.2983490824699402,-0.9502928853034973,0.3103563189506531,0.4239136576652527,0.2570403218269348,-0.12120278169331411,0.026210625812050966,-0.15545600166668777,-0.9800287293333433,0.3029625041654936,0.09344316672388926,2.8812225764335357
1782985279180251904,3.6622917652130127,-1.3776274919509888,1.1800426244735718,-0.25720953941345215,0.10035088658332825,-0.2845000624656677,-0.9534093737602234,0.32150885462760925,0.4178771376609802,0.2375432848930359,-0.121112565647697,0.032748430055864204,-0.14907333533436481,-0.9808345298259703,0.2884848943835557,0.10486865011487766,2.8806322311799226
1782985279190171904,3.6722118854522705,-1.1870312690734863,1.1763089895248413,-0.2959479093551636,0.11234646290540695,-0.27179691195487976,-0.9557744264602661,0.28946322202682495,0.49350711703300476,0.1952153444290161,-0.12146365063498499,0.039494674172736444,-0.1433630526199063,-0.9813938720697316,0.2752597399161,0.11700803519831371,2.879087774898597
1782985279200091904,3.682131767272949,-1.0093121528625488,1.259356141090393,-0.42817145586013794,0.12483547627925873,-0.2612798810005188,-0.9571566581726074,0.3172421455383301,0.4882543981075287,0.1089969277381897,-0.12201591565851563,0.0463263162659094,-0.1388363470462944,-0.9816773386204984,0.26434792057466727,0.1296911897254942,2.877008320494055
1782985279210011904,3.692051887512207,-1.1018751859664917,1.3180547952651978,-0.5838249325752258,0.1384413242340088,-0.25052163004875183,-0.9581612348556519,0.2300736904144287,0.48590371012687683,0.09938132762908936,-0.12346270349112917,0.05361407975299618,-0.13433138698519698,-0.9817523495732561,0.25321903095270537,0.14349342753783131,2.8730949494664153
1782985279219930880,3.7019708156585693,-1.1386592388153076,1.3669596910476685,-0.6018854379653931,0.15261922776699066,-0.23896971344947815,-0.9589582085609436,0.23840250074863434,0.48207277059555054,0.1237836480140686,-0.12511933427293292,0.06122310709510535,-0.12950916692084416,-0.9817455956111582,0.24130469095616952,0.15782742018170143,2.868893443772371
1782985279229850880,3.711890935897827,-1.0380568504333496,1.3912296295166016,-0.6340150833129883,0.1672569215297699,-0.22762653231620789,-0.9592764377593994,0.2720893919467926,0.4073293209075928,0.10312104225158691,-0.1269278188248225,0.06904912113999667,-0.12487593776443404,-0.9815944200055792,0.22963953772590043,0.17262207231427398,2.8644472585117144
1782985279239770880,3.721810817718506,-1.0264230966567993,1.4544823169708252,-0.6069509983062744,0.18210813403129578,-0.21692076325416565,-0.9590526819229126,0.3145807087421417,0.35316649079322815,0.0816570520401001,-0.1286645542451384,0.07697330185702292,-0.12061831927633868,-0.9813112657272172,0.21865901147216504,0.18764936700227278,2.860192510329549
1782985279249691136,3.7317309379577637,-1.0944479703903198,1.570339322090149,-0.6422187089920044,0.19781313836574554,-0.20560331642627716,-0.9584347605705261,0.33279597759246826,0.31636688113212585,0.1203916072845459,-0.13037860685626734,0.0853917015609494,-0.11615018075134029,-0.980927538612085,0.20708015810430347,0.2035339592175897,2.856092379455476
1782985279259610880,3.7416508197784424,-1.0678826570510864,1.6774630546569824,-0.6685126423835754,0.21445927023887634,-0.19403308629989624,-0.957266092300415,0.33978572487831116,0.29648059606552124,0.16347336769104004,-0.132165047384608,0.09432005272749867,-0.11167220530194395,-0.9803904145588146,0.1952717126058672,0.22039392832404764,2.8519172062764033
1782985279269531136,3.7515709400177,-1.1421741247177124,1.7865617275238037,-0.6058225035667419,0.2322271317243576,-0.18200092017650604,-0.9554821848869324,0.3787958025932312,0.41469746828079224,0.21480530500411987,-0.13385483406772883,0.1038887668619676,-0.10707955065129228,-0.9797059926216432,0.18302098359701277,0.23842407948810262,2.848036227334
1782985279279450880,3.761490821838379,-1.1565730571746826,1.9329886436462402,-0.5416374206542969,0.25081002712249756,-0.1699894219636917,-0.952994167804718,0.44125232100486755,0.4487980306148529,0.2667301893234253,-0.13503129232714067,0.11396162948985203,-0.10254584567935336,-0.978909412647367,0.1708189277027426,0.25734537760957327,2.845286810482802
1782985279289369856,3.771409749984741,-1.383205771446228,1.9819157123565674,-0.5700300335884094,0.27026376128196716,-0.1564406454563141,-0.9499914646148682,0.44013965129852295,0.358634889125824,0.36236029863357544,-0.13603318421517974,0.12463530711410206,-0.09731547437584187,-0.9780033727976014,0.15708589367072406,0.2771680821434346,2.843226234578369
1782985279299289856,3.781329870223999,-1.6520838737487793,2.20538592338562,-0.5917571783065796,0.2906307876110077,-0.14065711200237274,-0.9464403390884399,0.4512820541858673,0.21750037372112274,0.43069326877593994,-0.13694778827325985,0.13597855671609768,-0.09104757080138713,-0.976967503857247,0.14112509258656086,0.29793744512012144,2.841840211073313
1782985279309209856,3.7912497520446777,-1.956191062927246,2.4319701194763184,-0.6001908779144287,0.31345972418785095,-0.12185665220022202,-0.9417504668235779,0.42324987053871155,0.19155879318714142,0.4750604033470154,-0.13754245027096168,0.14887437443603727,-0.08343373606524283,-0.975682934233908,0.1221602612883832,0.3213136672006422,2.8416769181509145
1782985279319129856,3.8011698722839355,-2.1167173385620117,2.446985960006714,-0.5874034762382507,0.3368755578994751,-0.1007259413599968,-0.9361459016799927,0.4685596525669098,0.1971309781074524,0.5228310823440552,-0.13790861544481917,0.16232825107303447,-0.07467652320207294,-0.9741941724276745,0.10089704385820578,0.34542603532232535,2.842721953843138
1782985279329049856,3.8110897541046143,-1.915349006652832,2.65221905708313,-0.5541242957115173,0.36094725131988525,-0.08012313395738602,-0.9291380047798157,0.5550531148910522,0.20359724760055542,0.4686124324798584,-0.1380915232143323,0.17619748089366552,-0.06622280340196492,-0.972368148062705,0.080209108932032,0.3705320734084784,2.844407849983663
1782985279338969856,3.821009874343872,-1.9215419292449951,2.810840368270874,-0.46675875782966614,0.3864811360836029,-0.06065217778086662,-0.9203008413314819,0.5646144151687622,0.22401277720928192,0.43855035305023193,-0.13800542651529168,0.19088529010968505,-0.058415592465382145,-0.9701056234072746,0.060689426157112814,0.3975862111251409,2.8467429559709463
1782985279348889856,3.830929756164551,-1.993478536605835,2.9153239727020264,-0.43686386942863464,0.4126945734024048,-0.04104913771152496,-0.9099440574645996,0.5851081609725952,0.12472833693027496,0.5426802635192871,-0.1374045580878026,0.20610513478318684,-0.05048415459049945,-0.9675185036803924,0.0410606744220141,0.425792564610277,2.8505670883344307
1782985279358809856,3.8408498764038086,-2.012611150741577,3.044395685195923,-0.5086765885353088,0.4397429823875427,-0.02119932882487774,-0.8978734612464905,0.5165558457374573,0.05090819671750069,0.6194921135902405,-0.13691545170490746,0.22193986019808165,-0.04249682334254498,-0.9644640951290148,0.021200916312724433,0.45542255295976053,2.8546438641677745
1782985279368728832,3.850768804550171,-1.9872479438781738,3.143852949142456,-0.29275059700012207,0.46711090207099915,-0.0012707178248092532,-0.8841978311538696,0.5037295818328857,0.08667415380477905,0.7172209024429321,-0.13596248582499576,0.2381614111641562,-0.03435455838249886,-0.9610479057667866,0.001270718137128119,0.4860209124784086,2.8601966389867535
1782985279378649088,3.8606889247894287,-1.669378638267517,3.189617395401001,-0.22162394225597382,0.494552344083786,0.015972154214978218,-0.8690010905265808,0.6039583683013916,0.051349617540836334,0.6902748942375183,-0.13446924758416526,0.2544575899724847,-0.027400722706703337,-0.9572974939297553,-0.015972834160053136,0.5173922947440577,2.866710568699096
1782985279388568832,3.8706088066101074,-1.0025702714920044,3.2388131618499756,-0.04665226489305496,0.5220754146575928,0.02820318192243576,-0.852432906627655,0.6998636722564697,0.002177072688937187,0.6138922572135925,-0.1329216670014477,0.2706600613715762,-0.022949538567032846,-0.9531780092474044,-0.028206922359855512,0.549526118176797,2.8724294851248646
1782985279398489088,3.8805289268493652,-0.7717125415802002,3.397874116897583,0.14278289675712585,0.5498926043510437,0.0353887565433979,-0.8344853520393372,0.8011510968208313,-0.054233353585004807,0.43378955125808716,-0.1312639469116248,0.28690486569161106,-0.021045747177977102,-0.9486898801139605,-0.03539614614980571,0.5826483211329878,2.877226534092073
1782985279408408832,3.890448808670044,-0.14971385896205902,3.4238240718841553,0.3426990211009979,0.5780770778656006,0.03757864981889725,-0.8151164054870605,0.9063131809234619,-0.18708425760269165,0.509009838104248,-0.12895664618757702,0.3032792875448674,-0.021528518485814087,-0.9438900679778941,-0.03758750011028929,0.6168710030909683,2.882005703236058
1782985279418329088,3.9003689289093018,0.12365884333848953,3.442995309829712,0.4880732595920563,0.6055868268013,0.035314422100782394,-0.7949952483177185,1.0308115482330322,-0.2730463445186615,0.5109834671020508,-0.12676049066676692,0.3192367563363236,-0.024295175252906174,-0.9388447367014893,-0.035321765190985496,0.6509781435907521,2.8851027120528063
1782985279428248832,3.9102888107299805,0.6888636946678162,3.606388568878174,0.6803315281867981,0.6332391500473022,0.028972987085580826,-0.7734136581420898,1.1092228889465332,-0.311550498008728,0.5721350312232971,-0.12412910815418991,0.33533252139014014,-0.02907333163031685,-0.9334338871536825,-0.028977042735314464,0.6860749631538648,2.8875317135425145
1782985279438167808,3.9202077388763428,1.9124178886413574,3.543564558029175,0.8705826997756958,0.6603574752807617,0.014215430244803429,-0.7508168816566467,1.0167055130004883,-0.3894290626049042,0.632317066192627,-0.12212586253748269,0.3508660154927681,-0.038530638101461775,-0.9276280264116699,-0.01421590881295811,0.7213835445500179,2.8851527059692437
1782985279448087808,3.9301278591156006,2.5137550830841064,3.671846866607666,0.9877786040306091,0.687006950378418,-0.00852382555603981,-0.7266008853912354,1.049595832824707,-0.4038144052028656,0.5698626041412354,-0.12108661918055813,0.36594991302489005,-0.052727654273652676,-0.9212158432591809,0.008523928695008093,0.7573963241182883,2.8768150608417375
1782985279458007808,3.9400477409362793,3.6704585552215576,3.739715099334717,1.324130892753601,0.712850034236908,-0.037859708070755005,-0.7002938389778137,1.0853676795959473,-0.5678378939628601,0.6636422276496887,-0.12027648843022422,0.38058258381808174,-0.0707811562645373,-0.9141556138502586,0.03786875948501267,0.7942832097537675,2.8640684459911965
1782985279467927808,3.949967861175537,4.44888973236084,3.8152594566345215,1.2891565561294556,0.7376963496208191,-0.07575704902410507,-0.6708688139915466,1.0782063007354736,-0.7249631881713867,0.6301888823509216,-0.12072466644779088,0.3945353963731142,-0.09437906223855957,-0.9060132238171098,0.075829699670937,0.832806288937438,2.84310702914093
1782985279477849088,3.9598889350891113,4.165438175201416,3.823753833770752,1.356274127960205,0.7619264721870422,-0.11352301388978958,-0.6376367211341858,1.0395567417144775,-0.900850772857666,0.8588128685951233,-0.12141735018676508,0.4087829925918224,-0.11865116133103408,-0.8967030106507479,0.1137682741676885,0.8739719142209612,2.8192349276435706
1782985279487768832,3.96980881690979,4.466082572937012,3.7464685440063477,1.535060167312622,0.7827120423316956,-0.150960311293602,-0.6037986874580383,1.1917600631713867,-1.4518991708755493,1.013787031173706,-0.12156705182420476,0.42154229678277855,-0.14283820078861761,-0.887198299759003,0.1515396430638169,0.9137276083620656,2.794644250400719
1782985279497689088,3.979728937149048,4.3898210525512695,4.391601085662842,1.6866295337677002,0.803873598575592,-0.18946310877799988,-0.5638182759284973,1.4739737510681152,-1.9281668663024902,0.4687560200691223,-0.12086566244491335,0.4356382487697404,-0.16825626387289885,-0.8759570517225111,0.1906153246772512,0.9591469352375829,2.7680092504864136
1782985279507608832,3.9896488189697266,4.441147327423096,4.4491353034973145,2.0628597736358643,0.8240023255348206,-0.22771185636520386,-0.5188135504722595,1.4830808639526367,-1.9695690870285034,0.43160951137542725,-0.11859955945554661,0.4506020295209922,-0.19378092127782742,-0.8633312595300302,0.22972714909723377,1.0088771382685746,2.7413363694882467
1782985279517528064,3.999567985534668,5.009142875671387,4.325614929199219,2.7327306270599365,0.8394531607627869,-0.2710758149623871,-0.47099509835243225,1.8183226585388184,-1.938595175743103,0.24397480487823486,-0.11448803399167448,0.4639348710431815,-0.22196146052219107,-0.8499353603711389,0.2745105083060578,1.0594910095705004,2.7123882417914484
1782985279527448064,4.009487867355347,5.405640602111816,4.281180381774902,2.9229378700256348,0.8507781028747559,-0.31784361600875854,-0.4185118079185486,1.8529419898986816,-1.7857940196990967,-0.048605501651763916,-0.10938225922325813,0.476321075441075,-0.2527099797503587,-0.8350397950121196,0.3234543078190996,1.1136363841181822,2.678656298221079
1782985279537367808,4.019407749176025,5.293445110321045,4.190524578094482,3.0764260292053223,0.8568834066390991,-0.36370372772216797,-0.36533626914024353,1.705723524093628,-1.7439165115356445,-0.23763003945350647,-0.10478955737551233,0.4864438957807809,-0.2840848406241398,-0.8195653964588603,0.3722408510461806,1.1677787895923364,2.639690218879579
1782985279547288064,4.029327869415283,5.039755821228027,3.369396686553955,3.507751226425171,0.8581312298774719,-0.40984630584716797,-0.30925214290618896,1.9471971988677979,-1.741856575012207,-0.35403215885162354,-0.09814491798300148,0.49566744926905876,-0.31573359743764956,-0.8031150058589164,0.4222855510389429,1.2249056036783956,2.5994573980021842
1782985279557207808,4.039247751235962,4.9793477058410645,3.0359246730804443,3.445925712585449,0.8522922992706299,-0.4532814025878906,-0.26102492213249207,1.9723231792449951,-1.7515830993652344,-0.44863080978393555,-0.09128511092301773,0.5003043306163454,-0.34522907080654663,-0.7887836194343837,0.47044321730629607,1.2736043153083196,2.56030887804712
1782985279567128064,4.04916787147522,4.822268962860107,3.2012181282043457,3.157024383544922,0.8444685339927673,-0.49240654706954956,-0.21073445677757263,1.507673978805542,-1.3029884099960327,-0.7912033796310425,-0.08541746098948073,0.5046606172649956,-0.3740994989443972,-0.7733506697818123,0.5148525729221135,1.3262442081632162,2.515950299702274
1782985279577047808,4.059087753295898,4.860360622406006,2.539293050765991,2.866274833679199,0.8346173167228699,-0.5261379480361938,-0.1630730926990509,1.1402971744537354,-0.45509374141693115,-0.6267828941345215,-0.0805075946765341,0.5077515104352434,-0.40081399271349794,-0.7583238724961326,0.5540526757878959,1.3778405777592393,2.4700262713384675
1782985279586968064,4.069007873535156,5.721243858337402,2.7001380920410156,1.8772218227386475,0.8253299593925476,-0.5533719658851624,-0.11229321360588074,0.9466578960418701,-0.08902299404144287,-0.4919090270996094,-0.07934207079528303,0.5107401282682938,-0.4277825562347125,-0.7415196277759564,0.5864071160219517,1.4355681260611284,2.412912378069615
1782985279596886784,4.0789268016815186,5.138935565948486,1.9521454572677612,0.7928901314735413,0.8201957941055298,-0.5685314536094666,-0.06364761292934418,0.4781135320663452,-0.14605289697647095,-0.36333906650543213,-0.08361540096728697,0.5139440408923147,-0.45170534087173,-0.7244531586732854,0.6047196286214821,1.4933510196065918,2.349737868618406
1782985279606807040,4.088846921920776,4.46375846862793,2.7358195781707764,0.15823645889759064,0.8183599710464478,-0.5744338631629944,-0.017692148685455322,0.5864253640174866,0.7008376121520996,-0.05136913061141968,-0.08923017364935773,0.5187446126649016,-0.47123025412341424,-0.7077317299696362,0.6119123459361356,1.5491806635370473,2.291154171725888
1782985279616726784,4.098766803741455,2.861997127532959,2.7040891647338867,-1.4371293783187866,0.8214629292488098,-0.5697281360626221,0.0246686190366745,0.4274842143058777,0.9639084339141846,-0.10285472869873047,-0.09425703826900911,0.5277205106680122,-0.4835756119445614,-0.6919402582857984,0.6061749994436868,1.600817411096337,2.247323279297812
1782985279626647040,4.108686923980713,1.66867196559906,3.903628349304199,-1.9347997903823853,0.8295304179191589,-0.5547673106193542,0.06412826478481293,0.2122786045074463,0.5289494395256042,-0.24181687831878662,-0.09817860696468926,0.5418543026652328,-0.48832166382277375,-0.6769762267005413,0.5880832707077407,1.6479495783436333,2.2212302599784435
1782985279636566784,4.118606805801392,0.5265596508979797,2.7291922569274902,-3.5145232677459717,0.8408095240592957,-0.532171905040741,0.09915801137685776,0.43186497688293457,0.49928927421569824,-0.3058840036392212,-0.10153194684558829,0.559219770562623,-0.4866746909790077,-0.6634095199815633,0.5611638339584153,1.6881857234356492,2.210900297952186
1782985279646487040,4.128526926040649,-0.6832577586174011,2.0010135173797607,-4.621292591094971,0.859528660774231,-0.49748706817626953,0.11711924523115158,0.6247546672821045,0.9221239686012268,-0.2904742956161499,-0.10973939414565799,0.5761161144767585,-0.4760775613992956,-0.6552843458013449,0.5206995279840695,1.7062221433316058,2.217373055381931
1782985279656406784,4.138446807861328,-1.794335961341858,1.987943410873413,-5.2787699699401855,0.8808779716491699,-0.4554859399795532,0.12878940999507904,0.5571255683898926,1.0021473169326782,-0.31317663192749023,-0.11785275230719179,0.5949869276095474,-0.4586777321584802,-0.6493967093151283,0.47291797296913735,1.7159734529544581,2.238823887196735
1782985279666327040,4.148366928100586,-3.843398332595825,2.453770160675049,-5.638059616088867,0.9011155962944031,-0.41193705797195435,0.13527195155620575,0.6610792279243469,0.8618424534797668,-0.29269683361053467,-0.12173336243999285,0.6153771804889776,-0.43468023273763035,-0.6461772117785658,0.42457884307024446,1.7197998170283586,2.278640954663686
1782985279676246016,4.158285856246948,-4.188414096832275,3.3787755966186523,-5.942673206329346,0.9196022152900696,-0.3650742769241333,0.14509405195713043,0.42962557077407837,1.1584855318069458,-0.43542301654815674,-0.12181944183287809,0.6389393177674187,-0.4053437723904733,-0.6423495060386631,0.37371259082255026,1.7272854216869276,2.3313030133713233
1782985279686166016,4.168205976486206,-3.129667282104492,2.8894972801208496,-6.614399433135986,0.9360221028327942,-0.31316077709198,0.16060160100460052,0.612928032875061,0.87724769115448,-0.7411985397338867,-0.12360342783533361,0.6630313087739237,-0.3750870321696209,-0.6359413097064625,0.31851941427138386,1.7407205891030972,2.381114290408334
1782985279696086016,4.178125858306885,-3.7192769050598145,3.8296635150909424,-6.408102035522461,0.9491616487503052,-0.2569546699523926,0.18184180557727814,1.7528645992279053,-0.43617579340934753,-0.8030424118041992,-0.12747583433985893,0.687081957838434,-0.3447307475746674,-0.6267607081928467,0.2598697560881123,1.7600842283961484,2.4267211586861217
1782985279706006016,4.188045978546143,-2.8591508865356445,5.941418647766113,-6.142265319824219,0.9531854391098022,-0.20589323341846466,0.2214619666337967,1.5056004524230957,-0.808160126209259,-0.8335378170013428,-0.12599956237604268,0.7148143088706814,-0.3158662441339269,-0.6110589784972114,0.20737640544674585,1.7990848744925643,2.474357738348739
1782985279715926016,4.197965860366821,-1.875876545906067,5.48588752746582,-6.093306541442871,0.9503931403160095,-0.15304045379161835,0.27079761028289795,0.9476322531700134,-0.33308929204940796,-1.1369932889938354,-0.12770054086824664,0.7423791997566674,-0.2902962727742514,-0.5901641526007236,0.15364424573428337,1.848372765570052,2.5121637869775615
1782985279725846016,4.207885980606079,-0.14054206013679504,4.6071906089782715,-6.060136318206787,0.9436749219894409,-0.09893309324979782,0.3157365620136261,1.509282112121582,0.2710369825363159,-1.0011308193206787,-0.13467633025190565,0.7655243846191647,-0.26803115002858835,-0.5692045982976074,0.09909520035460062,1.893670188673697,2.539383124201515
1782985279735766016,4.217805862426758,1.8660166263580322,4.433164596557617,-4.828251361846924,0.9319902658462524,-0.04619433730840683,0.3595280945301056,1.5245070457458496,-0.4211518466472626,-1.1184239387512207,-0.1464429480052663,0.7848541929981745,-0.2525231565303113,-0.5466173173181856,0.046210782154406244,1.938970193832461,2.5507285456421083
1782985279745684736,4.22772479057312,3.9402456283569336,4.434078693389893,-4.218560695648193,0.9163311719894409,0.005688963923603296,0.40038108825683594,1.3584034442901611,-0.39176684617996216,-1.2127437591552734,-0.16416587486422635,0.7998210082108604,-0.2459205175735992,-0.5223591544589413,-0.0056889945347574945,1.9827360461316048,2.541279430046418
1782985279755604992,4.237644910812378,5.275717735290527,4.781436443328857,-4.290685653686523,0.8955845236778259,0.06325890123844147,0.4403715431690216,0.9040676951408386,-0.20101523399353027,-0.9518613219261169,-0.18786048535700436,0.8125809429687251,-0.24474063299178792,-0.49449246661336776,-0.06330116866047716,2.0277932773988114,2.5170759368348095
1782985279765524992,4.247564792633057,5.8586344718933105,4.228353023529053,-4.137685775756836,0.8711016178131104,0.1261490136384964,0.47462475299835205,0.9743422269821167,-0.4631851017475128,-0.7575989365577698,-0.21527354078877442,0.8228995438875346,-0.2452523613206606,-0.465129038951684,-0.12648600593325035,2.0696814621265873,2.48709706388979
1782985279775444992,4.2574849128723145,6.098514556884766,3.661184310913086,-3.8769493103027344,0.8454840779304504,0.18882966041564941,0.4994999170303345,1.3227593898773193,-0.8659079074859619,-0.4664493799209595,-0.24373119826935077,0.8299306405081944,-0.24691109830740687,-0.43685830036797396,-0.18997022272834177,2.104413081808162,2.4546199612465487
1782985279785364992,4.267404794692993,5.987332820892334,3.504620313644409,-3.984187364578247,0.8188187479972839,0.25146540999412537,0.5160439014434814,1.060225009918213,-0.8258824348449707,-0.44510573148727417,-0.2725556866555041,0.8344676991343589,-0.24836586821904236,-0.4095015930340656,-0.25419400610433507,2.1331474777844406,2.422232552520649
1782985279795284992,4.277324914932251,5.384422779083252,3.132929801940918,-3.8000524044036865,0.790743350982666,0.3124752342700958,0.5263876914978027,0.8134436011314392,-0.9708462953567505,-0.3437705636024475,-0.29991402458567934,0.8376990456773798,-0.2478994621848057,-0.38322015569103945,-0.31779764217608586,2.1581204703477717,2.3949106919022993
1782985279805204992,4.28724479675293,4.889333724975586,2.7140564918518066,-4.1400628089904785,0.7618603110313416,0.3697672486305237,0.531827986240387,0.804378092288971,-1.1398324966430664,-0.15975773334503174,-0.32488204500250556,0.8400204204377999,-0.2455192314620924,-0.3585214948121771,-0.3787585146626239,2.1802224223371773,2.373628822034811
1782985279815124992,4.2971649169921875,5.457021713256836,2.555699348449707,-3.836639404296875,0.7318668961524963,0.42680224776268005,0.5312351584434509,0.6969355940818787,-0.9366747140884399,-0.4605717658996582,-0.3500894681731405,0.8408295502587309,-0.2421224012698754,-0.3343946926569834,-0.4409538275414898,2.198670035623506,2.3533208704516704
1782985279825043968,4.30708384513855,5.376820087432861,2.2740049362182617,-3.7439374923706055,0.7022116780281067,0.48202818632125854,0.5239728093147278,0.8667274713516235,-0.5748322010040283,-0.7924817204475403,-0.37589022511505965,0.8393985895390111,-0.239575457037695,-0.310998594081757,-0.50296811498631,2.21184490359191,2.329250866888431
1782985279834963968,4.317003965377808,5.410539150238037,1.8962574005126953,-3.8450911045074463,0.6721651554107666,0.5358352661132812,0.5109546184539795,0.8022305965423584,-0.6543350219726562,-0.829909086227417,-0.40157188631498997,0.8365921014494646,-0.23577736294128981,-0.28855281584792564,-0.5654967419572375,2.2207696685453757,2.3059660184881
1782985279844883968,4.326923847198486,5.381008625030518,1.915987491607666,-3.9400594234466553,0.6417045593261719,0.5878433585166931,0.49260079860687256,0.7581062316894531,-0.6018967032432556,-0.9207624197006226,-0.42707554664337943,0.8324986524509735,-0.23075178913437866,-0.2670320772443428,-0.6283903761982603,2.2254944108279777,2.283085711914067
1782985279854803968,4.336843967437744,5.207812786102295,1.5299901962280273,-3.886491298675537,0.6093514561653137,0.637747049331665,0.47113633155822754,0.728035569190979,-0.2867949604988098,-1.0446836948394775,-0.4520320704472269,0.8275573822867577,-0.22520421997965412,-0.24515062712433067,-0.6915697258950808,2.2289662255884575,2.2601399618191325
1782985279864723968,4.346763849258423,5.271939754486084,1.283972144126892,-3.137576103210449,0.5801175236701965,0.6824114322662354,0.44472306966781616,0.889074981212616,0.09667187929153442,-0.8145654797554016,-0.4760443158504095,0.8210192836057547,-0.21974727229062999,-0.22587695217845186,-0.7510565401515937,2.224842430449343,2.2342939849667944
1782985279874643968,4.356683969497681,5.3497633934021,1.3169479370117188,-2.4837210178375244,0.5553367733955383,0.7202097177505493,0.41581103205680847,1.0793524980545044,0.10384112596511841,-0.7599883675575256,-0.49872487762540446,0.8128111266143145,-0.21735589108860068,-0.20824961893270544,-0.804104533694614,2.2134999514289815,2.199613750157711
1782985279884563968,4.366603851318359,5.471271514892578,1.2056349515914917,-3.0007758140563965,0.5304568409919739,0.756485641002655,0.38255104422569275,1.027282476425171,-0.08709770441055298,-0.8670786023139954,-0.5220240699332689,0.8030645918075636,-0.21532017661229477,-0.190303634558127,-0.8579227740922631,2.195591319448602,2.1578375167808272
1782985279894483968,4.376523971557617,4.758362770080566,0.570816695690155,-3.1061439514160156,0.5034003853797913,0.7909414768218994,0.3478504717350006,0.971437931060791,-0.12060749530792236,-0.8090473413467407,-0.5441285574651081,0.7936273476667386,-0.20995446129647605,-0.1732021465732883,-0.9123461105535814,2.1754575774442753,2.1205251813092105
1782985279904402944,4.3864428997039795,4.326910972595215,0.28087055683135986,-2.8076975345611572,0.47823628783226013,0.8202546238899231,0.31380313634872437,1.220295786857605,-0.0692170262336731,-0.9303650856018066,-0.5638458766786945,0.7845839752486938,-0.20329671003263194,-0.15867025353510028,-0.9618559787093298,2.151495035625923,2.0853289318920494
1782985279914322944,4.396362781524658,3.9655730724334717,0.09112086147069931,-3.041720151901245,0.4537772536277771,0.8458058834075928,0.28053298592567444,1.1260566711425781,0.0007364749908447266,-1.272781491279602,-0.5818424680951427,0.7758320940509145,-0.1958342515480251,-0.14557782496367497,-1.0080739273113413,2.1245033650957064,2.0505040575012896
1782985279924242944,4.406282901763916,4.015738487243652,-0.9527305960655212,-3.191058874130249,0.42777684330940247,0.870195209980011,0.2444727122783661,0.8984102606773376,-0.12271308898925781,-1.285625696182251,-0.5998520163260691,0.7667318473258616,-0.18536080914309397,-0.13394430636591295,-1.0555984401367806,2.08999319444679,2.014780440171353
1782985279934162944,4.416202783584595,2.3161261081695557,-1.7148723602294922,-3.509004831314087,0.40126731991767883,0.8915095329284668,0.21022626757621765,1.1727073192596436,-0.24621546268463135,-1.37160325050354,-0.6156177353586358,0.7589890692606059,-0.1704368711148187,-0.12610155714609164,-1.1006666553371924,2.05338514301499,1.9889013170740886
1782985279944082944,4.4261229038238525,1.371504545211792,-2.167863368988037,-2.3975019454956055,0.3788297474384308,0.9066241979598999,0.1857967972755432,1.4035340547561646,-0.11129045486450195,-1.170293927192688,-0.6261348120088567,0.7543002756638846,-0.15469160900296394,-0.12270587722856718,-1.1352132734819134,2.0267742471832983,1.9804410124486267
1782985279954002944,4.436042785644531,0.3121523857116699,-2.6743643283843994,-2.373490333557129,0.3619951009750366,0.9165967702865601,0.1697353571653366,1.4418684244155884,-0.8368542790412903,-1.4072993993759155,-0.6323097083396955,0.7520178765687803,-0.13905680711535126,-0.12376112619952985,-1.1594835666938932,2.009246490775843,1.9871490369233324
1782985279963922944,4.445962905883789,-0.9092091917991638,-3.1532182693481445,-2.219520330429077,0.34512463212013245,0.9243571758270264,0.1626434475183487,1.23879873752594,-1.2736461162567139,-1.5457305908203125,-0.6344225284093058,0.7527756975547398,-0.12103912310579923,-0.12722564454387872,-1.1793472370621956,2.0111887451158235,2.0201081340008873
1782985279973842944,4.455882787704468,-1.3857557773590088,-3.6196470260620117,-1.8688017129898071,0.33218029141426086,0.9291452765464783,0.16231228411197662,1.433978796005249,-1.224555492401123,-1.482243299484253,-0.6330769606660468,0.7554822073039213,-0.10199400547642515,-0.13437787535137133,-1.192094261511357,2.025304266747858,2.071939658950035
1782985279983761920,4.465801954269409,-1.2033950090408325,-4.334112167358398,-1.944869875907898,0.3208451271057129,0.9332168102264404,0.16175469756126404,1.4968581199645996,-0.9310654401779175,-1.5624505281448364,-0.6312109994321251,0.7577890479983205,-0.08144388527679824,-0.14385835616377837,-1.2032638414445,2.0377599752201503,2.1275692196344993
1782985279993681920,4.475721836090088,-0.4822266697883606,-5.0106611251831055,-2.1804027557373047,0.3093320429325104,0.9381979703903198,0.1552358716726303,1.4243409633636475,-0.4552115797996521,-1.471504807472229,-0.6310552380069635,0.7577584335034241,-0.05848156525505438,-0.15540695333090007,-1.2173863308762165,2.0359165964686814,2.1752707648521414
1782985280003601920,4.485641956329346,0.5702676773071289,-5.555853366851807,-2.4602530002593994,0.2952027916908264,0.9452630281448364,0.1390436887741089,1.2773222923278809,-0.0186120867729187,-1.3683222532272339,-0.6342496056008663,0.7539413842575187,-0.03307924321584691,-0.16794528304687756,-1.2383997869517085,2.0109847810144674,2.2046816241075655
1782985280013521920,4.495561838150024,1.8564707040786743,-5.911391258239746,-2.4773669242858887,0.27906471490859985,0.9538219571113586,0.11111526191234589,1.2666658163070679,0.35461920499801636,-1.1233680248260498,-0.6415186171686676,0.7453265393008838,-0.006780866203736679,-0.1813732675402881,-1.2657131303517228,1.9497243076096291,2.2001902069441233
1782985280023441920,4.505481958389282,3.0650393962860107,-6.279186248779297,-2.518134117126465,0.2609080374240875,0.9627236723899841,0.07134349644184113,1.2931079864501953,0.30990493297576904,-0.8687068223953247,-0.6526871106424207,0.731633975422275,0.01958253780376792,-0.19577451814248245,-1.2968975756732868,1.8377145135507302,2.1463778248562537
1782985280033361920,4.515401840209961,4.111428737640381,-6.781902313232422,-2.4424312114715576,0.23996318876743317,0.9705625176429749,0.020640665665268898,1.355770468711853,0.009173810482025146,-0.7935593128204346,-0.6670184078789109,0.7128685832201134,0.04624625003016406,-0.21157993840255654,-1.3275553757534362,1.6566010939920397,2.026033036735274
1782985280043281920,4.525321960449219,5.27515172958374,-7.338202953338623,-1.9697304964065552,0.2177499383687973,0.9751599431037903,-0.04059441387653351,1.5649343729019165,-0.32281631231307983,-0.8409973978996277,-0.683645704958821,0.6887973280459478,0.07253298378313872,-0.23005582203767075,-1.3474419690854866,1.3864853795705343,1.8204912519261574
1782985280053201920,4.5352418422698975,6.343091011047363,-7.855961322784424,-1.2040607929229736,0.1965160071849823,0.9740102291107178,-0.11263009160757065,1.8227863311767578,-0.6305348873138428,-0.8356121182441711,-0.7018641581721886,0.6589988544347986,0.09698177984640742,-0.25239199549548563,-1.3423092908983252,1.050365194574983,1.5529697343647457
1782985280063120896,4.54516077041626,6.964222431182861,-8.392879486083984,-0.44045501947402954,0.17643509805202484,0.9654086232185364,-0.19198109209537506,2.0082268714904785,-0.9449771642684937,-0.6806995868682861,-0.7198017391731523,0.6242878608231632,0.11947433880360746,-0.2790625909511301,-1.3070059758159722,0.7432263503156605,1.3197313113270415
1782985280073040896,4.555080890655518,7.26284122467041,-8.629082679748535,0.24571694433689117,0.15573714673519135,0.949125349521637,-0.27369123697280884,1.9951112270355225,-1.2714064121246338,-0.4545496702194214,-0.735830028825745,0.5860897027650563,0.14018999924992623,-0.30886839899994784,-1.2504465343556947,0.5173322905400264,1.172274357964341
1782985280082960896,4.565000772476196,7.144186496734619,-8.710796356201172,1.0440791845321655,0.1345463991165161,0.9256446361541748,-0.3536657392978668,1.9764612913131714,-1.4292609691619873,-0.20167791843414307,-0.7487217313403528,0.5458689344129898,0.15872692624659898,-0.3409527219481064,-1.1827356343705842,0.36352601633765663,1.1002416104525052
1782985280092880896,4.574920892715454,6.754725933074951,-8.653100967407227,1.8719981908798218,0.11413230746984482,0.8969266414642334,-0.4271959960460663,2.0236239433288574,-1.3762662410736084,0.015284955501556396,-0.7570342896513148,0.505735980488957,0.17502321142297458,-0.3748294223225196,-1.1127693119015416,0.2610686533340147,1.0824181280346516
1782985280102800896,4.584840774536133,6.244315147399902,-8.593562126159668,2.529754161834717,0.0940949022769928,0.864817202091217,-0.49319103360176086,2.069021463394165,-1.3003945350646973,0.2541773319244385,-0.7606642251801514,0.4663845666580625,0.18944636867791265,-0.40986031991981287,-1.0447861941444723,0.18852233547881608,1.097192757447608
1782985280112720896,4.594760894775391,5.607960224151611,-8.512008666992188,3.016828775405884,0.07310736924409866,0.831916868686676,-0.5500633120536804,2.0626044273376465,-1.1634597778320312,0.5375968813896179,-0.7595570490139669,0.428645492263862,0.20305514302189245,-0.4450896001366003,-0.982553241812477,0.1321328150772057,1.130870726473928
1782985280122640896,4.604680776596069,5.211386203765869,-8.43432903289795,3.543928861618042,0.05122027546167374,0.7990375757217407,-0.5990955233573914,2.0171544551849365,-1.1396900415420532,0.6980029940605164,-0.7542443787211759,0.39226508075796657,0.21582478784498493,-0.4802741323732642,-0.9256929117631388,0.08528860387043535,1.1766037530563977
1782985280132560896,4.614600896835327,4.90836763381958,-8.239248275756836,4.130042552947998,0.029617268592119217,0.7663521766662598,-0.641737699508667,1.9750213623046875,-1.1267037391662598,0.750929594039917,-0.7449895918523762,0.35705789601657495,0.2272461334372948,-0.5156156480628887,-0.873143480726278,0.04611894697552152,1.2323458949645962
1782985280142480896,4.624520778656006,4.524875640869141,-7.932084560394287,4.600864410400391,0.009223016910254955,0.7345640063285828,-0.6784766912460327,1.9167108535766602,-1.06423020362854,0.8004554510116577,-0.7320581936757926,0.3234022959606007,0.23700760946820568,-0.5507532659244412,-0.8250239465734133,0.013592874270986047,1.2959367472727878
1782985280152400128,4.634439945220947,4.369606018066406,-7.612367153167725,4.9803996086120605,-0.010230159386992455,0.7039998173713684,-0.710126519203186,1.863181233406067,-0.9714711308479309,0.830121636390686,-0.7160181015074006,0.29125947843583144,0.24516251817475546,-0.5851336484008132,-0.7810138185903682,-0.01440511142876802,1.3643584990124997
