time,seconds_elapsed,rotationRateX,rotationRateY,rotationRateZ,gravityX,gravityY,gravityZ,accelerationX,accelerationY,accelerationZ,quaternionW,quaternionX,quaternionY,quaternionZ,pitch,roll,yaw
1783423556318587904,0.1679060459136963,-0.26285722851753235,0.3615078032016754,-0.6665480732917786,0.1655867099761963,0.6867088079452515,-0.7078220248222351,-0.054609522223472595,0.05309826135635376,0.09035986661911011,0.8263740174913955,-0.29218580623397067,0.2464070935488006,-0.41354187721623015,-0.7569518251913215,0.22980562844782912,-0.8362607036122225
1783423556328508160,0.1778261661529541,-0.23279599845409393,0.38882172107696533,-0.6930292248725891,0.1615520417690277,0.692063570022583,-0.7035261392593384,-0.058234795928001404,0.06823611259460449,0.07794630527496338,0.8234543743137984,-0.2950085834506546,0.24740022512378673,-0.4167566101756271,-0.764343934340538,0.22571875287708945,-0.8459956987496886
1783423556338427904,0.1877460479736328,-0.14242926239967346,0.4289054274559021,-0.699228048324585,0.1557186096906662,0.6991250514984131,-0.6978365182876587,-0.053576260805130005,0.08693146705627441,0.05905783176422119,0.8199032862631588,-0.2990640381827901,0.24827893174673332,-0.4203294049177744,-0.7741730513945981,0.21954794876660477,-0.8576438391405852
1783423556348346880,0.19766497611999512,-0.04984128475189209,0.4593770503997803,-0.7241970300674438,0.1487242579460144,0.7069031000137329,-0.6914976835250854,-0.04485766589641571,0.10846555233001709,0.05133044719696045,0.8159596523148619,-0.3037032445056416,0.24902910694777433,-0.42421533101269043,-0.7851101811371544,0.2118483944441099,-0.8708895905438742
1783423556358267136,0.20758509635925293,0.07589021325111389,0.48239681124687195,-0.7691327929496765,0.1410442739725113,0.71485435962677,-0.684901237487793,-0.040336281061172485,0.1155288815498352,0.06380754709243774,0.8117352962278076,-0.308532936137292,0.24971343281492686,-0.428411549238413,-0.7964158479770358,0.20309450145165198,-0.8855552024686755
1783423556368186112,0.21750402450561523,0.2448539286851883,0.48752498626708984,-0.8103612065315247,0.13307517766952515,0.7222679853439331,-0.6786898970603943,-0.02731652557849884,0.0942908525466919,0.07769197225570679,0.8074419370334771,-0.3130919288082134,0.25025686657246965,-0.432877009846427,-0.8070760109064598,0.1936201956264872,-0.9013501726545161
1783423556378106112,0.22742414474487305,0.46318328380584717,0.5103760361671448,-0.8813678026199341,0.1252478063106537,0.7283656001091003,-0.6736442446708679,-0.020038455724716187,0.08747607469558716,0.09333723783493042,0.8032788325600995,-0.31683076432959817,0.25059160610312076,-0.43768170709960125,-0.8159336128068185,0.18382672932270766,-0.9181554199545902
1783423556388026112,0.23734402656555176,0.7320038080215454,0.5258727073669434,-0.9877328872680664,0.1175713837146759,0.7326396107673645,-0.6703851222991943,-0.0395684614777565,0.1008564829826355,0.11298155784606934,0.7993325461522516,-0.3194095991645269,0.2505692544959435,-0.4430125760536684,-0.8221922016864814,0.1736132518423128,-0.9363288957999145
1783423556397945088,0.24726319313049316,0.9414460062980652,0.5445614457130432,-1.1067426204681396,0.10936467349529266,0.7352609634399414,-0.668902575969696,-0.06052129715681076,0.1549978256225586,0.15188908576965332,0.7954982923027599,-0.3210433577287102,0.24995972654537524,-0.4490365450607302,-0.8260516637599544,0.16206470767387784,-0.9566245762066486
1783423556407865088,0.2571830749511719,1.330666184425354,0.5548596382141113,-1.391021490097046,0.09995432198047638,0.7365143895149231,-0.6689960956573486,-0.06115122139453888,0.1973387598991394,0.19099926948547363,0.7915294411397993,-0.3219832780785426,0.2486538300227034,-0.45604749517492726,-0.8279028016280296,0.14831231706255765,-0.9801555644125047
1783423556417784064,0.2671020030975342,1.8687855005264282,0.4266069531440735,-1.7469629049301147,0.0876784548163414,0.7351198792457581,-0.6722434759140015,-0.02624659240245819,0.23590368032455444,0.20590436458587646,0.7874894578257762,-0.3218140978127038,0.24558898575789392,-0.4647388392804499,-0.8258435228783891,0.12969452559081973,-1.0094097093959287
1783423556427704064,0.277022123336792,2.306643486022949,0.3546435534954071,-1.8071444034576416,0.07430291175842285,0.7287954688072205,-0.6806881427764893,0.038749441504478455,0.29206329584121704,0.25611233711242676,0.7843060404751199,-0.31911770063218586,0.24045753989506394,-0.47456108966449995,-0.816561164536048,0.10872803948027551,-1.0412081205121404
1783423556437624064,0.2869420051574707,2.1889450550079346,0.506257176399231,-1.8976709842681885,0.06199384853243828,0.7197445631027222,-0.6914655566215515,0.004976976662874222,0.18301117420196533,0.30975162982940674,0.7815055601288036,-0.314776062316606,0.2349111809964756,-0.4847492797314394,-0.8034342736627288,0.08941666256536906,-1.07238380748587
1783423556447543040,0.2968611717224121,2.0669493675231934,0.5622048377990723,-1.8734662532806396,0.05060213431715965,0.7131454944610596,-0.6991873383522034,-0.0025827400386333466,0.09085536003112793,0.41514497995376587,0.777754872730747,-0.3116909948016288,0.23077057218119973,-0.49466257180345374,-0.7939751016750499,0.07224682384267886,-1.1026598130096967
1783423556457463040,0.3067810535430908,2.154268503189087,0.537948727607727,-2.0661115646362305,0.038124699145555496,0.710235595703125,-0.7029309272766113,0.09650358557701111,-0.0240325927734375,0.36920595169067383,0.7726993893430136,-0.3109751428576684,0.2276598163385409,-0.5043819576298623,-0.7898328484382854,0.05418367640800212,-1.1340274119553826
1783423556467382016,0.3166999816894531,2.495070457458496,0.45993196964263916,-2.266389846801758,0.025276925414800644,0.7029264569282532,-0.7108132243156433,0.16509172320365906,-0.03164660930633545,0.3584420084953308,0.7963116150511834,-0.3202323940228484,0.2050478232177634,-0.470419305437024,-0.7795036334967399,0.035545596083311724,-1.0525749401637166
1783423556477302016,0.32662010192871094,3.5208771228790283,0.37238356471061707,-2.405945301055908,0.011899004690349102,0.6856019496917725,-0.7278793454170227,0.21678447723388672,0.09453415870666504,0.3253982663154602,0.8004416149957558,-0.3143520438823499,0.19298478467404273,-0.4724752169963233,-0.7554302875642673,0.01634604093820053,-1.0599803015337466
1783423556487222016,0.33653998374938965,5.451435565948486,0.24020208418369293,-2.5770695209503174,-0.002274696482345462,0.6556659936904907,-0.7550476789474487,0.22459526360034943,0.31673091650009155,0.25257575511932373,0.8028331129701486,-0.30055496485027816,0.17928435618154298,-0.4826829797153651,-0.7150643036788052,-0.0030126436601429986,-1.0837643685891105
1783423556497141248,0.34645915031433105,7.877087593078613,0.0614723302423954,-2.8317418098449707,-0.017757663503289223,0.6074935793876648,-0.7941260933876038,0.19965769350528717,0.6873214840888977,0.22367626428604126,0.8065595373140804,-0.2780164776963167,0.16013681736023494,-0.49651269047099883,-0.6529013931149481,-0.022357539568948967,-1.111182589911345
1783423556507060992,0.35637903213500977,10.477120399475098,-0.13569240272045135,-2.966365337371826,-0.033383939415216446,0.5436064600944519,-0.8386760950088501,0.18064650893211365,1.1133759021759033,0.2084728479385376,0.8112318327522158,-0.24912162299604165,0.13638322412203108,-0.5111173449323787,-0.5747279215491523,-0.03978451911031728,-1.1362058543821003
1783423556516980224,0.36629819869995117,12.934123039245605,-0.4465324580669403,-2.973871946334839,-0.049958568066358566,0.44570523500442505,-0.8937846422195435,0.22827276587486267,1.2976419925689697,0.30960190296173096,0.8186969930816955,-0.20655642627332688,0.1021866663277306,-0.5259541029509817,-0.46196192924988017,-0.055837427014744076,-1.1552030673270521
1783423556526899968,0.3762180805206299,13.862171173095703,-0.8306782245635986,-2.933013677597046,-0.06685411930084229,0.32271885871887207,-0.9441308379173279,0.3874565362930298,1.128147840499878,0.5896996855735779,0.8234039390916472,-0.15533001694992082,0.06170219840425762,-0.5422834256276584,-0.32860063675545903,-0.07069223348210057,-1.1765018185046003
1783423556536820224,0.3861382007598877,11.807879447937012,-1.2618850469589233,-2.615873336791992,-0.08362126350402832,0.19922475516796112,-0.9763795137405396,0.6136810779571533,0.6338288187980652,1.098022699356079,0.8246813496924261,-0.10661498295505224,0.0210590084134798,-0.5550589853470943,-0.200566758342177,-0.08543574113973122,-1.1934315122547057
1783423556546739200,0.39605712890625,8.696929931640625,-2.4273669719696045,-2.177432060241699,-0.1034543588757515,0.1035797968506813,-0.9892261624336243,0.7894589900970459,-0.2650635838508606,1.591399073600769,0.8230782418815014,-0.07214674628451516,-0.013481858427821672,-0.5631654761480236,-0.1037659137529759,-0.10420230843212548,-1.2055276046676948
1783423556556658944,0.4059770107269287,5.184350967407227,-2.3707096576690674,-2.333730697631836,-0.12926916778087616,0.035418614745140076,-0.9909768104553223,1.0542874336242676,-1.8448210954666138,1.3939461708068848,0.8192552364972536,-0.05154921619608521,-0.04306136422850334,-0.5694816558442919,-0.035426026102884395,-0.12971376863404685,-1.217189321428111
1783423556566578176,0.4158961772918701,1.5931802988052368,-0.9269620776176453,-2.7858104705810547,-0.14493611454963684,0.00020910840248689055,-0.9894409775733948,0.851952075958252,-2.648677110671997,1.16168212890625,0.8125215771049261,-0.04222230454878891,-0.05913357261047862,-0.5783851333554769,-0.00020910840330194596,-0.14544840720300803,-1.237271337994558
1783423556576497920,0.42581605911254883,0.24821077287197113,-0.557183563709259,-2.573211193084717,-0.15075023472309113,-0.010988068766891956,-0.98851078748703,0.21506603062152863,-1.4503918886184692,0.6274268627166748,0.8047924162194344,-0.04018240123591319,-0.06426482621009683,-0.5886972482745673,0.01098829026546916,-0.15133633622129927,-1.262264405813811
1783423556586418176,0.43573617935180664,0.7529903054237366,-0.5980141162872314,-2.0694799423217773,-0.15552933514118195,-0.018494674935936928,-0.9876581430435181,0.19317276775836945,-0.4528951048851013,0.059801697731018066,0.7981660764803512,-0.0393100282557274,-0.06801219333767305,-0.5972939020599363,0.018495729176335716,-0.1561902169757606,-1.2834191852357055
1783423556596337152,0.44565510749816895,2.3276174068450928,-0.6834051609039307,-1.832377552986145,-0.16065315902233124,-0.03608843311667442,-0.986350953578949,0.37874704599380493,0.05221697315573692,-0.258583128452301,0.7930014333633155,-0.03441028821815102,-0.07510298372631505,-0.6035928675313647,0.03609627289735471,-0.16145846578453485,-1.2982771832076214
1783423556606256896,0.45557498931884766,4.332329273223877,-0.9440575242042542,-1.8538044691085815,-0.16684971749782562,-0.07149095088243484,-0.9833871126174927,0.5548654794692993,0.28960007429122925,-0.4197958707809448,0.7876435140597555,-0.02287048383851937,-0.0882234897728763,-0.6093531581164372,0.0715519860403458,-0.16806785748936978,-1.3108911585579528
1783423556616175360,0.46549344062805176,6.156274318695068,-1.273792028427124,-1.806538462638855,-0.1749865561723709,-0.12575343251228333,-0.9765069484710693,0.6442858576774597,0.3839931786060333,-0.41375184059143066,0.7819231247915169,-0.004599719433065799,-0.10828378672431781,-0.6138808283281656,0.12608725100450088,-0.17731447543103315,-1.3199448207215114
1783423556626094336,0.47541236877441406,7.478518962860107,-1.5029224157333374,-1.6697279214859009,-0.18458999693393707,-0.19472798705101013,-0.9633314609527588,0.6090437173843384,0.38831627368927,-0.31562966108322144,0.7754005993711838,0.018917062225054793,-0.13407610731575006,-0.6167817144112824,0.19598011924353598,-0.18932144462982836,-1.3252374413773882
1783423556636014336,0.4853322505950928,7.492648601531982,-1.6497396230697632,-1.6108145713806152,-0.19458922743797302,-0.2694156765937805,-0.9431596994400024,0.4511505365371704,0.2548893094062805,-0.14857614040374756,0.7681063379134941,0.04463653200657449,-0.16256606381989672,-0.6177318295430506,0.27278621447837076,-0.2034614959537475,-1.326607197448658
1783423556645933312,0.4952514171600342,6.6333231925964355,-1.6643345355987549,-1.7667405605316162,-0.20356394350528717,-0.33807575702667236,-0.9188397526741028,0.28916576504707336,-0.022321581840515137,0.22789126634597778,0.7592205261645071,0.06811083403044724,-0.18958120220494012,-0.6188732163753066,0.3448714967970746,-0.218023067633388,-1.3296942945829124
1783423556655853312,0.5051712989807129,4.945224285125732,-1.5899745225906372,-1.9043253660202026,-0.21034590899944305,-0.39437493681907654,-0.8945518136024475,0.18802230060100555,-0.46596136689186096,0.3886619806289673,0.7495233232905484,0.08708860082125744,-0.2124609502962633,-0.6208789792994417,0.40538757397558084,-0.23094568037749322,-1.3359319806934102
1783423556665773312,0.5150914192199707,2.8057520389556885,-1.333627462387085,-2.0750935077667236,-0.2138368934392929,-0.43241003155708313,-0.8759539723396301,0.1324465423822403,-0.7457668781280518,0.4836199879646301,0.7394086028247934,0.09913484293825613,-0.2284628983959723,-0.6255014013398312,0.4471639082333797,-0.2394358732294787,-1.3495825726727666
1783423556675692288,0.525010347366333,1.230472207069397,-1.0650261640548706,-2.1107723712921143,-0.21368323266506195,-0.453867644071579,-0.8650685548782349,0.07546910643577576,-0.8003895282745361,0.38968098163604736,0.7302562998930582,0.10531497527593765,-0.23743309373648464,-0.6318702317229192,0.4711010324117608,-0.24216545166292733,-1.368196971201142
1783423556685612288,0.5349302291870117,0.46980541944503784,-0.9489586353302002,-2.011214017868042,-0.2117706537246704,-0.4650084674358368,-0.8596047163009644,0.0709473043680191,-0.5621521472930908,0.19538962841033936,0.7219460955950229,0.1077347334340724,-0.24205548404816438,-0.639215254796257,0.48364416285711376,-0.2415481349709555,-1.3895353559258952
1783423556695531264,0.5448493957519531,0.3295728266239166,-0.8018446564674377,-1.8198189735412598,-0.20954270660877228,-0.47262245416641235,-0.8559905886650085,0.059380948543548584,-0.25078147649765015,-0.022625744342803955,0.7143511321184368,0.10894016293589462,-0.24522796358537538,-0.6462953593735595,0.4922641875101295,-0.2400744129821895,-1.4102593595994901
1783423556705451264,0.5547692775726318,1.5101454257965088,-0.3167698085308075,-2.6652348041534424,-0.20235691964626312,-0.48267874121665955,-0.8520991206169128,0.04224644601345062,-0.14831796288490295,-0.21935778856277466,0.7062675690661934,0.11264692081403109,-0.24750982906089963,-0.6536326294726216,0.5037107668641967,-0.23316134334225408,-1.4331729128383317
1783423556715371264,0.5646893978118896,3.8138835430145264,-1.0615715980529785,-1.8516615629196167,-0.1945214420557022,-0.5107733607292175,-0.837419867515564,0.3156609833240509,-0.38246089220046997,-0.23925554752349854,0.696211051532145,0.12379200051900377,-0.25683772401536,-0.6587868204573055,0.5360840720773418,-0.22823905924132848,-1.4526326047971265
1783423556725290240,0.574608325958252,4.653197288513184,-1.2849676609039307,-0.9243326187133789,-0.1967361867427826,-0.548648476600647,-0.8125759959220886,0.5568283200263977,-0.4724239110946655,0.12133759260177612,0.6875303562228269,0.13663787509483638,-0.2739381378200051,-0.6584755084826759,0.5807468344967591,-0.23754307407055186,-1.4563431123070374
1783423556735210496,0.5845284461975098,4.902202606201172,-0.8133742213249207,-1.1605463027954102,-0.19782643020153046,-0.588523805141449,-0.7839033603668213,0.06646350026130676,-0.3522263169288635,0.3318159580230713,0.6791164028972968,0.1512633697454357,-0.2918350929380664,-0.6563174229371691,0.6292317083560234,-0.2471992981422931,-1.4558420498267284
1783423556745129472,0.5944473743438721,4.994150638580322,-0.6655828952789307,-1.0135869979858398,-0.1953006386756897,-0.6289052963256836,-0.75255286693573,-0.15952721238136292,-0.2523965835571289,0.3056076765060425,0.6701945686875055,0.16767078834510696,-0.3092087738608876,-0.6535409092230572,0.680144362452371,-0.2539160574615002,-1.455371519137696
1783423556755049216,0.6043672561645508,4.608747959136963,-0.7178351283073425,-0.7837700247764587,-0.19350139796733856,-0.6655163764953613,-0.7208641767501831,0.011052072048187256,-0.15165281295776367,0.3877648115158081,0.661745276576335,0.18282826782382006,-0.3257939895552895,-0.6500194698129107,0.7281854183305991,-0.2622477035459116,-1.452488648558588
1783423556764969472,0.6142873764038086,4.415017604827881,-0.8832637667655945,-0.9262779355049133,-0.19250626862049103,-0.6990145444869995,-0.6887089014053345,0.020616009831428528,-0.137395977973938,0.4490848779678345,0.6533265407398492,0.19677487066627244,-0.34194325193839537,-0.646157042741623,0.7740185529270533,-0.2725613188662815,-1.4480994699053242
1783423556774888192,0.6242063045501709,3.8712236881256104,-0.9060893058776855,-1.335018277168274,-0.18968930840492249,-0.728827714920044,-0.6578968167304993,0.02457396686077118,-0.08574748039245605,0.5444324612617493,0.6436750172906619,0.20929148875985487,-0.35671931112218513,-0.6439184566654375,0.8166082456260454,-0.2807133744431042,-1.4490815110283501
1783423556784808448,0.6341264247894287,3.46226167678833,-0.8863502740859985,-1.5175763368606567,-0.184003084897995,-0.7552452087402344,-0.6290847659111023,0.02441142499446869,-0.13060379028320312,0.614298939704895,0.6331316352488888,0.22087346649987008,-0.36969249549791505,-0.643184857530139,0.856028119332072,-0.2845557919677103,-1.4560321498330953
1783423556794727424,0.644045352935791,2.7608859539031982,-0.7625260353088379,-1.6463302373886108,-0.17595535516738892,-0.7771427631378174,-0.6042258143424988,0.08586747944355011,-0.24745434522628784,0.7096641063690186,0.6231353436157608,0.23131140835236996,-0.3799764850262783,-0.6432847407881561,0.8901128587036639,-0.28337130074478944,-1.4667520110704233
1783423556804647168,0.6539652347564697,2.3402230739593506,-0.7635945081710815,-1.6855548620224,-0.1664746254682541,-0.7950207591056824,-0.5832908153533936,0.1477063149213791,-0.3236926198005676,0.685539960861206,0.6131874647343813,0.2401134872487877,-0.388201106882124,-0.6447065443396909,0.9190417855443379,-0.27801450575850056,-1.4826513428363262
1783423556814567424,0.6638853549957275,2.5232772827148438,-0.8728397488594055,-1.663933277130127,-0.15695109963417053,-0.8113847970962524,-0.5630462169647217,0.24888530373573303,-0.29658639430999756,0.5085723400115967,0.6033124468350478,0.24829801669666185,-0.3960113443010018,-0.6461711801729034,0.9465173945372586,-0.2718524448760788,-1.4995282751050796
1783423556824486144,0.6738042831420898,3.3793134689331055,-0.9375961422920227,-1.6849418878555298,-0.14743585884571075,-0.8299880027770996,-0.5379429459571838,0.30573052167892456,-0.1960740089416504,0.29088789224624634,0.5923557499184849,0.25769275360197175,-0.40573757421253204,-0.6465958203326302,0.9790861843631367,-0.2675045666260908,-1.515160564275727
1783423556834406400,0.6837244033813477,4.197195529937744,-1.1132304668426514,-1.6068898439407349,-0.1380775421857834,-0.8518774509429932,-0.5052123069763184,0.3502967953681946,-0.013448476791381836,0.24576711654663086,0.5797957073302034,0.2689388743420182,-0.4184085800507616,-0.6453240663258459,1.0195596254431247,-0.2667906182270865,-1.5279042522430037
1783423556844325376,0.69364333152771,4.928269863128662,-1.2603671550750732,-1.6079140901565552,-0.12929317355155945,-0.8761019706726074,-0.46446579694747925,0.35242244601249695,0.13794291019439697,0.18172049522399902,0.56567002667999,0.2817203408230784,-0.434051556637233,-0.6420671327301148,1.0677167649662056,-0.27149621795535284,-1.5360122893703247
1783423556854245376,0.7035634517669678,5.412720203399658,-1.2289048433303833,-1.5811126232147217,-0.11986278742551804,-0.9008768796920776,-0.41719749569892883,0.27928662300109863,0.20913493633270264,0.31761860847473145,0.5499657549432213,0.29569929247718596,-0.4516228377519816,-0.6372883089168739,1.1217854085837458,-0.27976939783238397,-1.5411863108879256
1783423556864165376,0.7134833335876465,5.4490180015563965,-1.2619693279266357,-1.6779214143753052,-0.10926452279090881,-0.9240223169326782,-0.36639347672462463,0.2852136194705963,0.20574522018432617,0.38496342301368713,0.5333767912576525,0.3102026628660832,-0.46965687044066723,-0.6314317612777423,1.1784705656398455,-0.28981961624464536,-1.5442814562295573
1783423556874084352,0.7234022617340088,5.058382511138916,-0.9871683716773987,-1.5489250421524048,-0.09723713994026184,-0.9435670375823975,-0.3165851831436157,0.26818135380744934,0.16188979148864746,0.4510151147842407,0.5170104950121059,0.3243483652990963,-0.4863183532560467,-0.6252941078862374,1.2332407130617558,-0.29799767552624057,-1.547813456080905
1783423556884004352,0.7333223819732666,4.559589385986328,-0.924541711807251,-1.8168898820877075,-0.08353016525506973,-0.9592020511627197,-0.27010035514831543,0.30702564120292664,0.05128884315490723,0.46767115592956543,0.5010210773075305,0.33762432911213064,-0.5009587224445188,-0.6196999967677288,1.2841661718747703,-0.29992680796740423,-1.5567769428500708
1783423556893923328,0.7432413101196289,3.866194248199463,-0.7147389054298401,-1.8321706056594849,-0.06664197891950607,-0.9711220264434814,-0.22908654808998108,0.21095958352088928,0.139182448387146,0.4006716310977936,0.48568384425938116,0.35038240617674216,-0.5125318500347119,-0.6153489644377683,1.3298895583351709,-0.28309022545577556,-1.5827184976830282
1783423556903843328,0.7531614303588867,3.7662956714630127,-0.8485872745513916,-2.105670213699341,-0.048982683569192886,-0.9801609516143799,-0.192055344581604,0.4239369034767151,0.15611004829406738,0.437111496925354,0.4710031920010878,0.36214419100790596,-0.5223254819391098,-0.6117055940250747,1.371272048582037,-0.24972087319641903,-1.624627138291068
1783423556913763328,0.7630813121795654,3.621905565261841,-0.7682611346244812,-2.3434836864471436,-0.02767246961593628,-0.9874207377433777,-0.15567393600940704,0.3677756190299988,0.015069782733917236,0.24655528366565704,0.4551657440675454,0.3743206606751566,-0.5310810459220437,-0.608819359639966,1.4120151366268585,-0.1759215887562355,-1.7075408942738433
1783423556923682304,0.7730002403259277,3.4764113426208496,-0.6663454174995422,-2.3231711387634277,-0.004923772998154163,-0.9926707744598389,-0.12074898183345795,0.3284711241722107,0.021799921989440918,0.24288035929203033,0.4394856123777903,0.3865993568314471,-0.5386710016604913,-0.6059923908660295,1.4496501015409162,-0.0407543544229107,-1.850575273538346
1783423556933602304,0.7829203605651855,3.0915379524230957,-0.5264908075332642,-2.296971559524536,0.017997343093156815,-0.9959402680397034,-0.08819837123155594,0.2780231535434723,-0.09190452098846436,0.18541216850280762,0.42421073304317536,0.39822610139942394,-0.5452676275576935,-0.6034437478899394,1.480657594120359,0.20129179394330254,-2.1001630581827775
1783423556943521280,0.7928392887115479,2.5089521408081055,-0.4235955774784088,-2.277519941329956,0.04112076759338379,-0.9972997307777405,-0.06084529310464859,0.23134014010429382,-0.10752803087234497,0.1938256025314331,0.41009374316902064,0.408858626514654,-0.5499199733705638,-0.6018684893210845,1.497291500771897,0.5943161840744452,-2.499732443521806
1783423556953441280,0.8027594089508057,2.109617233276367,-0.30608609318733215,-2.2370529174804688,0.06408268958330154,-0.9972082376480103,-0.03832917660474777,0.20454829931259155,-0.06480348110198975,0.14446932077407837,0.39715298659716824,0.41852849995944746,-0.5528736796491837,-0.6011938945514225,1.4960560946484154,1.031759881741174,-2.942817751175125
1783423556963361280,0.8126792907714844,1.8943437337875366,-0.21107488870620728,-2.1434245109558105,0.08648906648159027,-0.9960725903511047,-0.018946565687656403,0.17446672916412354,0.014261066913604736,0.08155333995819092,0.3853243759334068,0.427673488070107,-0.5546369122335185,-0.6008313920135971,1.4821397127607325,1.3551398166274118,3.0127402273892363
1783423556973280512,0.8225984573364258,1.934586524963379,-0.16575655341148376,-2.0596261024475098,0.10805705934762955,-0.9941445589065552,-0.0004981678794138134,0.17914384603500366,0.10110872983932495,0.056177496910095215,0.3741569316819018,0.43660583271552506,-0.5559912435556645,-0.6002130282788168,1.462526757223769,1.566186129967395,2.798505832675157
1783423556983200256,0.8325183391571045,2.0856246948242188,-0.14074468612670898,-1.9700151681900024,0.1286928653717041,-0.9915019869804382,0.01902497373521328,0.1774747520685196,0.11419790983200073,0.03322112560272217,0.36304145354805756,0.44550701083294403,-0.55770600653777,-0.598906021044597,1.44033508942635,1.7175656853228554,2.64422508972702
1783423556993119232,0.8424372673034668,2.262403964996338,-0.13545896112918854,-1.8910253047943115,0.148512601852417,-0.9880992770195007,0.040051355957984924,0.1501782387495041,0.08876138925552368,0.05166924372315407,0.35151782965440714,0.45418731526065675,-0.5601245932440966,-0.597000563716173,1.416365725733458,1.834212865576883,2.5238567086259747
1783423557003039488,0.8523573875427246,2.4129204750061035,-0.15382198989391327,-1.8224490880966187,0.16752773523330688,-0.9838711619377136,0.06270832568407059,0.11355447769165039,0.04646259546279907,0.04855883866548538,0.33975157061447986,0.4628617973230775,-0.5631279773253253,-0.5943188266490617,1.3909498294428262,1.9289672661737582,2.4252385703110138
1783423557012959232,0.8622772693634033,2.4988365173339844,-0.2125687301158905,-1.7217566967010498,0.18575412034988403,-0.9788145422935486,0.08612456917762756,0.06767907738685608,0.05440664291381836,0.021129481494426727,0.3279232007569856,0.47137282690014604,-0.5664538317517038,-0.5911041138534101,1.364589263114954,2.0049419720900126,2.3452964687746807
1783423557022878464,0.8721964359283447,2.7313010692596436,-0.30307626724243164,-1.5929523706436157,0.2028239667415619,-0.9729313254356384,0.11075635254383087,0.02122083306312561,0.0769200325012207,-0.03026629239320755,0.3159804065767235,0.47964477627749624,-0.5703674823890783,-0.5871781428380091,1.3375939810857738,2.070618293577787,2.2753288808818546
1783423557032798208,0.8821163177490234,3.09454083442688,-0.41433849930763245,-1.4691025018692017,0.21873833239078522,-0.9659961462020874,0.13785776495933533,-0.0180853009223938,0.07878923416137695,-0.07912673056125641,0.30330467884982354,0.4875800171405073,-0.5754950989736553,-0.5823034393030753,1.3092687941789425,2.1331552515876817,2.207014797007112
1783423557042717184,0.8920352458953857,3.5162858963012695,-0.5201154947280884,-1.3033453226089478,0.23345577716827393,-0.9577043652534485,0.16822825372219086,-0.030788540840148926,0.09942799806594849,-0.12446606159210205,0.2896871564897863,0.49526078217465275,-0.5820918180323679,-0.5761659753952542,1.2789155740414369,2.195214481321634,2.1375786631807716
1783423557052637440,0.9019553661346436,3.9678566455841064,-0.6256251931190491,-1.1085989475250244,0.2466215044260025,-0.9478009343147278,0.20211762189865112,-0.02695593237876892,0.11912649869918823,-0.1259457767009735,0.27509353491587446,0.5025225157070098,-0.5903642368628084,-0.5685638467088149,1.246267005803557,2.2573423491456377,2.066214712131987
1783423557062557184,0.9118752479553223,4.358862400054932,-0.7554316520690918,-0.9508703351020813,0.25846150517463684,-0.9359380602836609,0.23920191824436188,-0.010094225406646729,0.09342402219772339,-0.08821618556976318,0.2594782255634796,0.5092963188716271,-0.6001818210640627,-0.5595266597045571,1.210913428926097,2.317513760500807,1.9948641476482165
1783423557072476416,0.9217944145202637,4.648296356201172,-0.849648654460907,-0.7623658776283264,0.26911047101020813,-0.9219424724578857,0.2785710394382477,-0.007849454879760742,0.04071688652038574,-0.03165328502655029,0.24299135922074677,0.5154096951214574,-0.6112596539217321,-0.5492447034303612,1.173065964326806,2.373466634495844,1.925803609105253
1783423557082396160,0.9317142963409424,4.539459705352783,-0.9304924011230469,-0.7065699696540833,0.2789805233478546,-0.906130850315094,0.31795763969421387,-0.06041359901428223,0.005984246730804443,-0.00936385989189148,0.22618780829026677,0.5207229042006524,-0.6227571561583948,-0.5383868092291124,1.1340454650488008,2.421396976356759,1.8634327916284934
1783423557092315392,0.9416334629058838,4.056611061096191,-0.9451490640640259,-0.6666784286499023,0.28894197940826416,-0.8896808624267578,0.35352614521980286,-0.16037136316299438,0.010576188564300537,0.01831534504890442,0.210029832391582,0.5251781105334115,-0.6332069385265859,-0.5283223463983254,1.0966457882259306,2.4563830301162177,1.8138236130842373
1783423557102235392,0.9515533447265625,3.4341821670532227,-0.9701119661331177,-0.6013417840003967,0.29857534170150757,-0.8739894032478333,0.3833996653556824,-0.20722097158432007,0.03437453508377075,-0.02973151206970215,0.19534834983788657,0.528570364891574,-0.6421161864195524,-0.5197491733426155,1.0633522749785442,2.4799393504906386,1.7760679519136229
1783423557112155136,0.9614732265472412,2.778017520904541,-0.9896396994590759,-0.5788915157318115,0.30799391865730286,-0.8599302172660828,0.4070133864879608,-0.22912123799324036,0.08246439695358276,-0.09622228145599365,0.1823645654121218,0.5309426818562165,-0.6493123745749694,-0.5130657879217628,1.035132890659619,2.493806558117456,1.7485952509342035
1783423557122074368,0.9713923931121826,2.1533541679382324,-1.008529543876648,-0.5712335705757141,0.3176197111606598,-0.8478661775588989,0.4245479106903076,-0.22875246405601501,0.11185836791992188,-0.15938061475753784,0.1709685316037318,0.5325275815239735,-0.6547429540908192,-0.5084249195120132,1.0119477790729678,2.4992853936316153,1.7302057712291314
1783423557131994368,0.9813122749328613,1.8886775970458984,-0.9771066308021545,-0.42076924443244934,0.326557457447052,-0.8375917673110962,0.43795037269592285,-0.22233986854553223,0.12312936782836914,-0.18851488828659058,0.16099154287960177,0.5333746001523673,-0.6591560697403126,-0.505080818565238,0.9928599338642197,2.500881721426557,1.7162670322251188
1783423557141913344,0.9912314414978027,1.9505401849746704,-1.046764612197876,-0.37180623412132263,0.33471551537513733,-0.8277914524078369,0.45025181770324707,-0.20437496900558472,0.12288123369216919,-0.18311622738838196,0.15146727332650117,0.533674242248643,-0.6635643976432941,-0.5019280091044412,0.9751596688597689,2.5023313441116204,1.7021454406024854
1783423557151833344,1.0011513233184814,2.089012861251831,-1.0361895561218262,-0.3198339641094208,0.3427391052246094,-0.8173325061798096,0.4631384313106537,-0.20756155252456665,0.12453782558441162,-0.17377084493637085,0.14165922622815152,0.5338256767615487,-0.6682808998765808,-0.49836065547721836,0.9567659222304771,2.5044990519493204,1.6867629722161095
1783423557161753344,1.0110714435577393,2.133039712905884,-1.0703847408294678,-0.2810367941856384,0.3505535125732422,-0.8062864542007446,0.47646036744117737,-0.2124004065990448,0.10122358798980713,-0.16392982006072998,0.13159911246377712,0.5337272069075639,-0.6733241755450645,-0.4944204001724396,0.9378470912948798,2.5072770853192425,1.6700802668567676
1783423557171672320,1.0209903717041016,1.9458985328674316,-1.0566027164459229,-0.2344072312116623,0.3580746054649353,-0.7954114675521851,0.48898187279701233,-0.2232632040977478,0.05865609645843506,-0.14311087131500244,0.12180965201696059,0.5333548671385564,-0.6782503377228328,-0.4905828342729173,0.919686221591491,2.5095251855628877,1.6538489828176324
1783423557181592320,1.0309102535247803,1.5990740060806274,-1.0905675888061523,-0.29970502853393555,0.3657865822315216,-0.7857268452644348,0.4988323152065277,-0.2211790382862091,0.050375282764434814,-0.1205822229385376,0.11273960377579939,0.5327258519635566,-0.6823630490880996,-0.4877229682286636,0.9038703201911104,2.5088748273302452,1.6409198920947472
1783423557191511296,1.0408294200897217,1.3020638227462769,-1.0380680561065674,-0.4064925014972687,0.37424272298812866,-0.7771100997924805,0.5060064196586609,-0.22159376740455627,0.05330932140350342,-0.15873152017593384,0.10429641082621197,0.5321973770774193,-0.6853970781859026,-0.4859208909225489,0.890060888906268,2.504780328848421,1.6323357744899099
1783423557201431296,1.0507493019104004,1.1004436016082764,-1.0842363834381104,-0.38470596075057983,0.3830728828907013,-0.7695657014846802,0.5109050273895264,-0.16645905375480652,0.0800057053565979,-0.1688639521598816,0.09640683391201145,0.5315794650235681,-0.6876596441085023,-0.4850291484811766,0.8781608031972562,2.498224189525416,1.6266691257709676
1783423557211351296,1.0606694221496582,1.0788524150848389,-1.0540646314620972,-0.3440384864807129,0.39188069105148315,-0.7624844312667847,0.5148274898529053,-0.11342296004295349,0.07365679740905762,-0.1712910532951355,0.08873672033920334,0.5307701613413481,-0.689707756899887,-0.4844709871517094,0.8671443163923969,2.4909693980873144,1.6216031284581283
1783423557221270272,1.0705883502960205,1.0856094360351562,-1.0405610799789429,-0.336598664522171,0.4001203775405884,-0.755673885345459,0.5185178518295288,-0.0650067925453186,0.030774474143981934,-0.10778182744979858,0.08143596751335236,0.5298983785450831,-0.6917128367078931,-0.4838484118863176,0.8566824299052904,2.4843716047973827,1.6163166480467297
1783423557231190272,1.0805082321166992,1.2412714958190918,-1.030625343322754,-0.1807749718427658,0.407897412776947,-0.7484089732170105,0.522976279258728,-0.03765806555747986,-0.04596364498138428,-0.1244470477104187,0.07397589705400509,0.5288482428843472,-0.6941236663386481,-0.4827417378899671,0.8456599464171153,2.4791949900986356,1.6091631743681059
1783423557241110272,1.090428352355957,1.2505462169647217,-0.8547520637512207,-0.05667752027511597,0.413973867893219,-0.7413918375968933,0.5281701683998108,-0.006869405508041382,-0.10170197486877441,-0.08670288324356079,0.06701212377967193,0.5273742627304354,-0.6971093588566579,-0.4810657812011148,0.8351420653613753,2.476815023321772,1.5992558156531924
1783423557251029248,1.1003472805023193,1.1142234802246094,-0.8530967831611633,-0.04789005592465401,0.41931578516960144,-0.7348833680152893,0.5330298542976379,0.01266053318977356,-0.1606091856956482,-0.006250619888305664,0.0606807386247176,0.5259519597264033,-0.6999210400521442,-0.47937767028787404,0.8254946519966104,2.4750360149791715,1.5897549250601806
1783423557260949248,1.1102674007415771,0.9409343004226685,-0.7703225016593933,0.056412648409605026,0.42378780245780945,-0.7293934226036072,0.5370187759399414,0.09852054715156555,-0.21266895532608032,-0.006730079650878906,0.05504407240716442,0.5242308718921806,-0.7026317561953295,-0.4779757072491951,0.8174348483886635,2.473503307115944,1.5803822364564315
1783423557270868224,1.1201863288879395,0.5195662379264832,-0.7297550439834595,0.12569226324558258,0.427455872297287,-0.725918173789978,0.5388175249099731,0.1763801872730255,-0.20550882816314697,0.07475364208221436,0.05067978922404545,0.5223679973247115,-0.7046562655213989,-0.47751732508872147,0.8123684007079366,2.470936884367349,1.5733876203381647
1783423557280788480,1.1301064491271973,0.20260880887508392,-0.8381709456443787,0.3068183660507202,0.43053606152534485,-0.7248157858848572,0.5378484725952148,0.22952869534492493,-0.2339245080947876,0.02007395029067993,0.04734398985546084,0.5198935013720654,-0.7061409112365677,-0.478366362354318,0.8107669662875785,2.4665600944709847,1.5682522215068777
1783423557290708224,1.140026330947876,-0.2768310308456421,-0.7870137095451355,0.33412694931030273,0.4328112304210663,-0.7262843251228333,0.5340279340744019,0.2811628580093384,-0.22737479209899902,-0.01887589693069458,0.04527256497576895,0.516923240987343,-0.7069684145954149,-0.480558551720582,0.8129009390425522,2.4605028184959483,1.5654024806332738
1783423557300627200,1.1499452590942383,-0.6583019495010376,-0.8155452013015747,0.3424072563648224,0.43485987186431885,-0.7300740480422974,0.527151882648468,0.3283237814903259,-0.1673411726951599,-0.04143410921096802,0.044357759164785515,0.5137941438036985,-0.7068178926973382,-0.4842071452894937,0.8184303221342547,2.4518382694683427,1.56623356363985
1783423557310547456,1.159865379333496,-0.7675399780273438,-0.8402020335197449,0.4643982946872711,0.43677589297294617,-0.7355272769927979,0.5179057717323303,0.37045982480049133,-0.12927985191345215,-0.020560860633850098,0.04408498912491259,0.5102765310093815,-0.7060954315824501,-0.4889822207108616,0.8264446533327825,2.4409719110405437,1.5692782348128071
1783423557320466176,1.1697843074798584,-0.6842653155326843,-0.7478721141815186,0.5979401469230652,0.43737462162971497,-0.7415652275085449,0.508708655834198,0.4124331474304199,-0.11928987503051758,-0.03281760215759277,0.044251826546230486,0.5062664118655948,-0.7057256151986641,-0.4936471129131701,0.8354004893592863,2.4314514156371687,1.5707759114559554
1783423557330386432,1.1797044277191162,-0.5709906816482544,-0.6927832365036011,0.6546319127082825,0.4367791414260864,-0.7473266124725342,0.5007268190383911,0.4452095031738281,-0.08652055263519287,0.0075283050537109375,0.04463640201994178,0.5021620553806959,-0.7058304952947235,-0.49763876062493406,0.8440295477459782,2.424299440587708,1.5702276397445862
1783423557340306176,1.189624309539795,-0.608747661113739,-0.6147739291191101,0.7482728958129883,0.43514198064804077,-0.7532287240028381,0.49325230717658997,0.46257835626602173,-0.08020633459091187,0.03499162197113037,0.04541394517050658,0.49797562552542035,-0.7061490153369773,-0.501309669282889,0.8529570703509287,2.418705252145619,1.5686408479017104
1783423557350225152,1.1995432376861572,-0.7268065810203552,-0.5629703998565674,0.6588669419288635,0.4331878125667572,-0.7593609690666199,0.4855087101459503,0.44046929478645325,-0.0870896577835083,0.04369640350341797,0.04656349075480007,0.49396551867820565,-0.7062240564169038,-0.5050517883143412,0.8623304292752949,2.4130842490264506,1.5679661374022493
1783423557360145408,1.209463357925415,-1.0171297788619995,-0.561427891254425,0.7161339521408081,0.43101075291633606,-0.7663857936859131,0.4763215482234955,0.4001353681087494,-0.12011927366256714,0.034512072801589966,0.04833109411217209,0.4900021098223061,-0.7057327417122534,-0.5094145788997899,0.8731958061300688,2.4060914957425115,1.5695673999475617
1783423557370064384,1.2193822860717773,-1.4222074747085571,-0.3464358150959015,0.7934038043022156,0.4279323220252991,-0.7752122282981873,0.46467137336730957,0.3968966603279114,-0.19066894054412842,0.07719859480857849,0.05129045884296755,0.4858075475052536,-0.7045045863878409,-0.5148139826245235,0.8870509566585909,2.3973307039250096,1.5740966616208203
1783423557379984384,1.2293024063110352,-2.013364553451538,-0.3242514133453369,0.7542673349380493,0.42401522397994995,-0.786207377910614,0.4495428800582886,0.4020039737224579,-0.24809426069259644,0.14381033182144165,0.056026714455843785,0.48182565242837333,-0.7018657174730916,-0.5216219716091616,0.9046475052874691,2.3854087950132064,1.5845368802319608
1783423557389904384,1.2392222881317139,-2.5879454612731934,-0.29564279317855835,0.8977090716362,0.4195859730243683,-0.799551248550415,0.42972666025161743,0.44244393706321716,-0.2913757562637329,0.12097814679145813,0.062310263568563715,0.47756224388516655,-0.6977088496041791,-0.5303338340627018,0.9265477189583324,2.3681337946135614,1.601835973268094
1783423557399823360,1.2491414546966553,-3.0218753814697266,-0.23758617043495178,0.9926632642745972,0.4135857820510864,-0.8150220513343811,0.4058147370815277,0.4809148609638214,-0.28318339586257935,0.08460265398025513,0.07036777974255014,0.4727393441872643,-0.6924051441086763,-0.5405006162669507,0.9527672490639081,2.34671095574938,1.6247493215276398
1783423557409743360,1.259061336517334,-3.390843629837036,-0.23069730401039124,1.0398273468017578,0.40690717101097107,-0.8314651846885681,0.378275603055954,0.4634694457054138,-0.24598842859268188,0.055592894554138184,0.07952527788280774,0.467528684471522,-0.6859699152933335,-0.5518496205504345,0.981739712013095,2.3197457948691445,1.6541253832871297
1783423557419662336,1.2689802646636963,-3.759237051010132,-0.30867651104927063,1.079411506652832,0.3997928202152252,-0.8484580516815186,0.3468209207057953,0.49367034435272217,-0.23323750495910645,0.055507659912109375,0.08951426553350007,0.4617455528997277,-0.6783815342402008,-0.5644260711102952,1.0130651109410196,2.28536366402778,1.6912003361222467
1783423557429582336,1.278900384902954,-4.038120746612549,-0.3983503580093384,1.1320031881332397,0.3923482894897461,-0.8654032349586487,0.31167298555374146,0.5035562515258789,-0.19625753164291382,0.03500664234161377,0.10005891646632122,0.4552946557448539,-0.6697337350415496,-0.5780585585846891,1.045954511206796,2.24210005034455,1.736983905264601
1783423557439502336,1.2888202667236328,-4.2656450271606445,-0.39626404643058777,1.194352626800537,0.38430771231651306,-0.8817015290260315,0.273696631193161,0.522842526435852,-0.18825989961624146,0.047424525022506714,0.11110807252109434,0.44827763551995575,-0.6602238068377182,-0.5922893118493315,1.0794565568895116,2.1896507183402627,1.7920052805221
1783423557449421312,1.2987394332885742,-4.4008097648620605,-0.4053516685962677,1.3154685497283936,0.37501341104507446,-0.897212564945221,0.23318400979042053,0.5386829376220703,-0.2531781792640686,0.14144983887672424,0.12294403829739464,0.4406425589942263,-0.6499431820584265,-0.6068713606386964,1.113416310849977,2.127092487227881,1.8575866848570017
1783423557459341312,1.308659315109253,-4.4212965965271,-0.4169214963912964,1.3621255159378052,0.36507731676101685,-0.9110520482063293,0.1915794312953949,0.5626570582389832,-0.33701008558273315,0.16503369808197021,0.13640256573567705,0.4341455170256822,-0.6382063810439481,-0.6209707158638783,1.1458286777815578,2.054058281311319,1.9384118724804085
1783423557469260288,1.3185782432556152,-4.463496208190918,-0.30165040493011475,1.4741040468215942,0.35388609766960144,-0.9233402013778687,0.14902178943157196,0.5919451713562012,-0.30999720096588135,0.2630723714828491,0.15052799890513244,0.42726858809702456,-0.6260610576734029,-0.6346892320365631,1.176690277146654,1.9693598439317248,2.031695335655805
1783423557479180288,1.328498363494873,-4.317346096038818,-0.3101368546485901,1.4853551387786865,0.34203478693962097,-0.9336042404174805,0.10674901306629181,0.6093049049377441,-0.26962757110595703,0.2534804344177246,0.16445923827856682,0.41991836425938833,-0.6140383321252745,-0.6477489396988677,1.2043437114676296,1.8733166118471976,2.135722194474024
1783423557489100288,1.3384182453155518,-4.157602787017822,-0.396644651889801,1.5237934589385986,0.3302541971206665,-0.9416484832763672,0.06504371017217636,0.6537394523620605,-0.24363923072814941,0.19286037981510162,0.1778066210043058,0.41228108366789196,-0.6021180641242188,-0.660199299124394,1.2274946446792105,1.7652579010793676,2.250898733528656
1783423557499019264,1.3483374118804932,-3.9482195377349854,-0.43160369992256165,1.6282107830047607,0.31820929050445557,-0.9477090239524841,0.024305621162056923,0.6719793677330017,-0.2681114077568054,0.1531693935394287,0.19052588878371807,0.4042156380723038,-0.5905611980157619,-0.6719726202640418,1.2459788714006328,1.6470307998924631,2.375036024489155
1783423557508939264,1.3582572937011719,-3.8478305339813232,-0.40615394711494446,1.663586139678955,0.30624353885650635,-0.951827883720398,-0.015445457771420479,0.6875003576278687,-0.3565827012062073,0.11116385459899902,0.20254222605426458,0.3958822504159517,-0.5792706748701965,-0.6831539998262984,1.259142982543634,1.5204038134094089,2.506498630897721
1783423557518858496,1.3681764602661133,-3.7786061763763428,-0.5840874910354614,1.7498699426651,0.2994500994682312,-0.9523760080337524,-0.057527754455804825,0.691364049911499,-0.400620698928833,0.09303493052721024,0.2126924848730105,0.38844269692535455,-0.5659932805554317,-0.6953601324874668,1.2609354781486162,1.3809974085021557,2.650067467257654
1783423557528778240,1.378096342086792,-3.615548610687256,-0.6030173897743225,1.9467788934707642,0.2902410328388214,-0.9519713521003723,-0.09752343595027924,0.7093470096588135,-0.4306122660636902,0.13525843620300293,0.22271510787100932,0.3800166940310577,-0.5539184000017855,-0.7065124050067283,1.2596111735957054,1.2466401025650355,2.7870568864486907
1783423557538698496,1.3880164623260498,-3.462052822113037,-0.5363129377365112,2.050022602081299,0.27318552136421204,-0.9526843428611755,-0.13327568769454956,0.6434862613677979,-0.43568235635757446,0.25432366132736206,0.23474773920921976,0.3697481678399525,-0.5446544304954254,-0.7152142621018327,1.2619481976157612,1.116909594327196,2.919412323837127
1783423557548617472,1.397935390472412,-3.0346360206604004,-0.4165222942829132,2.14605712890625,0.2539898753166199,-0.9529014825820923,-0.16573482751846313,0.5804218053817749,-0.4027961492538452,0.36972957849502563,0.2470073702010183,0.3593052889004032,-0.5366864024269892,-0.7223952336502962,1.262663501278334,0.9926478484878575,3.046505490334995
1783423557558537216,1.4078552722930908,-2.6429367065429688,-0.3132835328578949,2.1246700286865234,0.23430004715919495,-0.9527266621589661,-0.19343101978302002,0.5558305978775024,-0.33250588178634644,0.4228469133377075,0.25882375006589803,0.3495108699324399,-0.5302137671957807,-0.7278226792359924,1.2620874270090727,0.8806573745903203,-3.121433114896055
1783423557568456448,1.4177744388580322,-2.552095651626587,-0.3266570270061493,2.1163978576660156,0.2145175337791443,-0.9519621729850769,-0.2185182124376297,0.5974026322364807,-0.2766907811164856,0.3333864212036133,0.27020320249336566,0.34001328283062743,-0.5245301311790297,-0.7322904704632145,1.2595812225685772,0.7761597276344159,-3.0137527190851108
1783423557578376192,1.427694320678711,-2.8969767093658447,-0.4962841272354126,2.043130874633789,0.19474853575229645,-0.9497445821762085,-0.24506805837154388,0.5945581197738647,-0.308388352394104,0.21436738967895508,0.2812539865545041,0.3298483036827896,-0.5183300764155071,-0.7371772601625811,1.2524189521916642,0.6714832423252052,-2.907113203063257
1783423557588296448,1.4376144409179688,-3.4443469047546387,-0.635997474193573,1.9965262413024902,0.17499881982803345,-0.9451392292976379,-0.27583959698677063,0.5268597602844238,-0.44579094648361206,0.16658663749694824,0.2925004633584357,0.31862524990141927,-0.510448965060474,-0.7432115554401517,1.2380204768056609,0.5653462761564002,-2.7997870119890647
1783423557598215424,1.447533369064331,-3.902146100997925,-0.6729991436004639,1.9412951469421387,0.15548208355903625,-0.9374471306800842,-0.31147733330726624,0.42836493253707886,-0.5147470235824585,0.24342313408851624,0.30411955853344935,0.3063608468576893,-0.5004042077362305,-0.7504997698099589,1.2152232429458607,0.4629883807078885,-2.6965271224193152
1783423557608135168,1.4574532508850098,-4.138517379760742,-0.7166870832443237,1.985419750213623,0.13555487990379333,-0.9270151257514954,-0.3496684432029724,0.38945430517196655,-0.5446799397468567,0.3200969398021698,0.3159897851046897,0.2931945566203447,-0.48908355473142245,-0.758277534792754,1.1863736954524031,0.3698293659453526,-2.602807549712434
1783423557618056704,1.4673748016357422,-4.181256294250488,-0.7761397361755371,2.029266357421875,0.1149924173951149,-0.914120614528656,-0.38879328966140747,0.3758065104484558,-0.4950437545776367,0.41865476965904236,0.32815276607015886,0.27941676901876633,-0.4770006511153509,-0.765971541635286,1.1533336486324368,0.2875692562280414,-2.519860703596379
1783423557627975680,1.4772937297821045,-4.063936710357666,-0.7939501404762268,2.2069857120513916,0.0931164100766182,-0.899573802947998,-0.4267275333404541,0.3381580114364624,-0.46859025955200195,0.4849245548248291,0.33981851046337885,0.2647263323730767,-0.4653559896925185,-0.7732316742545907,1.1187927253173,0.2148427367843805,-2.448283495878783
1783423557637895680,1.4872136116027832,-3.87630295753479,-0.7016090154647827,2.4137377738952637,0.0697925016283989,-0.8838163018226624,-0.4625987112522125,0.2522899806499481,-0.3879426121711731,0.5715159773826599,0.3520533034608321,0.24992639173085052,-0.45413372089080584,-0.7793315781892443,1.0839578099030944,0.14974119279080533,-2.3832668077249375
1783423557647814656,1.4971327781677246,-3.4063944816589355,-0.5347917079925537,2.4739465713500977,0.04592806473374367,-0.8678619265556335,-0.49467793107032776,0.12500086426734924,-0.2668426036834717,0.6302064657211304,0.36446225752291433,0.23570706485029938,-0.4439630806028999,-0.7839044594777064,1.0508823816146844,0.09257897610968943,-2.3248927501049925
1783423557657734656,1.5070526599884033,-2.8042705059051514,-0.33183035254478455,2.4425575733184814,0.022932296618819237,-0.8531197309494019,-0.5212108492851257,0.03193829953670502,-0.13372719287872314,0.5686962604522705,0.3765352029668589,0.22302591893124124,-0.43549283428669505,-0.7866553462078455,1.0219361745200446,0.04396976077665766,-2.2733963001029522
1783423557667653888,1.5169718265533447,-2.8280513286590576,-0.17253917455673218,2.345977306365967,0.00200079963542521,-0.8388052582740784,-0.5444278717041016,-0.02685736119747162,-0.02235502004623413,0.43927955627441406,0.38824294904776063,0.21188269940716228,-0.42765848503559506,-0.7883408680736743,0.9950850090354106,0.0036750331532986596,-2.2283598056097382
1783423557677573632,1.5268917083740234,-3.1428980827331543,-0.19077010452747345,2.2354748249053955,-0.01760995015501976,-0.822101354598999,-0.5690687298774719,-0.03938163444399834,0.06744742393493652,0.4259565472602844,0.3997823342994779,0.20059222431133583,-0.41860291337574806,-0.7903849486599271,0.9650920710758064,-0.03093533580362221,-2.1888210739850176
1783423557687493888,1.5368118286132812,-3.3595292568206787,-0.12802915275096893,2.1788864135742188,-0.035586509853601456,-0.8028729557991028,-0.5950869917869568,-0.08694157004356384,0.002976715564727783,0.34511756896972656,0.4111309978351217,0.1892519844927066,-0.4082158454669736,-0.7927892176550589,0.9320988798541014,-0.059729383416476635,-2.154727220827411
1783423557697412608,1.5467307567596436,-3.6691277027130127,-0.1595359444618225,2.0874013900756836,-0.05314226076006889,-0.7807314395904541,-0.6226028800010681,-0.198993980884552,-0.0383298397064209,0.21029508113861084,0.4224240557123417,0.17719910606616507,-0.3966094423050267,-0.7955245506884141,0.8958354953893132,-0.0851486066554691,-2.1243816363212593
1783423557707332608,1.5566506385803223,-3.9171242713928223,0.008593629114329815,1.7542401552200317,-0.06773581355810165,-0.7557759284973145,-0.6513175964355469,-0.40171608328819275,-0.009086132049560547,0.11719894409179688,0.4330184997364913,0.16541608903767802,-0.3833780226727182,-0.798845321249015,0.856838247795359,-0.10362561075276615,-2.100785782422186
1783423557717252608,1.56657075881958,-4.149989128112793,-0.025562476366758347,1.6095991134643555,-0.07955553382635117,-0.7280087471008301,-0.6809362769126892,-0.39699169993400574,0.049038469791412354,0.1964849829673767,0.4427278240107668,0.15374997612849686,-0.3686364300884347,-0.8027828178451917,0.8154129544690434,-0.11630529682968947,-2.083338487561964
1783423557727171584,1.5764896869659424,-4.3388190269470215,-0.15167315304279327,1.6946135759353638,-0.09145720303058624,-0.6974474191665649,-0.7107760906219482,-0.33105865120887756,0.06526052951812744,0.24654269218444824,0.4521727875117026,0.1412101732904802,-0.35308870288242705,-0.806800953899309,0.7718293737133932,-0.12796915418272095,-2.0678771319921583
1783423557737091840,1.5864098072052002,-4.364621162414551,-0.14136725664138794,1.632312297821045,-0.10336501151323318,-0.6645516753196716,-0.7400586009025574,-0.4335765242576599,0.10562223196029663,0.32845282554626465,0.4614734741385297,0.1280907073301103,-0.3369917850025065,-0.8105994929756873,0.7268936751298596,-0.13877363294054942,-2.0536599540333587
1783423557747010816,1.5963287353515625,-4.278811454772949,-0.03489644080400467,1.5080355405807495,-0.11381243914365768,-0.6307409405708313,-0.7676018476486206,-0.5957975387573242,0.2184484601020813,0.3427819013595581,0.47023366952097356,0.11538025798602493,-0.3207592192311493,-0.8140523154247343,0.6825076619100796,-0.1471977314932952,-2.041592589723291
1783423557756930560,1.6062486171722412,-3.9790000915527344,-0.014657478779554367,1.2856501340866089,-0.12202997505664825,-0.5970944166183472,-0.7928347587585449,-0.7174932956695557,0.41957366466522217,0.3962588310241699,0.47804855129032003,0.10358561712514831,-0.3047173038989445,-0.8172435661952263,0.63987405994394,-0.15271757950223216,-2.0323435716327074
1783423557766850816,1.616168737411499,-3.3044333457946777,-0.04308071359992027,0.9891119599342346,-0.1284741312265396,-0.566981852054596,-0.8136498332023621,-0.7925006151199341,0.5117756128311157,0.35298699140548706,0.48436918879206936,0.09334465490807768,-0.29062324556851377,-0.8198850040631168,0.6028371896083763,-0.15660559834824755,-2.025594758577997
1783423557776769536,1.6260876655578613,-2.9233179092407227,0.07660041749477386,0.6861992478370667,-0.13246364891529083,-0.5410714149475098,-0.830478847026825,-0.8361337780952454,0.49408960342407227,0.34332674741744995,0.4890556312914205,0.0850587732960825,-0.2784341642721221,-0.8222311194964605,0.5717105988303006,-0.1581703770565208,-2.021855894789428
1783423557786689792,1.6360077857971191,-2.624669075012207,0.2278030663728714,0.46527236700057983,-0.13373343646526337,-0.5177948474884033,-0.8449874520301819,-0.8775275349617004,0.3946107029914856,0.32737886905670166,0.49257503825359006,0.07847451378478945,-0.26711049128155845,-0.8245383397752867,0.5442713393133313,-0.15696483106192993,-2.020703386586811
1783423557796608768,1.6459267139434814,-2.6523501873016357,0.4938477873802185,0.36258965730667114,-0.13199937343597412,-0.49608680605888367,-0.8581807017326355,-0.8289839029312134,0.23146888613700867,0.3318745493888855,0.4956362528978724,0.07359592772433779,-0.25591658567927206,-0.8267013688438165,0.5190860684062812,-0.15261696560964136,-2.0208400114148852
1783423557806528768,1.6558468341827393,-2.891944408416748,0.5592973828315735,0.15069913864135742,-0.128278911113739,-0.47277605533599854,-0.8717954754829407,-0.8498857617378235,0.22747576236724854,0.3936308026313782,0.49821533108110233,0.06900707598552976,-0.24359861217210554,-0.8292643644447155,0.49243850856245475,-0.14609499509110435,-2.0228119692160504
1783423557816448768,1.665766716003418,-3.505307197570801,0.6800855994224548,0.09909825772047043,-0.12308356165885925,-0.4465295970439911,-0.8862627744674683,-0.8539671897888184,0.3461115062236786,0.34987056255340576,0.500210867945007,0.06409601659312918,-0.22969610122106354,-0.8324184272612835,0.46288300567460944,-0.13799662053815795,-2.02684210174059
1783423557826367744,1.6756856441497803,-3.577716827392578,0.4422603249549866,-0.36144086718559265,-0.11705361306667328,-0.4169677495956421,-0.9013525247573853,-0.9829829931259155,0.8510802984237671,0.26770079135894775,0.5014180689799704,0.058481061444408726,-0.21425149699535465,-0.8362154429632047,0.4301066516264006,-0.1291416616343896,-2.033055165903623
1783423557836287744,1.685605764389038,-2.314302444458008,0.4585767388343811,-0.8326725959777832,-0.109201580286026,-0.39517641067504883,-0.9120913743972778,-1.2192744016647339,1.1908612251281738,0.000577092170715332,0.4998726801383671,0.05531707846691686,-0.20222349741610818,-0.8403410680851547,0.40625988662133555,-0.11915937757477217,-2.0437807326686697
1783423557846206720,1.6955246925354004,-1.4091508388519287,0.21301186084747314,-1.118566632270813,-0.10224312543869019,-0.3804608881473541,-0.9191277623176575,-1.034765601158142,0.9957410097122192,-0.16030949354171753,0.49670468336743645,0.05348913580104539,-0.19384279145807656,-0.844303423587035,0.3902945963501374,-0.11078383866071842,-2.056127187465363
1783423557856126720,1.7054448127746582,-0.35300323367118835,0.16317160427570343,-0.9396793246269226,-0.09661789238452911,-0.3748416304588318,-0.9220405220985413,-0.6704872250556946,0.5118045210838318,-0.17473071813583374,0.49254958544094335,0.05345118717762653,-0.1900597291700993,-0.8475938295533338,0.38422594090710016,-0.10440600433901795,-2.0684311900474897
1783423557866046720,1.715364694595337,-0.6156116724014282,0.089318186044693,-0.6725476384162903,-0.09248913079500198,-0.3720414340496063,-0.9235967397689819,-0.3479253053665161,0.18683025240898132,-0.10138189792633057,0.4894689384333721,0.053806643402125785,-0.1879001766077763,-0.8498343789819777,0.3812073489285327,-0.0998074272580258,-2.077211818549192
1783423557875965696,1.7252836227416992,-0.3953714370727539,-0.28738805651664734,-0.747511088848114,-0.09068500250577927,-0.36802220344543457,-0.9253841638565063,-0.43287456035614014,0.20344090461730957,-0.14827001094818115,0.48652042630558723,0.05286326961815056,-0.18577776598457452,-0.852050502672828,0.3768810363522148,-0.0976852327274249,-2.085304340811543
1783423557885885696,1.735203742980957,-0.26042553782463074,-0.052042629569768906,-0.7629945278167725,-0.09027813374996185,-0.3668791353702545,-0.9258777499198914,-0.10396625101566315,0.1288267970085144,-0.26053887605667114,0.48309733806838673,0.05199090791129318,-0.18535933496154275,-0.8541404059926312,0.37565199087141854,-0.09719820444576137,-2.093629987376838
1783423557895804672,1.7451226711273193,0.19287483394145966,-0.13506028056144714,-0.9996057152748108,-0.08671917766332626,-0.3690211772918701,-0.9253665208816528,0.19934430718421936,0.19459795951843262,-0.23750579357147217,0.4796450361957484,0.053378518825674834,-0.18565418965897376,-0.8559346074931902,0.37795564463891934,-0.09344043125581422,-2.1021601326139976
1783423557905724672,1.7550427913665771,0.20291340351104736,0.08723103255033493,-1.3694669008255005,-0.08293728530406952,-0.37276536226272583,-0.9242117404937744,0.3425503075122833,0.15168079733848572,-0.17056059837341309,0.47388732253364135,0.05478726629349185,-0.18679528826719302,-0.8587994849327554,0.38198741379115364,-0.08949867227242575,-2.1158254021689555
1783423557915644672,1.7649626731872559,-0.040884073823690414,0.06780700385570526,-0.7397419214248657,-0.07764177024364471,-0.3754071891307831,-0.923602283000946,0.7681934833526611,0.09113594889640808,-0.16575318574905396,0.4695083791486497,0.056875261014430266,-0.18698679937485382,-0.8610243523992487,0.38483606705248014,-0.08386688675551875,-2.1268031626501056
1783423557925563648,1.7748816013336182,0.18770848214626312,0.09539829939603806,-0.6441150307655334,-0.07335977256298065,-0.3776997923851013,-0.9230174422264099,1.1279404163360596,-0.0007639527320861816,-0.03367811441421509,0.46629153440201504,0.058677567884530095,-0.1872116984805328,-0.8626012375865831,0.38731081508997367,-0.07931149304267134,-2.134890452365102
1783423557935483648,1.784801721572876,0.3538958728313446,-0.12924866378307343,-0.7415196299552917,-0.069329634308815,-0.38179811835289,-0.9216417670249939,1.0415738821029663,-0.0314708948135376,-0.06575441360473633,0.4627882087748747,0.06077343595796755,-0.1883764719178908,-0.864087909995873,0.39174101965701735,-0.0750826510224842,-2.143278727484839
1783423557945402624,1.7947206497192383,0.7953401207923889,-0.7978929281234741,-0.3462616503238678,-0.07094941288232803,-0.3882417380809784,-0.9188223481178284,0.9677542448043823,-0.061633139848709106,-0.07071012258529663,0.4598640331411223,0.06106819284777901,-0.19198826689087475,-0.8648330494558892,0.39872288858870075,-0.07706484502180097,-2.1485867108307244
1783423557955322624,1.804640769958496,1.3830519914627075,-0.6917638182640076,-0.017556218430399895,-0.07492692768573761,-0.3988287150859833,-0.9139593243598938,0.4174256920814514,-0.023107320070266724,0.00033932924270629883,0.4574149653190165,0.06146366208908252,-0.19809735586573243,-0.864726102648438,0.41023921615176595,-0.08179766905427642,-2.1514562778023008
1783423557965242624,1.8145606517791748,1.2908134460449219,-1.1515083312988281,0.08184760063886642,-0.08253587037324905,-0.41234004497528076,-0.90728360414505,0.24147140979766846,-0.05270206928253174,-0.12410372495651245,0.45622062713862993,0.061267452698010504,-0.20640857584960642,-0.8634260629097377,0.42502113821005205,-0.09072060277078191,-2.149812777724778
1783423557975161856,1.8244798183441162,1.5922391414642334,-1.019256353378296,0.13855402171611786,-0.08878161758184433,-0.4266749620437622,-0.9000368118286133,0.05119922012090683,-0.12189376354217529,0.08765888214111328,0.45529150313436373,0.06197143856404524,-0.21480485750768172,-0.8618166632154007,0.440813069204746,-0.09832411976627656,-2.147496939445898
1783423557985081600,1.834399700164795,0.8593902587890625,-1.4296720027923584,0.09855404496192932,-0.09802036732435226,-0.4374864101409912,-0.8938666582107544,0.09080297499895096,-0.0830518901348114,0.00592726469039917,0.4536759312624956,0.0602436514014314,-0.22234514117675164,-0.8608783243562853,0.45280148660711755,-0.10922241886453234,-2.1463950516421195
1783423557995001856,1.8443198204040527,0.7421305179595947,-0.7157955169677734,-1.0723974704742432,-0.10303696990013123,-0.44650998711586,-0.888826310634613,0.19419294595718384,0.015495002269744873,-0.07800108194351196,0.44986066818718917,0.059354088218412156,-0.22817525719904558,-0.8614164921222986,0.4628611186060754,-0.11540961178699284,-2.151815553488155
1783423558004920832,1.854238748550415,1.1691269874572754,-0.767816424369812,-0.423165500164032,-0.10415197163820267,-0.4561786949634552,-0.8837721943855286,0.14768528938293457,0.0935230553150177,0.02532804012298584,0.44534322804570553,0.060169805964666916,-0.23343839243257042,-0.8622966277625371,0.4736963230094881,-0.1173082592650542,-2.1597860454227584
1783423558014840576,1.8641586303710938,1.3403139114379883,-0.6835902333259583,-0.31523317098617554,-0.10779102891683578,-0.4678461253643036,-0.8772121071815491,0.2857085168361664,-0.006595402956008911,-0.026382863521575928,0.44232487556413735,0.060744168652591676,-0.24021674660290096,-0.8619482510225923,0.4868521650686679,-0.12226616951454135,-2.1629382165447377
1783423558024759808,1.8740777969360352,1.0015760660171509,-0.48824772238731384,-0.06710712611675262,-0.11039430648088455,-0.4794463515281677,-0.8705999851226807,0.30126649141311646,-0.18058782815933228,0.023950815200805664,0.4400577040189979,0.06196595738320789,-0.2466986772868149,-0.8611906028436497,0.5000237249748851,-0.12612942989593215,-2.164547037178912
1783423558034679552,1.8839976787567139,0.11577650904655457,-0.093544602394104,-0.1864452362060547,-0.11056599020957947,-0.48497653007507324,-0.8675096035003662,0.37959370017051697,-0.23925137519836426,0.10705733299255371,0.43902924834989077,0.06304741567335508,-0.24954001076170973,-0.8608182954610811,0.5063363329254458,-0.12676871281852423,-2.165500990661012
1783423558044599808,1.8939177989959717,-0.8224766254425049,-0.4589288830757141,-0.27897366881370544,-0.1116664931178093,-0.48228707909584045,-0.8688669204711914,0.4696529507637024,-0.33253222703933716,0.13835245370864868,0.43730447321938215,0.06134186704586147,-0.24860350337976334,-0.8620894804560076,0.5032636194926808,-0.12781899941521557,-2.1698117641805776
1783423558054518784,1.903836727142334,-1.3301606178283691,-1.0155748128890991,0.1946633905172348,-0.11555149406194687,-0.474348247051239,-0.8727207779884338,0.5874905586242676,-0.4205339550971985,0.10303694009780884,0.43628574947566806,0.05721464460536641,-0.24569511161202612,-0.8637216487304188,0.4942235335696613,-0.13163806597132377,-2.172864245898973
1783423558064438528,1.9137566089630127,-1.5065826177597046,-0.36812031269073486,-0.5952097177505493,-0.11960475891828537,-0.46079501509666443,-0.8794103860855103,0.42861050367355347,-0.20776882767677307,0.07095396518707275,0.4352817337069961,0.05160057545035433,-0.24006702458593074,-0.8661611216866613,0.47889078374042054,-0.13517621530147525,-2.1771878035705408
1783423558074357760,1.923675775527954,0.2683071196079254,-0.32873615622520447,-0.04160219803452492,-0.11757779866456985,-0.4571418762207031,-0.8815876245498657,0.09188199788331985,-0.033473968505859375,-0.06729543209075928,0.43286202622390957,0.05092604604392353,-0.2379342790884804,-0.8680001200248117,0.4747789620519976,-0.13258806819769078,-2.184272007074725
1783423558084277504,1.9335956573486328,0.8862617015838623,-0.3784424960613251,0.4621126055717468,-0.12111452966928482,-0.46283242106437683,-0.8781329393386841,0.3462274372577667,-0.0005159676074981689,-0.2832134962081909,0.4338506165738013,0.05103640156190976,-0.24151361590081183,-0.8665102938883787,0.48118779441259557,-0.13705806770576218,-2.1795219591736634
1783423558094197760,1.9435157775878906,1.1828593015670776,-0.3324715495109558,-0.17413388192653656,-0.12241499125957489,-0.47241219878196716,-0.8728351593017578,0.2466520518064499,0.03402721881866455,-0.06831163167953491,0.4329724637327654,0.05264802040481905,-0.2465980472976527,-0.865420319987095,0.49202563781132136,-0.13934097122178196,-2.178770914405244
1783423558104116736,1.953434705734253,0.8294005990028381,-0.3142082095146179,0.5209670066833496,-0.1260402351617813,-0.4815942049026489,-0.8672836422920227,0.4111812114715576,-0.3816412687301636,-0.046382129192352295,0.4330641763735544,0.05338853226069201,-0.2520076499453037,-0.8637691559715591,0.5024728398389313,-0.1443172485149128,-2.1750129886350362
1783423558114036736,1.9633548259735107,0.04567645117640495,-0.11563172191381454,0.11206232756376266,-0.12771295011043549,-0.48570510745048523,-0.8647426962852478,0.3500182628631592,-0.3803684711456299,0.07481050491333008,0.43388651672936895,0.053934049113131585,-0.25440080599001524,-0.8626202893752231,0.5071696325726017,-0.14662899855806516,-2.1714597887049694
1783423558123955712,1.973273754119873,-0.7865681052207947,-0.5769306421279907,0.3371850252151489,-0.13141202926635742,-0.48196181654930115,-0.8662815093994141,0.3185000717639923,-0.34681928157806396,0.07604414224624634,0.4342784868491145,0.051393249881537574,-0.25341264757093,-0.8628690385873109,0.5028923672443436,-0.15054888054099236,-2.170289093374393
1783423558133875712,1.9831936359405518,-1.0741662979125977,-0.25837239623069763,0.4793488085269928,-0.1365281641483307,-0.4739105701446533,-0.8699246048927307,0.3725358545780182,-0.4230010509490967,0.03381925821304321,0.43581999440200153,0.0474328132848643,-0.25057497471813067,-0.8631472870757421,0.4937264203886308,-0.15567268365379475,-2.167137167038002
1783423558143795712,1.9931137561798096,-1.3806304931640625,-0.4290430247783661,0.21430663764476776,-0.14052800834178925,-0.46223652362823486,-0.8755508065223694,0.26447516679763794,-0.22674354910850525,0.056459009647369385,0.43709219302557084,0.042976760713261716,-0.24571851038091025,-0.8641329531600498,0.4805156998004719,-0.15914509042989716,-2.16594709518516
1783423558153714688,2.003032684326172,-0.9820513129234314,-0.3967559337615967,0.22073231637477875,-0.14471635222434998,-0.4523610770702362,-0.8800151348114014,0.22674760222434998,0.020018547773361206,-0.03482556343078613,0.43757095140114854,0.038688062720947464,-0.2418587778933889,-0.8651815835008384,0.46941099167816674,-0.16298878526703944,-2.166054506562492
1783423558163634688,2.0129528045654297,-0.7486125230789185,-0.27762046456336975,-0.045910727232694626,-0.14762070775032043,-0.44456639885902405,-0.8834980726242065,0.26331284642219543,0.16623082756996155,0.019179224967956543,0.437814748033071,0.03545993017706881,-0.23873323596540957,-0.8660642144760226,0.4606901208880516,-0.16555725669643764,-2.166572865177211
1783423558173554688,2.0228726863861084,-0.41688892245292664,-0.41589951515197754,-0.019649295136332512,-0.15004120767116547,-0.43956300616264343,-0.8855913281440735,0.2533737123012543,0.11079713702201843,-0.060011088848114014,0.43740494859087325,0.03298702805515754,-0.23688857445096678,-0.8668751316416349,0.45511210093380705,-0.1678311360142157,-2.168037441764199
1783423558183473664,2.0327916145324707,-0.382656991481781,-0.5076977610588074,0.004660670645534992,-0.153696209192276,-0.4362625479698181,-0.8865959644317627,0.3466741442680359,0.0420975387096405,-0.04510563611984253,0.43689773408177046,0.030363090563571896,-0.23617808291921058,-0.8674204615676728,0.45144089774823437,-0.17164949535677457,-2.1689180335910803
1783423558193393664,2.0427117347717285,-0.41904696822166443,-0.5286666750907898,0.02442185766994953,-0.15759341418743134,-0.4329785704612732,-0.8875212073326111,0.26796022057533264,0.006007134914398193,-0.013617098331451416,0.4363165245858136,0.027617096894795492,-0.2355349244899077,-0.8679794859618184,0.4477945167416693,-0.17573413663044526,-2.169897587478707
1783423558203312640,2.052630662918091,-0.4969116747379303,-0.3393271565437317,0.028808750212192535,-0.16082358360290527,-0.42922264337539673,-0.888765275478363,0.19317223131656647,-0.05695292353630066,-0.024107038974761963,0.43610581860712094,0.025159425029317423,-0.2344874397527618,-0.8684437148309032,0.44363191508524835,-0.179014612127286,-2.170354352689147
1783423558213232640,2.0625507831573486,-0.6811161041259766,-0.4035165309906006,0.12325562536716461,-0.16424773633480072,-0.4242936670780182,-0.8905041217803955,0.15828154981136322,-0.1384962499141693,-0.010573148727416992,0.4359169182910834,0.022332205376048988,-0.2329146211950022,-0.8690387887793803,0.4381817010791459,-0.18239368156112734,-2.17100598540302
1783423558223152640,2.0724706649780273,-0.800950825214386,-0.44087451696395874,0.07366480678319931,-0.1674061119556427,-0.4174807667732239,-0.8931321501731873,0.2637042999267578,-0.13778656721115112,0.0011186003684997559,0.43591331749484974,0.019214834037707927,-0.23035782533569546,-0.8697962577887873,0.4306711413077751,-0.18528719722714887,-2.17179271481725
1783423558233071872,2.0823898315429688,-0.756189227104187,-0.3743295967578888,0.14749588072299957,-0.17069391906261444,-0.4104577898979187,-0.8957611322402954,0.21708063781261444,-0.0542638897895813,-0.01996457576751709,0.43594767397276674,0.0160058078802691,-0.2277350490340699,-0.8705344371168143,0.4229560398417629,-0.18829987611235532,-2.17250714001745
1783423558242991616,2.0923097133636475,-0.5093703269958496,-0.15903496742248535,0.14374007284641266,-0.1733914464712143,-0.40520623326301575,-0.8976320624351501,0.2310849279165268,0.023965388536453247,-0.08735328912734985,0.4363946863122388,0.013612914947422616,-0.22582882345128727,-0.8708477092568516,0.4172044034206877,-0.19081526358127687,-2.172005013874839
1783423558252910592,2.1022286415100098,-0.4228849709033966,-0.4209294319152832,-0.022985538467764854,-0.17546813189983368,-0.40096521377563477,-0.899131715297699,0.22420470416545868,0.051676273345947266,-0.06693273782730103,0.43602688452104155,0.011540941517782212,-0.22427874474978154,-0.8714622111529304,0.4125702332290623,-0.19273054710877371,-2.1733034976372503
1783423558262830848,2.1121487617492676,0.13372354209423065,-0.3991749584674835,0.30475443601608276,-0.17946334183216095,-0.39944836497306824,-0.8990182876586914,0.35884568095207214,-0.014553070068359375,-0.16364949941635132,0.43625808963822543,0.00942259483968029,-0.22450405005828936,-0.8713139095273933,0.41091504691878306,-0.19703154831157085,-2.172005232317077
1783423558272750592,2.1220686435699463,0.26854953169822693,-0.3658508360385895,-0.02312861569225788,-0.18301035463809967,-0.4009874761104584,-0.897616982460022,0.300487756729126,-0.037351757287979126,-0.12179219722747803,0.4363890448757886,0.008227520221961823,-0.22610576925112483,-0.8708461757489467,0.41259453780436617,-0.20112802551777076,-2.1702962833809383
1783423558282669824,2.1319878101348877,0.34586623311042786,-0.54099041223526,0.0923725813627243,-0.1864028424024582,-0.40387609601020813,-0.8956215977668762,0.21138149499893188,-0.005669772624969482,-0.069832444190979,0.43585288572213077,0.007258354922335941,-0.22833420283413916,-0.8705418434036527,0.41574994688226613,-0.2051974154848053,-2.1698018345297054
1783423558292589568,2.1419076919555664,0.3101932108402252,-0.4003095030784607,0.40644073486328125,-0.19147388637065887,-0.406745046377182,-0.8932504057884216,0.31714528799057007,-0.0751122534275055,-0.043349385261535645,0.43648151962316256,0.005832010441849641,-0.23095626950410436,-0.8695453649083943,0.41888820862487486,-0.2111608678432578,-2.16611109459902
1783423558302508544,2.1518266201019287,-0.1793232411146164,-0.18159517645835876,0.03607921302318573,-0.1945943832397461,-0.40693411231040955,-0.8924895524978638,0.1606893688440323,-0.12872564792633057,0.061297595500946045,0.43694905549242996,0.004591370875226758,-0.2318062326224523,-0.8690916467600388,0.41909518666928824,-0.2146756977134313,-2.164054843509215
1783423558312428800,2.1617467403411865,-0.5220648646354675,-0.2593946158885956,0.2256949543952942,-0.1963876485824585,-0.4038764238357544,-0.8934851884841919,0.1281808763742447,-0.1385582685470581,0.052497029304504395,0.4371930903754861,0.003095333344936096,-0.2307549315743584,-0.8692553433961948,0.4157503029132981,-0.2163591188758071,-2.163775271250408
1783423558322348544,2.1716666221618652,-0.4846687316894531,-0.2354145050048828,0.0794549509882927,-0.1988532543182373,-0.3990035057067871,-0.8951277136802673,0.2218329906463623,-0.0007920265197753906,-0.019117891788482666,0.4376607319388076,0.0009111732907449432,-0.22898761161643333,-0.8694923416197203,0.410429853554194,-0.21860080195762657,-2.163266598659705
1783423558332267776,2.1815857887268066,-0.36103254556655884,-0.212426096200943,0.13104970753192902,-0.20096395909786224,-0.39497312903404236,-0.8964428305625916,0.20535847544670105,0.06242308020591736,-0.06959110498428345,0.4378995714237664,-0.000964894132812844,-0.22754705791156432,-0.8697501503586302,0.40603859431060924,-0.22053318307069109,-2.1631663069136486
1783423558342187520,2.1915056705474854,-0.1453355848789215,-0.15265391767024994,0.06277734041213989,-0.20270323753356934,-0.39281150698661804,-0.8970008492469788,0.23760008811950684,-0.020945817232131958,-0.14312976598739624,0.4378889900193172,-0.002280938110625539,-0.22692371403362877,-0.8699159487638339,0.4036868705746681,-0.22224595165156694,-2.1632555458563725
1783423558352106752,2.2014248371124268,-0.10020192712545395,-0.27447330951690674,0.06701309233903885,-0.20513680577278137,-0.3917742371559143,-0.8969012498855591,0.23238898813724518,-0.1605176329612732,-0.17075622081756592,0.4379252988311375,-0.003623958546902513,-0.22701596082610845,-0.8698689794930587,0.402559193807107,-0.22484976422449554,-2.162738776699831
1783423558362026752,2.2113447189331055,-0.1394370198249817,-0.1224246472120285,0.024954156950116158,-0.20610590279102325,-0.3905061185359955,-0.8972319960594177,0.18703241646289825,-0.15577378869056702,-0.0661468505859375,0.43782306068261023,-0.0043973216024067495,-0.2266377098930297,-0.8700154567926879,0.40118130444864986,-0.22579584039974998,-2.163028688592221
1783423558371946752,2.2212648391723633,-0.24321161210536957,-0.2890527844429016,0.25295430421829224,-0.2081638127565384,-0.3885851204395294,-0.8975909352302551,0.2276492863893509,-0.16894051432609558,-0.10977905988693237,0.4383590737236616,-0.005655180283826005,-0.22621353064253083,-0.8698487451483198,0.3990955313544256,-0.22788536863083203,-2.1617100910444194
1783423558381865728,2.2311837673187256,-0.17185986042022705,-0.052819397300481796,0.22051504254341125,-0.210145503282547,-0.3866468667984009,-0.8979660868644714,0.2252822369337082,-0.19703233242034912,-0.08065634965896606,0.43909588862610505,-0.00683063280987501,-0.22576603742107484,-0.869584904148548,0.39699290777717716,-0.2298867271362344,-2.159958055842877
1783423558391785728,2.2411036491394043,-0.2989765405654907,-0.1450611799955368,0.35820576548576355,-0.21188685297966003,-0.3839316964149475,-0.8987215161323547,0.18405482172966003,-0.11094135046005249,-0.04642307758331299,0.44021380789669584,-0.007988432446157554,-0.2248897789683269,-0.8692367545874536,0.3940505611331734,-0.23153655310838162,-2.157607046610586
1783423558401704704,2.2510228157043457,-0.4117814302444458,-0.2377343475818634,0.20630410313606262,-0.2145269513130188,-0.37999433279037476,-0.899768054485321,0.2306249737739563,-0.06960588693618774,-0.055538952350616455,0.44132796369311217,-0.009851707221989137,-0.22364912068319684,-0.8689727723050878,0.38979016133612726,-0.23405497641326356,-2.1553337061312083
1783423558411624704,2.2609426975250244,-0.16109250485897064,-0.13855822384357452,0.39684876799583435,-0.21661457419395447,-0.3772397041320801,-0.9004267454147339,0.16108785569667816,-0.05690336227416992,-0.06733143329620361,0.44222199107883003,-0.011234878772563612,-0.22284613304262135,-0.8687077679465137,0.38681398106657466,-0.23608272206011421,-2.1534128576876115
1783423558421544704,2.2708628177642822,-0.17366842925548553,-0.0712369829416275,0.5609563589096069,-0.219541534781456,-0.37481099367141724,-0.9007320404052734,0.2568797767162323,-0.12581461668014526,-0.08532142639160156,0.4443007226313079,-0.012613519349267376,-0.22242948349734104,-0.8677343078680048,0.38419290087180996,-0.23907523481091156,-2.1484386456590885
1783423558431463680,2.2807817459106445,-0.4947732090950012,-0.24572116136550903,0.3373318016529083,-0.22274696826934814,-0.3711194396018982,-0.901473343372345,0.22598181664943695,-0.0795641541481018,-0.10226505994796753,0.44595348470652774,-0.014537075394463042,-0.22147687917099193,-0.8670998711849311,0.38021425069306586,-0.24223997631949126,-2.1447060520474617
1783423558441383680,2.2907016277313232,-0.6955078840255737,-0.11876758933067322,0.1638999581336975,-0.22470399737358093,-0.36506006121635437,-0.9034596085548401,0.18799135088920593,-0.08467745780944824,-0.10117906332015991,0.44680081206446187,-0.016686625338287107,-0.21907022352470318,-0.8672362299175468,0.37369732965395386,-0.24376893657850116,-2.143817375687593
1783423558451303680,2.300621747970581,-0.456574410200119,-0.25144174695014954,0.19355878233909607,-0.22722186148166656,-0.3592328727245331,-0.9051640629768372,0.20491351187229156,-0.0642443299293518,-0.18544262647628784,0.44720170056249886,-0.01914281186419185,-0.2169136165322493,-0.8675210484788015,0.3674457524004885,-0.2459463056881775,-2.1437364002953925
1783423558461222656,2.3105406761169434,-0.3724133372306824,-0.34344929456710815,0.3863776922225952,-0.2310059368610382,-0.355194091796875,-0.9057998657226562,0.2250092476606369,-0.1338958442211151,-0.19799035787582397,0.44805796768847994,-0.02161570561518201,-0.21594633558366363,-0.8672623907179824,0.3631216904644952,-0.24970692678129805,-2.1417858444232785
1783423558471142656,2.320460796356201,-0.45878496766090393,-0.3166155517101288,0.3292006850242615,-0.2351207137107849,-0.35071226954460144,-0.906487226486206,0.1852550059556961,-0.16099119186401367,-0.12314528226852417,0.44925313308206744,-0.024261341924325466,-0.21486684158393438,-0.866842091325208,0.35833158231101747,-0.2537831400682247,-2.1390866404369926
1783423558481061632,2.3303797245025635,-0.7381392121315002,-0.32733747363090515,0.25561606884002686,-0.23843853175640106,-0.34480559825897217,-0.9078855514526367,0.12671367824077606,-0.20641818642616272,-0.07076740264892578,0.44998799048996846,-0.027011826378810846,-0.21290275353192503,-0.8668642769090468,0.35203166384869167,-0.25683051823578507,-2.138050203525934
1783423558490981632,2.340299606323242,-0.7928698062896729,-0.36870700120925903,0.354790061712265,-0.24249984323978424,-0.33712276816368103,-0.9096933603286743,0.15714219212532043,-0.14537537097930908,-0.08716326951980591,0.4508244951624576,-0.030503463695134004,-0.21029229592952625,-0.8669509139769065,0.34385909435467227,-0.26051510057326543,-2.1370491952168305
1783423558500901632,2.3502197265625,-0.49336716532707214,-0.4367706775665283,0.3034737706184387,-0.24692781269550323,-0.3306727409362793,-0.9108689427375793,0.17008455097675323,-0.0435795783996582,-0.14661091566085815,0.4515796665076391,-0.03387771852928067,-0.20836946870279613,-0.8668969737450151,0.3370163330770724,-0.26472785734158794,-2.1358211532681097
1783423558510820608,2.3601386547088623,-0.306653767824173,-0.6081451177597046,0.3521731495857239,-0.25256988406181335,-0.32616978883743286,-0.9109455347061157,0.23082610964775085,0.0031870007514953613,-0.19818532466888428,0.45230850706498776,-0.037328259358349186,-0.20768689131496276,-0.8665389952180496,0.3322489422300469,-0.2704672477981691,-2.133833418090507
1783423558520740864,2.37005877494812,-0.29568246006965637,-0.47774016857147217,0.34805023670196533,-0.2588610053062439,-0.3227593004703522,-0.9103940725326538,0.21143671870231628,-0.09014350175857544,-0.22322708368301392,0.45331427787716866,-0.04073738194967507,-0.20770993887090544,-0.8658540415646235,0.3286433754458219,-0.2770281838811316,-2.130756196579525
1783423558530659584,2.3799777030944824,-0.5063621997833252,-0.6169508099555969,0.28657302260398865,-0.2647187411785126,-0.31848636269569397,-0.9102144837379456,0.15683913230895996,-0.19263729453086853,-0.10980504751205444,0.45385823932739017,-0.04427302193463504,-0.20720195274124148,-0.8655172186952755,0.32413227352031776,-0.28302394708715023,-2.129096709458611
1783423558540579840,2.3898978233337402,-0.7445701360702515,-0.4868137836456299,0.46807870268821716,-0.27053403854370117,-0.31202197074890137,-0.9107434749603271,0.19266840815544128,-0.25363659858703613,-0.07811760902404785,0.45489186996714,-0.0482064164420599,-0.20568037905860567,-0.8651271890955523,0.3173205046596425,-0.2887458460362394,-2.126914123559704
1783423558550499584,2.399817705154419,-1.05976402759552,-0.4012163281440735,0.4017167091369629,-0.27594804763793945,-0.30280643701553345,-0.912228524684906,0.20632219314575195,-0.29359856247901917,0.025357186794281006,0.4560836273866122,-0.05259328275065268,-0.20277987262716055,-0.8649288393617445,0.30763597884316257,-0.2937477072059376,-2.12521813032873
1783423558560418560,2.4097366333007812,-1.0552293062210083,-0.38971230387687683,0.5272308588027954,-0.28014227747917175,-0.292032390832901,-0.9144601821899414,0.17761844396591187,-0.2453058660030365,0.047089576721191406,0.45735523643871706,-0.0567957442291336,-0.19885713998325447,-0.8649024314596335,0.29635116897862884,-0.29726964618508267,-2.1240638216654166
1783423558570338816,2.419656753540039,-1.1490229368209839,-0.6398992538452148,0.6491516828536987,-0.28691476583480835,-0.2801807224750519,-0.9160669445991516,0.25255200266838074,-0.21479910612106323,-0.08550465106964111,0.45917653622135196,-0.06229281357191502,-0.19515666532456397,-0.8644017209004708,0.2839823622616498,-0.30352502942084725,-2.1212721231460305
1783423558580257536,2.4295756816864014,-1.1776918172836304,-0.5004585385322571,0.5031864643096924,-0.293651282787323,-0.2680394649505615,-0.9175640344619751,0.211131751537323,-0.16337227821350098,-0.1033710241317749,0.46066211667638873,-0.06792579968065783,-0.1913218968811711,-0.8640441772824741,0.27135744513881005,-0.3097333856450033,-2.1193499948410572
1783423558590177792,2.439495801925659,-1.0742772817611694,-0.6893757581710815,0.5187984108924866,-0.30005842447280884,-0.25630784034729004,-0.9188423156738281,0.2785740792751312,-0.19559642672538757,-0.1644553542137146,0.46178841010591554,-0.07339546423146613,-0.1875951549990273,-0.863812807493506,0.25920050468338196,-0.31564346741672755,-2.1182402204388553
1783423558600097536,2.449415683746338,-1.016112208366394,-0.6603575348854065,0.6091208457946777,-0.3074783682823181,-0.2452613264322281,-0.919404149055481,0.3198990225791931,-0.3110588788986206,-0.24232375621795654,0.46327290449319564,-0.07907992896311733,-0.1845109697011338,-0.8631803975629918,0.24778924414794049,-0.3227392155692634,-2.1158975666791497
1783423558610016512,2.4593346118927,-1.2222529649734497,-0.5992478728294373,0.49185413122177124,-0.3145204186439514,-0.23350507020950317,-0.9200827479362488,0.23471695184707642,-0.3477784991264343,-0.16426777839660645,0.46458361875250087,-0.08481165753407191,-0.18101271280547318,-0.8626722195190091,0.23568084589899188,-0.32938624898098007,-2.114240923343302
1783423558619937280,2.469255208969116,-1.572148323059082,-0.6609001755714417,0.4676796793937683,-0.3210621774196625,-0.21937063336372375,-0.921301007270813,0.18654072284698486,-0.31827276945114136,-0.11071187257766724,0.46552273703315655,-0.09098012911693373,-0.17627279668348134,-0.862518996964264,0.22116934469980434,-0.3353270115782857,-2.114170151077815
1783423558629856000,2.4791741371154785,-1.935548186302185,-0.5652620792388916,0.48376864194869995,-0.3279549777507782,-0.2013256847858429,-0.9229915738105774,0.16950774192810059,-0.2454363852739334,-0.10110199451446533,0.4662420496128707,-0.0983021471647692,-0.16982605842599197,-0.8626204755800553,0.20271112602899435,-0.34140406224021674,-2.11549991434014
1783423558639776256,2.4890942573547363,-1.6991592645645142,-0.64925616979599,0.47062960267066956,-0.33449307084083557,-0.18305689096450806,-0.9244482517242432,0.15131133794784546,-0.12739843130111694,-0.10808348655700684,0.4668769472907885,-0.10553773030116045,-0.1632105073643944,-0.8626992352749102,0.1840949919397283,-0.3471746585057374,-2.1171272058638153
1783423558649696000,2.499014139175415,-1.4812498092651367,-0.6621884703636169,0.30880820751190186,-0.3410794138908386,-0.1670856922864914,-0.9250660538673401,0.14213532209396362,-0.008314073085784912,-0.1313151717185974,0.4672051369714637,-0.11230062723997913,-0.15765641160725802,-0.862700590658182,0.16787307081424813,-0.35324316308611103,-2.118879699200699
1783423558659615232,2.5089333057403564,-1.1335183382034302,-0.6626936197280884,0.2982882857322693,-0.3476400375366211,-0.15393836796283722,-0.9249050617218018,0.0938100814819336,0.02016456425189972,-0.12612032890319824,0.46727594946791423,-0.11842040270884212,-0.15337559569867598,-0.8626156696485249,0.15455292857877823,-0.35952937923341244,-2.1205604363726622
1783423558669535232,2.518853187561035,-0.8332990407943726,-0.5754013061523438,0.1847989857196808,-0.35337868332862854,-0.14422926306724548,-0.9242951273918152,0.10585063695907593,-0.03286422789096832,-0.11882621049880981,0.46727391927449685,-0.12335597884893161,-0.1504518316233911,-0.8624399206107787,0.14473405255537083,-0.36517476149673145,-2.121764447419544
1783423558679455232,2.528773307800293,-0.6900634169578552,-0.6920892000198364,0.2846653461456299,-0.3596273362636566,-0.1365557760000229,-0.9230496883392334,0.16568812727928162,-0.0768231451511383,-0.1295473575592041,0.4672587508025974,-0.12803787346679107,-0.14859833146008927,-0.8620870790607673,0.13698377423773933,-0.3715155879487271,-2.1224367878644617
1783423558689374208,2.5386922359466553,-0.7347094416618347,-0.6945810914039612,0.20857112109661102,-0.3662550747394562,-0.12928655743598938,-0.9214891195297241,0.2557051479816437,-0.12053033709526062,-0.12860548496246338,0.4673858992301239,-0.1327751499618876,-0.14705849083522174,-0.861565410081379,0.12964945964513241,-0.3783148223421707,-2.122628454516363
1783423558699294208,2.548612117767334,-0.7606256604194641,-0.6244398355484009,0.3177618086338043,-0.37209177017211914,-0.12174513936042786,-0.9201770424842834,0.20792248845100403,-0.11850447952747345,-0.09279286861419678,0.467590351063048,-0.13721211998267427,-0.14520434962531498,-0.8610736133361228,0.12204791376170167,-0.38426772601517944,-2.122866608635213
1783423558709213184,2.5585312843322754,-1.0236154794692993,-0.664691686630249,0.20073240995407104,-0.3781662583351135,-0.11257965117692947,-0.918866753578186,0.22612768411636353,-0.07804840058088303,-0.06820905208587646,0.4677376821205954,-0.14216572277831113,-0.142672820743347,-0.8606130410061817,0.11281882466887921,-0.3904296381593041,-2.123593506316059
1783423558719133184,2.568451166152954,-0.935928463935852,-0.5992005467414856,0.05274800583720207,-0.384044349193573,-0.10331330448389053,-0.9175163507461548,0.1708638072013855,-0.04191984236240387,-0.07969129085540771,0.4670351951646541,-0.14720004684253005,-0.1399069680225443,-0.8606022808186741,0.10349798292458341,-0.3964113531819185,-2.126369854281349
1783423558729053184,2.578371286392212,-0.785068690776825,-0.6341108679771423,0.15023274719715118,-0.3894975781440735,-0.09523048996925354,-0.9160910248756409,0.165757954120636,-0.08125264942646027,-0.09674161672592163,0.4664061702835919,-0.15174541855291318,-0.13757840471065172,-0.8605292808585303,0.09537502133999044,-0.4020175571496059,-2.128785112719215
1783423558738972160,2.588290214538574,-0.6295339465141296,-0.5207837820053101,0.11124353855848312,-0.39475828409194946,-0.08824587613344193,-0.9145373702049255,0.17938050627708435,-0.08207272738218307,-0.05549436807632446,0.4661331548280448,-0.1558846411287737,-0.1357619367859243,-0.8602259193362093,0.08836081123329591,-0.40748813364186504,-2.130160577609186
1783423558748892416,2.598210334777832,-0.5769250392913818,-0.4418676197528839,0.05363590270280838,-0.39915013313293457,-0.08238188177347183,-0.9131770730018616,0.13605809211730957,-0.06967196613550186,-0.03634679317474365,0.46563987661208583,-0.15939340574926097,-0.13418342780736328,-0.8600977743167286,0.08247535393601979,-0.4120750464929477,-2.131943346667144
1783423558758811136,2.6081292629241943,-0.35594794154167175,-0.4168647825717926,0.019546907395124435,-0.40300604701042175,-0.0781324952840805,-0.9118560552597046,0.20479437708854675,-0.059959545731544495,-0.02076113224029541,0.46522898651490796,-0.16225590325202874,-0.13321035810198958,-0.8599360964402591,0.0782122067567412,-0.41614975891875594,-2.1332509291600457
1783423558768731136,2.618049144744873,-0.13085117936134338,-0.2442629486322403,-0.04132150113582611,-0.40608271956443787,-0.07596886903047562,-0.9106731414794922,0.15667781233787537,0.0024977922439575195,0.05184745788574219,0.46470605723373914,-0.16427568263661954,-0.1329546149204053,-0.8598749125668959,0.07604212942402015,-0.41945155046985766,-2.134460016027835
1783423558778651136,2.627969264984131,0.011638056486845016,-0.12222864478826523,0.06098649650812149,-0.4079444408416748,-0.07530742138624191,-0.909895658493042,0.1372077465057373,-0.0017494633793830872,0.143873929977417,0.46452698456337993,-0.16532112657135384,-0.13312058301927698,-0.8597455948271362,0.07537878378341505,-0.4214742600829807,-2.1347182195445322
1783423558788570112,2.637888193130493,-0.14132539927959442,-0.05595720559358597,0.07720008492469788,-0.40881210565567017,-0.07493136823177338,-0.9095372557640076,0.18192917108535767,-0.09694364666938782,0.20117849111557007,0.4648381826834598,-0.1657637483261224,-0.1332432511759372,-0.8594731973466382,0.07500166457945873,-0.4224152851108104,-2.133936751028801
1783423558798490368,2.647808313369751,-0.7137777209281921,0.2225344479084015,-0.01237467210739851,-0.40815040469169617,-0.0707920640707016,-0.9101657867431641,0.10942909121513367,-0.1673213541507721,0.33687782287597656,0.4646087941499549,-0.16649282148594757,-0.13113826597404565,-0.8597800331981562,0.07085133031378435,-0.42155188623467077,-2.1355714154359093
1783423558808409088,2.6577272415161133,-1.0926895141601562,0.28867262601852417,0.07220619171857834,-0.40553420782089233,-0.0627608373761177,-0.9119226932525635,0.11216875910758972,-0.3195023238658905,0.37789565324783325,0.464083555258965,-0.167300692043501,-0.12668511363329565,-0.8605740421297792,0.06280211560262386,-0.41843971413024517,-2.13911474060774
1783423558818329088,2.667647123336792,-1.3658945560455322,0.45197415351867676,0.09204451739788055,-0.4022730886936188,-0.05101500451564789,-0.9140973091125488,0.14656630158424377,-0.4022168219089508,0.42967653274536133,0.46370448223653876,-0.1686779901238433,-0.12041218947139054,-0.8614098135349865,0.05103715718223651,-0.41457129829550954,-2.1432111414139037
1783423558828249344,2.67756724357605,-1.7179889678955078,0.5987066030502319,-0.07240036129951477,-0.39734670519828796,-0.03730986267328262,-0.9169098138809204,0.14710256457328796,-0.2850320339202881,0.4442077875137329,0.4627354552902275,-0.1698278765846203,-0.11271023825022225,-0.8627460279869388,0.03731852261754873,-0.4089253880488705,-2.149244418910189
1783423558838168064,2.687486171722412,-1.6800936460494995,0.6444479823112488,-0.06373582780361176,-0.39138349890708923,-0.021656421944499016,-0.9199727773666382,0.16576707363128662,-0.026240907609462738,0.5413565039634705,0.4611665424913491,-0.17101954232207559,-0.10375895526326465,-0.8644719070446245,0.021658114966391306,-0.40223431963722517,-2.157055334188594
1783423558848088320,2.69740629196167,-0.964847981929779,0.8159710168838501,0.05699378624558449,-0.3845271170139313,-0.0096062533557415,-0.9230636954307556,0.15076246857643127,0.0347069576382637,0.4505600333213806,0.4604676639073498,-0.17080878994464702,-0.09639764546923688,-0.8657374413300212,0.009606400666703282,-0.39471473223882425,-2.162022755945879
1783423558858008064,2.7073261737823486,-0.777259886264801,0.9333366751670837,0.07688283175230026,-0.3761073052883148,-0.0021392430644482374,-0.926573634147644,0.02964124083518982,0.09804074466228485,0.39630019664764404,0.46044721937862726,-0.1686985998740679,-0.09085134135256524,-0.8667612566447852,0.002139244778724764,-0.3855924787405344,-2.164542492498535
1783423558867927040,2.717245101928711,-0.7997223138809204,0.9432764053344727,0.1794893741607666,-0.367118775844574,0.00587904779240489,-0.9301555156707764,0.053687989711761475,0.19938218593597412,0.48549914360046387,0.46074039209392503,-0.16642958211511388,-0.08499084443206315,-0.8676382429279844,-0.005879081850473166,-0.3759164220997982,-2.166389001523298
1783423558877847296,2.7271652221679688,-0.6042608022689819,0.9991114139556885,0.16653665900230408,-0.3578720688819885,0.012602029368281364,-0.9336856007575989,0.13077551126480103,0.10673696547746658,0.4273532032966614,0.46133771572504134,-0.16371203047768443,-0.07972189129682923,-0.8683376466015864,-0.012602362992894764,-0.3660184742972794,-2.1671973105502875
1783423558887766016,2.737084150314331,-0.6905554533004761,1.1001219749450684,0.03338765725493431,-0.34731411933898926,0.018698006868362427,-0.9375624060630798,0.19284939765930176,0.11243602633476257,0.38273757696151733,0.46164294639577946,-0.16027812195167201,-0.07436204079955608,-0.8692911147063932,-0.01869909593417898,-0.3547701585517576,-2.1685784490266746
1783423558897686272,2.747004270553589,-0.15463599562644958,1.2336903810501099,0.037127166986465454,-0.3337017297744751,0.021563595160841942,-0.9424320459365845,0.1753154993057251,0.116513192653656,0.319491982460022,0.46184144182853726,-0.15468996443563715,-0.06967777703287026,-0.8705851579938739,-0.021565266856679807,-0.3403100263131182,-2.1698075145048756
1783423558907606016,2.7569241523742676,0.0709204226732254,1.2364238500595093,0.1014515608549118,-0.32054904103279114,0.02140546403825283,-0.9469900131225586,0.14783480763435364,0.13699603080749512,0.2604360580444336,0.4626520433291121,-0.14856264563411758,-0.06658925297034951,-0.8714631404153529,-0.021407099086392024,-0.3263866211110382,-2.1690095065173933
1783423558917525248,2.766843318939209,0.4422829747200012,1.2875661849975586,-0.039283886551856995,-0.3080283999443054,0.018839677795767784,-0.9511905908584595,0.10740587115287781,0.24416081607341766,0.26272934675216675,0.4633517367778567,-0.14218056226460637,-0.06472547045268241,-0.8722960451871807,-0.018840791775130535,-0.3131774494411552,-2.1679986914014586
1783423558927445248,2.7767632007598877,0.8898059129714966,1.2703205347061157,0.019639085978269577,-0.29545262455940247,0.012196451425552368,-0.955279529094696,0.09011510014533997,0.20681294798851013,0.20221251249313354,0.4642427736074331,-0.13480960355345387,-0.0647039476715584,-0.8729940035476776,-0.012196754276482952,-0.2999522688972617,-2.1659378111707115
1783423558937364224,2.78668212890625,0.6460340619087219,1.2324466705322266,-0.27301445603370667,-0.2834473252296448,0.00406327610835433,-0.9589791893959045,0.14674383401870728,0.12931379675865173,0.23411041498184204,0.46460789507077677,-0.12740346453148915,-0.06541219008620287,-0.8738587925438921,-0.004063287249645728,-0.2873893918057993,-2.164851698997754
1783423558947284224,2.796602249145508,0.9227849841117859,1.1608188152313232,-0.11444158852100372,-0.27178066968917847,-0.003812977112829685,-0.9623516798019409,0.13010281324386597,0.0668623074889183,0.3216961622238159,0.4645225689887775,-0.1202644328039814,-0.06603512099089341,-0.8748682664393174,0.00381298632206836,-0.27524493122503957,-2.1648444624542447
1783423558957204224,2.8065221309661865,0.7776134014129639,1.1182849407196045,-0.11058133840560913,-0.26031750440597534,-0.012597860768437386,-0.9654408693313599,0.20111340284347534,-0.015310459770262241,0.22625935077667236,0.46519582097022477,-0.11296179037454195,-0.06722497211998771,-0.8753931938289874,0.012598193725252274,-0.26337244095544,-2.163000915356817
1783423558967123200,2.816441297531128,0.7222963571548462,1.0927255153656006,-0.13727977871894836,-0.25003084540367126,-0.020007077604532242,-0.9680311679840088,0.13952669501304626,0.11584752798080444,0.2670576572418213,0.4652580537813481,-0.10657527770883111,-0.06801572203384788,-0.8760995735214793,0.02000841254701231,-0.2527638015923728,-2.1626847849985826
1783423558977043200,2.8263611793518066,0.6167600154876709,1.1020233631134033,0.08363301306962967,-0.2389116734266281,-0.02677912823855877,-0.9706719517707825,0.1718950867652893,0.01901240646839142,0.21758967638015747,0.4658622786241044,-0.0999346195610367,-0.06838922047903549,-0.8765319000185444,0.026782329252378834,-0.2413331887239493,-2.1613126834864502
1783423558986963200,2.8362812995910645,0.3066035211086273,1.0845836400985718,0.11168781667947769,-0.22895562648773193,-0.03109041415154934,-0.9729402661323547,0.17432916164398193,-0.11701139062643051,0.21430379152297974,0.4669330337347007,-0.0943705536942052,-0.06800058668162774,-0.876609149284592,0.031095425938206456,-0.23111843013225708,-2.1591197915425937
1783423558996882176,2.8462002277374268,0.08950382471084595,1.3465957641601562,0.2314758151769638,-0.2170838862657547,-0.0330931693315506,-0.9755918383598328,0.1853303462266922,-0.1486390084028244,0.26022928953170776,0.4680976889392469,-0.08849814670801585,-0.0661223237871712,-0.8767441792713749,0.03309921245444568,-0.21894799426645845,-2.1571503332817583
1783423559006802176,2.8561201095581055,-0.4253895878791809,1.360041618347168,0.33709436655044556,-0.20361793041229248,-0.03067113645374775,-0.9785698652267456,0.09343422949314117,-0.0634145587682724,0.2543420195579529,0.46978083764645195,-0.08293957026862266,-0.06193613809178382,-0.876693171586743,0.03067594794465414,-0.20514975066819663,-2.1545970008412167
1783423559016721152,2.866039276123047,-0.6263536214828491,1.21320641040802,0.3838929235935211,-0.19147787988185883,-0.024761615321040154,-0.9811845421791077,0.10148154199123383,-0.1231876015663147,0.18438583612442017,0.4713572007427359,-0.07882988015920264,-0.056511816133630856,-0.8765925896320935,0.024764146283248877,-0.19272750329995755,-2.1524733970616667
1783423559026641152,2.8759591579437256,-0.9023321866989136,1.3642494678497314,0.6757247447967529,-0.179080069065094,-0.01647617295384407,-0.9836965203285217,0.1951628476381302,-0.21344324946403503,0.029137253761291504,0.47369887591760945,-0.07515148539332916,-0.05003987628060758,-0.8760465362103949,0.016476917807038177,-0.18007603087849972,-2.1487185853543056
1783423559036561152,2.8858792781829834,-0.9839039444923401,0.8044983744621277,1.0059484243392944,-0.16801777482032776,-0.005662608426064253,-0.9857677221298218,0.23132649064064026,-0.23710471391677856,-0.04282724857330322,0.47725616089423517,-0.07264879362135757,-0.042875431309450485,-0.8747058043129161,0.005662638845427739,-0.16882124072295773,-2.142166377161259
1783423559046480128,2.8957982063293457,-1.3886442184448242,0.8861652612686157,0.8581082820892334,-0.1598483771085739,0.006969898473471403,-0.9871169924736023,0.3186771273612976,-0.2378964126110077,-0.1906936764717102,0.4814573328504986,-0.07189778240651193,-0.035668222153963536,-0.8727871344236525,-0.006969954736696946,-0.16054098240394335,-2.133962711155422
1783423559056400384,2.9057183265686035,-1.7607626914978027,0.6177088618278503,0.27398547530174255,-0.15215349197387695,0.024059699848294258,-0.9880639910697937,0.15674638748168945,0.07142980396747589,-0.1810339093208313,0.4832182726365262,-0.07259165366372468,-0.026428347504810552,-0.8720849220843883,-0.024062022074666317,-0.15279134883354992,-2.131470456647289
1783423559066319104,2.915637254714966,-0.8784242272377014,0.1411082148551941,0.6242571473121643,-0.14816586673259735,0.037999723106622696,-0.9882321953773499,0.18809813261032104,0.2727912962436676,-0.38875138759613037,0.4846408892123924,-0.07419634485913686,-0.019462728953828584,-0.8713434190333091,-0.03800887459823572,-0.14882169213778498,-2.129245448160587
1783423559076239104,2.9255571365356445,-0.13570831716060638,-0.16171035170555115,0.5040845274925232,-0.14799879491329193,0.043530285358428955,-0.9880290627479553,0.18384170532226562,0.33441466093063354,-0.4350818395614624,0.4869901130362791,-0.07542845602958673,-0.017204844114624317,-0.8699742004667609,-0.043544042870718766,-0.14868646601165958,-2.1242017184537634
1783423559086159104,2.9354772567749023,0.4815535545349121,-0.416620135307312,0.6522910594940186,-0.15043038129806519,0.04258965328335762,-0.9877027869224548,0.058725059032440186,0.24714422225952148,-0.25005966424942017,0.4892525432590824,-0.0762198565860861,-0.018415550665311933,-0.8686100610671593,-0.04260253811694171,-0.15114178165425568,-2.1188869918566047
1783423559096078080,2.9453961849212646,0.6173302531242371,-0.483807235956192,1.0158052444458008,-0.15440642833709717,0.03790212795138359,-0.9872801303863525,0.06038178503513336,-0.01043631136417389,-0.23586434125900269,0.49328131602701264,-0.07670999251449555,-0.021806050190836385,-0.8662065120764574,-0.037911207486235665,-0.15513902057471526,-2.1091982499274504
1783423559105998336,2.9553163051605225,0.20612351596355438,-0.2852155864238739,0.828898549079895,-0.15787938237190247,0.0356023870408535,-0.98681640625,-0.08296534419059753,-0.0916021466255188,-0.0308380126953125,0.4972667606224228,-0.07755049477816271,-0.024036026290515503,-0.8637904158975046,-0.03560991383011365,-0.15864415757220235,-2.0997333258212496
1783423559115917312,2.9652352333068848,-0.9380597472190857,0.021650157868862152,0.2739580571651459,-0.15830227732658386,0.0384606271982193,-0.9866413474082947,-0.27429965138435364,-0.1704186350107193,-0.03612476587295532,0.49964932171837095,-0.07838907438117186,-0.02311870666002974,-0.8623637220783414,-0.0384701161109263,-0.1590897247786547,-2.094397468455489
1783423559125837056,2.9751551151275635,-2.068264961242676,0.006736189126968384,-0.0360482782125473,-0.15774394571781158,0.05426451191306114,-0.9859879612922668,-0.2938551902770996,0.10758546739816666,0.17275553941726685,0.4994008389731756,-0.08213807817233468,-0.016104924330992483,-0.8623182423044113,-0.054291177117865706,-0.15864130115464078,-2.0960328207265886
1783423559135757312,2.9850752353668213,-2.322608709335327,0.11837746202945709,0.02253730595111847,-0.15773575007915497,0.07605376094579697,-0.9845482707023621,-0.20884139835834503,0.23321138322353363,-0.07636481523513794,0.49840318224379104,-0.087651713937314,-0.006561343103174765,-0.8624780431298713,-0.07612726711708241,-0.1588612719078272,-2.0996729541974988
1783423559145676032,2.9949941635131836,-2.628967761993408,0.3401378095149994,-0.2829885482788086,-0.1552857607603073,0.09941871464252472,-0.9828541278839111,-0.2272063046693802,0.367454469203949,-0.14412951469421387,0.496796784891288,-0.09248744167808658,0.004359524485055079,-0.8629137022713383,-0.09958322403202723,-0.156699428611523,-2.104666823430367
1783423559155596288,3.0049142837524414,-3.0263731479644775,0.38015997409820557,-0.4709465205669403,-0.15146616101264954,0.1266242116689682,-0.9803184866905212,-0.08846303820610046,0.3834160566329956,-0.11547619104385376,0.49392317748291426,-0.0976526569163285,0.01745624332447222,-0.8638282415940536,-0.1269650537234626,-0.15329492298601186,-2.1125283883057917
1783423559165516032,3.01483416557312,-3.207951068878174,0.18145808577537537,-0.9621923565864563,-0.1496816873550415,0.15567822754383087,-0.9764013886451721,0.130226731300354,0.2726359963417053,-0.19974607229232788,0.4892793854121828,-0.1040755721839613,0.031105929947531908,-0.8653359507186072,-0.1563140102494328,-0.15211511253166798,-2.124316916985476
1783423559175435264,3.0247533321380615,-3.236945867538452,0.22022131085395813,-0.7753652334213257,-0.1489495486021042,0.1856876015663147,-0.9712538719177246,0.2998132109642029,0.04710046947002411,-0.3166946768760681,0.4836273300443846,-0.1110696713023347,0.04512845291715113,-0.8670245095325881,-0.1867715927336425,-0.15217241867112818,-2.13824633656197
1783423559185355264,3.0346732139587402,-3.6557934284210205,0.04576481506228447,-0.9157809019088745,-0.14828161895275116,0.21616621315479279,-0.9650309681892395,0.44155555963516235,-0.3559367060661316,-0.4248310923576355,0.47824424926156966,-0.11812568978991084,0.059420942803628786,-0.8682152960353723,-0.21788611960992066,-0.15246236935297836,-2.1513306240653347
1783423559195274240,3.0445921421051025,-4.62388277053833,-0.11184182018041611,-0.984075129032135,-0.1506623923778534,0.25490888953208923,-0.9551556706428528,0.4975557029247284,-0.34130415320396423,-0.23754757642745972,0.471436167388621,-0.1284364038472534,0.07698225779268374,-0.8690948634971112,-0.25775349141799164,-0.1564469626736551,-2.1678595902898428
1783423559205194240,3.0545122623443604,-4.305917263031006,-0.11696067452430725,-0.5482869148254395,-0.1530599147081375,0.2960372567176819,-0.9428333044052124,0.5746602416038513,-0.3957839608192444,-0.2960735559463501,0.46518015891305386,-0.13933654461643033,0.09575325682599158,-0.8689211473027151,-0.30054126284399163,-0.1609363836668646,-2.1829538703834896
1783423559215114240,3.064432144165039,-3.818031072616577,-0.2712797224521637,-0.322050541639328,-0.15524744987487793,0.3325923979282379,-0.9302045702934265,0.5007064342498779,-0.3506588041782379,-0.419816792011261,0.460700184322784,-0.14917046378184512,0.11245395684430695,-0.8676736504855348,-0.3390511303028311,-0.16537182941472658,-2.1937459931003827
1783423559225033216,3.0743513107299805,-3.243208408355713,-0.3338107466697693,-0.08952409029006958,-0.1568087637424469,0.3641809821128845,-0.9180322289466858,0.3962649405002594,-0.05421394109725952,-0.38406121730804443,0.4575061487030534,-0.15765565332925452,0.1269982913682652,-0.8658546526972211,-0.3727532458002087,-0.1691769546837766,-2.2013705275039186
1783423559234953216,3.084271192550659,-2.3841378688812256,-0.452625572681427,0.07730474323034286,-0.15797460079193115,0.3891030550003052,-0.9075477123260498,0.37542760372161865,0.07337558269500732,-0.3689110279083252,0.4557237058954698,-0.1644920083841926,0.1384504163939954,-0.8637649890689695,-0.3996577214783675,-0.17234077405521397,-2.205611962063104
1783423559244872192,3.0941901206970215,-1.670770525932312,-0.6130786538124084,0.059745460748672485,-0.16178174316883087,0.40689393877983093,-0.8990350365638733,0.3259815573692322,0.13656309247016907,-0.3647894263267517,0.4548846024763431,-0.17087822948716322,0.14588732921429667,-0.8617409796854262,-0.41905120013163843,-0.17804492886218246,-2.20816536046736
1783423559254792192,3.1041102409362793,-1.6069023609161377,-0.4893052577972412,0.01957274228334427,-0.16650819778442383,0.42124637961387634,-0.891530454158783,0.21536685526371002,0.16571342945098877,-0.29975372552871704,0.4541214685960301,-0.17683467310373316,0.1515397174046116,-0.8599644776715126,-0.4348191540982667,-0.18463946177308366,-2.210788974518479
1783423559264712192,3.114030122756958,-1.4842031002044678,-0.21655894815921783,0.0613260492682457,-0.169199600815773,0.434912770986557,-0.8844333291053772,0.0882212370634079,0.1173332929611206,-0.14443624019622803,0.4531723261093111,-0.18166282027888098,0.15742281490779628,-0.8584005405600565,-0.4499414192445138,-0.18902453167596192,-2.213495626130275
1783423559274631168,3.1239492893218994,-1.2645503282546997,-0.10451135039329529,0.06943940371274948,-0.16979119181632996,0.4469435513019562,-0.8783008456230164,0.054739922285079956,0.06749126315116882,-0.13730889558792114,0.4524058757636388,-0.1851215384577955,0.16303246252349282,-0.8570177185779353,-0.46334572473443497,-0.19096218718621732,-2.2153617875659397
1783423559284551168,3.133869171142578,-1.3737924098968506,-0.09536179900169373,-0.05494886264204979,-0.17051278054714203,0.45825210213661194,-0.8723132610321045,0.10534249246120453,0.041381657123565674,-0.161057710647583,0.4512944365715414,-0.18839853367364584,0.16837272159902644,-0.8558562597812299,-0.4760276820987887,-0.1930379140846396,-2.218064134952093
1783423559294471168,3.143789291381836,-1.4636054039001465,-0.1037934422492981,0.016573723405599594,-0.17134007811546326,0.47032445669174194,-0.8657006025314331,0.18505772948265076,0.011792242527008057,-0.1138983964920044,0.45000550167671305,-0.1919258875551101,0.17410963887567352,-0.8546024438307307,-0.4896584006453587,-0.1953954475622348,-2.2212072608912248
1783423559304390144,3.1537082195281982,-1.7406847476959229,-0.09462577104568481,-0.08506449311971664,-0.17202600836753845,0.48388200998306274,-0.8580590486526489,0.25922995805740356,-0.06368547677993774,-0.061923861503601074,0.4485463065432144,-0.1957981360844571,0.18064766021135473,-0.8531329566533041,-0.5050852034755673,-0.197859666751383,-2.2247159311327867
1783423559314310144,3.163628101348877,-2.3382585048675537,-0.03360529989004135,-0.2677958607673645,-0.17348900437355042,0.5005871653556824,-0.8481238484382629,0.20371666550636292,-0.06540650129318237,0.03269416093826294,0.44592795833149146,-0.2007266849100144,0.18880378673581802,-0.8515927580826951,-0.5242768983644758,-0.20177267522035325,-2.231141529214245
1783423559324229120,3.1735472679138184,-2.8008651733398438,0.21859952807426453,-0.2734619975090027,-0.17395149171352386,0.521795928478241,-0.8351466059684753,0.07824836671352386,0.06800204515457153,0.14944720268249512,0.4420662324458749,-0.20624585286724584,0.19972313436877537,-0.849794552068227,-0.5489548378947833,-0.2053524860888679,-2.2402453610034003
1783423559334149120,3.183467149734497,-2.9472198486328125,0.28062596917152405,-0.3593304455280304,-0.17323341965675354,0.5449191331863403,-0.8203982710838318,0.01768532395362854,0.12613189220428467,0.03623390197753906,0.4375660671201356,-0.21165826526274334,0.21213587896749628,-0.8477824859033496,-0.5762926465379474,-0.20810073627369557,-2.2505400132075266
1783423559344069120,3.193387269973755,-2.9035232067108154,0.372495174407959,-0.349056214094162,-0.1722840964794159,0.5679658055305481,-0.8048186302185059,0.009884804487228394,0.0848051905632019,-0.09558725357055664,0.43257904226806965,-0.21686307516893036,0.22485792542218883,-0.8457450445091264,-0.604032203058455,-0.21088299799690735,-2.261939410890005
1783423559353988096,3.203306198120117,-2.5456502437591553,0.451154500246048,-0.3159724175930023,-0.17065463960170746,0.5890458226203918,-0.7898746728897095,0.03662143647670746,-0.004863083362579346,-0.268185019493103,0.42779804900787477,-0.2212354597040286,0.23689140656046676,-0.8437571529026279,-0.6298775784634446,-0.21278223487915138,-2.2726592110619976
1783423559363908352,3.213226318359375,-2.105320453643799,0.28779885172843933,-0.38771772384643555,-0.16959933936595917,0.6065117716789246,-0.776775062084198,0.05785922706127167,-0.03583306074142456,-0.413685142993927,0.42335658492150763,-0.2248978096203779,0.24704946322350624,-0.842114404892771,-0.6516658991425219,-0.21496425874292466,-2.28281325160228
1783423559373827328,3.2231452465057373,-1.509676456451416,0.19343720376491547,-0.48217278718948364,-0.17034506797790527,0.6195204854011536,-0.7662746906280518,0.10570885241031647,0.10775917768478394,-0.42780184745788574,0.4192792818751953,-0.2281743242229094,0.25455674659655414,-0.8410363758510826,-0.6681317136772623,-0.2187458130515932,-2.2928440284219977
1783423559383747072,3.233065128326416,-0.9909246563911438,0.0630355253815651,-0.5352986454963684,-0.17202118039131165,0.6281793117523193,-0.7588145136833191,0.05318570137023926,0.25467896461486816,-0.37416577339172363,0.41557134506878257,-0.23064652276612174,0.25960530270736903,-0.8406591582241504,-0.679210997947621,-0.22292932716734787,-2.30242020254512
1783423559393667328,3.242985248565674,-0.6522530913352966,0.10090819001197815,-0.6301106810569763,-0.17475298047065735,0.6332277059555054,-0.7539788484573364,0.051553502678871155,0.27674543857574463,-0.2972143888473511,0.4121431202680708,-0.23257505915843613,0.26252509470787744,-0.8409087359655998,-0.6857164895841671,-0.2277529623401102,-2.3117794664050546
1783423559403586048,3.252904176712036,-0.39242997765541077,0.07620151340961456,-0.6703358888626099,-0.17838995158672333,0.6361404657363892,-0.7506679892539978,0.07507267594337463,0.25097501277923584,-0.1630893349647522,0.408697833129509,-0.23426667284246822,0.26416876276832585,-0.8416057546113729,-0.6894857243251823,-0.23331385829905643,-2.3215542917852097
1783423559413506304,3.262824296951294,-0.183981254696846,0.1494772881269455,-0.7049868106842041,-0.18154741823673248,0.636925458908081,-0.7492439150810242,0.10345293581485748,0.12375569343566895,-0.13938212394714355,0.4054173195192906,-0.23508617135331256,0.26478769159239196,-0.8427685242376162,-0.6905035663647988,-0.23772565316431737,-2.3306917074202604
1783423559423426048,3.2727441787719727,-0.18414290249347687,0.13873836398124695,-0.6648045182228088,-0.1848280131816864,0.6369225382804871,-0.7484439015388489,0.1554090678691864,-0.04446953535079956,-0.10488855838775635,0.40212112455449694,-0.2357153373953829,0.26498361924941843,-0.8441093316190306,-0.6904997391705351,-0.24210574825289288,-2.3398834659738195
1783423559433345024,3.282663106918335,-0.4124649465084076,0.17528855800628662,-0.516787588596344,-0.18713828921318054,0.6379446387290955,-0.7469978928565979,0.21272729337215424,-0.13467925786972046,-0.030025362968444824,0.3991490679375206,-0.2362818672795269,0.26584191205183116,-0.8450910828773147,-0.6918262822850417,-0.24546849103026686,-2.34793840879303
1783423559443265280,3.2925832271575928,-0.5529112815856934,0.22076550126075745,-0.5625500082969666,-0.18892735242843628,0.6405127644538879,-0.7443452477455139,0.17839878797531128,-0.15433722734451294,0.08074051141738892,0.39610978701134125,-0.237049447160801,0.26764703984370797,-0.8457361663257881,-0.6951658010826653,-0.24856774431773765,-2.356016437282398
1783423559453184000,3.302502155303955,-0.7535944581031799,0.2562481462955475,-0.6547362208366394,-0.1911429613828659,0.6441517472267151,-0.740630030632019,0.0781974196434021,-0.09793293476104736,0.12863057851791382,0.3924495086628367,-0.23817225278799958,0.2701091475503011,-0.8463440996390043,-0.6999137716238683,-0.25257025258453847,-2.365826510570401
1783423559463104256,3.312422275543213,-0.8688598275184631,0.4007187485694885,-0.6615810394287109,-0.19286513328552246,0.6489288806915283,-0.7359989285469055,-0.008611932396888733,-0.00699162483215332,0.17494845390319824,0.38825685626410744,-0.23922273891147722,0.2734465765180747,-0.8469097586848506,-0.7061758014994991,-0.25628298994435555,-2.3767902638685694
1783423559473024256,3.3223421573638916,-0.7862986326217651,0.49054524302482605,-0.7462272644042969,-0.19403278827667236,0.6536571979522705,-0.731494128704071,-0.00799359381198883,0.04012942314147949,0.11229240894317627,0.384604777910878,-0.24013549287947034,0.2767451732722874,-0.8472463086047819,-0.7124068820358307,-0.25928438965256984,-2.3862714586067604
1783423559482943232,3.332261323928833,-0.6476187705993652,0.4734323024749756,-0.7297593355178833,-0.19526387751102448,0.6573788523674011,-0.7278221845626831,-0.004748344421386719,0.06129485368728638,-0.029059529304504395,0.3805237790499478,-0.24061100697617074,0.27963415743553893,-0.8480052028553974,-0.7173351188847756,-0.26211281517752544,-2.3967488848983636
1783423559492863232,3.3421812057495117,-0.5714936852455139,0.4376252293586731,-0.7662952542304993,-0.19675934314727783,0.660120964050293,-0.7249317765235901,0.06391632556915283,0.02660083770751953,-0.12154948711395264,0.376612908060604,-0.24095953438977566,0.2819088631601078,-0.8488985184432376,-0.7209797998514743,-0.26503277362341204,-2.406884900899431
1783423559502782208,3.352100133895874,-0.33802688121795654,0.41163569688796997,-0.7420836687088013,-0.19844213128089905,0.6620471477508545,-0.7227131724357605,0.07226721942424774,0.008240878582000732,-0.128925621509552,0.37270608741397776,-0.24114206077913297,0.28371452136872516,-0.8499686568619647,-0.7235469411719618,-0.2679751204413279,-2.417036317371301
1783423559512702208,3.362020254135132,-0.09983654320240021,0.44149577617645264,-0.7466206550598145,-0.2002115547657013,0.6620355248451233,-0.7222355604171753,0.061539724469184875,0.011578917503356934,-0.19106394052505493,0.36914810543970333,-0.24087604467822296,0.2843606143413519,-0.8513796423384196,-0.7235314876039991,-0.27042049294460524,-2.4262178580775084
1783423559522622208,3.3719401359558105,-0.016244174912571907,0.4052799940109253,-0.8356043696403503,-0.20206546783447266,0.6608300805091858,-0.7228230237960815,0.036812782287597656,0.044858336448669434,-0.11306864023208618,0.3656405816087787,-0.24030389298914906,0.2843281813719534,-0.8530642183119215,-0.7219242413049075,-0.27259172726029124,-2.435180105504451
1783423559532541184,3.381859302520752,0.12718656659126282,0.3889577090740204,-0.7982118129730225,-0.20465008914470673,0.6587907075881958,-0.7239565849304199,0.02088850736618042,0.0272597074508667,-0.05854463577270508,0.36212340707543,-0.23986558041379039,0.28370094166631754,-0.8548946407000119,-0.7192102284607573,-0.27549476208749135,-2.444382599402652
1783423559542461184,3.3917791843414307,0.2953401207923889,0.3419928550720215,-0.6822524666786194,-0.206671804189682,0.655815064907074,-0.7260807752609253,0.042883992195129395,-0.016899049282073975,-0.06766617298126221,0.35900736468806516,-0.23899499607494873,0.2825614982174022,-0.8568278299779387,-0.7152617476729707,-0.27730639400447216,-2.4522485882770555
1783423559552381184,3.4016993045806885,0.5133510231971741,0.30842384696006775,-0.6287495493888855,-0.2086450159549713,0.6514575481414795,-0.7294315099716187,0.08599486947059631,-0.04814028739929199,-0.15370142459869385,0.35671685119355284,-0.23797522976402857,0.2804496814596161,-0.8587601277285345,-0.7095040190126908,-0.2785987721901662,-2.4579729684592753
1783423559562300160,3.411618232727051,0.7740976214408875,0.26300495862960815,-0.5381472110748291,-0.21004900336265564,0.6456718444824219,-0.7341575622558594,0.05726274847984314,-0.06595993041992188,-0.18245315551757812,0.3551212607981863,-0.23648421035719266,0.27748234028718083,-0.8607948133634444,-0.7019027982831988,-0.2786644539225274,-2.4616316413177866
1783423559572220160,3.4215381145477295,0.9332610964775085,0.22855965793132782,-0.509563148021698,-0.21160052716732025,0.6381725072860718,-0.7402439713478088,0.049048662185668945,-0.11029469966888428,-0.14687150716781616,0.35409227520798237,-0.23478301621682549,0.2734135370724431,-0.8629835628431516,-0.6921221942838991,-0.2784273652148464,-2.46382516201787
1783423559582139136,3.431457281112671,1.1205679178237915,0.26137006282806396,-0.3867019712924957,-0.21242478489875793,0.629631757736206,-0.7472881078720093,0.03852038085460663,-0.06945115327835083,0.013508260250091553,0.35327358557985233,-0.232506280778,0.2688806011185737,-0.8653564227876572,-0.6810791370284676,-0.2769554349782521,-2.4651019818988993
1783423559592059136,3.4413771629333496,1.6832882165908813,0.2601546049118042,-0.46124038100242615,-0.21315211057662964,0.618689239025116,-0.7561678290367126,0.03132838010787964,-0.06081265211105347,0.054583966732025146,0.35318958181552096,-0.2297732710975605,0.26290744249194403,-0.8679522457944076,-0.6670732254910227,-0.27475549021609275,-2.464400469430516
1783423559601979136,3.4512972831726074,2.436030149459839,0.3056938648223877,-0.22285684943199158,-0.2131224125623703,0.6020271182060242,-0.7695077657699585,0.0380278080701828,-0.01641005277633667,0.065726637840271,0.35387627448343484,-0.2253626251069345,0.25388542299221306,-0.8715075660514909,-0.646037406885613,-0.27018693953821094,-2.4611041436667525
1783423559611898112,3.4612162113189697,2.9413528442382812,0.12206335365772247,-0.059527602046728134,-0.21185648441314697,0.5811540484428406,-0.7857332825660706,0.05090677738189697,0.017082035541534424,0.14407068490982056,0.35671562415678626,-0.21989880784175825,0.2424414814114771,-0.874997505677331,-0.6201461024803456,-0.2633660200809276,-2.452205143977667
1783423559621818368,3.4711363315582275,3.3360750675201416,0.12899503111839294,-0.16510862112045288,-0.21160875260829926,0.5559816360473633,-0.803807258605957,-0.017639294266700745,-0.05399799346923828,0.14259815216064453,0.3597522238002119,-0.21399213834564773,0.22870006943925886,-0.87890955855371,-0.5895435107075468,-0.25741739968063027,-2.4431190100285898
