time,seconds_elapsed,rotationRateX,rotationRateY,rotationRateZ,gravityX,gravityY,gravityZ,accelerationX,accelerationY,accelerationZ,quaternionW,quaternionX,quaternionY,quaternionZ,pitch,roll,yaw
1784805811803360000,0.20690488815307617,0.09927268326282501,0.2175765186548233,0.12186542898416519,0.10525881499052048,0.7196927666664124,-0.6862673759460449,-0.03862368315458298,-0.033230364322662354,0.005267620086669922,0.8949000266509038,-0.39477632997249384,-0.03190549479736415,0.2056395734996341,-0.8033596966718731,0.15219267596508976,0.5164889633496261
1784805811813279744,0.21682476997375488,-0.009488686919212341,0.24601401388645172,0.13267892599105835,0.1076330915093422,0.7192922234535217,-0.6863189935684204,-0.0629248395562172,-0.048561692237854004,0.032113730907440186,0.8948882865048775,-0.39484350618099073,-0.03064492724642161,0.20575324453944144,-0.8027829979989384,0.15555957726497024,0.5181201002102956
1784805811823198976,0.2267439365386963,-0.16595877707004547,0.27619224786758423,0.10024133324623108,0.1091141477227211,0.7197431325912476,-0.6856120228767395,-0.0692887008190155,-0.013825774192810059,0.07118642330169678,0.8947410289376387,-0.3953522354516698,-0.02984266707090627,0.20553452126198726,-0.8034322442359473,0.1578249322797913,0.5187544664808688
1784805811833118976,0.236663818359375,-0.1460854709148407,0.2606409788131714,0.0702405571937561,0.11020779609680176,0.7212283611297607,-0.6838741898536682,-0.060235269367694855,0.04110074043273926,0.03183561563491821,0.8943626802436269,-0.3964902573965222,-0.029298176727547785,0.20506706970652036,-0.8055739870244102,0.15977845598916257,0.5189825805813082
1784805811843037952,0.2465827465057373,-0.03155197575688362,0.20127107203006744,0.08318617939949036,0.11053993552923203,0.7225982546806335,-0.6823728680610657,-0.02499917894601822,0.055188000202178955,-0.031356990337371826,0.894067835295135,-0.397450318178782,-0.02909995130889752,0.20452191398046593,-0.8075536390525344,0.1605983504476564,0.5185068510937304
1784805811852956928,0.2565019130706787,0.10882510989904404,0.15605007112026215,0.11184312403202057,0.11011342704296112,0.7233238816261292,-0.6816726922988892,0.009133987128734589,0.05862802267074585,-0.04420316219329834,0.8939712405597802,-0.39787972767188884,-0.029246731658696824,0.2040879351744784,-0.8086039254335858,0.1601507730613096,0.5175384764124625
1784805811862876928,0.2664217948913574,0.17140306532382965,0.11758242547512054,0.11859706789255142,0.11001278460025787,0.7231531739234924,-0.6818699836730957,0.01468203216791153,0.03676503896713257,-0.0586695671081543,0.8940611535942967,-0.3977588330668417,-0.029204706397026055,0.20393559951689047,-0.8083567821549855,0.15996137014825962,0.5170660360811606
1784805811872795904,0.2763407230377197,0.07272415608167648,0.10996311902999878,0.07877615094184875,0.11010263860225677,0.7226949334144592,-0.6823411583900452,0.012913718819618225,0.01802772283554077,-0.02897775173187256,0.8942033490506213,-0.39747290166484484,-0.029064070564019613,0.2038893928480241,-0.8076934855181584,0.1599811354955071,0.5168444516307567
1784805811882715904,0.28626084327697754,-0.029714463278651237,0.1310967206954956,0.02530154027044773,0.11027637869119644,0.7229215502738953,-0.6820729970932007,-0.005829960107803345,0.009759724140167236,0.029073119163513184,0.8941817833088443,-0.39765316304242454,-0.02890454044327689,0.20365511711115752,-0.8080214407462295,0.16029120638109698,0.5165211114665752
1784805811892634880,0.29617977142333984,-0.053947895765304565,0.1363987922668457,-0.010506789200007915,0.11043674498796463,0.7236744165420532,-0.6812481880187988,-0.017907455563545227,-0.005488991737365723,0.05159425735473633,0.8940484839561611,-0.3981825842638811,-0.028749361575402796,0.20322761018915367,-0.8091116890732859,0.1607113379449279,0.515960766620135
1784805811902554112,0.30609893798828125,-0.07129812985658646,0.14107777178287506,-0.032093439251184464,0.11043070256710052,0.7246962189674377,-0.6801620721817017,-0.03233621269464493,0.007588326930999756,0.04443514347076416,0.8938767295080111,-0.3988707267397934,-0.02865519963588289,0.20264602592838143,-0.8105934738520685,0.16095492061713787,0.5150524632760557
1784805811912473856,0.31601881980895996,-0.07109972089529037,0.17858867347240448,-0.0432552807033062,0.11045096069574356,0.7258586287498474,-0.678918182849884,-0.057945482432842255,0.03216749429702759,0.021630585193634033,0.8936845366825715,-0.3996591644935583,-0.028521195774731327,0.20195816857372856,-0.8122818326265762,0.16127380041252884,0.5139798622421479
1784805811922392832,0.32593774795532227,-0.06729339808225632,0.1867353916168213,-0.06335408985614777,0.11030512303113937,0.7271249294281006,-0.6775854825973511,-0.058821968734264374,0.034654855728149414,-0.033611416816711426,0.893508250711679,-0.4005000108546017,-0.02840775052237062,0.20108643896459805,-0.8141246646070608,0.16137584318768994,0.5124284267657551
1784805811932313088,0.3358578681945801,-0.011137450113892555,0.15081840753555298,-0.06832727789878845,0.10980948805809021,0.7280760407447815,-0.6766440868377686,-0.013770677149295807,0.006237983703613281,-0.07773518562316895,0.8934484666190261,-0.40108691619282827,-0.028412081888993846,0.2001797393928803,-0.8155110648902453,0.16088286419070807,0.5104436377872048
1784805811942231808,0.3457767963409424,0.042532436549663544,0.10881160199642181,-0.03082144819200039,0.10923277586698532,0.7283205986022949,-0.6764742136001587,0.029469601809978485,-0.018435955047607422,-0.09627664089202881,0.8935602759050268,-0.4011911674842791,-0.028434726868725148,0.19946732882004695,-0.8158678839771731,0.1600918169473307,0.5085620807248115
1784805811952150784,0.3556957244873047,0.08123961836099625,0.08144310116767883,0.04711116850376129,0.10913968831300735,0.7278932929039001,-0.6769489645957947,0.04788850247859955,-0.023837566375732422,-0.07765918970108032,0.8937580169995869,-0.400905751704517,-0.028286153581091933,0.19917604517988738,-0.8152445525504062,0.1598474372159958,0.5076816929493899
1784805811962071040,0.3656158447265625,0.16841046512126923,0.07659165561199188,0.12338796257972717,0.10982781648635864,0.7267210483551025,-0.6780961155891418,0.036870189011096954,-0.02243638038635254,-0.047611892223358154,0.8940375802428938,-0.40022220946912423,-0.02782301804858635,0.1993610769735992,-0.8135364910923152,0.16057058839677116,0.5080943258645937
1784805811971989760,0.3755347728729248,0.18598785996437073,0.09523831307888031,0.10670938342809677,0.1110038012266159,0.7249693870544434,-0.6797775030136108,0.030536726117134094,-0.016274988651275635,0.00695645809173584,0.8944227780776357,-0.3992202674112437,-0.027100038990475025,0.19974134662921036,-0.8109899638182343,0.16186568233903664,0.5090377648570549
1784805811981910016,0.3854548931121826,0.14630423486232758,0.1379985213279724,0.06294719129800797,0.11225616186857224,0.7234508395195007,-0.6811882257461548,0.017657175660133362,0.007078886032104492,0.08205193281173706,0.8947774973084787,-0.39839064578240146,-0.026282976802406165,0.19991809163673993,-0.8087878328343806,0.16332669377546152,0.509662884056168
1784805811991828992,0.3953738212585449,0.10958351194858551,0.17092770338058472,0.02969895303249359,0.11367280036211014,0.7223448753356934,-0.6821263432502747,0.013417661190032959,0.0006012916564941406,0.08985644578933716,0.8950544903478017,-0.39786293930921546,-0.025335970683079218,0.1998514234719322,-0.807187185310571,0.1651273921622741,0.5100077555769242
1784805812001747968,0.4052927494049072,-0.030304552987217903,0.1882430613040924,-0.04355405271053314,0.11487377434968948,0.7220875024795532,-0.682197630405426,0.0022221729159355164,-0.0505329966545105,0.0785599946975708,0.8951549411814526,-0.39787028555144627,-0.024503492923371863,0.19949041719479266,-0.8068151102370622,0.1668228461771399,0.5098830622906176
1784805812011667968,0.41521286964416504,-0.18640120327472687,0.22245562076568604,-0.10931096225976944,0.11582319438457489,0.7229465246200562,-0.6811265349388123,-0.030801229178905487,-0.05456578731536865,0.022465646266937256,0.8950233049726197,-0.39858531312929035,-0.023800786906825612,0.19873751916164345,-0.808057571212153,0.1684353653541987,0.5091585563827491
1784805812021586944,0.42513179779052734,-0.2975403368473053,0.18735119700431824,-0.17634741961956024,0.11621436476707458,0.7248362898826599,-0.6790482401847839,-0.013568490743637085,-0.026426315307617188,-0.05038285255432129,0.8946793608697895,-0.399909909191834,-0.023407915447469337,0.19766892239072853,-0.8107967739075389,0.16950085094285397,0.5077774734821928
1784805812031506944,0.43505191802978516,-0.2757551372051239,0.1532273143529892,-0.2116747945547104,0.11592384427785873,0.7269381880760193,-0.676847517490387,0.022534392774105072,-0.003824174404144287,-0.08871638774871826,0.8943355279336744,-0.40128778000445503,-0.023331411430013705,0.19643765778485392,-0.8138526268718398,0.1696244654172348,0.5056742611070917
1784805812041425920,0.44497084617614746,-0.19875362515449524,0.12946480512619019,-0.19724342226982117,0.11536754667758942,0.7286320924758911,-0.6751189231872559,0.024830207228660583,0.012822926044464111,-0.11669009923934937,0.894120506615232,-0.40236314829191855,-0.0233330938735848,0.1952126326825331,-0.816322632088696,0.16924995091251593,0.5032461525401037
1784805812051344896,0.45488977432250977,-0.07968021929264069,0.1048518642783165,-0.14364543557167053,0.11497632414102554,0.729458749294281,-0.6742925047874451,0.03666552156209946,0.018572866916656494,-0.11812692880630493,0.8940999317218814,-0.4028822442151196,-0.023230277711338107,0.19424621667981087,-0.8175303603223015,0.16888969480021296,0.5011564150836132
1784805812061264896,0.4648098945617676,-0.09771502017974854,0.09898949414491653,-0.155767023563385,0.11469319462776184,0.7298144698143005,-0.6739556789398193,0.053763844072818756,0.014768600463867188,-0.08228510618209839,0.8941811642163514,-0.403100474193461,-0.023068967675075963,0.19343671861364775,-0.8180505328982631,0.16856425808339762,0.4992996711224131
1784805812071183872,0.4747288227081299,-0.16905097663402557,0.0877046138048172,-0.22854001820087433,0.11403701454401016,0.7306718826293945,-0.6731375455856323,0.07019761204719543,0.008952140808105469,-0.031589627265930176,0.8941727146151082,-0.40360664635529436,-0.023084801011009733,0.19241583108927293,-0.8193055186763762,0.16781781219131986,0.49692156746816196
1784805812081103872,0.4846487045288086,-0.260560005903244,0.11104002594947815,-0.1625615954399109,0.11334942281246185,0.7320615649223328,-0.6717423796653748,0.09520769864320755,-0.027670085430145264,-0.026850759983062744,0.8940143919816784,-0.40446505482858186,-0.023169685103108743,0.19133604397916285,-0.8213432330297116,0.16716473756489084,0.4946027634657736
1784805812091022848,0.49456787109375,-0.4187760055065155,0.11983591318130493,-0.0700971856713295,0.11357063800096512,0.7342056035995483,-0.6693608164787292,0.09779409319162369,-0.06971585750579834,0.03279465436935425,0.8934981165719854,-0.4059408583817317,-0.02305674482005431,0.19063485761244528,-0.8244958925981938,0.16806968521691237,0.49405033575338514
1784805812100941824,0.5044867992401123,-0.4882553219795227,0.15654215216636658,-0.006928132846951485,0.11462190747261047,0.7370169758796692,-0.6660839319229126,0.08239957690238953,-0.06286841630935669,0.0585399866104126,0.8926629739384335,-0.407971335953104,-0.02274683659903884,0.1902491838540418,-0.8286460489500511,0.17041422268877626,0.4950589025943865
1784805812110862080,0.5144069194793701,-0.4773765802383423,0.17765994369983673,-0.021416794508695602,0.11636056005954742,0.7398132085800171,-0.662673830986023,0.10481558740139008,-0.056662023067474365,0.06285083293914795,0.8917629610540415,-0.41008959066395007,-0.022127120366194495,0.18998879059061533,-0.8327927125463204,0.17382050589355275,0.4968497277586399
1784805812120781056,0.5243258476257324,-0.6578373908996582,0.04122331738471985,-0.41985106468200684,0.1163935661315918,0.7434149980545044,-0.6586248278617859,0.1639714241027832,-0.0666724443435669,0.09665888547897339,0.8908424418493607,-0.4125473584544885,-0.02218689208345018,0.1889766290781689,-0.838161901805487,0.17491610957571593,0.4961470616854696
1784805812130700800,0.5342457294464111,-0.06033322587609291,0.20508895814418793,0.007754306774586439,0.11597439646720886,0.7458762526512146,-0.6559105515480042,0.29175567626953125,-0.1177329421043396,0.10723501443862915,0.890358395617609,-0.4141897312995773,-0.022171805848467795,0.1876629112760275,-0.8418494134763014,0.17500555343692475,0.4939707342173831
1784805812140620032,0.5441648960113525,0.19173970818519592,0.19318321347236633,0.5879845023155212,0.12111003696918488,0.7445909976959229,-0.6564424633979797,0.39301958680152893,-0.16915148496627808,0.03768336772918701,0.8902161428006747,-0.41398453969602045,-0.019888608910549156,0.1890413049188956,-0.8399218828085616,0.18244295784724227,0.500139014920189
1784805812150539008,0.5540838241577148,0.27484285831451416,0.19614918529987335,0.4111364781856537,0.12735848128795624,0.7421494722366333,-0.6580227613449097,0.27049916982650757,-0.0547105073928833,0.16748327016830444,0.8901931775274434,-0.41314914382286544,-0.017216151113956437,0.19122620497146056,-0.8362717119538058,0.19118334309992677,0.5083555777128618
1784805812160458752,0.5640037059783936,0.3173018991947174,0.3105628788471222,0.09183226525783539,0.13136893510818481,0.7396710515022278,-0.6600218415260315,0.05291147530078888,-0.010087370872497559,0.21713554859161377,0.8906039660614113,-0.4120229775333998,-0.015038328800759422,0.19192536420540895,-0.8325814511901491,0.19646966703854327,0.5115991404979893
1784805812170377984,0.573922872543335,0.23690184950828552,0.4786003530025482,0.23257367312908173,0.1356971114873886,0.7375802993774414,-0.6614844799041748,-0.046524763107299805,-0.010941505432128906,0.2738044261932373,0.8910170160425719,-0.41122182970032983,-0.012424809370500795,0.19191410839288028,-0.8294799285084677,0.20233321674716967,0.5136220881787767
1784805812180297728,0.5838427543640137,0.08354385197162628,0.5627766847610474,0.24295127391815186,0.1414722353219986,0.7361512184143066,-0.661866307258606,-0.010139867663383484,-0.07269906997680664,0.22348135709762573,0.8910948998496875,-0.41107412925042863,-0.009214006369192718,0.19204972323697572,-0.8273660358581313,0.2105786407299772,0.5172725794395163
1784805812190216960,0.5937619209289551,0.04923807457089424,0.5609180331230164,0.10948136448860168,0.1468110978603363,0.7355679273605347,-0.6613518595695496,0.026223570108413696,-0.06120580434799194,0.12660759687423706,0.8910162299575226,-0.4114439832000875,-0.006157699958738365,0.19174459910966943,-0.8265046556346561,0.21844418524887127,0.5200273571352205
1784805812200136960,0.6036818027496338,0.17000490427017212,0.4815859794616699,-0.0036592031829059124,0.15094053745269775,0.7348302602767944,-0.6612423658370972,0.06858766078948975,0.049837708473205566,-0.020871281623840332,0.891156488382137,-0.41154175681283894,-0.003493194228456037,0.1909484248788696,-0.8254163761764722,0.22442287839049851,0.5207565072383745
1784805812210055936,0.6136007308959961,0.4075112044811249,0.39358848333358765,-0.10288804769515991,0.1537250280380249,0.7331095337867737,-0.6625096797943115,0.0755840390920639,0.2588490843772888,-0.16428780555725098,0.8917399505355781,-0.41078403798743723,-0.0012757404684876053,0.1898811353042839,-0.8228828843009528,0.22799968931013564,0.5194369168261396
1784805812219974912,0.6235198974609375,0.8287885785102844,0.35567381978034973,-0.150016188621521,0.15569345653057098,0.7293264865875244,-0.6662150025367737,0.048484399914741516,0.4473855495452881,-0.22625631093978882,0.8930426387156832,-0.40852383577256207,0.00087982516451276,0.18863283031107292,-0.8173369947616452,0.22957823237620897,0.5161048793536706
1784805812229894912,0.6334397792816162,1.2533215284347534,0.23996186256408691,-0.0997021421790123,0.1584952175617218,0.7228053212165833,-0.6726304292678833,0.0517556369304657,0.5147587656974792,-0.1952589750289917,0.8950296985203793,-0.40456289510004706,0.0036925190632681537,0.18771541349803203,-0.8078532511389563,0.23141354778609927,0.5127441075465274
1784805812239813888,0.6433587074279785,1.5865678787231445,0.04418813809752464,-0.012291107326745987,0.15971514582633972,0.7134371995925903,-0.6822744011878967,0.05531170964241028,0.4104183316230774,-0.015632033348083496,0.8978082658952928,-0.39853360585646674,0.005809998668268578,0.18728987323314614,-0.7943913199030009,0.22995153402485347,0.5081313196912428
1784805812249733888,0.6532788276672363,1.5470936298370361,0.03579412400722504,-0.004335446283221245,0.16019612550735474,0.7026724815368652,-0.693244993686676,-0.02761252224445343,0.15737384557724,0.16806799173355103,0.90087133738447,-0.3915619311884917,0.007534613675909257,0.18722541013729915,-0.7791466413222737,0.22709535522271965,0.5033900593216831
1784805812259652864,0.6631977558135986,1.0518951416015625,-0.04556852951645851,0.09408111125230789,0.1606605350971222,0.6937103271484375,-0.7021069526672363,-0.10157851874828339,-0.0594635009765625,0.3010602593421936,0.9032793869751496,-0.3858341750543316,0.00886024989902609,0.18745613653393417,-0.7666277320756979,0.22495335761116234,0.5002839761559573
1784805812269572096,0.67311692237854,0.6976120471954346,-0.3932226300239563,0.06799491494894028,0.15986290574073792,0.6877601742744446,-0.7081170678138733,-0.12284506857395172,-0.18432694673538208,0.1673913598060608,0.9047251829046832,-0.3819220356967925,0.008776789375590946,0.188496238217218,-0.7583991148984432,0.22203554389987684,0.4996005505146076
1784805812279491840,0.6830368041992188,1.0360338687896729,-0.35472777485847473,-0.4876895844936371,0.15747544169425964,0.683020293712616,-0.7132214307785034,-0.33392810821533203,-0.08333468437194824,-0.20927917957305908,0.9061902422419671,-0.37857783580216847,0.008252654575692742,0.18822877922734477,-0.751889826878293,0.21730809141040272,0.49566581084503913
1784805812289410816,0.692955732345581,1.4794938564300537,-0.26290836930274963,-0.8705389499664307,0.15135112404823303,0.6757747530937195,-0.7214023470878601,-0.3273307681083679,0.19191628694534302,-0.5047939419746399,0.9089649431383202,-0.37316157402120587,0.007018925852585878,0.18569866474433622,-0.7420152870927866,0.2068018480445,0.48374221674333395
1784805812299331072,0.7028758525848389,1.777677059173584,-0.19857139885425568,-0.9903194904327393,0.14344924688339233,0.665303647518158,-0.7326618432998657,-0.14781326055526733,0.12522369623184204,-0.4546092748641968,0.9128494029203659,-0.3655620692273695,0.00578393012211201,0.18176055278327807,-0.7279004729806829,0.19334603950519264,0.4669318371398875
1784805812309249792,0.7127947807312012,1.569424033164978,-0.27254149317741394,-0.7168581485748291,0.13615870475769043,0.6542863845825195,-0.7438884973526001,0.036021485924720764,-0.19507312774658203,-0.12772399187088013,0.9166182309818227,-0.3578178004424698,0.004708977176336842,0.17819967136796924,-0.7132385775555163,0.18103251487360045,0.45163178349735794
1784805812319168768,0.7227137088775635,1.2677209377288818,-0.31330806016921997,-0.513674259185791,0.13004004955291748,0.6445797681808472,-0.7533966302871704,-0.00024878978729248047,-0.27914702892303467,0.11350405216217041,0.9196482419083116,-0.3511255740786851,0.003536662671098259,0.17591295770049242,-0.7004734691538617,0.17092091781832033,0.44056852390743595
1784805812329089024,0.7326338291168213,0.9864943027496338,-0.13290712237358093,-0.3430945575237274,0.12560684978961945,0.6365990042686462,-0.7608972787857056,-0.22500263154506683,-0.26996082067489624,0.12790173292160034,0.9219790288494913,-0.3457512128729541,0.002729169665032464,0.17436579175061612,-0.69008013927886,0.16360183124213729,0.4327431918283677
1784805812339007744,0.7425527572631836,0.551979124546051,0.06460640579462051,-0.14336854219436646,0.1238693818449974,0.6309420466423035,-0.7658776044845581,-0.2704605758190155,-0.33908724784851074,0.0022972822189331055,0.923530509046607,-0.342130067655666,0.0028652349329749533,0.17329245191886986,-0.6827668788831152,0.16034670462520678,0.42804602405957526
1784805812348928000,0.7524728775024414,0.007375447079539299,0.2080535888671875,0.016954829916357994,0.12424174696207047,0.628787100315094,-0.7675876617431641,-0.11296550929546356,-0.435732901096344,-0.03650474548339844,0.9241076519145855,-0.3408720237382498,0.003526101684891846,0.17268173973503279,-0.6799923867868448,0.1604683124990213,0.4263351682366359
1784805812358846976,0.7623918056488037,-0.39099031686782837,0.30976077914237976,0.2160562127828598,0.12675607204437256,0.6298223733901978,-0.7663267254829407,-0.004960417747497559,-0.39138853549957275,-0.002395808696746826,0.9237446351530766,-0.34178176586102926,0.0046752932058084905,0.17279816125701347,-0.6813245178160293,0.16392314844324066,0.4280727737949452
1784805812368765952,0.772310733795166,-0.544119119644165,0.36144396662712097,0.3420269191265106,0.1309920996427536,0.6329200267791748,-0.7630552053451538,0.005085766315460205,-0.24157792329788208,0.011239469051361084,0.9227215303555646,-0.3441412225698226,0.006261221193815261,0.1735296019388548,-0.6853189969721618,0.17001078193615957,0.43255922157507354
1784805812378685952,0.7822308540344238,-0.493420273065567,0.3394330143928528,0.42487427592277527,0.13604868948459625,0.636216402053833,-0.7594204545021057,0.028837770223617554,-0.12573367357254028,-0.0029391050338745117,0.9215101611300789,-0.3467341421713782,0.008074481535918611,0.1747264470306007,-0.6895841693972993,0.17726758464162032,0.43857781781325256
1784805812388604928,0.7921497821807861,-0.2569478154182434,0.29891034960746765,0.435691237449646,0.14117251336574554,0.6383254528045654,-0.7567106485366821,0.04123103618621826,-0.050175368785858154,-0.04129350185394287,0.9204973648382653,-0.3486338673835763,0.009954693019549496,0.17618192582641218,-0.6923208835687468,0.18444044647469474,0.44491214335354146
1784805812398524928,0.802069902420044,-0.3912760615348816,0.17061729729175568,0.39020776748657227,0.14552819728851318,0.6397960186004639,-0.7546406388282776,0.03776039183139801,0.016728579998016357,-0.06913554668426514,0.9196428875420728,-0.3500684139009238,0.011479538879819331,0.17769960496011708,-0.6942328450478095,0.19050576062113125,0.4508486141835721
1784805812408443904,0.8119888305664062,-0.3688863515853882,0.10881758481264114,0.3451817035675049,0.14881931245326996,0.6418874859809875,-0.7522189021110535,0.05351223051548004,0.03000277280807495,-0.010064423084259033,0.9187011342759399,-0.3517625394828439,0.012396301933666282,0.17915824823282597,-0.6969572545420876,0.19531819609343573,0.4563472938367961
1784805812418362880,0.8219077587127686,-0.4068427085876465,0.09323245286941528,0.25682884454727173,0.15150697529315948,0.6441449522972107,-0.7497485876083374,0.03252926468849182,0.005772650241851807,0.009712576866149902,0.9177822251744677,-0.3534902767006542,0.013050979699907529,0.18041664624916195,-0.6999049126128973,0.19939191170048798,0.4611905013382805
1784805812428282880,0.8318278789520264,-0.35503089427948,0.0964982882142067,0.15334932506084442,0.15353170037269592,0.646336555480957,-0.7474470734596252,-0.005155250430107117,0.03962230682373047,-0.006138741970062256,0.916986433455698,-0.35509674481094466,0.013519110764366843,0.18127175609566934,-0.7027735427835364,0.20259023322700556,0.4648219059861548
1784805812438201856,0.8417468070983887,-0.33354365825653076,0.0970270037651062,0.1474418044090271,0.15524548292160034,0.6485321521759033,-0.7451878786087036,-0.007662475109100342,0.05205988883972168,-0.012044787406921387,0.9162581900454533,-0.35666779947857674,0.013933977769886927,0.1818376078324473,-0.7056544697360835,0.20539283317027165,0.467686042659183
1784805812448122112,0.8516669273376465,-0.24490061402320862,0.08966203033924103,0.07359074056148529,0.1566583812236786,0.6502925157546997,-0.7433557510375977,0.00044611096382141113,0.021933436393737793,-0.009482383728027344,0.915682557925588,-0.3579346775721631,0.01431409399692542,0.18221767783051623,-0.707969428607188,0.20770546210446478,0.4698578337451147
1784805812458040832,0.8615858554840088,-0.03995032235980034,0.11318565905094147,-0.06332100182771683,0.15745539963245392,0.6512057185173035,-0.7423872947692871,-0.017898499965667725,0.06926852464675903,0.0012068748474121094,0.915440201108618,-0.3585962812197597,0.01466501578150266,0.18210661420083382,-0.7091721144210984,0.20899627014929995,0.47035046981191914
1784805812467959808,0.8715047836303711,0.20499524474143982,0.12070110440254211,-0.11437646299600601,0.15766692161560059,0.6504431366920471,-0.7430106997489929,-0.023496374487876892,0.12430661916732788,-0.044205546379089355,0.915743363244766,-0.3581421637122455,0.015127767739701406,0.18143718341729775,-0.7081677115454617,0.2090984012950396,0.46873570796376307
1784805812477880064,0.8814249038696289,0.270643949508667,0.14422418177127838,-0.06695185601711273,0.1579853743314743,0.6485662460327148,-0.7445820569992065,-0.008464515209197998,0.07418155670166016,-0.019166111946105957,0.9163009417466091,-0.3570158314743527,0.01576903984258764,0.1807861121254695,-0.7056992637226113,0.20907914402402591,0.46683502117893494
1784805812487799040,0.8913438320159912,0.0997377336025238,0.18308156728744507,-0.023530611768364906,0.15873219072818756,0.6465171575546265,-0.7462035417556763,-0.007242947816848755,-0.07795941829681396,-0.0006073713302612305,0.9168243187002528,-0.3558427323655334,0.016558266571664943,0.18037482793671047,-0.703010277827378,0.20959558042899998,0.4656260013193535
1784805812497718784,0.9012637138366699,-0.1881534308195114,0.20950044691562653,0.11596496403217316,0.16042375564575195,0.6463736295700073,-0.7459660768508911,-0.001198306679725647,-0.20939242839813232,-0.004796862602233887,0.9167848208244558,-0.3559641054657987,0.017507536516865613,0.18024635213177337,-0.7028221759594282,0.21182874777296135,0.4661767196051897
1784805812507638016,0.9111828804016113,-0.5392829775810242,0.2004033476114273,0.2489166259765625,0.16308972239494324,0.6487640738487244,-0.7433081269264221,0.029430419206619263,-0.28381961584091187,0.006842672824859619,0.915966507557365,-0.3577793151041413,0.018436457104809477,0.18071945119531407,-0.7059592230448982,0.21598809344770778,0.4694348796776429
1784805812517557248,0.9211020469665527,-0.7624659538269043,0.2353929728269577,0.41860949993133545,0.16685537993907928,0.6528865098953247,-0.7388494610786438,-0.009216830134391785,-0.2715998888015747,0.0245550274848938,0.9145194297427139,-0.3608273216918101,0.019465693634734844,0.18187628159730274,-0.7113889873972705,0.22210559468352556,0.4754345024297563
1784805812527475968,0.931020975112915,-0.8676999807357788,0.27150359749794006,0.4747486710548401,0.17170384526252747,0.6580280065536499,-0.7331554889678955,-0.04540686309337616,-0.1511005163192749,0.028809785842895508,0.9126175457755789,-0.3646826716329814,0.020707550083925833,0.18359481513002904,-0.7181968893436707,0.2300521753041597,0.48373226097549676
1784805812537394944,0.9409399032592773,-0.7745282053947449,0.2825671136379242,0.4053904116153717,0.17661434412002563,0.6631969809532166,-0.7273082137107849,-0.08080442249774933,0.030772745609283447,0.015745043754577637,0.9106947446461037,-0.3685933119638271,0.02201993126643634,0.18517356430359222,-0.7250821984531262,0.23822185250354364,0.49192172948490487
1784805812547315200,0.9508600234985352,-0.5074732899665833,0.24908798933029175,0.3950967788696289,0.1811216175556183,0.6670048832893372,-0.7227028608322144,-0.040481358766555786,0.17257940769195557,-0.03434664011001587,0.9091460181297084,-0.37162245276316197,0.023352275516087873,0.18656079086862754,-0.7301815472500858,0.2455592773752523,0.4990533439093528
1784805812557234176,0.9607789516448975,-0.29736894369125366,0.21755927801132202,0.32004109025001526,0.1851717233657837,0.6690087914466858,-0.7198184728622437,0.009240508079528809,0.1616644263267517,-0.04066431522369385,0.9080899323063735,-0.3734707140241872,0.024705813270196282,0.1878347098190902,-0.7328743540387668,0.2517884062931266,0.5050051699041883
1784805812567154176,0.9706990718841553,-0.2715490460395813,0.18820539116859436,0.23924772441387177,0.18840619921684265,0.670474648475647,-0.7176119089126587,-0.004034250974655151,0.09745442867279053,-0.012399077415466309,0.9072953427565956,-0.37486784990966115,0.025848476044247202,0.18873556945915138,-0.7348483577623118,0.25675144735533717,0.5094793143871305
1784805812577073152,0.9806180000305176,-0.1604146957397461,0.1509266346693039,0.1773105263710022,0.191009059548378,0.6713653802871704,-0.7160894274711609,0.009582966566085815,0.02022397518157959,-0.04445439577102661,0.906739563527992,-0.3758128685748865,0.026832225194703668,0.18938865073709685,-0.736049523513227,0.26067003073229805,0.5128145318389794
1784805812586992128,0.9905369281768799,-0.2599295675754547,0.09387055039405823,0.12106508761644363,0.1928246021270752,0.6723558306694031,-0.7146721482276917,0.054108381271362305,-0.0026476383209228516,-0.010349154472351074,0.9062498264402769,-0.37670893381787235,0.027464659928118196,0.18986131911573956,-0.737386817779912,0.2635333087134233,0.5153536740031268
1784805812596912128,1.0004570484161377,-0.3582473397254944,0.06489767879247665,0.10681011527776718,0.1941056251525879,0.6742299199104309,-0.7125567197799683,0.03231954574584961,0.029520690441131592,0.05908381938934326,0.9055711683470867,-0.37809202475857395,0.02771364388622633,0.1903138191540117,-0.7399214385482652,0.26595416234198566,0.5179499142254682
1784805812606831104,1.0103759765625,-0.2687435448169708,0.09699968993663788,-0.02527015469968319,0.19496884942054749,0.6763841509819031,-0.7102757692337036,-0.061729103326797485,0.07973462343215942,0.04081165790557861,0.9049205337593286,-0.37958691681102547,0.027855028065455655,0.19041182849975163,-0.7428423037605859,0.26789889765705666,0.5196642506831429
1784805812616751104,1.0202960968017578,-0.04771110787987709,0.06201024353504181,-0.11026963591575623,0.19500042498111725,0.6775420308113098,-0.7091626524925232,-0.07340314984321594,0.18247383832931519,-0.029286444187164307,0.9047118788497174,-0.38031427874336016,0.027923516574877384,0.18994153521099064,-0.7444154787175618,0.2683409097532454,0.5191803409738386
1784805812626670080,1.0302150249481201,0.18817706406116486,-0.02926827222108841,-0.16028247773647308,0.19417239725589752,0.6771589517593384,-0.7097554802894592,0.016704052686691284,0.21169602870941162,-0.05191749334335327,0.9050143087268724,-0.37993235866778824,0.027814677364484224,0.18927979489856775,-0.7438947342525827,0.26704228204336883,0.5170498931758131
1784805812636590080,1.0401349067687988,0.32786890864372253,-0.13711823523044586,-0.1293296217918396,0.19244500994682312,0.6754170060157776,-0.7118825912475586,0.10220220685005188,0.11239427328109741,-0.048264503479003906,0.9054583536595018,-0.3786005232915856,0.026839246050267253,0.18996456852512889,-0.7415300306134175,0.26402172535922896,0.51674562753184
1784805812646509056,1.0500540733337402,0.4432823359966278,-0.19035828113555908,-0.13546021282672882,0.19033612310886383,0.6727483868598938,-0.7149697542190552,0.11984454095363617,-0.0034064054489135742,-0.0038717985153198242,0.9063706782040274,-0.3766023697558408,0.026187465603948194,0.18967621020291203,-0.7379172597931603,0.2601812544126307,0.5136742504928697
1784805812656428032,1.0599730014801025,0.49348610639572144,-0.17927047610282898,-0.15438610315322876,0.18792732059955597,0.6695072650909424,-0.7186399698257446,0.03352348506450653,-0.004040956497192383,-0.02075517177581787,0.9074614540293395,-0.3742064893187941,0.025485437272138745,0.18929817887116507,-0.7335452068299024,0.25577642042262866,0.5100222913005182
1784805812666348032,1.0698928833007812,0.4485178291797638,-0.11818741261959076,-0.10665479302406311,0.18597491085529327,0.6661791205406189,-0.7222318053245544,-0.03996357321739197,0.017017900943756104,0.019350945949554443,0.9085224681199404,-0.37183089545914877,0.02501781233587898,0.18895204503015495,-0.7290737243628322,0.2520252207585939,0.5067160327465507
1784805812676267264,1.0798120498657227,0.3841787278652191,-0.026189468801021576,-0.10698266327381134,0.18472197651863098,0.6632841229438782,-0.7252117395401001,-0.09907440841197968,-0.002303898334503174,0.0854717493057251,0.9094206263662622,-0.36983166153954394,0.024873390035029096,0.1885739475834925,-0.725198672567888,0.24941094787773646,0.5039592053869176
1784805812686187008,1.0897319316864014,0.4229796528816223,0.0712212398648262,-0.09305805712938309,0.18419374525547028,0.6605038642883301,-0.7278786301612854,-0.13541139662265778,0.03596830368041992,0.0541267991065979,0.9102674852272561,-0.36800487445630514,0.02516156251455488,0.18802229638055026,-0.7214896584716511,0.24785243192992784,0.5013007641273368
1784805812696106240,1.0996510982513428,0.6201467514038086,0.04542110860347748,-0.04383768141269684,0.1840602159500122,0.6567597389221191,-0.7312923669815063,-0.0959559828042984,0.05088186264038086,0.0031124353408813477,0.911306447223161,-0.3656377241266847,0.02574618887306649,0.18752836033912673,-0.7165138322432758,0.24657021656781802,0.498616978752273
1784805812706025216,1.109570026397705,0.7197074294090271,0.06415484845638275,-0.08445568382740021,0.18395628035068512,0.651930034160614,-0.7356271743774414,-0.061931729316711426,0.045839130878448486,-0.005736351013183594,0.9125912949079809,-0.36261023093777517,0.02646202868854333,0.18705793095452516,-0.7101269182402391,0.2450419709336293,0.4955982123289339
1784805812715944960,1.1194899082183838,0.8189002871513367,0.048708170652389526,-0.15883563458919525,0.1834411323070526,0.6464459896087646,-0.7405787706375122,-0.03684994578361511,0.06169915199279785,-0.010260462760925293,0.9140994853302044,-0.3591293433712616,0.027142563889135614,0.18631047734898162,-0.7029170260411803,0.24281248240122663,0.4915446240944961
1784805812725864192,1.1294090747833252,0.80235755443573,0.05404408276081085,-0.26614320278167725,0.18232721090316772,0.6408477425575256,-0.7457016706466675,0.02873234450817108,0.046911656856536865,0.0061539411544799805,0.9157509337156404,-0.3555019186715653,0.0277047051186173,0.18507072847671596,-0.6956020992782344,0.2397995285078941,0.4861227600561755
1784805812735783936,1.139328956604004,0.7746433615684509,0.07137110084295273,-0.26160192489624023,0.18093174695968628,0.6354706287384033,-0.7506269812583923,0.07733850181102753,0.030194103717803955,0.08026260137557983,0.9173855854542303,-0.3519851412486832,0.0281598228282289,0.18362268958893443,-0.688617886338726,0.23652889139347794,0.4802599299012069
1784805812745702912,1.1492478847503662,0.8176689147949219,0.0795091837644577,-0.3507038354873657,0.17953276634216309,0.6300855278968811,-0.7554867267608643,0.022844552993774414,0.025477826595306396,0.04439663887023926,0.91903565632649,-0.3484745678910502,0.02867233093831841,0.18198025175972385,-0.6816633258817676,0.23331094037270586,0.4740455829440886
1784805812755622144,1.1591670513153076,0.8969685435295105,0.09947521239519119,-0.4159678816795349,0.177711620926857,0.6244112253189087,-0.7606110572814941,-0.049125805497169495,0.07470071315765381,0.004950046539306641,0.9208368198838713,-0.3447392321679943,0.02914333797616628,0.17990279873547588,-0.6743775188690703,0.22952580753722598,0.4666547433622672
1784805812765542144,1.1690869331359863,1.0606062412261963,0.13758905231952667,-0.5022660493850708,0.1757214516401291,0.6177845597267151,-0.7664621472358704,-0.07074098289012909,0.10197252035140991,0.02389317750930786,0.9228911508269737,-0.34041875092263546,0.029732136772507863,0.17749081576753628,-0.6659221723900304,0.22536835841556294,0.4582334290460993
1784805812775461120,1.1790060997009277,1.2147791385650635,0.1539023220539093,-0.6029240489006042,0.1732936054468155,0.6100713610649109,-0.7731637954711914,-0.07232619822025299,0.1555994153022766,0.022675514221191406,0.9252713684008025,-0.33540249276110173,0.030385311919101515,0.17451314171367083,-0.6561506675803935,0.22049162960180474,0.4481552341967232
1784805812785381120,1.1889259815216064,1.3591448068618774,0.21915215253829956,-0.6152635216712952,0.1709344983100891,0.6012719869613647,-0.7805468440055847,-0.020986393094062805,0.16223204135894775,0.07424807548522949,0.927881635725335,-0.3297711826283921,0.03126552897672948,0.17119913184974733,-0.6450920409503114,0.21558983613214253,0.4372096620257689
1784805812795300096,1.1988449096679688,1.5212993621826172,0.22964709997177124,-0.6590578556060791,0.16875357925891876,0.5913093090057373,-0.7885909080505371,-0.0019292384386062622,0.12512141466140747,0.08717489242553711,0.9306937809293763,-0.3235051677163543,0.032387665371217164,0.16764427487639919,-0.6326813995929812,0.21081423564393176,0.4256699403665041
1784805812805220096,1.2087650299072266,1.8214077949523926,0.18380983173847198,-0.7212120294570923,0.16628986597061157,0.5793704986572266,-0.7979207634925842,-0.034530237317085266,0.21912193298339844,-0.0048899054527282715,0.9338816180133949,-0.31608691460937,0.033596015209730525,0.16378480145162394,-0.6179561285399187,0.20546310720664362,0.4130220281991233
1784805812815139072,1.2186839580535889,2.118089199066162,0.3549842834472656,-0.8081356883049011,0.16396157443523407,0.5649692416191101,-0.8086571097373962,-0.09859292209148407,0.22146868705749512,-0.03997570276260376,0.9374949299043663,-0.3073016696628292,0.03517286346859597,0.15947328657637866,-0.6003959857368544,0.2000459273311156,0.3990980831994195
1784805812825058048,1.2286028861999512,2.295379400253296,0.3582647740840912,-0.7771943211555481,0.16251832246780396,0.5484839677810669,-0.8202152848243713,-0.057095348834991455,0.08080369234085083,0.026971936225891113,0.9413515091996104,-0.29747859804578697,0.03740121877220488,0.1548059764628836,-0.5805500977402476,0.195607474502127,0.3845843795764094
1784805812834978048,1.238523006439209,2.488035202026367,0.3745236396789551,-0.9309961795806885,0.160896897315979,0.5302931070327759,-0.8324069380760193,0.03661288321018219,0.06556260585784912,0.009515762329101562,0.9453793177508621,-0.28674962049708536,0.039638050519062114,0.1498710005888457,-0.558946278892064,0.19093649066208754,0.3693922247070829
1784805812844897024,1.2484419345855713,2.5402956008911133,0.4667387902736664,-1.0664113759994507,0.15914912521839142,0.5108996629714966,-0.844779908657074,-0.02139277756214142,0.11114007234573364,-0.037071287631988525,0.949565926911461,-0.2753924884053451,0.04205984216327139,0.143925372187906,-0.53623105422246,0.18620876747510084,0.35214369118633215
1784805812854817280,1.258362054824829,2.3778603076934814,0.4181596636772156,-1.0231008529663086,0.15766018629074097,0.491764634847641,-0.8563356995582581,0.09543736279010773,-0.02800425887107849,0.016110479831695557,0.9535027606494229,-0.26430084608626103,0.044465944997116064,0.13784174947265168,-0.5141152277118307,0.1820713320548665,0.3351230373441879
1784805812864736000,1.2682809829711914,1.9579956531524658,0.3794836401939392,-0.9542534947395325,0.15626661479473114,0.4747888445854187,-0.8661156296730042,0.14852768182754517,-0.2594873309135437,0.07227718830108643,0.9568704917421652,-0.25451689872890726,0.046511503788245014,0.13212412240559568,-0.49472408525187345,0.17850199516780713,0.3196137769891935
1784805812874656256,1.2782011032104492,1.4585391283035278,0.3819721043109894,-0.8782958984375,0.1552291214466095,0.46148261427879333,-0.8734630346298218,0.08936923742294312,-0.3125110864639282,0.07808345556259155,0.9594937712511677,-0.24686264270731875,0.048242137481566,0.12689863453030126,-0.47966568419338235,0.1758805871472712,0.30609968147338185
1784805812884575232,1.2881200313568115,0.9407963752746582,0.45868179202079773,-0.81792151927948,0.15492920577526093,0.45251187682151794,-0.8781969547271729,0.021904900670051575,-0.36144745349884033,0.09052306413650513,0.961352283140262,-0.24168658998899215,0.04989090141042138,0.12206663939171918,-0.4695801054919709,0.17462058976714215,0.2944659746621862
1784805812894493952,1.2980389595031738,0.5395668148994446,0.5924177169799805,-0.7920780181884766,0.15586265921592712,0.4474039375782013,-0.8806455135345459,-0.03138144314289093,-0.3200083076953888,0.0901334285736084,0.9625659628627242,-0.23872577736153955,0.051838621434217705,0.11742860899826134,-0.4638604331512539,0.17517280300740312,0.2842635778255351
1784805812904414208,1.3079590797424316,0.386035293340683,0.6681148409843445,-0.834863007068634,0.1577949821949005,0.4447808563709259,-0.8816295862197876,-0.0737038105726242,-0.2187066376209259,0.0425792932510376,0.963388046713981,-0.23717630801809775,0.05415348513335368,0.1126869421678891,-0.4609295704065455,0.17710578579362446,0.2745385453353673
1784805812914333184,1.317878007888794,0.47221997380256653,0.7127113938331604,-0.8815406560897827,0.16000451147556305,0.44250547885894775,-0.8823760151863098,-0.04591454565525055,-0.11233580112457275,-0.013620078563690186,0.9641568810554191,-0.2358030193468455,0.05664731266677345,0.10765494233692578,-0.45839066160798825,0.17938448372908955,0.2643488965389975
1784805812924252928,1.3277978897094727,0.6767818331718445,0.7963879108428955,-0.9230479001998901,0.16266609728336334,0.43890175223350525,-0.8836882710456848,-0.04474616050720215,0.06060993671417236,-0.050851523876190186,0.9650784389498167,-0.23369965136516457,0.059500699255214486,0.10231167629522687,-0.4543760483893543,0.18203850957300866,0.25343252047887416
1784805812934172160,1.337717056274414,0.16688400506973267,0.8688328862190247,-0.9497655034065247,0.16576042771339417,0.43606117367744446,-0.8845191597938538,-0.07823601365089417,0.03465721011161804,-0.04849475622177124,0.9658749276250819,-0.2319980050518667,0.06258878432787772,0.09667013509800153,-0.45121713818060966,0.1852530322646717,0.24214079590336868
1784805812944091136,1.3476359844207764,-0.4785645008087158,1.0620074272155762,-0.8870182037353516,0.17020750045776367,0.4390638470649719,-0.8821861147880554,-0.030284389853477478,-0.2372969090938568,0.16494673490524292,0.9657984274883746,-0.23354678476847582,0.06605182853912359,0.09124936578501705,-0.4545564645936385,0.1905963433793839,0.23260898569007932
1784805812954011136,1.3575561046600342,-1.1371955871582031,1.2313483953475952,-0.8741601705551147,0.17629122734069824,0.4476601779460907,-0.8766537308692932,-0.039129987359046936,-0.5407997965812683,0.1364498734474182,0.9648523317815606,-0.23823130029048248,0.07013539547701966,0.08594721334598039,-0.46414695412287993,0.19844882225018873,0.22473279517076564
1784805812963930112,1.3674750328063965,-1.6220335960388184,1.374367594718933,-0.8711159229278564,0.18365004658699036,0.46124008297920227,-0.8680611848831177,-0.022913962602615356,-0.38514450192451477,0.12099087238311768,0.9630770772009777,-0.2457259162856954,0.07475412708862074,0.08070390153227468,-0.4793923355941448,0.2084891725600837,0.21833316915810524
1784805812973850112,1.3773949146270752,-1.700598955154419,1.494508147239685,-0.8607350587844849,0.1919623464345932,0.4772711992263794,-0.8575329184532166,-0.0120307058095932,-0.1619788408279419,0.05507320165634155,0.960767067278079,-0.25465526108463515,0.07990147798336789,0.07545284779519593,-0.4975467727093728,0.22022359120886784,0.21290332004604692
1784805812983769088,1.3873140811920166,-1.5910924673080444,1.58254075050354,-0.9059832096099854,0.20080748200416565,0.4927852153778076,-0.8466634750366211,-0.03044310212135315,-0.023821651935577393,-0.05925077199935913,0.9583489615245907,-0.26334802989068823,0.08553407381150599,0.06999196867179078,-0.5152877156713233,0.23287220531293312,0.20743011187566887
1784805812993689088,1.3972339630126953,-1.5333503484725952,1.6428711414337158,-0.9743600487709045,0.20948030054569244,0.5077612996101379,-0.8356413245201111,-0.04325106739997864,0.01108330488204956,-0.05153512954711914,0.9558873958440215,-0.27171754702393613,0.09137231785757438,0.06403158832097049,-0.5325842125600065,0.24562051184739528,0.20108466491431198
1784805813003608064,1.4071528911590576,-1.490448236465454,1.73737633228302,-1.0238676071166992,0.2183459997177124,0.5222690105438232,-0.824354350566864,-0.049888983368873596,-0.04357028007507324,-0.049897968769073486,0.9533336723330201,-0.27982537222044934,0.09757343901917548,0.057725138143741646,-0.5495095189216672,0.2589234229660436,0.19431789723072312
1784805813013527040,1.417072057723999,-1.8345870971679688,1.8802508115768433,-1.2091760635375977,0.2271585464477539,0.5379601120948792,-0.8117868900299072,-0.0837411880493164,-0.056118130683898926,-0.022792577743530273,0.9504275363352201,-0.28857291816968267,0.10407800425666631,0.05080404793600087,-0.5680153727808684,0.27284674204916215,0.1869046123007864
1784805813023447040,1.4269919395446777,-2.4168717861175537,2.0801758766174316,-1.4957021474838257,0.23547302186489105,0.5578835606575012,-0.7958130240440369,-0.12799009680747986,-0.2876656651496887,0.03647458553314209,0.9466182277081172,-0.2996691578922713,0.11086871800099532,0.042667596901542267,-0.5918334447166308,0.28768178689716783,0.17834397295432325
1784805813033366272,1.4369111061096191,-3.0260846614837646,2.3553555011749268,-1.7578928470611572,0.24371924996376038,0.5828819870948792,-0.7751448154449463,-0.15186135470867157,-0.5020561814308167,0.11820816993713379,0.9415234970333001,-0.31372217343531855,0.11834684366752743,0.03325647559434503,-0.6222710236614077,0.3046309952965908,0.1692624383130792
1784805813043286016,1.4468309879302979,-3.4117836952209473,2.609586238861084,-1.619979977607727,0.2521844208240509,0.6118345856666565,-0.7497076392173767,-0.1789270043373108,-0.2886229157447815,0.1417974829673767,0.9350483904142353,-0.33031021559310475,0.1266544672973611,0.023202892129601117,-0.6583778639093479,0.32448736996537664,0.16133677141283603
1784805813053204992,1.4567499160766602,-2.37853741645813,2.486255645751953,-1.549795389175415,0.26189717650413513,0.6379393339157104,-0.7241845726966858,-0.13949120044708252,-0.05619800090789795,0.03450256586074829,0.9283857879236613,-0.3456035830419082,0.13588920353728628,0.013862664370261572,-0.6918194048734134,0.3470104159126275,0.1560270080166698
1784805813063124224,1.4666690826416016,0.8353885412216187,2.118938684463501,-2.2872745990753174,0.26605430245399475,0.6481531858444214,-0.7135213017463684,-0.253648966550827,0.3375340700149536,-0.1407420039176941,0.9256125235577531,-0.3503495735148979,0.14315912791864316,0.0014764419672741043,-0.7051567096374564,0.3569064268312311,0.13573267497994185
1784805813073043968,1.4765889644622803,2.6219165325164795,2.3526768684387207,-2.83193039894104,0.2653685212135315,0.6433584690093994,-0.7181013226509094,-0.1721983551979065,0.4165322780609131,0.18842291831970215,0.9267220113019333,-0.34464122911201406,0.14890188720961195,-0.015396881014486505,-0.6988771461662293,0.35397691284585026,0.09694065929252604
1784805813082962944,1.4865078926086426,3.419893264770508,1.9522039890289307,-2.7572009563446045,0.26273113489151,0.6288377642631531,-0.7318028807640076,0.3544258177280426,0.13893872499465942,0.07861989736557007,0.9298859154044086,-0.3323669859410401,0.15372295511290981,-0.0348387132751888,-0.6800575571647276,0.3446868691966074,0.04810994563986189
1784805813092883200,1.4964280128479004,3.684398889541626,1.6517261266708374,-1.61016047000885,0.2621076703071594,0.6096279621124268,-0.7480998039245605,0.7372208833694458,0.46048617362976074,-0.3390125632286072,0.9335357624747055,-0.3179711876526773,0.15762108684738818,-0.05060550676427615,-0.6555911412033818,0.3369995429582628,0.007258694995277137
1784805813102801920,1.5063469409942627,4.57805061340332,1.1677911281585693,-0.5799243450164795,0.26685619354248047,0.581139326095581,-0.7688074707984924,0.5167436599731445,0.9320748448371887,-0.5875157713890076,0.9384552439218388,-0.2991442173254273,0.16158279212791243,-0.0608740459887405,-0.620127979471984,0.33409259478409653,-0.02160641253445015
1784805813112722176,1.5162670612335205,5.113235950469971,1.0298526287078857,-0.7662953734397888,0.2719370722770691,0.5449455976486206,-0.7931484580039978,-0.09018963575363159,0.9515143632888794,-0.4095034599304199,0.9443471831154723,-0.2765033512871925,0.16423049486304722,-0.06915673267278552,-0.5763242461350225,0.33029786377368425,-0.04747964313954777
1784805813122641152,1.5261859893798828,4.555479526519775,1.5228540897369385,-1.6749223470687866,0.2755811810493469,0.508573591709137,-0.8157253861427307,-0.6918256878852844,0.34358400106430054,-0.2817172408103943,0.9494084286569187,-0.25369989638720947,0.1666543249274583,-0.08053780226153245,-0.5335273193952021,0.32579721492089003,-0.07948517452478765
1784805813132560128,1.5361049175262451,2.670226812362671,2.379638671875,-2.52388334274292,0.2810719609260559,0.484566867351532,-0.8283679485321045,-0.6724446415901184,-0.3114864230155945,0.021727323532104492,0.9513110273043347,-0.2373850357053933,0.17165187096871065,-0.09587098463559471,-0.5058679573816939,0.3271181744677938,-0.11561675904647252
1784805813142480128,1.546025037765503,0.8291245102882385,2.495697259902954,-2.6241626739501953,0.2888695299625397,0.47814804315567017,-0.8294147253036499,-0.23419731855392456,-0.7152391076087952,0.22643321752548218,0.9497259894388946,-0.23041254708131573,0.17945107092273713,-0.11281755771600036,-0.4985448664030528,0.33514274045966425,-0.150400242204067
1784805813152399104,1.5559439659118652,-0.2570417821407318,2.466545820236206,-2.134006977081299,0.29762211441993713,0.48271840810775757,-0.8236528038978577,0.23117119073867798,-0.7406682968139648,0.24041616916656494,0.9464210800132441,-0.2297998289664753,0.18805750766319526,-0.12693885005483818,-0.5037560718958103,0.34674500183740714,-0.17658229760240432
1784805813162319104,1.565864086151123,-0.7360535860061646,2.662036657333374,-2.251530647277832,0.30784618854522705,0.49360212683677673,-0.8133803606033325,0.18696582317352295,-0.3432725667953491,0.21476280689239502,0.94192641455798,-0.2327075582565825,0.1978812760801119,-0.13951635642413177,-0.5162267862326185,0.3618159522788895,-0.1975967008201549
1784805813172238080,1.5757830142974854,-0.34967777132987976,2.808925151824951,-2.326869487762451,0.3183729648590088,0.5054447054862976,-0.8019752502441406,-0.0209638774394989,0.09051781892776489,0.06456375122070312,0.9368151181632416,-0.2357651176524344,0.2083918826173592,-0.152856330951893,-0.529897255967207,0.37790540171342535,-0.21980022655952994
1784805813182158080,1.585702896118164,0.3358316123485565,2.8731689453125,-2.3092246055603027,0.3291950523853302,0.5128542184829712,-0.7928500175476074,-0.0496692955493927,0.3117307424545288,-0.13566255569458008,0.9319692156120525,-0.23594778789243953,0.21886897137558706,-0.16690818161174872,-0.5385062237537334,0.3935447697655242,-0.2445132129476373
1784805813192077056,1.5956220626831055,0.7234551906585693,2.577000617980957,-2.341423511505127,0.3387306332588196,0.5160831212997437,-0.7867145538330078,0.01861494779586792,0.31921350955963135,-0.1947765350341797,0.9275966498204663,-0.23353280186406092,0.22826554593324982,-0.18144363150786758,-0.5422717330519814,0.4065735986989861,-0.271856645526185
1784805813201996032,1.6055409908294678,0.7571252584457397,2.580911636352539,-2.331712245941162,0.3465370833873749,0.5180169343948364,-0.7820297479629517,0.10721352696418762,0.13042056560516357,-0.18166959285736084,0.9233723431784021,-0.230308563285661,0.23652290479967225,-0.19595524299709013,-0.5445309336370442,0.4171221338373459,-0.3001879364494013
1784805813211916032,1.6154608726501465,0.5888550281524658,2.696627616882324,-2.534240484237671,0.3544231057167053,0.5209408402442932,-0.7765339016914368,0.00621834397315979,-0.1299954652786255,-0.18745529651641846,0.9186018304062167,-0.2273100351932102,0.24507793100289046,-0.21080231843381245,-0.5479527698344477,0.4281772921904265,-0.3290944846521303
1784805813221835264,1.625380039215088,0.5057953000068665,2.775541067123413,-2.894914388656616,0.36125531792640686,0.5262596011161804,-0.7697697281837463,-0.08711591362953186,-0.2669517397880554,-0.22556108236312866,0.9129172901409025,-0.2251569559007226,0.25380993333393204,-0.22686313539002423,-0.5541957419834957,0.43878993480632605,-0.3604689836170926
1784805813231755008,1.6352999210357666,0.9177998304367065,2.7986795902252197,-3.1373484134674072,0.36658230423927307,0.5318422317504883,-0.7633880376815796,-0.009587675333023071,-0.3222474455833435,-0.3742309808731079,0.906594230513373,-0.2226028347868403,0.2622097664493382,-0.2445014215351798,-0.5607744705721319,0.44768609912070423,-0.39591822414512734
1784805813241674240,1.645219087600708,1.5848438739776611,2.4955501556396484,-3.350102186203003,0.3695618212223053,0.5338574647903442,-0.7605394721031189,0.23105460405349731,-0.32282841205596924,-0.5309339165687561,0.9004530113898314,-0.21772791181776002,0.2689327348538923,-0.26354165749197994,-0.5631559762247859,0.4523208141462723,-0.43652832068309233
1784805813251593216,1.6551380157470703,2.1828835010528564,2.0313687324523926,-3.5386533737182617,0.3684268593788147,0.5322872400283813,-0.7621889114379883,0.4313930571079254,-0.26226770877838135,-0.6988554000854492,0.894698909765305,-0.2108936670603544,0.2728175186993653,-0.2839161133134458,-0.5613000787817812,0.45026339276552574,-0.4827218178080095
1784805813261512960,1.665057897567749,3.155395030975342,1.417543888092041,-3.44924259185791,0.36320075392723083,0.5247946977615356,-0.7698544263839722,0.5466197729110718,-0.24757301807403564,-0.7665530443191528,0.8899748848114596,-0.20135493744698765,0.27299996864598036,-0.3047491393146083,-0.5524738973588107,0.4408165843779472,-0.5329623522667668
1784805813271432192,1.6749770641326904,4.298368453979492,0.6822192072868347,-3.3654367923736572,0.3541000187397003,0.508338987827301,-0.7849870324134827,0.5716659426689148,-0.3294450044631958,-0.8876355886459351,0.886773253903936,-0.18791503505403623,0.2686901880416294,-0.32577095245735505,-0.533254855937903,0.4237602326982207,-0.5867527727880016
1784805813281351936,1.6848969459533691,5.746715068817139,0.22414542734622955,-3.42138934135437,0.34070760011672974,0.4805819094181061,-0.80805903673172,0.5469877123832703,-0.4101625978946686,-1.0387122631072998,0.8849725412565642,-0.16971701783706414,0.2591652468903101,-0.34763941279017846,-0.5013181527493084,0.39901873817866756,-0.6451602280795095
1784805813291270912,1.6948158740997314,7.27841329574585,-0.29888787865638733,-3.5131702423095703,0.3243773877620697,0.438472718000412,-0.838165283203125,0.4317566454410553,-0.325923889875412,-0.8333892822265625,0.8840372459526938,-0.1454261015390403,0.24447619755408037,-0.37089198727755857,-0.4538986037125566,0.3692571868597019,-0.7082790552718947
1784805813301191168,1.7047359943389893,8.09760570526123,-0.7448827028274536,-3.726815938949585,0.3050440847873688,0.38411813974380493,-0.871436357498169,0.4126835763454437,0.05094042420387268,-0.3906027674674988,0.882765665468139,-0.11671926005287198,0.2250742756901892,-0.3955285818697757,-0.3942524862140026,0.3367170901932637,-0.7746066618617627
1784805813311110144,1.7146549224853516,8.647307395935059,-1.196137547492981,-3.090301752090454,0.28430724143981934,0.32075002789497375,-0.9034870266914368,0.6442816257476807,0.41020700335502625,0.08164864778518677,0.8810045203419445,-0.08587025785991807,0.202194929384891,-0.4190161052568674,-0.3265212550740603,0.30486762573182247,-0.8372929838734394
1784805813321029120,1.724574089050293,9.414630889892578,-1.5874698162078857,-2.2318766117095947,0.2643685042858124,0.24498383700847626,-0.9327873587608337,1.0312399864196777,0.41219693422317505,0.21025317907333374,0.8797794889098342,-0.051519477585622496,0.17593201709338355,-0.43861339666470023,-0.24750302305048508,0.2761751667042136,-0.890403430164626
1784805813330949120,1.7344939708709717,9.171672821044922,-1.909501552581787,-1.928083062171936,0.24394598603248596,0.16251999139785767,-0.956074059009552,1.186916470527649,0.38142532110214233,0.316944420337677,0.8781974662706276,-0.016250853358511747,0.14730539585272043,-0.45475954464763646,-0.16324405874382983,0.2498234443118268,-0.9350811513070194
1784805813340868096,1.744412899017334,7.714895725250244,-2.167630195617676,-1.6640413999557495,0.22185289859771729,0.08544664829969406,-0.9713290929794312,1.1796973943710327,0.23256176710128784,0.49438512325286865,0.8754591718998516,0.014747555517001827,0.11881908154432322,-0.4682261966059585,-0.08555096707229903,0.22454954998301183,-0.9725998178963323
1784805813350788096,1.7543330192565918,6.70510721206665,-1.9414453506469727,-1.2085400819778442,0.20092743635177612,0.019726140424609184,-0.9794074892997742,1.221618890762329,-0.09659992158412933,0.47829365730285645,0.8722181144058084,0.03987731832116591,0.09330621926240577,-0.4784760353353344,-0.01972742047446627,0.2023444864375232,-1.0014924494457766
1784805813360707072,1.764251947402954,6.306468486785889,-1.7734813690185547,-0.769117534160614,0.18318024277687073,-0.04194684326648712,-0.9821840524673462,1.0936447381973267,-0.2753291726112366,0.2282625436782837,0.8689299819673549,0.06328749142490582,0.07001913874690731,-0.4858525507086122,0.041959154173237624,0.1843846057847743,-1.0235449757800297
1784805813370627072,1.774172067642212,6.608716011047363,-1.5322211980819702,-0.3364202380180359,0.16755862534046173,-0.10333885997533798,-0.9804311394691467,0.838468611240387,-0.004388190805912018,0.28948265314102173,0.8656973830616018,0.08668855022270841,0.04763961935398662,-0.4906970526094071,0.10352367461340457,0.16926766174359556,-1.0401248078200112
1784805813380546048,1.7840909957885742,6.967579364776611,-1.380144476890564,0.3040441572666168,0.15358620882034302,-0.169294536113739,-0.9735248684883118,0.6276485323905945,0.1671735644340515,0.09063607454299927,0.8625269258717653,0.11233799235199635,0.024854581774393834,-0.4927572650885591,0.17011382780745735,0.15647335676620935,-1.05145914989796
1784805813390465024,1.7940099239349365,6.770020484924316,-1.268308401107788,0.9036805033683777,0.13957877457141876,-0.23631303012371063,-0.9615996479988098,0.35068610310554504,0.2821809649467468,0.08087766170501709,0.8598397081179971,0.13855046695777887,0.0019834655469382696,-0.49140162712775526,0.23856964925117613,0.14414596036790364,-1.0557116191559641
1784805813400385024,1.8039300441741943,6.124698638916016,-0.9136781096458435,1.2474104166030884,0.12631112337112427,-0.29928866028785706,-0.9457651972770691,0.040391162037849426,-0.036755651235580444,-0.2767384648323059,0.8574923686239291,0.163537581880922,-0.019309594111650227,-0.4874316155335634,0.30394706511314684,0.13276874449808576,-1.0541416736544018
1784805813410304000,1.8138489723205566,5.62208890914917,-0.26832103729248047,1.9142214059829712,0.1159994825720787,-0.35542038083076477,-0.9274806976318359,-0.1054251417517662,-0.8390528559684753,-0.6884860992431641,0.8561041580904574,0.18677648458495621,-0.03707004796685588,-0.4804435853369664,0.36336377820014465,0.12442335510571621,-1.0456851419347175
1784805813420224256,1.8237690925598145,4.100348949432373,-0.039447903633117676,2.436306953430176,0.1065785139799118,-0.40347689390182495,-0.9087615013122559,-0.08571974188089371,-1.7622793912887573,-0.7848725318908691,0.8563565547541505,0.20726904123692555,-0.05156356293625148,-0.4701428241656802,0.4153135904854745,0.11674556052888897,-1.0287801768081386
1784805813430143232,1.8336880207061768,1.2198724746704102,0.03408954665064812,2.9350764751434326,0.09586826711893082,-0.4299617111682892,-0.8977428674697876,0.03970607370138168,-2.1778111457824707,-0.3917926549911499,0.8596945028368227,0.2179150941167106,-0.0603456030371139,-0.45803581548610484,0.4444503684317822,0.10638494743913697,-1.0031269457985943
1784805813440062976,1.8436079025268555,-1.0269590616226196,-0.1322600245475769,3.5541138648986816,0.08142878115177155,-0.4334152340888977,-0.8975080251693726,0.44734930992126465,-2.335871934890747,-0.18014395236968994,0.8669139766428219,0.21707167084470086,-0.06423307727085568,-0.4440880921493476,0.4482789988785011,0.09047992113688787,-0.9674599960712932
1784805813449982208,1.8535270690917969,-2.810864210128784,-0.4285663962364197,3.7689220905303955,0.06348399072885513,-0.4185973107814789,-0.9059503674507141,0.7896654009819031,-2.213315010070801,-0.02358454465866089,0.8768253692579918,0.20686771068063176,-0.06504276629359966,-0.42913001915186805,0.4319002607851867,0.06996010986821541,-0.9256381788302697
1784805813459901184,1.8634459972381592,-3.7413172721862793,-0.7819830179214478,4.109047889709473,0.042374931275844574,-0.39045119285583496,-0.9196478724479675,0.9178148508071899,-1.91017746925354,0.14608830213546753,0.8881159826204884,0.18977059325331833,-0.06452275409160013,-0.41361073341529797,0.40112164553593493,0.04604477494933921,-0.8810562520509754
1784805813469820928,1.873365879058838,-3.6393935680389404,-1.32965886592865,4.586843013763428,0.01651746779680252,-0.3573329448699951,-0.933830976486206,1.0586930513381958,-1.7061893939971924,-0.02567213773727417,0.8998301738755796,0.1696571806979936,-0.06558155345859011,-0.3965113290640974,0.36541075318184396,0.017686010470439422,-0.8333727071070415
1784805813479740160,1.8832850456237793,-3.10349440574646,-1.747245192527771,5.194404602050781,-0.014325056225061417,-0.3258589804172516,-0.9453098773956299,1.1510590314865112,-1.5963975191116333,-0.3251826763153076,0.9113656427814419,0.14988734232399115,-0.06984883159967993,-0.37691840042482483,0.3319201445047816,-0.015152660902869782,-0.7817702766982516
1784805813489659904,1.893204927444458,-2.635549783706665,-1.9965698719024658,5.604783535003662,-0.048918336629867554,-0.29755115509033203,-0.9534518122673035,1.1422868967056274,-1.6136579513549805,-0.35933810472488403,0.9224987315943913,0.1316364403786785,-0.0771100211826368,-0.3545730096459023,0.3021266080206296,-0.05126161661425706,-0.7261004806139825
1784805813499579136,1.9031240940093994,-2.992551565170288,-2.095296859741211,5.709869861602783,-0.08406169712543488,-0.26740771532058716,-0.9599097371101379,1.0340129137039185,-1.7260463237762451,-0.24851006269454956,0.9329819300243917,0.11310210698045492,-0.08516474342405245,-0.3309073571831802,0.2707017783116949,-0.0873496588636096,-0.669767919966546
1784805813509499136,1.9130439758300781,-3.325321674346924,-2.216564178466797,6.0816240310668945,-0.11920707672834396,-0.23126277327537537,-0.9655605554580688,1.0155845880508423,-1.8292382955551147,-0.05978429317474365,0.9429288907089892,0.09238139437069504,-0.09319546621240485,-0.30604818839672554,0.23337544779570668,-0.12283735074035179,-0.6132723916803703
1784805813519418624,1.9229636192321777,-3.634746789932251,-2.3108832836151123,6.3161940574646,-0.15397191047668457,-0.18941576778888702,-0.9697496294975281,1.069850206375122,-1.951956868171692,0.11516588926315308,0.9522672435614701,0.06973235848937052,-0.10130443449219606,-0.2793959136171169,0.19056711271885224,-0.15746053255264195,-0.5557032113873341
1784805813529337600,1.93288254737854,-3.844296932220459,-2.472200632095337,6.342450141906738,-0.1874098777770996,-0.14263330399990082,-0.971871018409729,1.079392910003662,-1.987707257270813,0.253273606300354,0.9604287277436597,0.04551959581522247,-0.10951007065233131,-0.2520162980218377,0.143121410258803,-0.19049587438475876,-0.499532614875357
1784805813539257856,1.9428026676177979,-3.790250301361084,-2.7011892795562744,6.48754358291626,-0.21978823840618134,-0.09274152666330338,-0.971129298210144,1.1395269632339478,-1.9910292625427246,0.33068740367889404,0.9671565391028696,0.02052859560552714,-0.1183804048460562,-0.22399313456821657,0.09287498890509252,-0.22257268583384962,-0.4447883548546933
1784805813549176576,1.9527215957641602,-3.627943277359009,-2.8817994594573975,6.761658668518066,-0.25108760595321655,-0.04173211008310318,-0.9670643210411072,1.2151989936828613,-1.9523475170135498,0.24974870681762695,0.9724650928607801,-0.0042003355596061335,-0.1282582766717394,-0.19453508137086312,0.04174423188481722,-0.2540298872857074,-0.3895427309530495
1784805813559096832,1.962641716003418,-3.551699161529541,-3.0616252422332764,7.1577019691467285,-0.28051215410232544,0.010968131944537163,-0.9597877860069275,1.2808631658554077,-1.8992279767990112,0.33808374404907227,0.9763732403063607,-0.02880402429407259,-0.13883957684186496,-0.16306166443021952,-0.010968352013300596,-0.28434523130221273,-0.3325305605492691
1784805813569015808,1.9725606441497803,-3.4373860359191895,-3.2234833240509033,7.666520118713379,-0.30757319927215576,0.06541900336742401,-0.9492729306221008,1.3763293027877808,-2.004826307296753,0.5759361386299133,0.9787712380208379,-0.05320436839753791,-0.15010942378932807,-0.12900857942520474,-0.06546575579633844,-0.31333554715856454,-0.2724471730557926
1784805813578935552,1.982480525970459,-3.781270980834961,-3.19010591506958,8.02658748626709,-0.33025819063186646,0.12384307384490967,-0.9357309341430664,1.4954955577850342,-2.2823667526245117,0.7444009780883789,0.9794383047267726,-0.07845259655839742,-0.16118222533170984,-0.09255326546253353,-0.12416184451286987,-0.339292797803602,-0.20972758991508753
1784805813588854784,1.9923996925354004,-4.444812774658203,-3.0969276428222656,8.291955947875977,-0.3465372622013092,0.1888623982667923,-0.9188269376754761,1.5299479961395264,-2.4895825386047363,1.2103155851364136,0.9779570862318933,-0.10617026291496838,-0.17121452004624205,-0.054894668242697564,-0.19000356251187467,-0.3606558817834825,-0.1468866077893272
1784805813598773760,2.0023186206817627,-5.122462272644043,-3.00642991065979,8.535543441772461,-0.3552420437335968,0.26143282651901245,-0.8974719643592834,1.543764352798462,-2.5954020023345947,1.7369800806045532,0.9738908215976383,-0.1372734169300727,-0.1800556050918735,-0.01651103338025961,-0.26450636558160207,-0.3769022674492396,-0.08463452207803508
1784805813608693504,2.0122385025024414,-5.2805304527282715,-2.9394707679748535,8.779373168945312,-0.3555905222892761,0.33788374066352844,-0.8714298009872437,1.543884038925171,-2.623924970626831,2.0349888801574707,0.9670587623762014,-0.17030071705406,-0.18783703990445516,0.022631699950526756,-0.3446674930034117,-0.3874302347379324,-0.021469412297218576
1784805813618612736,2.022157669067383,-5.127933502197266,-2.8777964115142822,9.028624534606934,-0.347168505191803,0.4130905270576477,-0.8419205546379089,1.6202092170715332,-2.6172683238983154,2.067064046859741,0.9576030513936113,-0.20290724972682805,-0.19459794232228395,0.06290229314503544,-0.4258450597633148,-0.39110997693523003,0.045585838459398634
1784805813628532736,2.0320775508880615,-5.2450785636901855,-2.845768928527832,9.270076751708984,-0.3298424482345581,0.4859861433506012,-0.8093339800834656,1.763802409172058,-2.538491725921631,2.1255877017974854,0.9454294692951263,-0.2349701659182202,-0.20030486036647838,0.10406809689853345,-0.5074911523061166,-0.38699629026244914,0.11772101407874913
1784805813638451712,2.041996717453003,-5.677739143371582,-2.8085780143737793,9.695343017578125,-0.3031421899795532,0.5580878257751465,-0.7724266052246094,1.9876514673233032,-2.625180721282959,2.112133026123047,0.929972193782648,-0.26782291305606676,-0.2050794827355868,0.14616795179621173,-0.5920795723387288,-0.37398463600925874,0.196511583010925
1784805813648371712,2.0519165992736816,-6.341338157653809,-2.5516560077667236,10.059257507324219,-0.26895567774772644,0.6241382956504822,-0.7335627675056458,2.170200824737549,-2.921532154083252,2.270183801651001,0.9118243900133443,-0.2991129187882279,-0.20916522870464566,0.1880364236393212,-0.6740281254998696,-0.35142396107069973,0.28248307101872155
1784805813658290688,2.061835527420044,-6.804572582244873,-2.305969476699829,10.284531593322754,-0.21952499449253082,0.695004403591156,-0.6846734285354614,2.2334563732147217,-3.180172920227051,2.624462127685547,0.88840290797795,-0.3364857945855305,-0.21080937586091897,0.23038465205166955,-0.7684260289970335,-0.3102718788338076,0.3811777307410906
1784805813668210688,2.0717556476593018,-6.867368698120117,-2.194735527038574,10.471794128417969,-0.15929333865642548,0.7592856884002686,-0.6309603452682495,2.3634254932403564,-3.150627851486206,2.807779312133789,0.8610402277545044,-0.37426825351876397,-0.21081535059315917,0.27219467557785926,-0.8622147307628983,-0.24729425222142815,0.49815951980387335
1784805813678129664,2.081674575805664,-6.524273872375488,-2.317028522491455,10.656364440917969,-0.09028349071741104,0.8125475645065308,-0.5758605599403381,2.558346748352051,-2.9208240509033203,2.807961940765381,0.8303108849363042,-0.410144020120129,-0.20940774884449628,0.3138697208534699,-0.9485094811553824,-0.1555141884583371,0.6428734797701167
1784805813688048640,2.0915935039520264,-6.362136363983154,-2.617730140686035,10.8092041015625,-0.01496975589543581,0.8529886603355408,-0.5217148661613464,2.749894142150879,-2.803260087966919,2.607377529144287,0.7964141962141869,-0.44292539574249035,-0.20726711846374793,0.3557836133743437,-1.0216849065978153,-0.0286854951239839,0.8241878621459415
1784805813697968640,2.101513624191284,-7.047646522521973,-2.923821449279785,10.901671409606934,0.0650302991271019,0.8828523755073547,-0.4651266634464264,2.8390376567840576,-2.8768250942230225,2.260033369064331,0.7581659247552073,-0.4744824518141779,-0.20567708666209122,0.39717487239564625,-1.0819013983024013,0.13891156376006977,1.0486434188489937
1784805813707887616,2.1114325523376465,-8.264386177062988,-3.072383165359497,10.91378116607666,0.1488351672887802,0.9041563272476196,-0.40043655037879944,2.8333120346069336,-3.1238064765930176,2.07000732421875,0.7138793113637709,-0.5072958688480771,-0.2059918251193021,0.43657143307078194,-1.129400732424072,0.3558588133119466,1.32460881786542
1784805813717807872,2.1213526725769043,-9.09941291809082,-3.155294418334961,10.798676490783691,0.23573310673236847,0.9149633646011353,-0.3275240957736969,2.75750732421875,-3.2383275032043457,2.1083927154541016,0.6634653630372697,-0.5412406571640644,-0.2080781126181395,0.47283804195294815,-1.1554170965518813,0.6238536256699851,1.652750467355505
1784805813727726592,2.1312716007232666,-8.877008438110352,-3.3346500396728516,10.369161605834961,0.3227480351924896,0.9117680191993713,-0.25399404764175415,2.673147439956665,-3.0344486236572266,2.196086883544922,0.6091501152770017,-0.5731137132910639,-0.21105365371505388,0.5058985241156463,-1.1475685659192154,0.9040492034358316,1.9943073267761087
1784805813737646848,2.1411917209625244,-2.1598241329193115,-1.635545253753662,23.902061462402344,0.4424617290496826,0.8733953237533569,-0.2034902423620224,2.5551273822784424,-2.29864239692688,2.0984487533569336,0.5518213374458948,-0.6009075590002447,-0.19278222010280174,0.54519569446207,-1.0621310232132943,1.1397362317941724,2.2786474297089496
1784805813747565824,2.1511106491088867,-2.369915723800659,-14.408377647399902,4.0762176513671875,0.531122088432312,0.8190543055534363,-0.2169319987297058,10.502721786499023,5.949622631072998,4.575925350189209,0.48999080270021994,-0.5946821666900997,-0.1946461393748786,0.6069390834840659,-0.9597606682306752,1.1830345106385594,2.4558963986232807
1784805813757484800,2.161029577255249,0.03493963181972504,-4.479818820953369,3.280852794647217,0.5316200852394104,0.8045592904090881,-0.2646966278553009,0.10195529460906982,0.4399322271347046,3.1337151527404785,0.4773754990000703,-0.5710244399747219,-0.20391854728493516,0.6359723620191391,-0.9349329727710025,1.108825623651341,2.4596688854556374
1784805813767404800,2.170949697494507,-2.1262621879577637,2.1311025619506836,8.848215103149414,0.5748270153999329,0.7788654565811157,-0.25088346004486084,0.48062342405319214,3.762974262237549,2.587202548980713,0.4501073915856424,-0.5790812878255782,-0.1980483052489755,0.6502653957746724,-0.8928548496325276,1.159267239739263,2.5379801724154833
1784805813777323776,2.180868625640869,2.66428542137146,1.2670830488204956,2.3340961933135986,0.6219622492790222,0.7440963387489319,-0.2438923567533493,-2.0027759075164795,3.958662509918213,0.5189778804779053,0.43711337091418634,-0.5896962373478891,-0.1741038987243999,0.6564129758999182,-0.8391811774675606,1.1970895743096395,2.5572964097185036
1784805813787243520,2.190788507461548,0.38335558772087097,2.6855618953704834,0.4235652685165405,0.6329125165939331,0.7345278263092041,-0.24472559988498688,-0.5203942656517029,0.6416776180267334,-0.21341954171657562,0.4411119073277721,-0.592874618690375,-0.1616690561918588,0.6540512696793779,-0.8249705680205679,1.2018375532893852,2.5377193428100737
1784805813797162752,2.2007076740264893,-7.303065776824951,5.795794486999512,-0.23901216685771942,0.6423964500427246,0.7406259775161743,-0.19697749614715576,2.4494309425354004,-0.5272012948989868,0.5491045713424683,0.4357588914677687,-0.6126826153970117,-0.16165168049207237,0.6392206506713212,-0.834001511907484,1.2732688688328706,2.5779059264860704
1784805813807082752,2.210627555847168,-12.72895336151123,4.903386116027832,-2.5992305278778076,0.6387763023376465,0.7649133801460266,-0.08289863914251328,3.5191216468811035,-0.6115321516990662,1.793729305267334,0.41257233018110606,-0.6508288777770767,-0.18700923535510555,0.6092891762864935,-0.8709068432090771,1.4417403729900287,2.727234211612738
1784805813817001728,2.2205467224121094,-11.385612487792969,-1.2222256660461426,-0.3147372901439667,0.6262253522872925,0.7793141603469849,0.022605130448937416,4.9171857833862305,-0.3043540120124817,1.8465964794158936,0.3787091676581261,-0.678441407442921,-0.2258756778348503,0.5876024967148311,-0.8935706288805921,1.6068780977809263,2.9186086880588986
1784805813826921728,2.230466604232788,-6.498342990875244,-3.0376267433166504,2.1545634269714355,0.6371545791625977,0.7668430805206299,0.07736804336309433,5.573050498962402,1.9959285259246826,0.27958083152770996,0.3412937021250026,-0.6891941394211482,-0.2523795975806469,0.5872262163499494,-0.8739079919327112,1.6916321821538,3.0589913183808033
1784805813836840704,2.2403855323791504,-1.4743447303771973,-2.3237948417663574,1.6308201551437378,0.6555148363113403,0.7499567270278931,0.0886869952082634,2.873843193054199,3.8653998374938965,-0.7541379928588867,0.3178821076868108,-0.6899383762247461,-0.26139727132165336,0.595489325081482,-0.8479966176189068,1.7052734328673083,3.1145369947642827
1784805813846759680,2.250304698944092,1.1228001117706299,-4.37839412689209,-0.2811141014099121,0.6628444790840149,0.7456174492835999,0.06849687546491623,-0.5487850308418274,4.696139812469482,-0.5647584199905396,0.31039371921385694,-0.680947225484675,-0.2656300307686151,0.6077888639566738,-0.8414609174576524,1.673768601762435,3.1182588619844482
1784805813856679680,2.2602245807647705,3.956505060195923,-4.25960111618042,-3.46349835395813,0.6404097676277161,0.7677647471427917,0.020319700241088867,-1.4332563877105713,3.634045124053955,0.45685315132141113,0.3239443468667477,-0.659424557068931,-0.27444326196314733,0.6204033893224338,-0.8753452719127658,1.602514902995731,3.079118624665355
1784805813866598656,2.270143508911133,2.7045531272888184,-1.0426223278045654,-2.681401491165161,0.6204109787940979,0.7837266325950623,-0.02937367744743824,-2.013935089111328,-0.21541303396224976,-0.0877223014831543,0.3380412844830042,-0.6387551828404896,-0.2780377277639498,0.6327834815967143,-0.9006432654263166,1.523486143133142,3.024407705134215
1784805813876518656,2.2800636291503906,0.7336400747299194,3.458714246749878,-1.3731199502944946,0.6060692071914673,0.7946997880935669,-0.03365001827478409,-0.9567009210586548,-0.9534828066825867,1.1973615884780884,0.35279104037790515,-0.6385122635885382,-0.27473092198631816,0.6263892502324933,-0.9185128646093373,1.5153315301275054,2.990890232531873
1784805813886437632,2.289982557296753,-1.7609140872955322,2.8400330543518066,-2.498469591140747,0.5912630558013916,0.8064465522766113,-0.007186597213149071,0.21151697635650635,-0.14284193515777588,1.010162115097046,0.3625389123813921,-0.6484075184540196,-0.2756345250346726,0.6100481075871832,-0.9381177699396014,1.5586422727973739,2.997539382326611
1784805813896357888,2.2999026775360107,-2.0513086318969727,0.3341177701950073,-2.359544038772583,0.5705521106719971,0.8210414052009583,0.019009387120604515,0.24934840202331543,0.990329384803772,0.7383606433868408,0.364563632379242,-0.6529161909217831,-0.28845301408757346,0.5979871945384618,-0.9632328944205482,1.6041015389489173,3.037462137685984
1784805813906276608,2.309821605682373,1.1506761312484741,-0.3164812922477722,-0.8626013994216919,0.5578538179397583,0.8296345472335815,0.02248724177479744,0.7928847074508667,1.8499003648757935,0.2854350805282593,0.36757167981369204,-0.6513430299257963,-0.29495063701873214,0.5946826662181576,-0.9784528254731345,1.611084791292009,3.0466115127433726
1784805813916195584,2.3197405338287354,3.5278263092041016,-0.031608011573553085,-0.7095300555229187,0.5520725846290588,0.8337959051132202,0.00043844562605954707,0.7089289426803589,2.0644278526306152,0.11691689491271973,0.3774814751169204,-0.6450190908520935,-0.2901199669856827,0.5977361321593284,-0.9859481077684843,1.5715905077001482,3.0016569555468
1784805813926115840,2.329660654067993,3.4260001182556152,-0.07433317601680756,-1.4941781759262085,0.5428544878959656,0.8393344283103943,-0.028753314167261124,0.05574774742126465,1.9125423431396484,0.3977413773536682,0.391935673729831,-0.6367151422970981,-0.28322635977567057,0.6006355827427876,-0.9960576967773919,1.5178788897366995,2.9375512757910585
1784805813936034560,2.3395795822143555,3.6106443405151367,-0.1041983962059021,-1.6194641590118408,0.5293871760368347,0.8463199734687805,-0.05908970907330513,-0.496351957321167,0.9086237549781799,0.439399778842926,0.4070960140153577,-0.6268077087897982,-0.2785089611517002,0.6031729760357074,-1.0090383654584028,1.45963735752916,2.871837260795699
1784805813945954816,2.3494997024536133,2.4013421535491943,0.817377507686615,-0.7886641621589661,0.5188153982162476,0.8509464859962463,-0.08198016881942749,-0.5065015554428101,0.46158403158187866,0.3488869071006775,0.4206308367321291,-0.6201350660175547,-0.272841376831323,0.6033737133914235,-1.0177846493562774,1.4140779599380984,2.813616973558422
1784805813955873792,2.3594186305999756,2.398892402648926,0.6229971051216125,-1.346877098083496,0.5102675557136536,0.8546813130378723,-0.09563980251550674,-0.5203688740730286,0.3222748637199402,0.13546526432037354,0.43153651156799644,-0.6166850186656445,-0.2681038732946102,0.6013286637071624,-1.0249366273935705,1.3855153234824575,2.770382738926606
1784805813965793536,2.3693385124206543,2.4061026573181152,1.1437067985534668,-2.0255751609802246,0.4999498426914215,0.8583521246910095,-0.11524653434753418,-0.2557329535484314,0.2893834114074707,-0.4569885730743408,0.4447035524328723,-0.611187425406549,-0.2623483610105269,0.5998849993605593,-1.032049153379956,1.34423772987832,2.7137920439184646
1784805813975712768,2.3792576789855957,2.7158515453338623,1.3995604515075684,-1.9840121269226074,0.48293396830558777,0.8662157654762268,-0.128237783908844,-0.32737064361572266,1.0109508037567139,0.1272154599428177,0.45966242974771127,-0.6071654105901745,-0.25928994268053784,0.5939943520059833,-1.0475784267673063,1.3112470716781768,2.660525540524511
1784805813985632768,2.3891775608062744,3.2209503650665283,-0.8705825805664062,-1.500136137008667,0.4690098166465759,0.8698095679283142,-0.1531699001789093,-0.11056563258171082,0.834108829498291,-0.4339425563812256,0.47487345896041694,-0.5991721577565028,-0.25378687407170164,0.592520125283446,-1.0548162268024894,1.255134749106735,2.5898495861788695
1784805813995551744,2.399096727371216,2.2370803356170654,-0.07706022262573242,-1.223343849182129,0.455282598733902,0.8715890049934387,-0.18179824948310852,-0.07324826717376709,0.8214958310127258,-0.032755568623542786,0.48694561310242057,-0.5882703805438249,-0.2510753536141269,0.5947968137304581,-1.0584343337257422,1.1908861451838175,2.5240425614608566
1784805814005470720,2.409015655517578,1.1592183113098145,0.6911186575889587,-1.103331446647644,0.4438091516494751,0.8753703832626343,-0.19172926247119904,-0.7389599084854126,0.22361332178115845,0.6683070063591003,0.4948574912976594,-0.5841194274008241,-0.2508781824427785,0.5924362484635431,-1.0662014565286682,1.1630045394721715,2.4898291028932893
1784805814015390720,2.418935537338257,2.577188730239868,0.9208421111106873,-0.9726346731185913,0.4354996979236603,0.8760462403297424,-0.2070818841457367,-0.30251941084861755,-0.5424281358718872,-0.3768414556980133,0.505051181181009,-0.5795194734839753,-0.24620365049741966,0.5903085456334899,-1.06760113227762,1.1269367912492907,2.4409056521467907
1784805814025309696,2.4288547039031982,1.623450517654419,-0.579790472984314,-0.9291158318519592,0.42946016788482666,0.8744209408760071,-0.22572535276412964,0.15064844489097595,0.40826332569122314,-0.37235814332962036,0.5137943687470753,-0.5734866070526774,-0.24135127018680355,0.5906589766754404,-1.0642410608740607,1.0868771090441087,2.3932203039720084
1784805814035229696,2.438774585723877,2.9898276329040527,0.03232535719871521,-1.3848146200180054,0.4158908724784851,0.87626713514328,-0.24329139292240143,0.6457393765449524,0.6072227954864502,0.15120458602905273,0.5224560881275008,-0.5657506460940805,-0.24141356568645367,0.5904958679141852,-1.0680594846289169,1.041487786966279,2.3468926344407337
1784805814045148672,2.4486935138702393,3.4335079193115234,1.4846043586730957,-1.3733242750167847,0.4056622087955475,0.8739489316940308,-0.26767805218696594,0.8277209997177124,0.18705570697784424,-0.16234517097473145,0.5375599735931852,-0.5585227501331942,-0.23283753204178267,0.5872549359472239,-1.0632689760720966,0.9875246629632486,2.272224826975536
1784805814055068672,2.458613634109497,4.454121112823486,0.2761140465736389,-1.1612671613693237,0.3948919177055359,0.8691038489341736,-0.29785725474357605,1.1172235012054443,0.21626907587051392,0.11328697204589844,0.5537674388799122,-0.548834173145497,-0.2232765540736605,0.5850387369702708,-1.0533876776164732,0.9245645860337174,2.1897564548136716
1784805814064987648,2.4685325622558594,4.050848007202148,-0.3017117381095886,-0.6371382474899292,0.3877934515476227,0.8586487770080566,-0.3351696729660034,1.4608088731765747,-0.09728085994720459,0.03043636679649353,0.568268048045449,-0.5359664372777807,-0.21249739164799736,0.5870744596571802,-1.0326276368855176,0.8580590476561722,2.1114899581869193
1784805814074907904,2.478452682495117,4.382019996643066,-0.10782483220100403,-0.3714812994003296,0.3803789019584656,0.8473629951477051,-0.37052395939826965,0.8594282865524292,0.00036966800689697266,0.4906563460826874,0.581042134925068,-0.5228895190570815,-0.20328446343231754,0.5896203259434986,-1.0109994469208425,0.7985215370189245,2.044267734946077
1784805814084826624,2.4883716106414795,4.189565658569336,-0.44332337379455566,0.8771616816520691,0.38300397992134094,0.828224778175354,-0.4090861976146698,1.042212724685669,-0.33915019035339355,0.3443737030029297,0.5913166829133445,-0.5094848556220545,-0.1894256821113484,0.5957243852571039,-0.9759324433663178,0.7524817182687066,1.9916124015986192
1784805814094745600,2.498290538787842,2.2675747871398926,-0.2602723240852356,0.3816693425178528,0.3844602108001709,0.8135923743247986,-0.4361852705478668,0.2686159610748291,-0.28209835290908813,0.5580878257751465,0.5965206915964792,-0.4990459713227835,-0.181274588617552,0.601876706197664,-0.9503041748657652,0.7224516832739564,1.9636801315233259
1784805814104665856,2.5082106590270996,1.8668212890625,-1.2237015962600708,-0.7483293414115906,0.3806951642036438,0.8046685457229614,-0.45560920238494873,0.2678644061088562,-0.6014825105667114,0.44697272777557373,0.601232715037409,-0.49065890521358674,-0.1773393383130315,0.605246933852374,-0.935117006143962,0.6960591470694472,1.939785117354887
1784805814114584576,2.518129587173462,1.2682337760925293,-0.6820966005325317,-0.0981401652097702,0.3695301413536072,0.8008323907852173,-0.4712909460067749,-0.10733839869499207,-0.30429607629776,0.1352771520614624,0.6060044034963223,-0.4822968480821375,-0.17816925149800122,0.6069631756624109,-0.9286837986344005,0.6649584264866721,1.914886006655591
1784805814124504832,2.5280497074127197,1.9720698595046997,-0.26337867975234985,-0.17258113622665405,0.3647328317165375,0.7934398651123047,-0.48726096749305725,-0.24359333515167236,0.3798389434814453,-0.09184062480926514,0.6097024109348428,-0.474824137464265,-0.17581682858456615,0.6098307647663658,-0.9164400025660564,0.6425641128057081,1.8964138037432328
1784805814134423808,2.537968635559082,2.5164663791656494,0.082063689827919,-1.0217945575714111,0.35835567116737366,0.786138653755188,-0.5035547018051147,-0.42898860573768616,0.269342303276062,-0.23252928256988525,0.6169653531878526,-0.46777975486235923,-0.17147817088894926,0.6092053313741375,-0.9045362766578298,0.6185033252367507,1.8661450767736252
1784805814144343552,2.5478885173797607,2.730301856994629,-0.011952665634453297,-0.009816264733672142,0.3507770001888275,0.7756408452987671,-0.5247254371643066,0.12650266289710999,0.12641292810440063,-0.29432058334350586,0.6249937492449333,-0.45820886078536416,-0.16637886587848646,0.6097094035205611,-0.8877298169404341,0.5892681959793263,1.8326643398533589
1784805814154262784,2.557807683944702,2.8148117065429688,-0.4896526336669922,-0.8081960082054138,0.34647059440612793,0.7629284858703613,-0.545800507068634,0.6024124622344971,0.06061887741088867,-0.2392030954360962,0.6322155416871186,-0.44895544409437854,-0.15980846355890074,0.6109040386687711,-0.8678309671148846,0.5656108178101453,1.8042068394576913
1784805814164182784,2.567727565765381,3.208404064178467,-0.890114426612854,0.025531405583024025,0.33837008476257324,0.7474811673164368,-0.57164466381073,0.42391321063041687,-0.36012154817581177,-0.08358299732208252,0.6397630093241065,-0.4363838435525037,-0.15409995867048654,0.6136169001874375,-0.8442621279814719,0.5344599546893698,1.7737777410799005
1784805814174101504,2.577646493911743,3.3388547897338867,-0.7584728002548218,0.3548179566860199,0.3348287045955658,0.7278547883033752,-0.5984289050102234,0.4161936342716217,-0.26560503244400024,-0.2541254162788391,0.6456440894208257,-0.42352642206386254,-0.14632471513383902,0.6183511120537906,-0.8151883410806088,0.5101174403637744,1.7518329402084636
1784805814184021760,2.587566614151001,3.374528408050537,-0.32745033502578735,-0.48657190799713135,0.33133164048194885,0.7076171040534973,-0.6240971684455872,0.32494887709617615,-0.10117185115814209,-0.20512640476226807,0.6520749187736626,-0.4109962294158068,-0.13796198745806038,0.6219701096094226,-0.7861201673758792,0.48805900371858046,1.7292996500151456
1784805814193940736,2.5974855422973633,3.1363017559051514,-0.6237030029296875,0.04045356437563896,0.32555675506591797,0.6878554821014404,-0.6487431526184082,0.12431812286376953,-0.01158595085144043,-0.1753535270690918,0.6595728114898749,-0.3983807496544699,-0.1300815329789782,0.6239674346884415,-0.7585304282427938,0.46510803854080907,1.7035624909400695
1784805814203859712,2.6074047088623047,2.578421115875244,-1.195654034614563,0.9878180027008057,0.32266026735305786,0.6671399474143982,-0.6714273691177368,0.5633412599563599,-0.2776746153831482,-0.11977136135101318,0.662651930559816,-0.3860665808407871,-0.12344603684168566,0.6297667426122001,-0.7303628092289318,0.44797398769735985,1.693676316300736
1784805814213779712,2.6173245906829834,1.661629319190979,-1.608173131942749,0.1567530483007431,0.31704795360565186,0.6516333222389221,-0.6890970468521118,0.14207372069358826,-0.38953304290771484,-0.015416502952575684,0.6634070839492263,-0.3753049773822518,-0.12082079054420211,0.6359557248551079,-0.709735693298261,0.431214592375152,1.6905057938879529
1784805814223698688,2.6272435188293457,1.8507763147354126,-1.2960381507873535,-0.11582695692777634,0.3053033947944641,0.6391115784645081,-0.7059223055839539,0.2198583483695984,-0.19971948862075806,0.014500737190246582,0.6666206893019679,-0.36414040151768984,-0.12016917036727372,0.6392011222474231,-0.6933425996020869,0.4081964921844978,1.678076623773823
1784805814233618688,2.6371636390686035,1.6487928628921509,-0.9707553386688232,0.25260409712791443,0.2988806962966919,0.6263394951820374,-0.7199786305427551,0.4044884145259857,0.043948590755462646,0.005867302417755127,0.6680180905902907,-0.355035955505599,-0.1181531253221492,0.6432271872917716,-0.6768486308879035,0.39347629841437576,1.6730634378781823
1784805814243537664,2.647082567214966,2.842806816101074,-0.5745849013328552,-0.2556982636451721,0.2917919158935547,0.6103712320327759,-0.7364132404327393,0.20117375254631042,0.20194566249847412,0.020821869373321533,0.6714999254150896,-0.3445936274748648,-0.11423051801333235,0.6459833553331985,-0.6565291462296119,0.37725557129746734,1.6619173376024576
1784805814253457664,2.6570026874542236,3.1308817863464355,-0.8992122411727905,0.0578274242579937,0.2858651876449585,0.5886031985282898,-0.756192684173584,0.18926295638084412,0.3076217770576477,-0.22740411758422852,0.6762849060888961,-0.3322456084672762,-0.1073150028790954,0.6486409742928897,-0.6293299368773951,0.36142639553928674,1.6478676697422934
1784805814263376640,2.666921615600586,3.446669101715088,-1.149196743965149,0.2391439527273178,0.27880725264549255,0.562869131565094,-0.7781033515930176,0.40544262528419495,-0.03042900562286377,-0.5314822196960449,0.6803144002624185,-0.31772596635125433,-0.09999263195654409,0.6528583771461107,-0.5978529728295333,0.3440644166122084,1.6365965755465675
1784805814273296640,2.6768414974212646,2.1578474044799805,-1.444838285446167,0.025793593376874924,0.26906514167785645,0.5401331186294556,-0.797408401966095,0.37149882316589355,-0.41240179538726807,-0.516495406627655,0.6836642768047028,-0.30375708507724075,-0.09501278855867273,0.6567399513831335,-0.5705952849425439,0.3254280684981456,1.6268530143065756
1784805814283215872,2.686760663986206,-0.09810923039913177,-1.3981374502182007,-0.02356133796274662,0.2578677237033844,0.5324408411979675,-0.8062326312065125,0.3610134720802307,-0.26969975233078003,-0.14825046062469482,0.6845645608365839,-0.2959006273662161,-0.09657388842135164,0.6591568635739466,-0.5614815305558508,0.30956038718318,1.6229068603148147
1784805814293134592,2.6966795921325684,-0.3808983266353607,-1.601730227470398,-0.17349012196063995,0.24536409974098206,0.5338727235794067,-0.8091825246810913,0.18142423033714294,-0.13949406147003174,0.11512124538421631,0.6840653207039583,-0.2914788198087644,-0.102219494499793,0.6607919535807373,-0.5631740451282461,0.2944125581293477,1.6219226741218218
1784805814303054848,2.706599712371826,-0.7851190567016602,-1.6634281873703003,-0.4076569378376007,0.2307145744562149,0.5402597188949585,-0.809252917766571,0.016340479254722595,0.170265793800354,0.16453850269317627,0.6829859344311844,-0.28835526696353836,-0.11056579624371327,0.6619340639090846,-0.5707457147208846,0.27772773543571794,1.6214549630667525
1784805814312973824,2.7165186405181885,-0.3033939301967621,-1.1194394826889038,-0.3648463487625122,0.2172105461359024,0.5454957485198975,-0.8094775676727295,0.043089136481285095,0.15172410011291504,0.03890872001647949,0.6825861490368932,-0.28529497946495697,-0.11776239702091573,0.6624310481270296,-0.5769804946703173,0.26215859570837197,1.619037903438215
1784805814322893568,2.726438522338867,-0.3746335506439209,-0.7523127794265747,-0.527394711971283,0.2071085125207901,0.5489954352378845,-0.809759259223938,0.1439046561717987,0.259125292301178,-0.006189227104187012,0.6831985992057199,-0.2829985319911827,-0.12260582702336083,0.661905863708629,-0.5811618764588166,0.2503976449956375,1.6143779316348366
1784805814332812800,2.7363576889038086,0.706622302532196,-1.095639944076538,-0.33931079506874084,0.19773517549037933,0.5486876368522644,-0.8123070001602173,0.3032413721084595,-0.010739028453826904,-0.061045050621032715,0.6843064362229488,-0.27937678373560004,-0.12567857693359513,0.6617237174673181,-0.5807936859348599,0.23878014507087414,1.6089135499502216
1784805814342732544,2.7462775707244873,1.082391381263733,-1.1494665145874023,-0.5960843563079834,0.18500661849975586,0.5431948304176331,-0.8189700245857239,0.28452157974243164,0.017092585563659668,-0.2809903025627136,0.6863450817188661,-0.2723065738701481,-0.12792235377974706,0.6621293907498597,-0.5742376276947169,0.22217241035408616,1.6007343441838133
1784805814352651520,2.7561964988708496,3.1730215549468994,-0.9984428882598877,0.2740266025066376,0.17583878338336945,0.525609016418457,-0.8323556184768677,0.14923445880413055,0.12195873260498047,-0.4921377897262573,0.689019188308814,-0.2614025473178612,-0.12446248005465053,0.6644022081614015,-0.5534308551322217,0.2081933112837524,1.593747173597457
1784805814362571776,2.7661166191101074,3.7338013648986816,-1.3350993394851685,0.13151580095291138,0.16759909689426422,0.49550873041152954,-0.8522802591323853,0.19728432595729828,0.32332366704940796,-0.6028741598129272,0.6921008431096548,-0.2456499806922489,-0.11625813001382489,0.6686827121303901,-0.518420410957538,0.19417028050398683,1.5880213482002843
1784805814372490752,2.7760355472564697,2.223114490509033,-1.2326232194900513,0.07169241458177567,0.15618260204792023,0.46922948956489563,-0.8691551685333252,0.16072717308998108,-0.00243261456489563,-0.1602637767791748,0.6945823612644142,-0.2305517334379604,-0.11076241107191621,0.6724083756200855,-0.4884180355340792,0.177797227240138,1.5827709462110153
1784805814382410752,2.7859556674957275,1.6949503421783447,-1.209688663482666,-0.2663991451263428,0.14571912586688995,0.45331260561943054,-0.879359781742096,0.12950366735458374,-0.41894981265068054,0.22365909814834595,0.6961645789753242,-0.2202222664305371,-0.10873025423922204,0.6745626290804206,-0.4704782376566352,0.1642181775372161,1.578722770826534
1784805814392329728,2.79587459564209,0.9390191435813904,-1.4163752794265747,-0.03742935135960579,0.13236817717552185,0.4430856704711914,-0.8866531252861023,0.09662045538425446,-0.2287149429321289,0.001185595989227295,0.6971633509985463,-0.2111753632450705,-0.10990176227619629,0.6762321568775189,-0.45903773240045254,0.14819520555247473,1.5750015982425247
1784805814402248704,2.805793523788452,1.268221139907837,-1.1212834119796753,-0.31657305359840393,0.12047275900840759,0.43322810530662537,-0.8931963443756104,0.2615310251712799,-0.06864985823631287,-0.008216619491577148,0.6985895330819255,-0.20295314388004743,-0.11050718472421861,0.6771786864749608,-0.44807137831628024,0.13406915380346818,1.5702658661077395
1784805814412168704,2.81571364402771,1.0065492391586304,-1.2647924423217773,0.151978999376297,0.10987992584705353,0.4225492477416992,-0.8996546864509583,0.21145492792129517,-0.08256816864013672,0.07214003801345825,0.699180426569347,-0.19479394497957314,-0.11058021064443492,0.6789506830899024,-0.4362561641206529,0.12153374425572804,1.5684102684814378
1784805814422087680,2.8256325721740723,0.38534170389175415,-0.8322810530662537,0.08789920806884766,0.10112922638654709,0.4159370958805084,-0.903752863407135,0.12045890837907791,-0.20719686150550842,0.1656699776649475,0.6987830756327946,-0.18884030842544047,-0.11163743288528341,0.6808660830078443,-0.4289730345457827,0.11143563685010038,1.5691233098060615
1784805814432007680,2.83555269241333,-0.7593467235565186,-0.9354234337806702,0.13620494306087494,0.09293068200349808,0.41817936301231384,-0.9035983085632324,0.12467490881681442,-0.16224369406700134,0.17927885055541992,0.6973859534743978,-0.1865065040379826,-0.11582817046164218,0.6822404353845146,-0.4314400822816015,0.10248480379795392,1.5713174562143815
1784805814441926656,2.8454716205596924,-0.5945279002189636,-0.9700900912284851,-0.3504987955093384,0.08395566791296005,0.4245879352092743,-0.9014857411384583,0.29850587248802185,0.07629707455635071,0.16469985246658325,0.6966478837767615,-0.18567825362860169,-0.12157597474483203,0.6822203303614603,-0.43850670355380045,0.09286247894816459,1.5705776203069595
1784805814451846656,2.855391502380371,-0.4469086229801178,-0.9587506055831909,-0.16984164714813232,0.07375653833150864,0.42957717180252075,-0.9000129699707031,0.33347001671791077,0.24284711480140686,0.0221596360206604,0.6965765941900648,-0.18395516180661295,-0.12709838174791058,0.681753228713421,-0.4440245060984439,0.08176780099058056,1.5677553744027364
1784805814461765888,2.8653106689453125,0.12950609624385834,-0.9316409826278687,-0.36431095004081726,0.06382276862859726,0.4313991665840149,-0.8999007940292358,0.23791980743408203,0.2768985629081726,0.07626187801361084,0.6967709554263081,-0.18110551219514517,-0.13134080303562196,0.6815134327668138,-0.4460431060686451,0.07080344922868578,1.564721466568455
1784805814471685632,2.875230550765991,0.16116681694984436,-0.9010042548179626,-0.275041788816452,0.05474988371133804,0.42982691526412964,-0.9012498259544373,0.18360765278339386,0.28286534547805786,-0.016947805881500244,0.697266529473796,-0.17726026777795217,-0.13399209100986942,0.6815015166615763,-0.4443010881658201,0.06067427559242288,1.561638089440099
1784805814481604864,2.8851497173309326,0.6908472776412964,-0.6291736960411072,-0.14211907982826233,0.04682552069425583,0.4266371428966522,-0.903209924697876,0.17741765081882477,0.21382001042366028,0.05498909950256348,0.6979454822411169,-0.1732243151837603,-0.13560377659237635,0.6815255870698921,-0.4407712668711212,0.05179707985652074,1.5585977253250778
1784805814491524608,2.8950695991516113,0.9974106550216675,-0.8102761507034302,-0.15409797430038452,0.03958187624812126,0.41846901178359985,-0.9073681831359863,0.29730165004730225,0.23314231634140015,-0.10094785690307617,0.6985442864110192,-0.16741982370777164,-0.13522766964265226,0.6824368349584621,-0.4317589789293197,0.04359509208981713,1.5570316232695027
1784805814501443584,2.9049885272979736,1.1643621921539307,-0.777658998966217,-0.36184918880462646,0.03167228400707245,0.4093096852302551,-0.9118456244468689,0.18011970818042755,0.25926944613456726,0.029078900814056396,0.6999187816791435,-0.16115589062695093,-0.1345583872480109,0.6826687140136761,-0.4216973227867198,0.034720302369653275,1.5532762623496121
1784805814511362816,2.914907693862915,1.1135791540145874,-0.7560737729072571,-0.11967382580041885,0.024162834510207176,0.3990592956542969,-0.9166067242622375,0.26389259099960327,0.13690567016601562,0.05630093812942505,0.7009089479539156,-0.15455283682133453,-0.13345437830515697,0.683395966856979,-0.4104906881577242,0.02635507709881679,1.5509823490786165
1784805814521283584,2.92482852935791,0.9924517273902893,-0.6676376461982727,0.11020085215568542,0.017897265031933784,0.3897600769996643,-0.9207425117492676,0.16258367896080017,-0.0033312439918518066,0.14837312698364258,0.7011164859569039,-0.14865154965286947,-0.13240641127593836,0.684694851760366,-0.4003710558151783,0.019435414394878902,1.5510415110277498
1784805814531202560,2.9347474575042725,1.0941499471664429,-0.5750635266304016,0.2192796766757965,0.01253457646816969,0.38005173206329346,-0.9248802661895752,0.03203634172677994,-0.029572635889053345,0.07272273302078247,0.7011778985266397,-0.14290985601717998,-0.13090693453995403,0.6861411823324619,-0.3898522360134959,0.013551817837867743,1.5517954405920928
1784805814541122560,2.944667339324951,0.5880759358406067,-0.7920374274253845,-0.023298151791095734,0.006767668761312962,0.3719913363456726,-0.928211510181427,0.1416698396205902,-0.12412756681442261,0.040973961353302,0.70107651107693,-0.13766481365734926,-0.13016388346279892,0.6874572600143974,-0.38115340390810976,0.0072909552620633485,1.552586776565649
1784805814551041536,2.9545865058898926,0.9423104524612427,-0.7189294099807739,0.07549020648002625,0.00021085226035211235,0.365252822637558,-0.9309083223342896,0.28187838196754456,-0.14322218298912048,0.04667675495147705,0.7010239311851985,-0.13268168185374402,-0.1301591567169794,0.6884907439967123,-0.37390437034840257,0.00022650163819809964,1.5527998832188328
1784805814560961536,2.9645063877105713,0.8100510835647583,-0.6019136309623718,0.14164838194847107,-0.005717246327549219,0.3570336103439331,-0.9340740442276001,0.2157239466905594,-0.16913685202598572,-0.0629047155380249,0.7007975306194524,-0.12732918389551426,-0.12942275993549834,0.6898695538775188,-0.36509025098874365,-0.00612068724638164,1.553950765190969
1784805814570880768,2.9744255542755127,0.7939498424530029,-0.6661480069160461,0.3342769742012024,-0.010510263964533806,0.349583238363266,-0.9368463754653931,0.17680056393146515,-0.05164012312889099,-0.040738463401794434,0.7000299417412483,-0.12259584556818938,-0.1286354651244248,0.691651048115507,-0.35712623394140136,-0.011218299802184669,1.5567302218891068
1784805814580800512,2.9843454360961914,0.7259520292282104,-0.7029479742050171,0.46654585003852844,-0.015601455233991146,0.34244242310523987,-0.9394092559814453,0.12099390476942062,-0.11589521169662476,-0.1913433074951172,0.6987866208731236,-0.11780360660687636,-0.1281314770055895,0.6938313408415772,-0.34951528310277413,-0.016606202846505623,1.5607478648716873
1784805814590719488,2.9942643642425537,0.18937620520591736,-0.5947937965393066,0.47197842597961426,-0.02028733119368553,0.3383663296699524,-0.9407957792282104,0.12778550386428833,-0.2626522183418274,-0.20442211627960205,0.6966308224781911,-0.11417297577304175,-0.12871151880470943,0.6964935878640426,-0.34518027390544354,-0.021560670929883768,1.5668405562960674
1784805814600639488,3.0041844844818115,0.2199169397354126,-0.6487093567848206,0.20621299743652344,-0.025056248530745506,0.3366103172302246,-0.9413106441497803,0.11093271523714066,-0.3642134666442871,-0.17869973182678223,0.6954360962907739,-0.11157663570963439,-0.12998208311321832,0.6978710859012811,-0.343314818591527,-0.026612186382766523,1.5696778534589337
1784805814610558464,3.014103412628174,-0.28561148047447205,-0.6564722061157227,0.45241692662239075,-0.030106784775853157,0.3369936943054199,-0.94102543592453,0.1462109088897705,-0.3163790702819824,-0.26657038927078247,0.6937614486004312,-0.10959955883323794,-0.13219390591963792,0.6994338680567385,-0.34372197912373825,-0.03198268405005498,1.573387493087837
1784805814620478720,3.0240235328674316,-0.032185543328523636,-0.8224676251411438,0.43397775292396545,-0.03557214140892029,0.3386251926422119,-0.9402486681938171,0.16585169732570648,-0.2074911892414093,-0.24319243431091309,0.691520717323422,-0.10783001563884909,-0.13508644361761457,0.7013724631147659,-0.34545539467459513,-0.03781466021638296,1.5783435643073116
1784805814630397440,3.033942461013794,0.11633867770433426,-0.8635154366493225,0.2893467843532562,-0.042383767664432526,0.3387509286403656,-0.939920961856842,0.08585606515407562,0.005166918039321899,-0.33928436040878296,0.6897102859669564,-0.10507783970700654,-0.13783384823319053,0.7030363373768981,-0.3455890312575761,-0.0450623789905161,1.5820657320731744
1784805814640316416,3.0438613891601562,0.4364253580570221,-0.9541929364204407,0.1433829367160797,-0.05042463541030884,0.335915207862854,-0.9405415058135986,0.07430464774370193,0.092429518699646,-0.35622668266296387,0.6885482547641282,-0.10088679113156386,-0.13982526246231503,0.7043947203026296,-0.3425767242976454,-0.053561066975314625,1.5842803746973302
1784805814650236672,3.053781509399414,0.4355055093765259,-1.0809062719345093,0.16069269180297852,-0.0595942921936512,0.33176156878471375,-0.9414790272712708,0.108559750020504,0.059458523988723755,-0.29668015241622925,0.6875954564675144,-0.09583653588281035,-0.1416892408279594,0.7056571018731684,-0.33817029438627344,-0.06321424943288963,1.5859269982150692
1784805814660155648,3.0637004375457764,0.4645371437072754,-1.14817214012146,0.2656654715538025,-0.06909386068582535,0.32772791385650635,-0.9422422647476196,0.20802514255046844,0.014038443565368652,-0.21425187587738037,0.6862108789496303,-0.09062834920154354,-0.14375457756471346,0.7072734266088289,-0.333897654268401,-0.07319818116641524,1.588683494031828
1784805814670075648,3.073620557785034,0.1291269063949585,-1.090619444847107,0.019449811428785324,-0.07912426441907883,0.3249402344226837,-0.9424188137054443,0.23186475038528442,-0.034687548875808716,-0.21953797340393066,0.6849727242237363,-0.0857245047490221,-0.1464305574695122,0.7085349265429929,-0.33094852114949386,-0.08376226070610432,1.5906138251320547
1784805814679994624,3.0835394859313965,0.05780293419957161,-1.2161227464675903,0.26753512024879456,-0.08933272212743759,0.3239426016807556,-0.9418497085571289,0.2546464502811432,-0.20382541418075562,-0.1227865219116211,0.6835989508563982,-0.08139197446530397,-0.14983490874655842,0.7096599697756344,-0.32989385650623604,-0.09456527263322992,1.5924493847058347
1784805814689914368,3.093459367752075,-0.5255052447319031,-1.1594072580337524,0.27229043841362,-0.09995563328266144,0.32649895548820496,-0.9398974776268005,0.21119219064712524,-0.17320916056632996,-0.15916258096694946,0.6816686754280717,-0.07810352403891958,-0.15476139580487033,0.7108280722682538,-0.33259714386220923,-0.10594915744445729,1.5948713106876595
1784805814699833600,3.1033785343170166,-0.47565531730651855,-1.1370067596435547,0.2240181714296341,-0.10982220619916916,0.3314444124698639,-0.9370611906051636,0.04774947464466095,-0.11916416883468628,-0.10583120584487915,0.6796520729403484,-0.0759396503943756,-0.16032022795043366,0.7117608785185509,-0.3378341159043143,-0.11666632885650469,1.597022356481642
1784805814709753600,3.1132984161376953,-0.4753088355064392,-1.1206510066986084,0.29632216691970825,-0.11885883659124374,0.3362610340118408,-0.9342382550239563,0.10186055302619934,-0.00677800178527832,-0.1596643328666687,0.6774392076944465,-0.07396429364070456,-0.1655601598161093,0.712878083265862,-0.3429439268123102,-0.12654556073915657,1.599822130857731
1784805814719672320,3.1232173442840576,-0.43828830122947693,-0.9986857771873474,0.1897192746400833,-0.12830854952335358,0.3409140706062317,-0.931297242641449,0.09380842745304108,0.08614891767501831,-0.11823278665542603,0.6756934928077599,-0.07187131260029943,-0.17083882885160884,0.7135032087820489,-0.3478890345998632,-0.1369120712190978,1.601122004038427
1784805814729592576,3.1331374645233154,-0.3110211491584778,-0.9808564782142639,0.09223107248544693,-0.1364990770816803,0.3444465398788452,-0.9288296699523926,0.1450134962797165,0.1197563111782074,-0.061068952083587646,0.6739627408922856,-0.06980722617363395,-0.17524871133932232,0.7142751308578658,-0.35164917604093515,-0.14591369373734514,1.6028894324344412
1784805814739511552,3.1430563926696777,-0.01255451887845993,-0.9808723330497742,0.03281332179903984,-0.14534300565719604,0.34662020206451416,-0.9266767501831055,0.10838623344898224,0.21253809332847595,0.029231131076812744,0.6730521576470491,-0.0671951374358604,-0.17929424604965227,0.7143802576572515,-0.3539655210295102,-0.15557580335884216,1.602473802260417
1784805814749431552,3.1529765129089355,0.2873866558074951,-0.9907705187797546,0.08820786327123642,-0.15463683009147644,0.345154732465744,-0.9257190227508545,0.26797908544540405,0.263487845659256,-0.04615902900695801,0.6719575727207724,-0.0630166528872316,-0.18212468056068642,0.7150752120817515,-0.3524036344796979,-0.165516860261207,1.6034135325301577
1784805814759350528,3.162895441055298,0.5103213787078857,-0.9575657844543457,0.08299949020147324,-0.16296079754829407,0.3414389491081238,-0.9256690740585327,0.20225217938423157,0.21227198839187622,0.007654547691345215,0.6709122610732287,-0.058363797271186235,-0.18373658917743294,0.7160386130764566,-0.3484474368948144,-0.17426088568176973,1.6050993832696996
1784805814769269504,3.17281436920166,0.4245641827583313,-0.9777445197105408,0.09289153665304184,-0.17168880999088287,0.33709144592285156,-0.9256847500801086,0.20545652508735657,0.00699421763420105,0.005305171012878418,0.6698520277868567,-0.05332875153515773,-0.18523946866228594,0.7170359325649331,-0.34382582280347557,-0.18338831706406972,1.6068848681137
1784805814779189504,3.182734489440918,0.1276070475578308,-0.7952099442481995,-0.0942370742559433,-0.1796139031648636,0.33450227975845337,-0.9251199960708618,0.18065153062343597,-0.17242345213890076,0.10035198926925659,0.6690751036384589,-0.049307391593841565,-0.1871063101247622,0.7175642136074863,-0.34107703771697434,-0.1917662179988488,1.607582455770146
1784805814789108480,3.1926534175872803,-0.19249773025512695,-0.9360671639442444,0.008614740334451199,-0.18763330578804016,0.33446767926216125,-0.9235394597053528,0.20812587440013885,-0.18969231843948364,0.15222293138504028,0.6685751232835281,-0.04626560636995699,-0.18997309101731305,0.7174795769912768,-0.34104033580428555,-0.20043948549230037,1.6067066796337919
1784805814799028736,3.202573537826538,-0.6545095443725586,-0.7158939242362976,0.24609160423278809,-0.1940639615058899,0.33863717317581177,-0.9206867218017578,0.3076656460762024,-0.20939522981643677,0.2173328399658203,0.6669009015082563,-0.04503130827878879,-0.19398148053982994,0.7180436135224393,-0.3454681096313482,-0.2077408084641323,1.6082461026841204
1784805814808947456,3.2124924659729004,-1.212529182434082,-0.6781177520751953,0.07516887038946152,-0.19978143274784088,0.3475033640861511,-0.9161489009857178,0.12457084655761719,-0.20695465803146362,0.3545491695404053,0.6655582427207065,-0.04587259499766907,-0.19955264273638668,0.7177093641363363,-0.35490721913921963,-0.21470536898625678,1.6075144318628112
1784805814818867456,3.222412347793579,-1.3199189901351929,-0.40947476029396057,0.3135320544242859,-0.20433227717876434,0.3597642779350281,-0.9103944301605225,0.08703796565532684,-0.20583361387252808,0.45296645164489746,0.6639432734832422,-0.04832293729233026,-0.206076905208721,0.7172004813280132,-0.3680152556971738,-0.22078487807048083,1.606625777012642
1784805814828786688,3.2323315143585205,-1.0148555040359497,-0.2679820954799652,0.36496326327323914,-0.20571203529834747,0.3712958097457886,-0.9054402112960815,0.04641027748584747,-0.18907535076141357,0.48568618297576904,0.6620355684459994,-0.0515716657348666,-0.21123506868313133,0.7172371099116696,-0.38040420978028383,-0.22340325972621441,1.607613341928342
1784805814838706432,3.242251396179199,-0.3700603246688843,-0.069831982254982,0.345482736825943,-0.20630495250225067,0.37819918990135193,-0.9024431705474854,-0.03704221546649933,-0.13389071822166443,0.45619988441467285,0.6603193170248215,-0.053432234640492425,-0.214297483624749,0.7177744360114595,-0.3878502169094557,-0.2247451063342298,1.6098138274765377
1784805814848625664,3.2521705627441406,0.03681556135416031,0.17033454775810242,0.4213319718837738,-0.20410272479057312,0.380298912525177,-0.9020614624023438,-0.08221320807933807,-0.1423380970954895,0.5240097045898438,0.6590459129751567,-0.054637107496564856,-0.21443895450594094,0.7188110403625799,-0.39011945859842695,-0.22251582881372006,1.6133549536311733
1784805814858545664,3.2620904445648193,0.1920490860939026,0.1350681334733963,0.4201081097126007,-0.20084507763385773,0.38011839985847473,-0.9028683304786682,-0.06108729541301727,-0.17354491353034973,0.5961819887161255,0.6577812185302662,-0.05537762593907443,-0.21330527186893183,0.7202486804439066,-0.3899243079049906,-0.21888811845185177,1.6180058762249347
1784805814868464384,3.2720093727111816,0.12728233635425568,0.5548030734062195,0.5605965256690979,-0.19646897912025452,0.37964528799057007,-0.9040295481681824,-0.05052505433559418,-0.17966359853744507,0.5531536936759949,0.6563308134641372,-0.056368682752224356,-0.2116785309825038,0.721972791310667,-0.38941284707228635,-0.2139981669909861,1.6236179664670445
1784805814878384640,3.2819294929504395,0.3005385398864746,0.906343936920166,0.5568987131118774,-0.18757124245166779,0.37882542610168457,-0.90626060962677,-0.03577163815498352,-0.18598484992980957,0.5494033098220825,0.6551987920323294,-0.05898841720346646,-0.20830279869204593,0.723771266391513,-0.3885268142322551,-0.20409103650935442,1.629880768511126
1784805814888303616,3.2918484210968018,0.36388182640075684,1.0907108783721924,0.5157081484794617,-0.17620478570461273,0.3767131268978119,-0.909416913986206,-0.027011781930923462,-0.11842760443687439,0.5204246044158936,0.6545305653644883,-0.06218650542789786,-0.20352980920847508,0.7254642295820865,-0.3862454535589121,-0.1913843654977292,1.635971527437768
1784805814898223616,3.3017685413360596,0.8717672228813171,1.1864489316940308,0.4993707537651062,-0.16451570391654968,0.3722245991230011,-0.9134458899497986,-0.015492215752601624,0.043928325176239014,0.47452688217163086,0.6538960029264982,-0.06466020717322846,-0.19772734044406595,0.7274221586204942,-0.3814047015033763,-0.17819413647870574,1.642665973091199
1784805814908142592,3.311687469482422,1.3346376419067383,1.4110682010650635,0.3519251048564911,-0.151424378156662,0.36242741346359253,-0.9196287393569946,-0.0658913105726242,0.02737361192703247,0.37723982334136963,0.6542184447401435,-0.06599176915833359,-0.1892900071383186,0.7292549116519104,-0.37087105173876295,-0.16319382600414295,1.6484864057331292
1784805814918062336,3.3216073513031006,1.7005555629730225,1.6149591207504272,0.5413511991500854,-0.1358807533979416,0.3491038382053375,-0.9271801114082336,-0.015593230724334717,-0.08210554718971252,0.37736016511917114,0.6544594693509795,-0.06696871721183209,-0.17867609077288088,0.7316234159012502,-0.3566146111781799,-0.14551682266055174,1.6557524179431105
1784805814927981568,3.331526517868042,1.3579505681991577,1.4563887119293213,0.6439899802207947,-0.11990298330783844,0.3352348804473877,-0.9344735741615295,0.08447207510471344,-0.2726433277130127,0.37385040521621704,0.6541387988908332,-0.06783950735469185,-0.16781244490814415,0.7343971445592057,-0.34185451298556385,-0.12761344622627754,1.6642125814059308
1784805814937901568,3.3414463996887207,1.0657916069030762,1.6583809852600098,0.39165085554122925,-0.10354917496442795,0.3250931203365326,-0.9399957656860352,0.16731566190719604,-0.3855484426021576,0.44820499420166016,0.6539228573284954,-0.07027095302226427,-0.15831650328121127,0.7364663549921622,-0.33111019608536635,-0.10971681512094648,1.6710415494508752
1784805814947820544,3.351365327835083,1.0096173286437988,1.4082399606704712,0.7108767628669739,-0.08744224905967712,0.3155265748500824,-0.9448792338371277,0.22043785452842712,-0.5125328302383423,0.30300307273864746,0.6535406336811316,-0.07282549118433276,-0.14918718689907362,0.7384607079800588,-0.3210115373851398,-0.09228046590706059,1.677706329171064
1784805814957739520,3.3612844944000244,0.8438181281089783,1.330371379852295,0.6951989531517029,-0.072716124355793,0.307811439037323,-0.9486645460128784,0.3406757116317749,-0.3960377871990204,0.2586163878440857,0.6520190114786827,-0.0753389161296727,-0.14139222846393074,0.7410826035092984,-0.31289194453524505,-0.07650144462239605,1.6864135215137592
1784805814967659520,3.371204376220703,1.0863112211227417,1.4340075254440308,0.39169609546661377,-0.05788181349635124,0.29901185631752014,-0.9524922966957092,0.16541048884391785,-0.22766175866127014,0.14682823419570923,0.6514461374827133,-0.07774223453674174,-0.13307886926532547,0.7428755932802619,-0.3036569543182483,-0.06069416021283218,1.6924649731140327
1784805814977578752,3.3811235427856445,1.7213603258132935,1.2652873992919922,0.7727559804916382,-0.04320142790675163,0.28622913360595703,-0.957186758518219,0.11178968101739883,0.04566475749015808,-0.04353034496307373,0.6507378173624907,-0.07872109678731894,-0.12332720377537391,0.7450729703156189,-0.29028897478848187,-0.045103139904012074,1.699166178991697
1784805814987498496,3.3910434246063232,2.2132301330566406,1.136264443397522,0.7416630387306213,-0.029965588822960854,0.26744407415390015,-0.9631073474884033,0.1378452330827713,0.22999244928359985,-0.17120051383972168,0.6492406499481869,-0.07702613320419924,-0.11186290760148558,0.7483583873310217,-0.270739512006626,-0.03110341221047858,1.7081625882254332
1784805814997417472,3.4009623527526855,2.3911237716674805,1.0311392545700073,0.5917110443115234,-0.01791808195412159,0.2455497831106186,-0.969218373298645,0.04906126484274864,0.3089088201522827,-0.16225135326385498,0.6482993630972853,-0.07400373187189545,-0.09957038784926346,0.751210470503327,-0.24808679580961224,-0.018485040331023262,1.715294673865919
1784805815007337472,3.4108824729919434,2.3802666664123535,0.8661527037620544,0.5645231008529663,-0.007635094225406647,0.22238679230213165,-0.974928617477417,0.10593221336603165,0.17692047357559204,-0.2602856159210205,0.647279961684467,-0.06997203343247622,-0.08740482219312985,0.7539847031751887,-0.22426188172192651,-0.007831279067836552,1.72191887959738
1784805815017256448,3.4208014011383057,2.0333104133605957,0.8544254899024963,0.2507764399051666,0.001543939346447587,0.20085249841213226,-0.9796202778816223,-0.006472520995885134,0.002974405884742737,-0.3504883646965027,0.6469447494431309,-0.06622857594931375,-0.07618161016144999,0.7558257391461551,-0.20222807996741168,0.0015760576850946805,1.7258825941269802
1784805815027176704,3.4307215213775635,1.4148460626602173,0.5267043113708496,0.4861977696418762,0.009167182259261608,0.18403711915016174,-0.9828765392303467,-0.02166413515806198,-0.14297571778297424,-0.5390808582305908,0.6465178606679779,-0.06350636233999309,-0.06729538502835954,0.7572667987975614,-0.185092156413405,0.009326620857048116,1.7291221013753832
1784805815037095424,3.440640449523926,0.6492533683776855,0.2972691059112549,0.8877171277999878,0.014592837542295456,0.17373907566070557,-0.9846835732460022,-0.053304385393857956,-0.23881782591342926,-0.650387167930603,0.6443171400730665,-0.06198960766101184,-0.06176966237579438,0.7597349398775957,-0.17462522542763506,0.014818738912285684,1.7361313654046622
1784805815047015424,3.4505603313446045,0.5182133316993713,0.22651080787181854,0.9510087370872498,0.01847505383193493,0.16819486021995544,-0.9855806231498718,-0.16753816604614258,0.030764490365982056,-0.6586301922798157,0.640950284632963,-0.06139193452502404,-0.058657645249680354,0.7628715712542163,-0.16899814957632023,0.01874315539528591,1.7456482466560377
1784805815056934656,3.460479497909546,0.7232893109321594,-0.19895024597644806,0.15052953362464905,0.01983116753399372,0.16222023963928223,-0.986555278301239,-0.05069969594478607,0.4540975093841553,-0.704637348651886,0.6391025097763868,-0.059822668389131375,-0.056067900732244984,0.7647388712821578,-0.1629402829022813,0.020098718950086414,1.7509512013444615
1784805815066854400,3.4703993797302246,1.5195034742355347,-0.8981844782829285,0.004376585595309734,0.01424774993211031,0.15099141001701355,-0.9884324073791504,0.23950591683387756,0.5911350250244141,-0.6920027732849121,0.6392313937818808,-0.054023190280104674,-0.05352848166010962,0.7652447186029799,-0.15157110866651682,0.014413493168682722,1.7508569338905429
1784805815076773632,3.480318546295166,1.2631529569625854,-0.9735336899757385,0.13969986140727997,0.0056249117478728294,0.13693106174468994,-0.9905645847320557,0.2469233125448227,0.41697824001312256,-0.6675775051116943,0.6390196751828435,-0.04612308876135337,-0.05089554219775957,0.7661175713230156,-0.13736262430451557,0.00567842954626178,1.751600562549833
1784805815086693632,3.4902384281158447,1.0524604320526123,-1.4282647371292114,-0.13321448862552643,-0.005902414675801992,0.1250990629196167,-0.9921267032623291,-0.03563201427459717,0.2562485933303833,-0.5315701961517334,0.638794401518682,-0.037842225461615524,-0.05004613729129375,0.7668149713818785,-0.1254276730785228,-0.005949184649531253,1.752078371139396
1784805815096612352,3.500157356262207,0.6557697057723999,-1.639520525932312,-0.3898741602897644,-0.020739948377013206,0.11708095669746399,-0.9929057955741882,0.07242146879434586,0.1824948489665985,-0.44650155305862427,0.64004628760511,-0.029630062407745673,-0.051663965189152714,0.7660245511729059,-0.11735010798153017,-0.0208850954329917,1.7482841374350457
1784805815106532608,3.510077476501465,0.6332497596740723,-1.4986400604248047,-0.12226241827011108,-0.0369056835770607,0.10992737114429474,-0.9932542443275452,-0.0252891443669796,0.06760863959789276,-0.44877761602401733,0.640260701962711,-0.02112822844438318,-0.05409702801445357,0.7659591116017472,-0.1101499786408018,-0.037139247456003326,1.7470496299747358
1784805815116451584,3.519996404647827,0.14481998980045319,-1.4847966432571411,-0.028532160446047783,-0.051476575434207916,0.1061602458357811,-0.993015706539154,-0.4343022406101227,0.0492047443985939,-0.31411319971084595,0.6404168593926849,-0.014334356002652838,-0.057329579011971506,0.7657506233098026,-0.10636067064843831,-0.0517922711802967,1.7458318048204273
1784805815126370304,3.5299153327941895,-0.1737515926361084,-1.938964605331421,-0.01618228480219841,-0.06855295598506927,0.10658445954322815,-0.9919376373291016,-0.29835987091064453,0.01666077971458435,-0.36907005310058594,0.6399449478444947,-0.007887193112568244,-0.06299985195084469,0.7657932430671146,-0.10678730362733363,-0.0690004337022116,1.745680547560907
