time,seconds_elapsed,rotationRateX,rotationRateY,rotationRateZ,gravityX,gravityY,gravityZ,accelerationX,accelerationY,accelerationZ,quaternionW,quaternionX,quaternionY,quaternionZ,pitch,roll,yaw
1784547279914372096,0.27962803840637207,-0.6393475532531738,-0.14757703244686127,0.09169349819421768,-0.16405422985553741,0.6976838707923889,-0.6973689794540405,0.037009552121162415,-0.027746737003326416,-0.0037266016006469727,-0.2185687984307921,0.1763376804979287,-0.34672834181992773,0.8949369939256068,-0.7721593987191141,-0.23104639833952084,-2.756780490349189
1784547279924292096,0.2895479202270508,-0.4581025540828705,-0.13257963955402374,0.13222365081310272,-0.16333246231079102,0.7019765377044678,-0.6932182312011719,-0.012509837746620178,0.028248071670532227,-0.049976348876953125,-0.21903075078834192,0.17701125861432684,-0.34936785112671287,0.8936636766823306,-0.7781689664464878,-0.23139448113832548,-2.756104445235239
1784547279934212096,0.2994680404663086,-0.21106800436973572,-0.10831025242805481,0.10421571135520935,-0.16246670484542847,0.7047415971755981,-0.6906112432479858,-0.04154330492019653,0.09607017040252686,-0.06749117374420166,-0.21963153990450437,0.17735097550116705,-0.3510570076548964,0.8927864275939951,-0.7820588602132301,-0.23104943476826703,-2.754764249455663
1784547279944131072,0.3093869686126709,0.06341549009084702,-0.018905645236372948,0.11624827980995178,-0.1612273007631302,0.7058156132698059,-0.6898043155670166,-0.04942026734352112,0.13239538669586182,-0.08300751447677612,-0.2203648250708107,0.17718792424078986,-0.3517133326698139,0.8923796534934758,-0.783573842763414,-0.22960717008706286,-2.7526062908819875
1784547279954051328,0.3193070888519287,0.3503399193286896,0.07336409389972687,0.10870806872844696,-0.15910017490386963,0.7052615284919739,-0.6908642053604126,-0.07925738394260406,0.15264862775802612,-0.0693744421005249,-0.22118599430394398,0.1762333257657048,-0.35143946653422753,0.8924735259087344,-0.7827919723016648,-0.22634525111391413,-2.7494551605947577
1784547279963971072,0.3292269706726074,0.549163818359375,0.06534291803836823,0.09991244971752167,-0.15743625164031982,0.7030544281005859,-0.6934899687767029,-0.040516018867492676,0.11060523986816406,-0.04947572946548462,-0.22201121893192788,0.17518683159121315,-0.3500922603982393,0.8930039861292007,-0.7796836016643007,-0.22323650230753217,-2.7462884937800163
1784547279973890048,0.3391458988189697,0.5774389505386353,0.06322582066059113,0.056493233889341354,-0.15626311302185059,0.6999010443687439,-0.6969364881515503,-0.009371042251586914,0.048786699771881104,-0.029320836067199707,-0.22276104381601494,0.17418199346247162,-0.3481269829454792,0.8937817587313961,-0.7752589056192507,-0.22056646662356147,-2.7434366444360885
1784547279983810304,0.34906601905822754,0.520443320274353,0.04257810488343239,0.002724279183894396,-0.15556657314300537,0.6965686678886414,-0.7004221677780151,-0.014462128281593323,-0.006398379802703857,-0.015565991401672363,-0.2232858140797268,0.1733144155219678,-0.34605062273867465,0.8946254253751416,-0.7706039194360791,-0.2185563005970633,-2.7413516206026554
1784547279993730048,0.35898590087890625,0.3734266757965088,-0.0011611180379986763,-0.04648614674806595,-0.15553595125675201,0.6937019228935242,-0.7032682299613953,-0.0019194632768630981,-0.06943440437316895,-0.007287800312042236,-0.22354771313438665,0.1728062454467556,-0.3442439549459493,0.8953549362892766,-0.7666161152167051,-0.21765805086180137,-2.740309788071631
1784547280003649280,0.36890506744384766,0.221941277384758,-0.004800289869308472,-0.07939789444208145,-0.15601994097232819,0.6917111277580261,-0.7051194906234741,0.01161077618598938,-0.11300629377365112,-0.001713395118713379,-0.2235319808521597,0.17265302615980407,-0.34297404263340325,0.8958756203467124,-0.7638557620197284,-0.2177588539651118,-2.7403071726378765
1784547280013569024,0.37882494926452637,0.10370145738124847,0.011419426649808884,-0.08199900388717651,-0.15656344592571259,0.6903351545333862,-0.7063463926315308,-0.020026519894599915,-0.08302009105682373,-0.02145206928253174,-0.22329747446891143,0.17257587670814264,-0.34211747208743987,0.8962764369744686,-0.7619522226147737,-0.2181259719543935,-2.740917394935636
1784547280023489280,0.3887450695037842,0.03202960267663002,0.053000614047050476,-0.052370164543390274,-0.1569199562072754,0.6893936991691589,-0.7071862816810608,-0.033891186118125916,-0.052110373973846436,-0.02370971441268921,-0.2229886666492611,0.1724588990250502,-0.34156226398253026,0.896587512573288,-0.7606517093712023,-0.2183555641165831,-2.7416566555531072
1784547280033408256,0.3986639976501465,-0.01663913205265999,0.12578214704990387,-0.03159058466553688,-0.15680785477161407,0.6888247728347778,-0.7077652812004089,-0.03700926899909973,-0.06081885099411011,-0.01594376564025879,-0.2226236213535269,0.17214320227842006,-0.3412976381932309,0.8968396174406683,-0.7598666370372519,-0.21803157584139984,-2.7423247919738016
1784547280043328000,0.4085838794708252,-0.015696773305535316,0.20808424055576324,0.011294231750071049,-0.15603604912757874,0.6883967518806458,-0.7083520889282227,-0.047912925481796265,-0.027782738208770752,-0.016028404235839844,-0.22223049521846794,0.1714885404123448,-0.34119737805789513,0.8971006795648896,-0.7592763896639079,-0.216817707654045,-2.7427226583458246
1784547280053248256,0.418503999710083,-0.017849406227469444,0.2676442563533783,-0.011103485710918903,-0.15474730730056763,0.6879538297653198,-0.709064781665802,-0.03284426033496857,-0.0008505582809448242,-0.014552772045135498,-0.22174656075975918,0.17051697070584007,-0.34116210471850655,0.8974190574817288,-0.7586659329916057,-0.21487230796530077,-2.7430446038626806
1784547280063168000,0.4284238815307617,-0.03980410471558571,0.2630971372127533,-0.04406163468956947,-0.15354572236537933,0.6876057982444763,-0.7096633315086365,-0.00033918023109436035,-0.006133019924163818,0.0033339262008666992,-0.2210685844936668,0.169538723893279,-0.3412110232315884,0.8977529999793077,-0.7581864834876588,-0.21307969856996758,-2.74386080316699
1784547280073087232,0.4383430480957031,-0.10071965306997299,0.2744011878967285,-0.06439168006181717,-0.1524057686328888,0.6875773072242737,-0.7099366188049316,0.0338602215051651,-0.02702432870864868,0.01251840591430664,-0.2202530804792725,0.16860616609711976,-0.341472769136199,0.8980295088525273,-0.7581472193066006,-0.21146566442637776,-2.7450626549817185
1784547280083006976,0.44826292991638184,-0.15743713080883026,0.2778100371360779,-0.07083898782730103,-0.1512008011341095,0.6880309581756592,-0.7097547054290771,0.04634241759777069,-0.00011897087097167969,0.01566290855407715,-0.21932630282801854,0.16769230180692646,-0.3420554806560054,0.8982056203196976,-0.7587722042727715,-0.20989482309414964,-2.746544938638525
1784547280092926208,0.45818209648132324,-0.09509944915771484,0.28214484453201294,-0.0334993377327919,-0.1497054398059845,0.6885842680931091,-0.7095351219177246,0.0621199756860733,0.03404146432876587,0.0027480125427246094,-0.21849499264070057,0.16667667895068267,-0.3427117363310437,0.8983471593931224,-0.7595349272323537,-0.20794104645507158,-2.7476705340153593
1784547280102846208,0.46810197830200195,0.013035805895924568,0.32611170411109924,-0.006758271716535091,-0.14764606952667236,0.6886779069900513,-0.7098755836486816,0.06970417499542236,0.06101691722869873,-0.00904226303100586,-0.2178795368942396,0.16534671619394195,-0.34310738206194674,0.8985912331157555,-0.7596640574452476,-0.20506502310779443,-2.7479458631542655
1784547280112766208,0.47802209854125977,0.1977721005678177,0.332813024520874,-0.0032990919426083565,-0.145125150680542,0.6878665089607239,-0.7111809849739075,0.07388186454772949,0.08639496564865112,-0.0011145472526550293,-0.21739984506057092,0.16364125421715905,-0.3429738308501628,0.8990705618390152,-0.7585456011904456,-0.2012984492298991,-2.7475506062247743
1784547280122686208,0.4879419803619385,0.40538713335990906,0.2812744975090027,-0.007804328575730324,-0.14263556897640228,0.6857747435569763,-0.7137002944946289,0.11310979723930359,0.09336954355239868,-0.00047206878662109375,-0.21714975261020708,0.1617924239908053,-0.34201323545975254,0.8998312007147287,-0.755667627953949,-0.19725476746520698,-2.746507550164054
1784547280132605184,0.4978609085083008,0.5796747803688049,0.21477296948432922,-0.007606721483170986,-0.1404295116662979,0.6823126077651978,-0.7174462080001831,0.1439390331506729,0.08160340785980225,0.023674845695495605,-0.2172004770301774,0.15995018233471894,-0.34013651305350806,0.9008590437213609,-0.7509213601577895,-0.19329149951034155,-2.7448044308553468
1784547280142525184,0.5077810287475586,0.679008424282074,0.2628043591976166,0.04724141210317612,-0.13808168470859528,0.6780939698219299,-0.7218877673149109,0.13300052285194397,0.08920943737030029,0.048349618911743164,-0.2174752470054324,0.15797878668695073,-0.33778515705543116,0.9020245984136005,-0.7451662270727725,-0.18899570490438294,-2.742482539967893
1784547280152445184,0.5177009105682373,0.6422672271728516,0.4546526372432709,0.06250398606061935,-0.13440293073654175,0.6736193895339966,-0.7267549633979797,0.10153552889823914,0.07418328523635864,0.036096394062042236,-0.21781416231206302,0.15527900925788302,-0.33542652954898766,0.9032909078186262,-0.7390951107776929,-0.1828695971801798,-2.7393601679120376
1784547280162364160,0.5276200771331787,0.5522834658622742,0.6981125473976135,0.07615731656551361,-0.12905414402484894,0.66976398229599,-0.7312737703323364,0.09577471017837524,0.09177166223526001,0.054561734199523926,-0.21773326930690914,0.1516612300510371,-0.33370944176811407,0.9045602284001318,-0.7338908861964939,-0.17467992765497678,-2.736452075518638
1784547280172284160,0.5375399589538574,0.6097949743270874,0.8207098245620728,0.14941687881946564,-0.12206479161977768,0.6661158204078674,-0.7357920408248901,0.16422481834888458,0.11893361806869507,0.04150187969207764,-0.21748114760685425,0.14716180604426843,-0.33233625799234073,0.9058686384449648,-0.7289888672532626,-0.16439852610665093,-2.7331970232613276
1784547280182204160,0.5474600791931152,0.7371302247047424,0.9950721263885498,0.4966343343257904,-0.11273065209388733,0.6619874238967896,-0.7409888505935669,0.24795404076576233,0.16880786418914795,0.044837117195129395,-0.21803205467698847,0.14164381143364402,-0.33082112554250365,0.9071694295148512,-0.7234672557021583,-0.15097772789205963,-2.7270742054981105
1784547280192123136,0.5573790073394775,0.9757915139198303,1.5548614263534546,0.6812250018119812,-0.09865682572126389,0.6568526029586792,-0.7475369572639465,0.21378439664840698,0.23867040872573853,0.06708651781082153,-0.21959148518431615,0.1338332297595584,-0.3291203386482709,0.9085967552613343,-0.7166369915426236,-0.13121753164068914,-2.716522729219062
1784547280202043136,0.5672988891601562,1.7914454936981201,1.677941083908081,-1.4032269716262817,-0.08663785457611084,0.6461617350578308,-0.7582671046257019,0.16448819637298584,0.2205527424812317,0.10003340244293213,-0.21567275541683195,0.12422158784164941,-0.3247082678755821,0.9124795246313182,-0.7025444678945325,-0.113764360597006,-2.719124075775665
1784547280211963136,0.5772190093994141,1.5666089057922363,0.26176315546035767,-1.414803385734558,-0.08867715299129486,0.6322926878929138,-0.7696377635002136,0.7201621532440186,0.0636453628540039,0.2578580379486084,-0.208434072726583,0.12043805638583777,-0.3172944732929878,0.9172645184853374,-0.6845090235140467,-0.11471349268033028,-2.7356211072991625
1784547280221882112,0.5871379375457764,1.367794156074524,-0.3475528359413147,-0.6696905493736267,-0.0942360982298851,0.6209223866462708,-0.7781870365142822,1.1529366970062256,0.07706040143966675,0.3903391361236572,-0.2047518975628186,0.12027511939447544,-0.31054852837575614,0.9204185491387806,-0.669918839586405,-0.12051019747727003,-2.7458021268696853
1784547280231802112,0.5970580577850342,1.2903683185577393,-0.34116071462631226,-0.17464376986026764,-0.09557262063026428,0.6124411821365356,-0.7847175598144531,0.9555274844169617,0.060501933097839355,0.3037757873535156,-0.2053000082068852,0.11982775922903495,-0.3054218893887519,0.922068692399498,-0.6591450248800358,-0.12119548455092533,-2.7449360627496997
1784547280241722112,0.6069779396057129,1.3789384365081787,-0.2355649471282959,-0.4587133228778839,-0.09647458046674728,0.6027593612670898,-0.7920692563056946,0.5452660918235779,0.07410520315170288,0.17071616649627686,-0.20543702153944218,0.11884276203648804,-0.2997361563213339,0.9240293058329868,-0.6469548275272028,-0.1212036741582014,-2.7447324160591076
1784547280251641088,0.6168968677520752,1.236080288887024,-0.26034778356552124,-0.0842185765504837,-0.09792080521583557,0.5933212637901306,-0.7989877462387085,0.6201375722885132,0.005128443241119385,0.1640695333480835,-0.20560165917992113,0.11820484151119436,-0.29416619003962124,0.9258627591864907,-0.6351785666011414,-0.12194795766794488,-2.7446851591877803
1784547280261561088,0.626816987991333,1.5118463039398193,0.18930773437023163,-0.04700798913836479,-0.09652012586593628,0.5831443071365356,-0.8066142797470093,0.5141989588737488,-0.015990376472473145,0.14110219478607178,-0.20660732335631474,0.11625239873008066,-0.2884063708757937,0.9276964077884646,-0.6225938748328342,-0.11909454915228543,-2.74168541017645
1784547280271481088,0.6367368698120117,1.8039907217025757,0.4524504542350769,-0.13322941958904266,-0.09273962676525116,0.5702857971191406,-0.8161945343017578,0.37600380182266235,-0.027011871337890625,0.12005805969238281,-0.20685967057330706,0.11245339720379131,-0.28152616385225276,0.930218419954215,-0.6068537264125231,-0.11313918616661503,-2.739416209195464
1784547280281400320,0.6466560363769531,2.1161677837371826,0.5928679704666138,-0.1277903914451599,-0.08778613805770874,0.5546960830688477,-0.8274090886116028,0.44389575719833374,0.0011816024780273438,0.17198312282562256,-0.2067803157893631,0.10759836037914122,-0.2733460027006699,0.93324508868391,-0.5879976503858875,-0.10570218387346214,-2.737526366549487
1784547280291320064,0.6565759181976318,2.283677577972412,0.5811508297920227,-0.09670490771532059,-0.08220800757408142,0.5366156697273254,-0.8398127555847168,0.5250638723373413,0.01993340253829956,0.2122492790222168,-0.20680921583611422,0.10216770471994016,-0.2639230762046546,0.9365555317040195,-0.5664212894902506,-0.097577624070849,-2.7353490074106785
1784547280301240320,0.6664960384368896,2.1449451446533203,0.5116952061653137,-0.08963647484779358,-0.07701641321182251,0.5182692408561707,-0.8517426252365112,0.5637717843055725,0.0027115941047668457,0.28760993480682373,-0.20690742541288648,0.09699355102135147,-0.2544031284982466,0.9397130305467469,-0.5448259427764575,-0.09017693725593316,-2.7333531678463725
1784547280311159040,0.676414966583252,2.049302339553833,0.42836999893188477,-0.021479260176420212,-0.07235273718833923,0.5007957220077515,-0.8625362515449524,0.5879777073860168,-0.09639203548431396,0.3758113980293274,-0.20717962845284021,0.09231959286346789,-0.24537516891485184,0.9425204482165995,-0.5245178220149194,-0.08368778299992083,-2.7313234972795644
1784547280321079296,0.6863350868225098,1.9999101161956787,0.40789633989334106,-0.0025182534009218216,-0.0680052861571312,0.48357829451560974,-0.8726553320884705,0.5633056163787842,-0.19468364119529724,0.41144317388534546,-0.20766669106020214,0.08794703714483122,-0.23651144052810813,0.9450937128844188,-0.5047381865786302,-0.07777196939702284,-2.729068856082036
1784547280330999040,0.6962549686431885,1.6726529598236084,0.4837109446525574,-0.061195146292448044,-0.06358122825622559,0.4676732122898102,-0.881611704826355,0.4837625026702881,-0.21747484803199768,0.3714646100997925,-0.20790869673633117,0.08368923224655797,-0.22845189978057506,0.9474068470661614,-0.4866565490705378,-0.07199466716524557,-2.727420537349112
1784547280340918016,0.7061738967895508,1.3943166732788086,0.5727922320365906,-0.14795833826065063,-0.05882449075579643,0.45443397760391235,-0.8888359665870667,0.43460267782211304,-0.24647194147109985,0.3496819734573364,-0.20749879060107743,0.07948945163282893,-0.22195366545015835,0.949400973978607,-0.4717366934955598,-0.06608511927674036,-2.7271329750296016
1784547280350838272,0.7160940170288086,1.3892912864685059,0.7126806378364563,-0.11836981773376465,-0.05327298119664192,0.44238603115081787,-0.8952410817146301,0.41055750846862793,-0.30444657802581787,0.3207629323005676,-0.20669726501693786,0.0749859545349407,-0.21623265278722165,0.9512606695105645,-0.4582574523399286,-0.059436765564850585,-2.7275351063112914
1784547280360758016,0.7260138988494873,1.610178828239441,0.7915756702423096,0.026721524074673653,-0.04626116529107094,0.42913952469825745,-0.9020527601242065,0.38904985785484314,-0.30697765946388245,0.29002273082733154,-0.20628244067274598,0.06972323070083056,-0.21002926237310698,0.9531390251019819,-0.4435399100434605,-0.0512394347684808,-2.726874226874625
1784547280370677248,0.7359330654144287,1.8746072053909302,0.8367761373519897,0.03551128879189491,-0.03827632963657379,0.41358691453933716,-0.909659743309021,0.3238750696182251,-0.22762805223464966,0.2841256856918335,-0.20623864283333926,0.06381080014197264,-0.20272721510188663,0.9551416136489317,-0.4263901949693409,-0.042052828484025,-2.725378122429201
1784547280380596992,0.7458529472351074,2.0504863262176514,0.9883243441581726,0.03421176224946976,-0.029692430049180984,0.39596492052078247,-0.9177854657173157,0.24081303179264069,-0.14877253770828247,0.3190305829048157,-0.2061572213852289,0.0573865512047819,-0.19445835280442164,0.9572836799107893,-0.4071184192498418,-0.03234097584829398,-2.7240353386459186
1784547280390517248,0.7557730674743652,2.6569535732269287,1.1580045223236084,-0.0009100036695599556,-0.019078204408288002,0.3745861351490021,-0.9269958138465881,0.11108870059251785,-0.17991450428962708,0.35019832849502563,-0.2058511001547403,0.049517130622620864,-0.1845268082202508,0.9597516694399606,-0.38395037163483675,-0.02057777524379131,-2.7230272213657267
1784547280400436992,0.765692949295044,3.0839638710021973,1.2642837762832642,-0.17303526401519775,-0.007866790518164635,0.34793224930763245,-0.9374867081642151,0.06745235621929169,-0.20309582352638245,0.3344288468360901,-0.20515405418451696,0.04074995964200648,-0.1720351651017714,0.9626293458852553,-0.3553646295719605,-0.008391165770079494,-2.7231455015752233
1784547280410355968,0.7756118774414062,3.185650587081909,1.353579044342041,-0.555415689945221,0.0035463767126202583,0.31857043504714966,-0.9478925466537476,0.04561743885278702,-0.13892874121665955,0.32368606328964233,-0.20292353487987033,0.031429017292946386,-0.15832225785977752,0.9657993306879266,-0.3242209649654288,0.0037413102551157357,-2.7267868141001768
1784547280420276224,0.7855319976806641,3.2776310443878174,1.1483478546142578,-0.8023431897163391,0.013901467435061932,0.28806450963020325,-0.9575101137161255,0.1150200366973877,-0.03499749302864075,0.3090420961380005,-0.19914963582624315,0.022424639659680362,-0.14402112700850128,0.9690689230390718,-0.29220506114018935,0.014517330481382958,-2.7340878249251115
1784547280430195968,0.7954518795013428,3.203716993331909,0.9752748608589172,-1.1655904054641724,0.021502310410141945,0.2574377655982971,-0.9660556316375732,0.1939670443534851,0.01908200979232788,0.36833834648132324,-0.19403291269219744,0.014773016627676704,-0.12943705741301315,0.9723060705911346,-0.2603696664336364,0.022254165262826222,-2.744734994741703
1784547280440115200,0.8053710460662842,3.197739839553833,1.16068434715271,-1.4404919147491455,0.02854958549141884,0.22705049812793732,-0.9734644293785095,0.20587119460105896,-0.03198213875293732,0.421172559261322,-0.18731308834981367,0.007438057046744871,-0.11494547397225935,0.97552342665814,-0.22904800637789857,0.02931941191044504,-2.7588118573773257
1784547280450035200,0.8152909278869629,3.332036018371582,1.3509634733200073,-1.7633140087127686,0.03829507902264595,0.196254163980484,-0.9798049926757812,0.27899616956710815,-0.11118641495704651,0.38488006591796875,-0.17883159117369737,-0.001204300969655492,-0.10047916267260004,0.9787347808323456,-0.19753632868681364,0.03906450638540889,-2.776274199301233
1784547280459955200,0.8252110481262207,3.347290277481079,1.2208195924758911,-2.0059828758239746,0.04789671301841736,0.1644822210073471,-0.985216498374939,0.26275697350502014,-0.05080424249172211,0.5393089056015015,-0.16880159868399597,-0.009704027837609968,-0.08542595914903177,0.981893187803888,-0.16523306272239593,0.048577175954717305,-2.7970689958349135
1784547280469874176,0.835129976272583,3.597792625427246,1.0546820163726807,-2.2428081035614014,0.05676015093922615,0.13147780299186707,-0.9896928071975708,0.22151437401771545,0.09656478464603424,0.5650865435600281,-0.15788751358699435,-0.01766161801532409,-0.0695820257961713,0.9848441723721922,-0.1318595812329124,0.057288523769157516,-2.8198799897609135
1784547280479794176,0.8450500965118408,3.645576238632202,1.0592057704925537,-2.5717062950134277,0.06474461406469345,0.0972621813416481,-0.9931506514549255,0.17312464118003845,0.2224704921245575,0.542726457118988,-0.14531529170175123,-0.024991357335395942,-0.05291606353726037,0.9876531563353991,-0.09741618702262199,0.06509901275379854,-2.846250581587896
1784547280489714176,0.8549699783325195,3.820197820663452,1.481702446937561,-2.9231679439544678,0.07533417642116547,0.062471430748701096,-0.9951995015144348,0.25851285457611084,0.1799449473619461,0.3677275776863098,-0.131275818753859,-0.03327485915881588,-0.03595864995367965,0.9901344922045654,-0.06251213632277113,0.07555346840657359,-2.8755991399538217
1784547280499633152,0.8648889064788818,3.9534292221069336,1.9110687971115112,-3.303218364715576,0.09086299687623978,0.02725638821721077,-0.995490312576294,0.10100100934505463,0.05559883266687393,0.18700343370437622,-0.11483847747869566,-0.043612641891462606,-0.018782192353449568,0.992248552315435,-0.027259763528995038,0.09102240460951826,-2.9099051501826776
1784547280509553152,0.8748090267181396,3.5824241638183594,1.954107642173767,-3.4732134342193604,0.11031003296375275,-0.006860391236841679,-0.9938735365867615,0.32036930322647095,-0.2452758401632309,-0.048378050327301025,-0.09721828132956156,-0.055311715389446035,-0.0019594134265920895,0.9937230055510218,0.006860445231482953,0.11053758986133118,-2.94692815350849
1784547280519473152,0.8847289085388184,2.9781503677368164,1.60397207736969,-3.7383272647857666,0.12835709750652313,-0.03510481119155884,-0.9911065101623535,0.6989133954048157,-0.5696925520896912,-0.06911993026733398,-0.07838922098110285,-0.06550497428700859,0.012483810312292879,0.9946900742567043,0.03511202644724547,0.12879202531575695,-2.9865668041613227
1784547280529392128,0.8946480751037598,2.6282360553741455,1.573482632637024,-3.6456046104431152,0.14588145911693573,-0.05732165277004242,-0.9876400232315063,0.6629411578178406,-0.7537287473678589,-0.21093785762786865,-0.05929608436138021,-0.07474766203284866,0.024346903224265724,0.9951401955486027,0.05735308890109915,0.14664676096115,-3.0267760991465784
1784547280539312128,0.9045679569244385,2.5990686416625977,1.6674151420593262,-3.904486894607544,0.16485005617141724,-0.07650655508041382,-0.9833469390869141,0.44904154539108276,-0.5443735718727112,-0.37293052673339844,-0.04009755077603127,-0.08424995860255868,0.035049590428570754,0.9950204354835108,0.07658138408338462,0.16609730971227404,-3.06741754194184
1784547280549232128,0.9144880771636963,2.955646276473999,1.5968631505966187,-4.29959774017334,0.18434378504753113,-0.09660772234201431,-0.9781023859977722,0.18394234776496887,-0.3859209716320038,-0.4769757390022278,-0.018829542551631207,-0.09358365322887649,0.046807011518625666,0.9943323033229092,0.09675863071979365,0.18628566025198115,-3.112768961376117
1784547280559151104,0.9244070053100586,3.010948896408081,1.3435218334197998,-4.417908668518066,0.2037230134010315,-0.11677497625350952,-0.9720393419265747,0.2005280703306198,-0.294067919254303,-0.421866238117218,0.0036686500765025064,-0.10236314802496402,0.05917854776723274,0.9929784308949116,0.11704201406336746,0.20659285208170278,3.122056573242227
1784547280569071104,0.9343268871307373,3.1965882778167725,1.198722004890442,-4.432302474975586,0.22242946922779083,-0.13750417530536652,-0.9652034640312195,0.21270541846752167,-0.3003772795200348,-0.424277126789093,0.026680525139882155,-0.1102875375092679,0.07235276640582021,0.990903655608595,0.13794121914362012,0.22649409159576553,3.0720416204880316
1784547280578991104,0.9442470073699951,3.570728063583374,0.7273119688034058,-4.454723358154297,0.238584503531456,-0.16008034348487854,-0.9578369855880737,0.171144500374794,-0.19815023243427277,-0.43741142749786377,0.049989121065602674,-0.1163286183181874,0.0868858498110167,0.9881395034006067,0.16077205234993694,0.24411894389540525,3.0207368449677627
1784547280588910080,0.9541659355163574,3.9506282806396484,0.6923004388809204,-4.436726093292236,0.2529977560043335,-0.18424032628536224,-0.9497618675231934,0.16069850325584412,-0.22649575769901276,-0.37709665298461914,0.073612001425043,-0.12080579513293586,0.10259152931182294,0.9846126766788853,0.18529890293184295,0.260334936091018,2.968020008699861
1784547280598830336,0.9640860557556152,4.315384387969971,0.42422884702682495,-4.55868673324585,0.26683148741722107,-0.21133489906787872,-0.94028639793396,0.21560567617416382,-0.36866694688796997,-0.36253952980041504,0.0978316055904846,-0.1241275774587444,0.12020457970740125,0.9800878477138265,0.21294050086068209,0.27650749007363684,2.912874222020681
1784547280608750080,0.974005937576294,4.489981174468994,0.2596105933189392,-4.380472183227539,0.28053584694862366,-0.23956048488616943,-0.9294677972793579,0.21404728293418884,-0.41527044773101807,-0.2962096929550171,0.1220886357320946,-0.12654276423137664,0.13875525434940683,0.9745913794720061,0.24191312638203386,0.29312950503005586,2.8564644878883096
1784547280618669056,0.9839248657226562,4.642553806304932,0.10395783931016922,-4.537924289703369,0.29383882880210876,-0.2686379849910736,-0.917328953742981,0.18249478936195374,-0.552162766456604,-0.23754775524139404,0.14629681130368108,-0.12787121985711924,0.15806480366529424,0.9681227884462997,0.2719787485418314,0.3099932249411816,2.7988802978481715
1784547280628589056,0.9938449859619141,4.774019241333008,-0.03721792250871658,-4.418231964111328,0.30754023790359497,-0.2974663972854614,-0.903843343257904,0.015091627836227417,-0.6074560880661011,-0.20785099267959595,0.170815476128841,-0.1284821560579898,0.17768137700421963,0.9605955182532174,0.30203781164050847,0.32797005334591933,2.739275465104252
1784547280638509056,1.0037648677825928,4.94860315322876,-0.2772444784641266,-4.437770366668701,0.3202741742134094,-0.32688117027282715,-0.8891417980194092,-0.019157230854034424,-0.41831231117248535,-0.24936223030090332,0.19488776302243727,-0.12770027080664212,0.19779215390637953,0.9521500238720589,0.3330015606553726,0.34573789227686363,2.6791337721758492
1784547280648429056,1.0136849880218506,4.855599880218506,-0.3606205880641937,-4.40178108215332,0.33325767517089844,-0.3547370433807373,-0.8735564947128296,-0.14040184020996094,-0.3254234790802002,-0.1967560052871704,0.21932285561066656,-0.12615511828280151,0.21750091908566524,0.9426959188126627,0.36263281846970596,0.36445297135796845,2.6168766916467785
1784547280658348032,1.023603916168213,4.701976299285889,-0.6347086429595947,-4.209888458251953,0.34505632519721985,-0.38097289204597473,-0.8577854037284851,-0.06557634472846985,-0.25382325053215027,-0.1709926724433899,0.2428549408988527,-0.12343195359998461,0.2363722579782681,0.9326919613172038,0.3908483125526882,0.38245670701421103,2.5555370269217317
1784547280668268288,1.0335240364074707,4.172133922576904,-0.8130208849906921,-4.059993743896484,0.3554307818412781,-0.40378955006599426,-0.8429845571517944,-0.08835619688034058,-0.10440441966056824,-0.12518560886383057,0.265551977543413,-0.11972517437877286,0.2533250890167253,0.9224827634286427,0.4156553253471393,0.3990159854245554,2.4957915633740555
1784547280678188032,1.0434439182281494,3.7713024616241455,-0.7861964106559753,-3.920836925506592,0.3657074272632599,-0.4217796325683594,-0.8296746611595154,-0.2141418755054474,-0.028629302978515625,-0.02265077829360962,0.2872738187153316,-0.11612589835752131,0.26772644834139375,0.9123108485710714,0.43540718025411057,0.4151636438471187,2.4383656057343295
1784547280688107264,1.0533630847930908,3.135284185409546,-0.8318832516670227,-3.8462255001068115,0.3759195804595947,-0.43574270606040955,-0.8178097009658813,-0.22789409756660461,-0.08243048191070557,0.07876557111740112,0.3078006901336224,-0.11281385858601586,0.27994315748396675,0.9023101170389646,0.45086329046444185,0.4308632810595345,2.383815989716506
1784547280698027008,1.0632829666137695,2.408905029296875,-0.8169543743133545,-3.8696255683898926,0.3864371180534363,-0.44292324781417847,-0.809002697467804,-0.25629493594169617,-0.12906768918037415,0.18616944551467896,0.32779853495815336,-0.11045439336559253,0.28861478033386595,0.8927762258158904,0.45885657924298706,0.44562537794564494,2.332089895799692
1784547280707947264,1.0732030868530273,1.934718370437622,-0.8005285263061523,-3.72724986076355,0.39705219864845276,-0.44500571489334106,-0.802695095539093,-0.28424400091171265,-0.13240209221839905,0.1506260633468628,0.34693991625129333,-0.10900181251391809,0.29456926931551997,0.8837308214641342,0.46118065402806846,0.45935752184377543,2.2837272788449807
1784547280717866240,1.0831220149993896,1.53018057346344,-0.8315747976303101,-3.6357972621917725,0.40704867243766785,-0.44373467564582825,-0.7983801364898682,-0.29045629501342773,-0.06812137365341187,0.11361151933670044,0.36511732102029126,-0.1079924813942971,0.2985758567708536,0.8751453259651485,0.45976182827187934,0.47149109280330465,2.2387789896604047
1784547280727785984,1.0930418968200684,1.2400773763656616,-0.9428408741950989,-3.6737782955169678,0.4163510501384735,-0.4394259452819824,-0.7959627509117126,-0.3325802981853485,0.06424283981323242,0.040378034114837646,0.38304103166054315,-0.10721569436999676,0.30087111046686094,0.8667531328420387,0.4549595010246837,0.48193953274218887,2.195702778866219
1784547280737706240,1.1029620170593262,1.1142518520355225,-1.0724502801895142,-3.727323055267334,0.42462286353111267,-0.43293461203575134,-0.7951497435569763,-0.37953314185142517,0.21398627758026123,-0.03761392831802368,0.40100453445874334,-0.10632408160723213,0.3018614422992523,0.8583532258750591,0.44774576115547404,0.4904888386422477,2.1536470357575497
1784547280747625216,1.1128809452056885,1.0100727081298828,-1.1764895915985107,-3.824795961380005,0.4320237338542938,-0.4248429238796234,-0.7955275177955627,-0.39317482709884644,0.3197251558303833,-0.040043771266937256,0.41933438699206793,-0.10521816431458701,0.3019360650903844,0.8496602201931154,0.4387883808303778,0.49750381517168957,2.111512892829653
1784547280757545216,1.1228010654449463,1.0958086252212524,-1.2748816013336182,-3.979848861694336,0.43871524930000305,-0.4159488379955292,-0.7965648174285889,-0.32653260231018066,0.4058017432689667,0.09278368949890137,0.43801577170437855,-0.10383366948738962,0.3015562458175283,0.8404906505249349,0.4289859380799736,0.5034257573296691,2.068827774891863
1784547280767466496,1.1327223777770996,1.5183286666870117,-1.3334743976593018,-4.248525142669678,0.44536715745925903,-0.4078752100467682,-0.7970482707023621,-0.35089999437332153,0.3783189356327057,0.17744988203048706,0.4577890981396821,-0.10180484221497602,0.3018470577103299,0.8300320968448627,0.42012567103094817,0.5095519548328602,2.0226156459870097
1784547280777385728,1.142641544342041,2.1342248916625977,-1.4041627645492554,-4.339684009552002,0.45192641019821167,-0.40275466442108154,-0.7959592938423157,-0.28784865140914917,0.10902297496795654,0.2582090497016907,0.4783841122028603,-0.09855766603220215,0.3038202555891377,0.8180025799715119,0.4145244078964387,0.5163881549239674,1.9722747369063804
1784547280787305472,1.1525614261627197,2.7710752487182617,-1.4668586254119873,-4.3902997970581055,0.45802250504493713,-0.4021431505680084,-0.7927775979042053,-0.17468205094337463,-0.10557779669761658,0.14908558130264282,0.4994126459677617,-0.09347180183631987,0.30801660817864185,0.8043481045202068,0.4138564111427435,0.523894042383355,1.917863690468905
1784547280797225728,1.1624815464019775,3.2149603366851807,-1.6377562284469604,-4.322234153747559,0.46323493123054504,-0.40559709072113037,-0.7879748940467834,-0.08057501912117004,-0.21432173252105713,0.10544931888580322,0.520391674144039,-0.0864757246744284,0.3139020363853597,0.7894175794648276,0.41763195624454413,0.5314602846110953,1.8607290549206563
1784547280807144704,1.1724004745483398,3.6084909439086914,-1.6907429695129395,-4.330814838409424,0.4678066074848175,-0.4119139611721039,-0.7819743752479553,-0.0817287266254425,-0.16041266918182373,0.13639020919799805,0.5412903551912813,-0.07788524050955027,0.320853106044455,0.7732994097533454,0.4245535155639063,0.5391227493786199,1.8012222333159866
1784547280817064704,1.1823205947875977,4.170019149780273,-1.8569773435592651,-4.1573076248168945,0.471659779548645,-0.4217672646045685,-0.7743703722953796,-0.08919823169708252,0.01840117573738098,0.08571070432662964,0.5616446876512773,-0.06749167749392174,0.3290284115470372,0.7561352274474069,0.43539354329997954,0.5470751614244843,1.739893197025974
1784547280826984704,1.1922404766082764,4.631209373474121,-1.9902845621109009,-4.113824844360352,0.47462618350982666,-0.435921311378479,-0.7646584510803223,-0.018342643976211548,0.1425100862979889,0.012247622013092041,0.5815598428423301,-0.054736034231572625,0.33863658371323335,0.7376430824144207,0.451061716060094,0.5555037367039933,1.6756866679207214
1784547280836903680,1.2021594047546387,4.606136798858643,-2.1652259826660156,-3.917254686355591,0.4766727685928345,-0.45175009965896606,-0.7541252374649048,-0.04184305667877197,0.09934836626052856,0.031896233558654785,0.6007790939297982,-0.04050404714469824,0.34827689069311,0.718419864308902,0.4687260487212388,0.5636793613931596,1.6106382596186484
1784547280846823680,1.2120795249938965,4.262029647827148,-2.258842945098877,-3.749060869216919,0.47758129239082336,-0.4665306508541107,-0.7444899082183838,-0.026027977466583252,0.051735758781433105,0.08280783891677856,0.6188294457328162,-0.026003841715303185,0.3564811865870084,0.6994962893643317,0.48536433729905304,0.5703680367675256,1.548117877304031
1784547280856743680,1.2219994068145752,4.306110382080078,-2.373244285583496,-3.6924071311950684,0.4779893159866333,-0.4799639880657196,-0.7356363534927368,-0.1221848726272583,0.06159853935241699,0.09424841403961182,0.6361793703454924,-0.011484763248565127,0.36338675944228416,0.6805101263662945,0.500613676707279,0.576208640877079,1.486862038600648
1784547280866663680,1.231919527053833,4.399335861206055,-2.4689204692840576,-3.5646185874938965,0.4780893921852112,-0.4939323365688324,-0.7262653708457947,-0.08554178476333618,0.1584068238735199,0.05895280838012695,0.6528033318966371,0.003708607467154963,0.36993722356461545,0.6610450680244851,0.5166064985494873,0.5821772274978344,1.4253603401460004
1784547280876582656,1.2418384552001953,4.866517066955566,-2.4831528663635254,-3.451899528503418,0.4775834083557129,-0.5104461312294006,-0.7150936126708984,0.0379805862903595,0.18607479333877563,0.013036727905273438,0.6683925461747491,0.020452660836093154,0.3768751466321963,0.6409354606428801,0.5357034899192925,0.5888292483195564,1.362805202215303
1784547280886502656,1.2517585754394531,4.825937747955322,-2.4803872108459473,-3.452608108520508,0.47791099548339844,-0.527964174747467,-0.7020362615585327,0.12061497569084167,0.02645355463027954,-0.11137926578521729,0.6833413704854022,0.03795745871579162,0.38411079956125554,0.6197279287056411,0.556201628511742,0.5976891680724389,1.297781082909951
1784547280896422656,1.2616784572601318,4.492516040802002,-2.362579822540283,-3.1918344497680664,0.4788486063480377,-0.5444435477256775,-0.6886837482452393,0.28799712657928467,-0.11983251571655273,-0.09976840019226074,0.6969367316557632,0.054885506674342194,0.39069900514109296,0.5988498968283151,0.5757256044247924,0.6075713008628073,1.234581712209719
1784547280906341632,1.2715973854064941,4.234160423278809,-2.3018946647644043,-2.991478681564331,0.4799365997314453,-0.5588614344596863,-0.676265299320221,0.2942638397216797,-0.05777674913406372,-0.05701100826263428,0.7091617318364377,0.07066158221824531,0.3960735744213361,0.5789838883829987,0.5930121539763781,0.6171976610763161,1.1751916902388253
1784547280916261632,1.281517505645752,4.484670639038086,-2.3330912590026855,-2.9181995391845703,0.48099902272224426,-0.5737119913101196,-0.6629437804222107,0.24618905782699585,0.07111799716949463,-0.1015520691871643,0.7203854134855833,0.08683391352970762,0.40123307138658004,0.5590319919327305,0.6110307595638493,0.6276687716271784,1.11587587230706
1784547280926181632,1.2914373874664307,4.719487190246582,-2.3765056133270264,-2.880143642425537,0.48236095905303955,-0.5895094275474548,-0.6479247808456421,0.20669543743133545,0.13917678594589233,-0.10683596134185791,0.7309171370901241,0.10391708646480306,0.40649581741523133,0.538258779294051,0.6304514025785218,0.6399528911872524,1.054221238190158
1784547280936100608,1.301356554031372,4.993428707122803,-2.4101040363311768,-2.7192940711975098,0.4837612211704254,-0.606823205947876,-0.6306667923927307,0.14737281203269958,0.1528741717338562,-0.129663348197937,0.7403707408599182,0.1221699781783933,0.41199646898210773,0.5168988809434347,0.6520576459694345,0.6543323268570633,0.9905097536617437
1784547280946020608,1.3112764358520508,5.136559963226318,-2.4578824043273926,-2.7317280769348145,0.4852418601512909,-0.6249687671661377,-0.6115179657936096,0.17706581950187683,0.07067805528640747,-0.2162712812423706,0.7489366655855523,0.14145160399037063,0.4174116100227218,0.4948259680499858,0.6750915569787086,0.6707672951818798,0.9242692649814204
1784547280955940608,1.3211965560913086,5.432540416717529,-2.3728296756744385,-2.5763721466064453,0.4874662756919861,-0.6431747674942017,-0.5905107855796814,0.2030092179775238,0.08748018741607666,-0.2512098550796509,0.7565206450263052,0.16121516156602805,0.42279343615529474,0.4721567578023806,0.6986371865524617,0.6900971118343381,0.8555605706245215
1784547280965859584,1.331115484237671,5.899166584014893,-2.260467290878296,-2.334799289703369,0.48990723490715027,-0.6638429760932922,-0.5650694966316223,0.3326025605201721,0.08608418703079224,-0.27381300926208496,0.7622219669989936,0.1827738643743012,0.4290209548622582,0.4489459493516476,0.7259456286768647,0.7142729301065873,0.7830181652116226
1784547280975779584,1.3410353660583496,5.7943243980407715,-2.0335586071014404,-2.158276319503784,0.49311795830726624,-0.6847537755966187,-0.5366069674491882,0.39805638790130615,0.04922521114349365,-0.09089547395706177,0.7661684991473294,0.20478659528852983,0.43561332360668187,0.4257809454880798,0.7542657935016018,0.7431896249152845,0.7081640074260702
1784547280985699584,1.3509554862976074,5.887002944946289,-1.8763394355773926,-1.8814868927001953,0.49683505296707153,-0.7047992944717407,-0.5063721537590027,0.2903352975845337,0.122234046459198,0.11571663618087769,0.768403977715616,0.22646555580144076,0.4421846720741004,0.4034120481995944,0.7821402165648906,0.7758918579669667,0.6330465964089568
1784547280995618560,1.3608744144439697,5.927962303161621,-1.8864072561264038,-1.882994532585144,0.5008404850959778,-0.7244018316268921,-0.4737096428871155,0.09725826978683472,0.1853851079940796,0.17897087335586548,0.7692046120003346,0.24861143599204105,0.44870651274859263,0.3810237628099291,0.8101662799066764,0.8132303525078062,0.5546590412101832
1784547281005538816,1.3707945346832275,5.467700958251953,-2.0312724113464355,-1.9290237426757812,0.5058341026306152,-0.7406265139579773,-0.44227170944213867,-0.10649633407592773,0.2878829836845398,0.22458982467651367,0.769824649238622,0.26959031381396936,0.4540762102024539,0.35847725352353144,0.8340023209371634,0.852339465304393,0.474676516897338
1784547281015458560,1.3807144165039062,5.330531120300293,-2.146383762359619,-1.7804291248321533,0.5106520652770996,-0.7540452480316162,-0.41309839487075806,-0.1616072654724121,0.3245256543159485,0.14472681283950806,0.7703377965505742,0.2895152298130718,0.4578555882249404,0.33634646907003835,0.8541993443748522,0.8906142861225692,0.3955572468940736
1784547281025377792,1.3906335830688477,5.048464298248291,-2.2683918476104736,-1.8365049362182617,0.5154298543930054,-0.7654941082000732,-0.3851633369922638,-0.11421531438827515,0.18981057405471802,0.056504279375076294,0.7705836013741916,0.3089016177753054,0.46043254396181593,0.314296933529046,0.8718089044700706,0.9290471432127587,0.3159452614558277
1784547281035297536,1.4005534648895264,4.575616359710693,-2.4625818729400635,-1.775728464126587,0.5204228162765503,-0.7738263607025146,-0.36104416847229004,-0.03752791881561279,0.13623791933059692,0.02899765968322754,0.7712308374016122,0.3265322814544213,0.4613616615066008,0.29278858880011793,0.884860111007173,0.9642762379301713,0.23960327176826765
1784547281045217792,1.4104735851287842,4.579403400421143,-2.465754508972168,-1.7664960622787476,0.5254639387130737,-0.7804656028747559,-0.3387642204761505,0.06569206714630127,0.05874013900756836,-0.07627487182617188,0.7717998417882602,0.3433798464760406,0.4612029618072834,0.271490630682512,0.895410175964924,0.9981591595449114,0.16442745717877233
1784547281055136768,1.4203925132751465,4.655684471130371,-2.5224740505218506,-1.7293213605880737,0.5308424234390259,-0.7863140106201172,-0.3160960078239441,0.1701616644859314,-0.03233528137207031,-0.03329974412918091,0.7717530768393509,0.36029875415972606,0.46058310887051834,0.2498904916070205,0.9048201042404854,1.0337209128249856,0.08721007160860009
1784547281065056512,1.4303123950958252,4.667078971862793,-2.5675461292266846,-1.6050279140472412,0.5361204147338867,-0.7915288209915161,-0.2933550477027893,0.29394251108169556,0.014062941074371338,0.03166678547859192,0.7710735831453244,0.3772574855552876,0.45934656347562963,0.2283050352277955,0.9133065957334872,1.0701198001399508,0.008993439887217456
1784547281074976768,1.440232515335083,5.07253360748291,-2.4770865440368652,-1.4076703786849976,0.5408055186271667,-0.7969856262207031,-0.2689671516418457,0.33469802141189575,0.11139297485351562,0.025177478790283203,0.7692432220871249,0.3950145159016007,0.4576898010013956,0.20675699064122582,0.9222879286252729,1.1092746308581298,-0.07207484541285578
1784547281084896512,1.4501523971557617,5.726199626922607,-2.4326870441436768,-1.2656961679458618,0.5451098084449768,-0.8034199476242065,-0.23952379822731018,0.3162335157394409,0.13067525625228882,-0.026467427611351013,0.76530384625918,0.4148697593752999,0.456203008278902,0.18458567819425525,0.9330169554279677,1.1567883249902715,-0.16194194248654684
1784547281094815744,1.4600715637207031,6.11206579208374,-2.3750905990600586,-1.0348658561706543,0.5490281581878662,-0.810217559337616,-0.2052212655544281,0.31678611040115356,0.09374111890792847,0.07007414102554321,0.7592443882109635,0.43672905055353434,0.45459553974556516,0.16173652591724713,0.9445232148936247,1.2130868481832238,-0.2613995634050098
1784547281104735488,1.4699914455413818,6.272191047668457,-2.353231430053711,-0.7868776321411133,0.5519173741340637,-0.8167579770088196,-0.16820703446865082,0.3509756922721863,0.02529984712600708,0.15519124269485474,0.7514960395805671,0.45968048960909397,0.452316629140574,0.13913025352876882,0.9557695359520272,1.2749705310312127,-0.3664435908290197
1784547281114655744,1.4799115657806396,6.237380504608154,-2.311001777648926,-0.4223708510398865,0.5533571839332581,-0.822685956954956,-0.13032197952270508,0.38693517446517944,-0.045874953269958496,0.13373993337154388,0.7425479770626457,0.482975312775277,0.4489697742548943,0.11740349932477905,0.9661196139519579,1.3394997060359881,-0.47367912704954873
1784547281124574720,1.489830493927002,6.0424370765686035,-2.1318371295928955,-0.1200309693813324,0.5529758334159851,-0.8280749320983887,-0.09224878251552582,0.42291533946990967,-0.0643964409828186,0.10715663433074951,0.7325615971223517,0.5060942728667391,0.4446843792838985,0.09735495442033151,0.9756650548048654,1.4054960853605356,-0.5805024915464708
1784547281134494464,1.4997503757476807,5.484273910522461,-2.068556070327759,-0.03806592524051666,0.551956295967102,-0.831968367099762,-0.056327395141124725,0.4132841229438782,-0.03402888774871826,0.13800770044326782,0.7224408413399874,0.5277121008582648,0.4397229138954752,0.07901208322420653,0.9826460938136544,1.4690979326026754,-0.6824647224087764
1784547281144414720,1.5096704959869385,4.933486461639404,-1.9809987545013428,0.20197436213493347,0.5504173040390015,-0.8345229029655457,-0.024747518822550774,0.40232622623443604,0.021244704723358154,0.1677834391593933,0.7130543787851044,0.5470288997513594,0.434034126548717,0.0626681427873878,0.9872663484131184,1.525865209977638,-0.7749033568968245
1784547281154333696,1.5195894241333008,4.460628509521484,-1.7906217575073242,0.38333332538604736,0.5475379228591919,-0.8367726802825928,0.0036951755173504353,0.33373337984085083,-0.008060634136199951,0.13750958442687988,0.7041312440325632,0.5647328778504803,0.4276965799024772,0.04849296366476449,0.9913622895516919,1.577544936197625,-0.8594985832608321
1784547281164253696,1.5295095443725586,4.008095741271973,-1.5140477418899536,0.424981951713562,0.544451117515564,-0.83826744556427,0.02967463806271553,0.22202831506729126,-0.0742385983467102,0.23735415935516357,0.6955873604793917,0.5805278212822108,0.4216927407454731,0.03634380523665936,0.9940979707275188,1.6252462223892816,-0.9360294672564993
1784547281174173696,1.5394294261932373,3.860786199569702,-1.3299756050109863,0.6870265007019043,0.540477454662323,-0.8395897150039673,0.05452654883265495,0.21872353553771973,-0.14028388261795044,0.28273844718933105,0.6870680303580208,0.5952799777916565,0.4158184967684323,0.02596572264012566,0.9965275436785469,1.6713420222560125,-1.007787327947389
1784547281184092672,1.5493485927581787,3.7476372718811035,-1.0477625131607056,0.921286404132843,0.5343051552772522,-0.8415148854255676,0.07981681078672409,0.2332119345664978,-0.21559876203536987,0.2760334014892578,0.6780771944536885,0.6100007207553564,0.4096431686776626,0.01740506266273968,1.0000812558062764,1.719084077098062,-1.0788142662906197
1784547281194012672,1.5592684745788574,3.4326834678649902,-0.8223560452461243,0.9807527661323547,0.5271146297454834,-0.843290388584137,0.10493655502796173,0.2264864444732666,-0.2473316192626953,0.3029918670654297,0.6688953981712461,0.6240073416912856,0.4038355049407169,0.010522958389724653,1.003376223910889,1.7673045191479342,-1.1470152999693664
1784547281203932672,1.5691885948181152,3.0003767013549805,-0.7789300084114075,1.0929203033447266,0.5192723274230957,-0.8450284004211426,0.12760615348815918,0.2969508171081543,-0.22989225387573242,0.2788574695587158,0.6604323594699955,0.6366772533475626,0.398051692729006,0.005104692728830727,1.0066182475470757,1.8117618707075707,-1.209070443793362
1784547281213851648,1.5791075229644775,2.5673611164093018,-0.7736365795135498,1.1490435600280762,0.5107544660568237,-0.847080647945404,0.14691627025604248,0.31364738941192627,-0.19767338037490845,0.2515517473220825,0.6531011734524484,0.6479715008791125,0.39190696344009335,0.0008914913882386809,1.0104679921975868,1.8508806117849246,-1.2644761081435856
1784547281223771648,1.5890274047851562,2.0931153297424316,-0.7170012593269348,1.1353676319122314,0.5022277235984802,-0.8493094444274902,0.16260701417922974,0.22508251667022705,-0.19420862197875977,0.23686814308166504,0.64706354315514,0.657659770893711,0.38572935086654925,-0.0023149453957571563,1.0146757726716955,1.8839166868329333,-1.3122762364871965
1784547281233691648,1.598947525024414,1.4552583694458008,-0.4865075647830963,1.1448076963424683,0.49344924092292786,-0.8520739674568176,0.17457881569862366,0.16714951395988464,-0.22586792707443237,0.23708808422088623,0.6424129080204016,0.6655651621733928,0.3798847460625544,-0.004029292263237681,1.019934938708688,1.91084606786541,-1.3512122926635153
1784547281243610624,1.6088664531707764,0.6283751130104065,-0.13848355412483215,1.0946393013000488,0.4844628572463989,-0.8557575345039368,0.18158982694149017,0.15175238251686096,-0.27914541959762573,0.32124829292297363,0.6396824266264111,0.6708820211403705,0.375116288734756,-0.003392740816301605,1.0270132526859002,1.9294154525934808,-1.3766607016329258
1784547281253530624,1.6187865734100342,0.2668056786060333,0.029916182160377502,1.3866435289382935,0.4739570915699005,-0.8609553575515747,0.1847175508737564,0.202571839094162,-0.3226536512374878,0.3516899347305298,0.6384677565152586,0.6744689335852158,0.3707430870631561,-0.00040185863964959425,1.03714481416628,1.942422161905521,-1.3925661438731176
1784547281263450624,1.628706455230713,0.14720313251018524,0.07891541719436646,1.5382274389266968,0.4609259068965912,-0.8676046133041382,0.18657410144805908,0.290325403213501,-0.37128716707229614,0.2636364698410034,0.6377267430051932,0.6778202406713765,0.36585074669843126,0.004204445058655786,1.050364610541127,1.9554175430810932,-1.4070015038276362
1784547281273370624,1.6386265754699707,0.28626054525375366,0.1686978042125702,1.6261470317840576,0.44677144289016724,-0.8745254278182983,0.188681498169899,0.28496378660202026,-0.31611788272857666,0.2563105821609497,0.6368452466302985,0.6813099353714644,0.36077350746941883,0.009351349215692806,1.0644564068811408,1.9703966704326916,-1.422914352130434
1784547281283289600,1.648545503616333,0.6404487490653992,0.2935694456100464,1.782713532447815,0.43079572916030884,-0.8814930319786072,0.19335231184959412,0.27040666341781616,-0.24884754419326782,0.179343581199646,0.6348997021165544,0.6857765714491354,0.35550900546523545,0.015040897341100349,1.079014809614669,1.992673509349182,-1.4455882462996772
1784547281293209600,1.6584653854370117,1.1602951288223267,0.373870849609375,1.8186085224151611,0.412735253572464,-0.8881380558013916,0.20213888585567474,0.25991785526275635,-0.23614466190338135,0.07749363780021667,0.6312620594092488,0.6918542741326633,0.3498672702970778,0.020944153532656846,1.0932777393429531,2.026213865153413,-1.4797215034932636
1784547281303129600,1.6683855056762695,1.3079524040222168,0.3940863609313965,1.876352071762085,0.3948339819908142,-0.8933008313179016,0.21475543081760406,0.2793603539466858,-0.2634984850883484,0.03898298740386963,0.6260472727424312,0.6990157871019256,0.34460796135729677,0.026213831648702817,1.104636439141349,2.068954400740598,-1.5232111609138659
1784547281313048576,1.6783044338226318,1.2213892936706543,0.5022860169410706,1.882723331451416,0.3768278658390045,-0.8978651762008667,0.2276822030544281,0.30383628606796265,-0.31559014320373535,0.0617617666721344,0.6206137731282748,0.7060893717203073,0.3395274657480183,0.031584513445897966,1.1148964393591605,2.114303795564438,-1.5687965668050712
1784547281322968832,1.6882245540618896,0.9393876791000366,0.5127967000007629,1.933814525604248,0.3585805296897888,-0.9023137092590332,0.23926988244056702,0.27360638976097107,-0.3990473747253418,0.04524552822113037,0.6156037340385851,0.7125581590270059,0.33450831590139535,0.03737842640030478,1.125106978993495,2.159216227920556,-1.613196868182347
1784547281332888576,1.6981444358825684,0.46454760432243347,0.685268223285675,2.0475730895996094,0.3391354978084564,-0.9075854420661926,0.24753929674625397,0.2786623239517212,-0.4456402063369751,0.05009862780570984,0.6117626777926107,0.7178432075433773,0.3293490177934535,0.044460521239520136,1.1374970283392682,2.201317088717651,-1.6531802748976492
1784547281342807552,1.7080633640289307,0.26310449838638306,0.6449000239372253,2.128556966781616,0.31856948137283325,-0.9135538339614868,0.2528490126132965,0.2880588471889496,-0.46103399991989136,0.057514727115631104,0.6089326460272665,0.7220854684280674,0.3240633813883814,0.052691859385075944,1.1519379012016764,2.2416847365789265,-1.690000545400676
1784547281352727552,1.7179834842681885,0.2638927698135376,0.672660768032074,2.3207709789276123,0.2965452969074249,-0.9197197556495667,0.2572476863861084,0.3239991068840027,-0.4594763517379761,-0.013778477907180786,0.6063109889350551,0.7262784373797083,0.31803062003486926,0.061343985088754105,1.1673659519071262,2.285352417021083,-1.7306479268919193
1784547281362647552,1.7279033660888672,0.34033721685409546,0.774202823638916,2.3777236938476562,0.2732166051864624,-0.9256078004837036,0.2619212865829468,0.3306804299354553,-0.42209410667419434,-0.000873953104019165,0.6033754786285191,0.7305638033679273,0.3118287637145209,0.0705503400985737,1.1826383856769556,2.335090331674961,-1.776753737285028
1784547281372566784,1.7378225326538086,0.5314254760742188,0.7602505087852478,2.493882656097412,0.24879635870456696,-0.9307605028152466,0.267927885055542,0.32555973529815674,-0.3736370801925659,-0.030409574508666992,0.5997083896737891,0.735314166151183,0.30541287945895207,0.07991208113496157,1.1964873610365276,2.3932022421714256,-1.8312193944840613
1784547281382486528,1.7477424144744873,0.4863564670085907,0.8658760190010071,2.520493984222412,0.22320088744163513,-0.9352723360061646,0.2746766209602356,0.34239670634269714,-0.3542633056640625,-0.04468080401420593,0.5955093297626904,0.7403065781222347,0.2988050799943511,0.08961256465238716,1.2090277249161945,2.459218783503824,-1.893280383605464
1784547281392406784,1.7576625347137451,0.10143211483955383,0.9496037364006042,2.5834836959838867,0.1970488280057907,-0.9397110939025879,0.27949076890945435,0.35779130458831787,-0.39799654483795166,-0.009928911924362183,0.5918359796242711,0.7445632767605831,0.2921830104625433,0.09992435718712583,1.22178442693864,2.527500146438258,-1.9567078458768512
1784547281402325504,1.7675814628601074,-0.7481980323791504,1.1265990734100342,2.538541793823242,0.1701761931180954,-0.9452478289604187,0.2784724533557892,0.4233144521713257,-0.5064429640769958,0.006592303514480591,0.5901542299279654,0.7467897221262029,0.2855544356374197,0.11172229128958815,1.2383531256108578,2.593046936859758,-2.015361660956286
1784547281412245760,1.7775015830993652,-1.6638376712799072,1.070522665977478,2.673816204071045,0.1427868753671646,-0.9525739550590515,0.26872795820236206,0.4454089105129242,-0.5874040126800537,0.023950904607772827,0.5915768148579446,0.7461587181383448,0.27858776522096845,0.12519135893799574,1.2615853032380253,2.653185705004533,-2.0669017225098782
1784547281422165760,1.787421464920044,-2.2108964920043945,0.9561055898666382,2.855903387069702,0.11390310525894165,-0.9611947536468506,0.25125810503959656,0.47653570771217346,-0.5779287219047546,0.006752699613571167,0.595676230174044,0.7434319170456353,0.2700704424579374,0.13978817491372036,1.2913008795252474,2.715972086702386,-2.121942539021537
1784547281432085760,1.7973415851593018,-2.3729820251464844,0.7846280932426453,3.085214853286743,0.08344283699989319,-0.9696194529533386,0.22994619607925415,0.4428022503852844,-0.4314576983451843,0.018177002668380737,0.6008896727025785,0.7398427354031304,0.2600111944771328,0.15478508898853433,1.3236702116793757,2.793489984203573,-2.1934092974715416
1784547281442004736,1.807260513305664,-2.2239532470703125,0.8013216257095337,3.1527817249298096,0.05155029892921448,-0.9767636656761169,0.20802712440490723,0.348764032125473,-0.2642793655395508,-0.01350809633731842,0.6058933141686462,0.7362046586016757,0.2490306492376891,0.16994032167779421,1.3548014591023851,2.8986803235982643,-2.2935006900009576
1784547281451924480,1.8171803951263428,-1.683067798614502,0.8956488370895386,3.1915507316589355,0.019020751118659973,-0.9817625880241394,0.18915799260139465,0.2661355137825012,-0.12379783391952515,0.006276637315750122,0.6092682137984677,0.7333590139804769,0.2382510331243709,0.1849686217135631,1.3795211246669217,3.0413746918960554,-2.4306576801406767
1784547281461844736,1.8271005153656006,-1.071803092956543,0.8881064653396606,3.262746572494507,-0.014022694900631905,-0.9843365550041199,0.17574156820774078,0.25627124309539795,-0.05742675065994263,0.01831972599029541,0.6101609192025179,0.7320546826449601,0.22796211893111765,0.1995819803141761,1.3935705740432547,-3.061969784271702,-2.604466971606761
1784547281471763712,1.837019443511963,-0.5312856435775757,0.9214204549789429,3.265498161315918,-0.04751618579030037,-0.9847081899642944,0.16760703921318054,0.26533541083335876,-0.051592469215393066,0.06257176399230957,0.6087490386159776,0.7323333299323633,0.2179252440771941,0.21359109251601563,1.3956910449644526,-2.8653436148786766,-2.795231558051799
1784547281481683712,1.8469395637512207,-0.1800014227628708,1.0985107421875,3.16292142868042,-0.08044986426830292,-0.9832212328910828,0.16371957957744598,0.2176416516304016,-0.08109468221664429,0.08846248686313629,0.6053797579159365,0.7336135065199648,0.20897609956927796,0.22727884958324798,1.3873520392825611,-2.6848581908649,-2.968402118911258
1784547281491603712,1.8568594455718994,-0.10758800804615021,1.2096987962722778,3.205305576324463,-0.11327355355024338,-0.9803754687309265,0.16134871542453766,0.19719690084457397,-0.08258241415023804,0.10995258390903473,0.6009897798348875,0.7351178297911818,0.20068913983555312,0.24111630806359818,1.3723570621217842,-2.5294976172035972,-3.114991935913904
1784547281501522432,1.8667783737182617,-0.10134902596473694,1.149476170539856,3.246584177017212,-0.14640377461910248,-0.9763915538787842,0.15882450342178345,0.22274349629878998,-0.09816277027130127,0.14085803925991058,0.5962483078906387,0.736492505056174,0.19233055856821837,0.2550992097737521,1.3530721183546006,-2.396865316840713,3.0446623279750074
1784547281511442688,1.8766984939575195,-0.5003400444984436,0.9295133352279663,3.22599458694458,-0.17936183512210846,-0.9715598821640015,0.1545991450548172,0.20313502848148346,-0.06800615787506104,0.14500713348388672,0.5920270966494398,0.7373848341594271,0.18320256426197234,0.26870880425880084,1.3317316930624583,-2.2821814991012066,2.9375387290899386
1784547281521362432,1.8866183757781982,-1.3922443389892578,0.8560841083526611,3.1467554569244385,-0.2112252116203308,-0.9667779803276062,0.14395858347415924,0.0761391669511795,0.014400780200958252,0.18761490285396576,0.5903263625159497,0.7362779504512923,0.17284116672153085,0.28202026890888426,1.312309946742058,-2.1690257608959898,2.8296552323998583
1784547281531281664,1.8965375423431396,-2.549051523208618,0.783665657043457,3.0685067176818848,-0.24202318489551544,-0.9623922109603882,0.12339326739311218,-0.11819104850292206,0.09618133306503296,0.15988612174987793,0.592296725640373,0.731922622618356,0.16120145058533422,0.2957835691012784,1.2956749328933164,-2.0422854498574,2.7068871816452704
1784547281541201664,1.9064574241638184,-3.662381649017334,0.8163330554962158,2.923409938812256,-0.2714816927909851,-0.9580826759338379,0.09151580184698105,-0.3204067051410675,0.18476730585098267,0.07268404215574265,0.5985047376904883,0.7237853731414567,0.14796159494287087,0.3098937425452623,1.2802331943667613,-1.8959308055246356,2.5626079286970493
1784547281551121664,1.9163775444030762,-4.296626567840576,1.0039855241775513,2.5046708583831787,-0.29799169301986694,-0.9532046318054199,0.051006995141506195,-0.48066428303718567,0.3055301308631897,0.030398603528738022,0.6078277457240765,0.71229600303019,0.13467702860189473,0.324101610470175,1.2636645621767248,-1.7403226103361231,2.4092626940676722
1784547281561040640,1.9262964725494385,-4.822763919830322,0.9635699391365051,2.0391573905944824,-0.31949785351753235,-0.9475745558738708,0.004856926389038563,-0.5966856479644775,0.36841195821762085,0.0024214982986450195,0.6194718748778331,0.6981793801748031,0.12236836343158503,0.33738132803140414,1.2455579422288392,-1.585996906073361,2.257414586361487
1784547281570960640,1.9362165927886963,-4.5982666015625,0.8571678996086121,1.732480525970459,-0.3369944989681244,-0.9405348300933838,-0.0427682101726532,-0.6214558482170105,0.42161381244659424,0.07591032981872559,0.6320692359378947,0.6829213613505645,0.11060881351816548,0.3491026704385091,1.2242013221435615,-1.4445604630236641,2.1171847742951693
1784547281580880640,1.946136474609375,-3.739732265472412,0.7701829671859741,1.2571229934692383,-0.3503873348236084,-0.9327672719955444,-0.0847000852227211,-0.6530306339263916,0.44329583644866943,0.1345200538635254,0.643153355850447,0.6689543781220182,0.10074718711216551,0.35875324766980266,1.2020147873257354,-1.3336136226902628,2.0073199866379103
1784547281590799616,1.9560554027557373,-2.5073437690734863,0.7251043319702148,0.9200878739356995,-0.3596092164516449,-0.9258580207824707,-0.11605218052864075,-0.7031959295272827,0.450348436832428,0.24714040756225586,0.6510907036761097,0.6581311422420438,0.09400697175756595,0.36620614491591713,1.1832999229909547,-1.2586302697063763,1.934680684744779
1784547281600719616,1.9659755229949951,-1.4214580059051514,0.4653255343437195,0.7950466275215149,-0.36606907844543457,-0.9204952716827393,-0.13668103516101837,-0.7440230846405029,0.5151914358139038,0.2987903952598572,0.6557984010939262,0.6508250524417454,0.0899234751209032,0.371845256028003,1.1693461309826114,-1.213451077181311,1.892863075451826
1784547281610639616,1.9758954048156738,-0.18951630592346191,0.4608871042728424,0.6008110046386719,-0.3722263276576996,-0.9166492223739624,-0.14560866355895996,-0.6883357763290405,0.5162128210067749,0.27112746238708496,0.6569561791705709,0.6477558077943641,0.08722432361717825,0.3757831451742895,1.1596148180281751,-1.197913713346502,1.8799330950023379
1784547281620559616,1.9858155250549316,0.790023922920227,1.0861631631851196,0.5465072393417358,-0.3758091926574707,-0.9152446389198303,-0.14524070918560028,-0.7200313210487366,0.5100168585777283,0.22945396602153778,0.6542621866380055,0.647634281932788,0.0891598782095247,0.3802123098454434,1.1561146264659612,-1.2020038678319145,1.8940525159194825
1784547281630478592,1.995734453201294,0.5256341099739075,0.046616293489933014,0.7816628217697144,-0.3816121816635132,-0.9135138988494873,-0.1409418284893036,-0.8269602060317993,0.4522407054901123,0.05642342567443848,0.6503715178377829,0.6491814337324536,0.08995859415523422,0.3840414797635888,1.1518397061256769,-1.2170035343540697,1.9164958749146415
1784547281640398848,2.0056545734405518,0.018452942371368408,-0.016019122675061226,-0.07893446087837219,-0.38468942046165466,-0.9125505685806274,-0.13880060613155365,-0.902786135673523,0.47650015354156494,0.10684871673583984,0.6488845933398368,0.6500763665341568,0.08944501658383787,0.3851612096053709,1.1494779842740033,-1.2245219628848603,1.9251312008499368
1784547281650318592,2.0155744552612305,0.020909907296299934,-0.23276318609714508,-0.21658995747566223,-0.3833438754081726,-0.9132345914840698,-0.13802237808704376,-1.0769832134246826,0.5740927457809448,0.20235341787338257,0.6491834053065687,0.6503551077847232,0.08959376934631295,0.3841512489415617,1.1511536979937225,-1.2251978285242688,1.9243508571754626
1784547281660237568,2.0254933834075928,0.17339399456977844,-0.25401920080184937,-0.567815899848938,-0.38039132952690125,-0.9147387146949768,-0.13621936738491058,-0.9364269971847534,0.5748948454856873,0.24188648164272308,0.6497162144386918,0.6509809056367204,0.09007870590261025,0.38207150714447996,1.1548607705708454,-1.2269208791870467,1.9233347077412435
1784547281670157568,2.0354135036468506,-0.11794724315404892,-0.019671456888318062,-1.0895096063613892,-0.3729437291622162,-0.9180071949958801,-0.13481730222702026,-0.9311181306838989,0.5960620641708374,0.39760416746139526,0.6510048784783674,0.6511650150099816,0.09260383403044335,0.37894758055828354,1.1630257219414486,-1.2239178601474043,1.9187931305975177
1784547281680077568,2.0453333854675293,-0.8735851049423218,0.1593931019306183,-1.5904680490493774,-0.3613783121109009,-0.9218859076499939,-0.13975782692432404,-0.9235032796859741,0.7639879584312439,0.45088452100753784,0.6551029863635296,0.6488152698288681,0.09570699284810753,0.37512541597280463,1.1729199459027213,-1.2017768818348915,1.8948180297968873
1784547281689996800,2.0552525520324707,-1.3500754833221436,-0.18187646567821503,-1.6951210498809814,-0.3452422022819519,-0.9263036251068115,-0.15089541673660278,-0.8528168201446533,0.7840001583099365,0.3698437809944153,0.6620404317816602,0.6439392407361865,0.09947132593077068,0.3703379642317584,1.184480985522716,-1.1587458781322448,1.849391461926118
1784547281699916544,2.0651724338531494,-1.3941506147384644,-0.7258915901184082,-0.9319711923599243,-0.3340359926223755,-0.9288395643234253,-0.16024072468280792,-0.6457918882369995,0.5271977186203003,0.06639915704727173,0.6686047054711689,0.6402869068841407,0.09956059520853734,0.3648125108951082,1.1912682524359688,-1.1235112761210464,1.805371064901379
1784547281709836800,2.0750925540924072,-2.6508665084838867,-1.0919228792190552,-0.8766043186187744,-0.32707372307777405,-0.9285140037536621,-0.17574046552181244,-0.6825698614120483,0.37031686305999756,0.27509045600891113,0.677080508804826,0.6347905521160953,0.09576387886412276,0.3597670434496622,1.190390407128264,-1.077746945660559,1.7461704608322441
1784547281719755776,2.0850114822387695,-3.7533838748931885,-0.5542570352554321,-1.4459484815597534,-0.31835684180259705,-0.9260020852088928,-0.20290179550647736,-0.8727442026138306,0.4270396828651428,0.46492570638656616,0.689355110470088,0.624703918016884,0.09107203545409158,0.35530335654428424,1.1836813898291845,-1.0033719337671312,1.6582968158522922
1784547281729675520,2.0949313640594482,-4.216183662414551,-0.511009156703949,-1.4543123245239258,-0.3056151568889618,-0.9218263030052185,-0.23840245604515076,-0.8840363025665283,0.521450936794281,0.5964956879615784,0.7046585793075391,0.6109539046873449,0.0867991960973107,0.35022506995982294,1.1727662485737356,-0.9083239894754995,1.5497540566192523
1784547281739595776,2.104851484298706,-5.332239627838135,0.050953518599271774,-0.3400571048259735,-0.29696425795555115,-0.9127203822135925,-0.28063124418258667,-0.505419135093689,0.33432072401046753,0.40170973539352417,0.7205020932648486,0.594236719913921,0.08103761170197976,0.34812708046027846,1.1498933638041358,-0.8136682023391038,1.4447101929826975
1784547281749515520,2.1147713661193848,-4.869067192077637,0.8657881617546082,-0.9936611652374268,-0.29080235958099365,-0.8981600403785706,-0.32976120710372925,0.02429237961769104,0.04130280017852783,0.20773670077323914,0.7365165330087926,0.5739820068634178,0.07525987136043548,0.3498913240981533,1.1155665528837,-0.722700666795783,1.3501140360397652
1784547281759434752,2.124690532684326,-3.7171027660369873,0.8918357491493225,-0.8823977112770081,-0.28081852197647095,-0.8857006430625916,-0.36969617009162903,-0.06676143407821655,-0.20096921920776367,-0.8945097923278809,0.7495843838700955,0.5566072362510687,0.07307739691675959,0.3506726448900536,1.088001080270991,-0.649612239044958,1.2770202251334615
1784547281769353472,2.1346092224121094,-2.7829270362854004,0.43747174739837646,-0.302328884601593,-0.2742941081523895,-0.8748304843902588,-0.3992921710014343,0.5915853977203369,0.14311057329177856,-0.8648984432220459,0.7590456668052015,0.5434381172260805,0.07091493165304234,0.35141946594895207,1.0650857495139285,-0.6019143985560129,1.2290267063691598
1784547281779273216,2.144529104232788,-1.8234349489212036,0.31451815366744995,-0.1696203649044037,-0.2699873149394989,-0.8663390874862671,-0.42019450664520264,0.8068678379058838,0.2619842290878296,-0.7302571535110474,0.7653922091639241,0.5339168384688295,0.06953812567342814,0.35252232102365905,1.047825204708731,-0.5711055336295309,1.1992699675739513
1784547281789192192,2.1544480323791504,-0.8552582859992981,-0.3780094385147095,-0.39191073179244995,-0.2670966386795044,-0.8614345788955688,-0.4319603741168976,0.9528723955154419,0.13311737775802612,-0.48768678307533264,0.7695850310088542,0.528572609893876,0.06805002279398366,0.3517371025356922,1.0380876339684264,-0.5537928410801642,1.1793092404673426
1784547281799112192,2.164368152618408,-0.5126617550849915,-0.2971747815608978,-0.8227803707122803,-0.26398780941963196,-0.8602308034896851,-0.4362492859363556,0.7951004505157471,-0.02039968967437744,-0.3279566764831543,0.7721842677695465,0.5266559750504178,0.06714794424792027,0.3490789051964216,1.0357220913932659,-0.5441835038100491,1.1644245202629604
1784547281809032192,2.174288034439087,-0.564094066619873,-0.8406347632408142,-0.5673081278800964,-0.261802077293396,-0.8593775629997253,-0.4392379820346832,0.7443917989730835,-0.23438769578933716,0.02299344539642334,0.774829121981867,0.5254732654429083,0.06525993320065106,0.34533885099323536,1.034051152993059,-0.5375004140573574,1.149226036742073
1784547281818951424,2.1842072010040283,-0.4155657887458801,-1.2387365102767944,-0.3313749432563782,-0.2632593810558319,-0.858851432800293,-0.4393959939479828,0.3233484923839569,-0.4474841356277466,-0.0235404372215271,0.7769259473531804,0.5258867504982315,0.06119745342374254,0.34071133518916563,1.0330231734224713,-0.539786335709774,1.1382471346412502
1784547281828871168,2.194127082824707,-0.7268432974815369,-0.6483635902404785,-0.2874245345592499,-0.26352500915527344,-0.8575288653373718,-0.4418129324913025,-0.029504746198654175,-0.3359829783439636,0.18065881729125977,0.7792668045562657,0.5250912428569189,0.05807513682945606,0.3371195721893571,1.0304467139625666,-0.5378146258425972,1.1261919615505465
1784547281838791424,2.204047203063965,-1.7653884887695312,-0.2548391819000244,-0.394747257232666,-0.26206693053245544,-0.8529358506202698,-0.4514656960964203,-0.05301177501678467,-0.43743884563446045,0.20605865120887756,0.783051485733458,0.5207269718111764,0.0557724442469406,0.3355043512285325,1.021583787452975,-0.5259430969881257,1.1090582507633913
1784547281848710400,2.213966131210327,-3.514374017715454,-0.3383710980415344,-0.07954785227775574,-0.2625892162322998,-0.8415489196777344,-0.4720616638660431,0.049896955490112305,-0.8068885207176208,0.3601994812488556,0.7901520188723526,0.511330034517403,0.05010751879505173,0.3342013035445927,1.0001442494535482,-0.5076369563331915,1.0818888835873288
1784547281858630144,2.223886013031006,-3.8845841884613037,-0.038964953273534775,-0.0755150318145752,-0.26186490058898926,-0.8230090141296387,-0.5040663480758667,0.29445767402648926,-0.6264843940734863,0.5614851713180542,0.8000069969742455,0.4960275519867099,0.043857572652831536,0.33469677345886606,0.9666881411712737,-0.479129442367584,1.0474915850093336
1784547281868550400,2.2338061332702637,-2.981490135192871,-0.4052988290786743,0.22191521525382996,-0.26381975412368774,-0.8056658506393433,-0.5303786993026733,0.26389604806900024,-0.09284782409667969,0.22697299718856812,0.8080962256752197,0.4831572003269998,0.037010372784902934,0.3349175350519019,0.9367986805216074,-0.46157963118637874,1.0224698563433567
1784547281878470144,2.2437260150909424,-2.1982791423797607,0.4463323950767517,-0.5325915813446045,-0.262325644493103,-0.7920961380004883,-0.5511523485183716,0.07363545894622803,0.34328943490982056,0.07788580656051636,0.8144484598817335,0.4725585865108116,0.033349910698197476,0.335036988187449,0.9142354391114182,-0.4442301066751553,1.0017926901553702
1784547281888389376,2.253645181655884,-1.1478853225708008,0.4646223485469818,0.08023720979690552,-0.2567146122455597,-0.7832865715026855,-0.5661799311637878,0.08721998333930969,0.12967634201049805,0.12134045362472534,0.8188113392470691,0.46451969385065284,0.03363752268015345,0.33561568985899626,0.899935068672623,-0.425690425369393,0.9860154164926518
1784547281898309120,2.2635650634765625,-1.5541415214538574,0.07594462484121323,0.08497364819049835,-0.2570229172706604,-0.7757710218429565,-0.5762973427772522,0.5576974153518677,-0.36836349964141846,0.0712314248085022,0.8213026063398781,0.45916167366627153,0.03196689256476111,0.3370620085036952,0.8879360345905676,-0.41951431207443557,0.9807055909727456
1784547281908229376,2.2734851837158203,-2.282747268676758,0.25615689158439636,0.1028858944773674,-0.25724416971206665,-0.7647252082824707,-0.5907797813415527,0.37412652373313904,-0.6232447028160095,0.22844457626342773,0.8254002319003932,0.45141366549233214,0.02891019107382606,0.3377934278104443,0.870614802377722,-0.4106730033205413,0.9700222976813065
1784547281918148352,2.2834041118621826,-3.580965042114258,0.13694500923156738,0.37379807233810425,-0.2580855190753937,-0.7458480596542358,-0.6140868663787842,0.35297995805740356,-0.8332077860832214,0.4799315929412842,0.8315845626405579,0.43860759499254054,0.02408199773265206,0.33986865647320275,0.8418070504657639,-0.39786194526379143,0.9559729697733963
1784547281928068096,2.2933239936828613,-3.3154380321502686,-0.8167434930801392,0.7531031966209412,-0.2646051049232483,-0.7231060266494751,-0.6380453705787659,0.2027917504310608,-0.6912464499473572,0.17356783151626587,0.8379556108184242,0.42513029765910393,0.015541541891917532,0.3418379490130623,0.8082884660341424,-0.3931244732910536,0.9445931694743116
1784547281937988352,2.303244113922119,-3.924454927444458,-0.47203803062438965,0.44152510166168213,-0.2713455557823181,-0.6984558701515198,-0.6622167229652405,0.364164799451828,-0.3735504150390625,0.18852293491363525,0.8445086422474132,0.41091397615459296,0.006428717719131552,0.3433854791862466,0.773237559623291,-0.38888610637354454,0.9323851898276514
1784547281947907328,2.3131630420684814,-3.8982698917388916,-0.5979816913604736,0.7801616787910461,-0.2789393365383148,-0.6705203056335449,-0.6874557137489319,0.2800379693508148,0.19708585739135742,0.3368697762489319,0.8515128087946285,0.3952936530530741,-0.0038827587995225506,0.34446152014560155,0.7349098752763532,-0.3854586590703293,0.9187698335592394
1784547281957827328,2.3230831623077393,-2.851365089416504,0.10329197347164154,0.39823105931282043,-0.2837982475757599,-0.6453239917755127,-0.7092358469963074,0.2475433349609375,0.42661982774734497,0.011451363563537598,0.8570467321619794,0.3811175809564904,-0.011466484180081372,0.3465382290390355,0.7014473473608837,-0.3806326860571569,0.9092114619589464
1784547281967747328,2.333003044128418,-2.059006690979004,0.459213525056839,0.47895580530166626,-0.2845044732093811,-0.6271706819534302,-0.7250614762306213,0.0843854546546936,0.24795925617218018,-0.05586808919906616,0.8607599935105702,0.3704580503795037,-0.015169051404216273,0.34874480066178454,0.6779153378460312,-0.3739259916847621,0.9030856488415674
1784547281977667328,2.342923164367676,-1.8132495880126953,0.2532414495944977,0.28806573152542114,-0.2850243151187897,-0.6118150949478149,-0.7378641366958618,0.17841115593910217,0.11093008518218994,-0.08060204982757568,0.8635751354873729,0.3615813444423113,-0.018079533707802832,0.35095595121016,0.6583532191524667,-0.3686256833799706,0.8992191243412717
1784547281987586304,2.352842092514038,-1.3506555557250977,0.2229754626750946,0.21563848853111267,-0.28546300530433655,-0.5993970036506653,-0.7478195428848267,0.20144811272621155,0.15577822923660278,0.04159700870513916,0.865859136302886,0.3544962185082542,-0.020558828405956964,0.35241688452720127,0.6427475999474118,-0.36465534649242676,0.8956853726761724
1784547281997506304,2.362762212753296,-1.1100690364837646,0.03959685191512108,0.1633736789226532,-0.28521621227264404,-0.5902060270309448,-0.7551877498626709,0.15226635336875916,0.24056613445281982,0.1045682430267334,0.8676557097233476,0.34915976408268407,-0.022216642277813066,0.3532242688277177,0.631314017590505,-0.3611145762947494,0.8923162987978442
1784547282007426304,2.3726820945739746,-0.8488977551460266,0.29837876558303833,0.14444023370742798,-0.2852412760257721,-0.5827466249465942,-0.7609493136405945,0.2430507242679596,0.23386967182159424,0.11824911832809448,0.8688720547559179,0.3449254513596882,-0.02349004460727669,0.3543107457556211,0.6221044274837869,-0.3586384987056003,0.8908129280600687
1784547282017345280,2.382601022720337,-1.0653895139694214,0.3741028308868408,0.06485486030578613,-0.2830706834793091,-0.5752046704292297,-0.7674703001976013,0.12599673867225647,0.20789504051208496,0.14329427480697632,0.8704111649930908,0.34014280492926197,-0.023827023912589753,0.3551333137422143,0.6128543068564656,-0.35335572476842303,0.8876358846106718
1784547282027265280,2.3925211429595947,-1.0951037406921387,0.11743560433387756,0.22950585186481476,-0.2820287048816681,-0.566970705986023,-0.7739534974098206,0.16142326593399048,0.070037841796875,0.27398401498794556,0.8718633545337082,0.335274221995443,-0.02478830017234174,0.35613339292043195,0.6028237162872067,-0.34944536843879864,0.885226126611514
1784547282037185280,2.4024410247802734,-1.426468849182129,0.6355496048927307,0.4761427938938141,-0.2808486819267273,-0.5562314391136169,-0.782132089138031,0.2771865725517273,0.06733983755111694,0.2529420256614685,0.8734466392009047,0.32903260090096814,-0.02591326769426131,0.35799031662555936,0.5898440621857374,-0.34474167412733236,0.8836309567126939
1784547282047104256,2.412360191345215,-1.2322180271148682,0.3983848989009857,0.3540495038032532,-0.2789801359176636,-0.544873058795929,-0.790748655796051,0.15317142009735107,0.013424694538116455,0.1153947114944458,0.8748284322430074,0.3223664523927786,-0.02656178804648364,0.3606239192905001,0.5762377022790822,-0.3391715535213054,0.8834032796587133
1784547282057024256,2.4222800731658936,-1.4810429811477661,0.5089172720909119,0.5062563419342041,-0.2777842879295349,-0.5333698391914368,-0.7989696860313416,0.2712230384349823,-0.12292593717575073,0.05919307470321655,0.8760907474447314,0.3158392504901683,-0.027581390090400195,0.3632491839359322,0.5625794200077459,-0.33460486576407694,0.883620035917218
1784547282066944256,2.4322001934051514,-1.992423415184021,0.5628028512001038,0.4286735951900482,-0.2758983075618744,-0.5181916952133179,-0.8095415234565735,0.2941173017024994,-0.13554060459136963,0.020692646503448486,0.8780467806736743,0.3072149865271349,-0.02912381388832543,0.3657929757882,0.5447352608789595,-0.32846269857804494,0.881976314246651
1784547282076863232,2.4421191215515137,-2.1037752628326416,0.4792027771472931,0.3976312577724457,-0.2740614116191864,-0.5005609393119812,-0.8211753964424133,0.2728712260723114,-0.09633231163024902,-0.03391188383102417,0.8804158524651283,0.2973728907059435,-0.03133149714091819,0.3680428205384547,0.5242466248956548,-0.32211906238410615,0.8790326950303824
1784547282086783232,2.4520390033721924,-1.659261703491211,0.04165041446685791,0.34538865089416504,-0.273706316947937,-0.48393577337265015,-0.831198513507843,0.2771853506565094,0.034701794385910034,-0.11650955677032471,0.8825228508890905,0.28850025373801397,-0.034181042470046406,0.36980074981914307,0.5051466535360507,-0.31810819497984755,0.8763519015899165
1784547282096703232,2.46195912361145,-1.5783277750015259,-0.1078362762928009,0.3625088036060333,-0.27584347128868103,-0.4696543514728546,-0.8386507630348206,0.2631481885910034,0.061680108308792114,-0.22455108165740967,0.8841300500387466,0.28149602929224815,-0.03787600129755746,0.3709978865928942,0.4888992372046476,-0.31776735770947523,0.8745028700786383
1784547282106623232,2.471879005432129,-1.615660309791565,0.25256580114364624,0.43542587757110596,-0.2767041325569153,-0.45480966567993164,-0.8465122580528259,0.21406680345535278,0.09792184829711914,-0.10842853784561157,0.8856636719567955,0.2739855714085039,-0.04093627162867099,0.37263384572451785,0.47215847171708186,-0.3159273037992718,0.8731152876030144
1784547282116542464,2.4817981719970703,-1.0931962728500366,-0.07939482480287552,0.29997751116752625,-0.2774851322174072,-0.44254279136657715,-0.8527355194091797,0.14584758877754211,0.12113165855407715,-0.1638813018798828,0.886796350180523,0.26785037981099025,-0.04345576400991765,0.3741124331823523,0.45843227179124074,-0.3145989400009218,0.8724113326546657
1784547282126462208,2.491718053817749,-0.8595579266548157,0.08735862374305725,0.05804925411939621,-0.2781672179698944,-0.43443286418914795,-0.8566744327545166,0.1592249572277069,0.13322436809539795,-0.1793820858001709,0.8876911529846292,0.26383180914962767,-0.04533830159338921,0.3746220028822921,0.4494085348900884,-0.31396584972125113,0.8710101644504443
1784547282136382464,2.501638174057007,-0.5919656157493591,0.11432553082704544,0.31541579961776733,-0.27768653631210327,-0.42714789509773254,-0.8604852557182312,0.09798377752304077,0.18505194783210754,-0.0822179913520813,0.888490818764851,0.25999887081851314,-0.04645380969987924,0.3752688861742365,0.44133605261552,-0.3121585870132686,0.8698447659651879
1784547282146301184,2.511557102203369,-0.2249884009361267,-0.0404401570558548,0.1877189576625824,-0.27817201614379883,-0.42356541752815247,-0.8620978593826294,0.12366151809692383,-0.032855480909347534,-0.2078789472579956,0.8883833194108014,0.25833589353485725,-0.04704942309008007,0.3765953133658282,0.4373776334957751,-0.3121219076146012,0.8718026615938197
1784547282156221440,2.521477222442627,-0.4689646065235138,0.15100517868995667,0.20194876194000244,-0.27896857261657715,-0.4203276038169861,-0.8634241223335266,0.16869330406188965,-0.12863785028457642,-0.08551996946334839,0.8884355493983753,0.25689441931515894,-0.04788723675597955,0.37735177320981506,0.4338063342737075,-0.31250850890299336,0.8727019734012476
1784547282166141184,2.5313971042633057,-0.47476908564567566,-0.27259737253189087,0.47890228033065796,-0.2805735170841217,-0.41547709703445435,-0.8652498126029968,0.1449686586856842,-0.013340622186660767,-0.012176334857940674,0.8884820577694237,0.25483292459584367,-0.04934845105976388,0.3784501005632279,0.42846726527280155,-0.3135704086214694,0.8741139852772916
1784547282176060160,2.541316032409668,-0.17864874005317688,0.21349449455738068,0.09371623396873474,-0.28277865052223206,-0.41138696670532227,-0.8664854168891907,0.15344515442848206,-0.058660030364990234,0.01017749309539795,0.8882607779463135,0.2533175676410017,-0.05086735122247072,0.37978355737293307,0.42397522117164355,-0.31545360582600773,0.8765059397005316
1784547282185980416,2.551236152648926,-0.3694332242012024,0.2105279266834259,0.21058113873004913,-0.2809236943721771,-0.40870869159698486,-0.8683542609214783,0.07035240530967712,-0.21290385723114014,0.02533668279647827,0.8884153892058448,0.2515780844643183,-0.050312450772466634,0.3806511767943414,0.42103874169845734,-0.31288617365275834,0.8769812851965691
1784547282195900160,2.5611560344696045,-0.5851835608482361,-0.0556691437959671,0.5439111590385437,-0.28188931941986084,-0.40383219718933105,-0.8703206181526184,0.20414578914642334,-0.24491047859191895,0.07079058885574341,0.8882521788916609,0.24941000623043608,-0.0513258347247817,0.382319749237145,0.41570195603280347,-0.31322882843432537,0.8794814186443556
1784547282205820416,2.5710761547088623,-0.909970223903656,0.46608173847198486,0.3458506762981415,-0.2820577025413513,-0.3962847590446472,-0.8737286925315857,0.23689168691635132,-0.2465527355670929,0.06312084197998047,0.92887251175753,0.23741815532941646,-0.08226950475847307,0.2721399449892209,0.40746675481426675,-0.31225951631584975,0.6350250370664164
1784547282215739136,2.5809950828552246,-1.0731120109558105,0.18703973293304443,0.44740739464759827,-0.2798705995082855,-0.3866368234157562,-0.8787402510643005,0.13739928603172302,-0.22917741537094116,0.024599015712738037,0.9297400864418476,0.23212027320013953,-0.08215874479755035,0.2737762956940392,0.3969820012417799,-0.3083332625101236,0.635236661922319
1784547282225659392,2.5909152030944824,-1.2206635475158691,0.12592419981956482,0.38241302967071533,-0.28058937191963196,-0.3751799166202545,-0.8834645748138428,0.26372841000556946,-0.19955766201019287,-0.06810402870178223,0.9304419349790258,0.22641328336995933,-0.08369432928092471,0.27569922650500406,0.38459084733732957,-0.30752540517124016,0.636469676626597
1784547282235579136,2.600835084915161,-1.1629514694213867,0.004176998045295477,0.3319226801395416,-0.2815161943435669,-0.3637945055961609,-0.8879201412200928,0.152197927236557,-0.12132814526557922,-0.09631752967834473,0.9313395011109653,0.22072635092917603,-0.08555585948907893,0.2767070673251036,0.37233831583629345,-0.30702580684163994,0.635870757484665
1784547282245498112,2.6107540130615234,-0.7733582854270935,0.012845586985349655,0.3556254506111145,-0.28149619698524475,-0.35403972864151,-0.891860842704773,0.08622947335243225,0.02472454309463501,-0.19779980182647705,0.9320529068929772,0.21576698695447388,-0.08668443829208623,0.27786279290923965,0.3618870985893967,-0.30573198262902784,0.6358174625995632
1784547282255418368,2.6206741333007812,-0.530936062335968,-0.27980464696884155,0.5706615447998047,-0.28485509753227234,-0.34768790006637573,-0.8932920694351196,0.05304357409477234,-0.017088711261749268,-0.29082047939300537,0.9319370932915056,0.21320003609056543,-0.08888033964152461,0.27953402160272534,0.3551040082062569,-0.30868880935853976,0.6386420282707609
1784547282265338112,2.63059401512146,-0.5486811399459839,0.04415187984704971,0.23038993775844574,-0.2869836390018463,-0.341541051864624,-0.8949804902076721,0.09614196419715881,-0.019726067781448364,-0.19139951467514038,0.9318931438541835,0.2105433057372243,-0.09045032589145915,0.28118575198344653,0.34855604698609544,-0.31030069509182123,0.6411590184578669
1784547282275257344,2.6405131816864014,-0.4400896728038788,-0.1324646919965744,0.4621805250644684,-0.28839316964149475,-0.33594071865081787,-0.8966455459594727,0.06263938546180725,-0.06815779209136963,-0.20978450775146484,0.9319536374708203,0.2080206835166778,-0.09167676217464858,0.2824627472256894,0.3426038229982859,-0.31118595933013393,0.6428321573243146
1784547282285177344,2.65043306350708,-0.030701955780386925,-0.0758722573518753,0.10417510569095612,-0.2899180054664612,-0.33328232169151306,-0.8971457481384277,0.16735944151878357,-0.07286086678504944,-0.23002099990844727,0.9317777530111525,0.20701210186238386,-0.0925911750821875,0.2834839589868721,0.33978279842707165,-0.31256315072600777,0.6447304570170531
1784547282295097344,2.660353183746338,-0.18934938311576843,-0.12767472863197327,0.48859307169914246,-0.29150065779685974,-0.3318009674549103,-0.8971819877624512,0.13921794295310974,-0.08476397395133972,-0.18440675735473633,0.9400631935077037,0.20354355415275524,-0.09989507375078799,0.2547004855640085,0.3382120475566873,-0.31414771986326334,0.5832439755487371
1784547282305017344,2.6702730655670166,-0.2511240243911743,-0.32517582178115845,0.49463966488838196,-0.29514896869659424,-0.32782912254333496,-0.897449254989624,0.22689640522003174,-0.09529706835746765,-0.11491036415100098,0.9395499072857822,0.20228213186952848,-0.10177089914124406,0.2568474142362843,0.334004801937762,-0.31773304581509876,0.5877087397286993
1784547282314936064,2.680191993713379,-0.010623517446219921,-0.20713813602924347,0.32457712292671204,-0.2990701496601105,-0.32606807351112366,-0.8967924118041992,0.18865755200386047,-0.13554081320762634,-0.13578510284423828,0.9389872412280618,0.20213711447350338,-0.10365508303606909,0.2582617219337344,0.3321413190962883,-0.3218903985790229,0.5912228365001018
1784547282324856320,2.6901121139526367,-0.18770208954811096,-0.3004157841205597,0.3952102065086365,-0.30277496576309204,-0.32381439208984375,-0.896365761756897,0.12713104486465454,-0.08213043212890625,-0.08129537105560303,0.9384780622358097,0.20171321828616623,-0.10549360466096935,0.2596956546752138,0.32975834069100174,-0.3257477378634679,0.5946010412039344
1784547282334776064,2.7000319957733154,0.03627694770693779,-0.27916935086250305,0.48905572295188904,-0.30772969126701355,-0.32213038206100464,-0.8952845931053162,0.09357261657714844,-0.06223851442337036,-0.07981306314468384,0.9377372842983445,0.20181209131412262,-0.10784059104636862,0.2613258083846995,0.32797896754832156,-0.3310717323286045,0.5988391010497428
1784547282344695296,2.709951162338257,-0.007011938840150833,-0.014537680894136429,0.4051043689250946,-0.31042271852493286,-0.3210512101650238,-0.8947423696517944,0.06916600465774536,-0.0742887556552887,-0.038942933082580566,0.941047601946492,0.20018273999025973,-0.11205221168067228,0.24859735160372667,0.3268392471700416,-0.33394698182215515,0.5721094506608541
1784547282354615296,2.7198710441589355,-0.1698293387889862,-0.06357207149267197,0.45293235778808594,-0.3126371502876282,-0.3187522888183594,-0.8947932720184326,0.08630350232124329,-0.16682815551757812,-0.006222963333129883,0.9427300682957598,0.19855220907544816,-0.11480584149616464,0.24219146773590575,0.32441281519008053,-0.33613658094572224,0.5584488980377614
1784547282364535296,2.7297911643981934,-0.4862610697746277,-0.25179922580718994,0.33430930972099304,-0.31538811326026917,-0.31451353430747986,-0.895327627658844,0.17570915818214417,-0.26353517174720764,-0.008084237575531006,0.9436762386393018,0.19637162447550432,-0.11736424613817271,0.2390375908876103,0.31994414292833856,-0.33868674912938057,0.5513348394202942
1784547282374454272,2.7397100925445557,-0.5608733296394348,-0.36442458629608154,0.5646631717681885,-0.32049140334129333,-0.30842816829681396,-0.8956323862075806,0.18973883986473083,-0.23452535271644592,-0.004987120628356934,0.9444476508007831,0.19361584419010083,-0.12123001837317844,0.23629418636881283,0.3135401918439916,-0.34364042132088013,0.5451660772029342
1784547282384374272,2.7496302127838135,-0.652915894985199,-0.2515510320663452,0.36777910590171814,-0.32483819127082825,-0.3013511896133423,-0.8964751362800598,0.12998345494270325,-0.13874280452728271,-0.08876961469650269,0.9449868702596556,0.19041562050757013,-0.12451639477445593,0.23502658545564412,0.30610940875090076,-0.3476348208533135,0.541686192314807
1784547282394294272,2.759550094604492,-0.6142284274101257,-0.19292686879634857,0.3353452682495117,-0.32773804664611816,-0.29465237259864807,-0.8976457118988037,0.09423279762268066,-0.047724366188049316,-0.10172867774963379,0.9456160002618386,0.18719653695911892,-0.12702208917217017,0.23373775629223098,0.299091712656699,-0.35007056219816585,0.5379245366254424
1784547282404214272,2.76947021484375,-0.36223655939102173,-0.3531967103481293,0.367816299200058,-0.33108219504356384,-0.2896573543548584,-0.8980441093444824,0.16936954855918884,-0.0231020450592041,-0.16613435745239258,0.9459215574153539,0.18498556254675233,-0.1294538051482792,0.23292599874626635,0.2938688202501518,-0.35320982256727856,0.5356914898851789
1784547282414133248,2.7793891429901123,-0.6404950618743896,-0.33561795949935913,0.37202516198158264,-0.3351484537124634,-0.2834174633026123,-0.8985266089439392,0.16229692101478577,-0.0704033374786377,-0.09425598382949829,0.9460879285385096,0.18232544814464188,-0.13226535786921229,0.23276820290558678,0.2873558332131977,-0.3570141635283157,0.5346766437176521
1784547282424053248,2.789309024810791,-0.4712272882461548,-0.37677064538002014,0.3543854057788849,-0.3395373821258545,-0.2773061990737915,-0.8987856507301331,0.15020635724067688,-0.150473952293396,-0.11752599477767944,0.9462572514706142,0.17974493087727328,-0.13527356396910495,0.23235762466814253,0.2809892117274711,-0.36120000517626305,0.5332148747188048
1784547282433973248,2.799229145050049,-0.7194477319717407,-0.2422618418931961,0.3403657376766205,-0.3431892395019531,-0.27087709307670593,-0.8993590474128723,0.12796401977539062,-0.17606809735298157,-0.1287170648574829,0.946524954745433,0.17688699396311167,-0.13795453193533228,0.23188368250786875,0.27430407774928334,-0.36453836699417375,0.5313715322776583
1784547282443892224,2.809148073196411,-0.5814710259437561,-0.43669816851615906,0.3316468894481659,-0.3471972644329071,-0.26387593150138855,-0.8999019861221313,0.1630236804485321,-0.06405073404312134,-0.10174596309661865,0.9467320279190696,0.17381886717254294,-0.1408403935566305,0.23162339251245367,0.26703834866663484,-0.36821996343179203,0.5298996342768946
1784547282453812480,2.819068193435669,-0.6277163028717041,-0.42245903611183167,0.30266958475112915,-0.3523085415363312,-0.257402628660202,-0.8997902870178223,0.17063739895820618,-0.030072957277297974,-0.15198278427124023,0.9467716937085765,0.17117931182851326,-0.1442306959790817,0.2313406124061428,0.26033328294311836,-0.373196537966669,0.5287208133317028
1784547282463732224,2.8289880752563477,-0.6700149774551392,-0.25638097524642944,0.2900278568267822,-0.35578542947769165,-0.2509484589099884,-0.9002453088760376,0.03573232889175415,-0.05894225835800171,-0.1268695592880249,0.9469713303897576,0.16831133088691003,-0.14679456573214028,0.23101517180755562,0.25365995090181254,-0.3763697651107859,0.5271137320244854
1784547282473651200,2.83890700340271,-0.770230770111084,-0.3033687174320221,0.4013519883155823,-0.35901349782943726,-0.24343635141849518,-0.9010260701179504,0.060109108686447144,-0.15350577235221863,-0.08179247379302979,0.9472201101078028,0.16489118017695428,-0.149324652035426,0.23083975789105313,0.24590721773789756,-0.3791691305706897,0.5255026594453669
1784547282483571200,2.8488271236419678,-0.9161210060119629,-0.3303794860839844,0.32149407267570496,-0.3622754216194153,-0.23435238003730774,-0.9021283388137817,0.18846258521080017,-0.17588014900684357,-0.10521113872528076,0.9476239375579266,0.16062926673981429,-0.15209892412715673,0.23037604224771926,0.23655234293984173,-0.3818665053468721,0.5228944661052706
1784547282493491200,2.8587470054626465,-0.8540762662887573,-0.4258338510990143,0.48324036598205566,-0.36628976464271545,-0.22516974806785583,-0.9028457403182983,0.14354199171066284,-0.16437187790870667,-0.11374056339263916,0.9477833457495003,0.15652421294739727,-0.15516865077097178,0.23049866377920078,0.22711725800715307,-0.3854154950412583,0.5216338837987633
1784547282503411200,2.8686671257019043,-0.9091013073921204,-0.34015920758247375,0.5160402059555054,-0.3712545335292816,-0.21522089838981628,-0.9032441973686218,0.15810447931289673,-0.054874926805496216,-0.06611615419387817,0.9475997468152371,0.15234857051195017,-0.15864368519066138,0.23168280467210992,0.2169180311086617,-0.3899730613434922,0.5225830376259238
1784547282513330176,2.8785860538482666,-0.7317371964454651,-0.3538912832736969,0.29586899280548096,-0.3749717175960541,-0.20626746118068695,-0.9037975072860718,0.08018717169761658,0.05102454125881195,-0.021556496620178223,0.9477114443268849,0.14833979835661684,-0.16154428211292526,0.23182247544261225,0.20775884405415465,-0.3932717734065506,0.5213353327300183
1784547282523250432,2.8885061740875244,-0.25042545795440674,-0.21716554462909698,0.2482614815235138,-0.3780365288257599,-0.20097722113132477,-0.9037126302719116,0.13421630859375,0.03583136200904846,-0.05893385410308838,0.9476537302580873,0.146108606869894,-0.1636947055794409,0.2319669301821258,0.2023553893700273,-0.3961947709443803,0.5208722389326579
1784547282533170176,2.898426055908203,-0.5685770511627197,-0.23157165944576263,0.38273778557777405,-0.3811063766479492,-0.19633296132087708,-0.9034441113471985,0.11705303192138672,-0.034639328718185425,0.012956440448760986,0.9475423868183445,0.14421277350274256,-0.16577277347375974,0.23213241100214158,0.19761668772111957,-0.3991887137189728,0.5206043871418472
1784547282543089408,2.9083452224731445,-0.45637834072113037,-0.11069145798683167,0.20812617242336273,-0.3832264542579651,-0.1904832273721695,-0.9037995338439941,0.1252003312110901,-0.0003889501094818115,0.12720346450805664,0.9475757376878167,0.14158580212204921,-0.16749236497845663,0.23237868273915058,0.19165436731537414,-0.40103781701861896,0.5200462598192807
1784547282553009152,2.9182651042938232,-0.42615652084350586,-0.17946173250675201,0.20314499735832214,-0.3845811188220978,-0.1858072280883789,-0.9041974544525146,0.10940411686897278,-0.10839749872684479,0.11270880699157715,0.947652875253685,0.13942512053788214,-0.1687065730527783,0.23249245444509342,0.18689332675271422,-0.4021490137519701,0.5193675174456351
1784547282562929152,2.928184986114502,-0.7290425300598145,-0.09322758764028549,0.30192744731903076,-0.38586699962615967,-0.18004116415977478,-0.9048159122467041,0.15959444642066956,-0.16265597939491272,0.2200930118560791,0.9477319822131802,0.13674496320372026,-0.1699790133270029,0.23283459971716866,0.18102829384849675,-0.4031059039866344,0.5188950680937473
1784547282572849152,2.9381051063537598,-0.7226919531822205,0.032223012298345566,0.16165794432163239,-0.3868408799171448,-0.17225739359855652,-0.9059147238731384,0.12419134378433228,-0.14625458419322968,0.3327946066856384,0.947933573214927,0.13300564152637373,-0.1713246254451162,0.23319366788037688,0.17312085816881265,-0.4035777106819985,0.5179256991117743
1784547282582768128,2.948024034500122,-0.8455286622047424,0.16709670424461365,0.28172868490219116,-0.3863818347454071,-0.16457697749137878,-0.907537043094635,0.0983264148235321,-0.20232060551643372,0.3543906807899475,0.9483372450082054,0.129074325955916,-0.17196307889424403,0.23329137980780632,0.16532912137509825,-0.40250381777857314,0.516224865032138
1784547282592688384,2.95794415473938,-0.9822015166282654,0.24452093243598938,0.37650206685066223,-0.3849365711212158,-0.15487505495548248,-0.9098557829856873,0.11008000373840332,-0.09321759641170502,0.42162030935287476,0.9487911386115779,0.12408906707062076,-0.17226148520660628,0.2339297285458114,0.15550097555629508,-0.4002384253407562,0.5150703611788653
1784547282602608128,2.9678640365600586,-0.8183771967887878,0.4485962986946106,0.12428952753543854,-0.3821645975112915,-0.14564095437526703,-0.9125453233718872,0.0792165994644165,0.01937447488307953,0.3999263048171997,0.9493487001422285,0.11915927364798938,-0.1718383373227876,0.2345415188562987,0.1461608033041167,-0.396598752026386,0.5138301740733116
1784547282612527360,2.977783203125,-0.5991129875183105,0.517002284526825,0.26067987084388733,-0.3782927989959717,-0.13924174010753632,-0.9151536822319031,0.04371336102485657,0.040532633662223816,0.34738945960998535,0.9500068267055638,0.11542139385826308,-0.1705902907075886,0.23465722485083265,0.13969564986971725,-0.39197484784256936,0.5120953535790538
1784547282622447360,2.9877030849456787,-0.8879870772361755,0.8601686358451843,0.07113765925168991,-0.37197500467300415,-0.13201192021369934,-0.9188076257705688,0.08776482939720154,0.05228473246097565,0.37751734256744385,0.950800689020107,0.1110352397923699,-0.16812900413129783,0.2353337251268219,0.13239838564937334,-0.38467643369601956,0.5110899500965871
1784547282632367360,2.9976232051849365,-0.635406494140625,0.7207337617874146,-0.04813254252076149,-0.3648107051849365,-0.12511758506298065,-0.922636866569519,0.0067479610443115234,0.07288675010204315,0.41114699840545654,0.9519504549270962,0.10649225437536095,-0.16535108512877078,0.2347523765335406,0.12544634115549408,-0.376534670371819,0.5074857033761295
1784547282642286336,3.007542133331299,-0.6140532493591309,0.8102311491966248,0.049620915204286575,-0.35813823342323303,-0.11983893811702728,-0.9259458184242249,0.14173811674118042,0.05031990259885788,0.36022621393203735,0.9528911148566813,0.102890966573053,-0.1626055108909258,0.23445958228239458,0.12012764701522682,-0.3690590041853768,0.5049647612488191
1784547282652206080,3.0174620151519775,-0.6255716681480408,1.0915898084640503,-0.099168561398983,-0.34921884536743164,-0.11430656909942627,-0.93004310131073,0.07912302017211914,0.13467706739902496,0.43849653005599976,0.9540449559814954,0.09886740590867799,-0.1587566581829911,0.2341361137939545,0.11455696235867253,-0.3591973136092101,0.5021362081112763
1784547282662126336,3.0273821353912354,-0.23680013418197632,1.0763165950775146,-0.12042318284511566,-0.339258074760437,-0.11062485724687576,-0.9341660141944885,0.054330676794052124,0.22450119256973267,0.396644651889801,0.9552485439512954,0.09561500279770425,-0.1541907052718658,0.2336305673470879,0.11085174746424883,-0.3483562102748732,0.49925888277717956
1784547282672046080,3.037302017211914,-0.0748881921172142,1.288583755493164,-0.13737313449382782,-0.32794302701950073,-0.11015965789556503,-0.9382527470588684,0.12259024381637573,0.24172094464302063,0.3495991826057434,0.9564377644542419,0.09380447734867124,-0.1485743673197221,0.23313789086106415,0.11038368617077365,-0.33625181577562696,0.49694139528671954
1784547282681965312,3.0472211837768555,-0.12466826289892197,1.275375247001648,-0.1987956315279007,-0.31566181778907776,-0.10991672426462173,-0.9424839019775391,0.13914817571640015,0.26567843556404114,0.38289833068847656,0.9576645011086238,0.09199481096019917,-0.14246051052688846,0.23263851143904932,0.11013926922738396,-0.3231827454946449,0.4945852493486469
1784547282691885312,3.057141065597534,0.2713046371936798,1.215667724609375,-0.11923421919345856,-0.30347952246665955,-0.11201361566781998,-0.9462310075759888,0.14365896582603455,0.21624641120433807,0.33543694019317627,0.9588006821666136,0.09135670520998226,-0.1361559579702161,0.23198443590673928,0.11224918894283262,-0.31036005571461334,0.49235909488798607
1784547282701805312,3.067061185836792,0.29633939266204834,1.2820650339126587,-0.13702039420604706,-0.2913007140159607,-0.11630921065807343,-0.9495346546173096,0.19335457682609558,0.14516356587409973,0.27425694465637207,0.9596373015981609,0.09193029358244299,-0.1295434055203698,0.23208541261109683,0.11657305286901218,-0.29766770665865594,0.4920800021917115
1784547282711724288,3.0769801139831543,0.327932208776474,1.2006326913833618,-0.1324152648448944,-0.27885720133781433,-0.11974012851715088,-0.9528383612632751,0.16600322723388672,0.17909681797027588,0.3294253349304199,0.9605625059313587,0.09200021537058835,-0.12295029262739776,0.2318163869972997,0.12002812462374694,-0.28470885612708025,0.49083502475461427
1784547282721644288,3.086899995803833,0.6507078409194946,1.2418928146362305,-0.4730556607246399,-0.2669287621974945,-0.1252424418926239,-0.9555435180664062,0.2082434594631195,0.1642286628484726,0.23722076416015625,0.9614511449667099,0.09311373256933045,-0.11643920452847473,0.23104833239903905,0.12557219301306824,-0.27240360895370275,0.488911987339396
1784547282731564288,3.096820116043091,1.3595980405807495,0.9968044757843018,-0.44466397166252136,-0.25537365674972534,-0.13564443588256836,-0.9572799205780029,0.17895764112472534,0.30761098861694336,0.21931910514831543,0.9623465878139135,0.09659660196888202,-0.10967737978680561,0.2291921109216128,0.13606388551257534,-0.26069895361591816,0.4854723343986017
1784547282741484288,3.1067399978637695,2.407221555709839,1.2367018461227417,-0.41034120321273804,-0.24462348222732544,-0.15511633455753326,-0.9571302533149719,0.19214852154254913,0.37171483039855957,0.060279667377471924,0.9624174044902248,0.10486765268157248,-0.10216486774832131,0.2287311353094585,0.15574521345243866,-0.25022363466141934,0.48629540523370435
1784547282751403264,3.116659164428711,2.3228750228881836,1.4132739305496216,-0.5717303156852722,-0.23076756298542023,-0.1793564110994339,-0.9563354849815369,0.10874304175376892,0.5538681745529175,0.08687448501586914,0.9624525274545369,0.11509816557171687,-0.09265343036532259,0.2277121641639726,0.1803322183092642,-0.23677757367426028,0.4861543734233441
1784547282761323264,3.1265790462493896,2.9840340614318848,1.0051988363265991,-0.6733322739601135,-0.2176714837551117,-0.20549720525741577,-0.9541435837745667,0.1689196676015854,0.6501840949058533,0.3000146150588989,0.9622026591086561,0.12639887882883014,-0.08337579084201396,0.2263575193179945,0.20697172325551663,-0.22429431542940148,0.48548797567158597
1784547282771243264,3.1364991664886475,3.2498226165771484,1.134697675704956,-0.9233048558235168,-0.20527109503746033,-0.23747806251049042,-0.9494566917419434,0.14937815070152283,0.5270135998725891,0.19291067123413086,0.961547025733122,0.140714972870614,-0.07396595650035921,0.22395483643874867,0.23976881355087787,-0.2129214055399908,0.48340757568794507
1784547282781162496,3.146418333053589,3.448106050491333,1.2187628746032715,-0.5208269953727722,-0.1928568184375763,-0.27015742659568787,-0.9433033466339111,0.1944132149219513,0.41738948225975037,0.22835278511047363,0.9602804862750189,0.15558070491271453,-0.06436590273174804,0.22251531913175646,0.2735565388509675,-0.20166914549549939,0.4832509141405006
1784547282791082496,3.1563382148742676,2.876228094100952,0.6547945141792297,-0.8457968235015869,-0.18186889588832855,-0.3015153706073761,-0.9359552264213562,0.12296997010707855,0.1495988667011261,0.0926477313041687,0.9587288201958427,0.1700733977666531,-0.05565449687128705,0.2209450490910161,0.306281585709763,-0.19192199828277776,0.48271546728870596
1784547282801002496,3.1662583351135254,2.4546477794647217,0.509441077709198,-1.1070537567138672,-0.17375043034553528,-0.3272194266319275,-0.9288370609283447,0.10587933659553528,0.130915105342865,0.19716286659240723,0.9577672966638741,0.1820311569380782,-0.049458448837656245,0.2170262170776075,0.33335949472275034,-0.18492512703881725,0.4768643786969771
1784547282810922496,3.176178216934204,2.4539361000061035,0.065570168197155,-0.7535548210144043,-0.16796600818634033,-0.35170722007751465,-0.9209176898002625,0.17454254627227783,0.12238290905952454,0.10551851987838745,0.9565541634096235,0.1937827996236239,-0.04460235146951955,0.21322036499786498,0.359394227626375,-0.18040678194958878,0.4714965984283967
1784547282820841216,3.1860971450805664,2.1711580753326416,0.40712565183639526,-0.8763450980186462,-0.16361452639102936,-0.373961865901947,-0.9128980040550232,-0.018468603491783142,0.2102503478527069,-0.03694635629653931,0.9551622144883894,0.20469403534880992,-0.04063668947760718,0.21003363138547945,0.3832771799613873,-0.17734255756196743,0.46739173469965917
1784547282830761472,3.196017265319824,1.327602744102478,0.8470600843429565,-1.045685887336731,-0.15336106717586517,-0.3916657865047455,-0.907236635684967,-0.17070509493350983,0.26846635341644287,0.11820465326309204,0.9545522053041648,0.21259157956820762,-0.034445835730508405,0.2060297418835886,0.4024413251042265,-0.1674588998314718,0.4593913128255202
1784547282840681216,3.205937147140503,0.681415855884552,0.6575432419776917,-0.5765441656112671,-0.1446005254983902,-0.4015767574310303,-0.9043377637863159,-0.0503152459859848,0.3155019283294678,0.18923461437225342,0.9545051244481337,0.2166727815695613,-0.02973253447165571,0.2027038614923537,0.4132378811909046,-0.15855443968076188,0.4518145790736115
1784547282850600448,3.2158563137054443,0.47688937187194824,0.4058089852333069,-0.533367931842804,-0.13582327961921692,-0.4076286554336548,-0.9029899835586548,0.12384513020515442,0.12828600406646729,0.09946215152740479,0.9547212794487865,0.2187805464008455,-0.025299838294378957,0.2000056528216088,0.41985567254255635,-0.14929583626355586,0.4448760951546811
1784547282860520448,3.225776195526123,0.5844845771789551,0.9098405838012695,-0.35138216614723206,-0.12931282818317413,-0.4132991135120392,-0.9013667702674866,0.15127021074295044,-0.3712772727012634,0.021178781986236572,0.954594345996818,0.22100503296880683,-0.02175774906538248,0.19857731859120126,0.4260741312638882,-0.14249079188875585,0.4410686950563459
1784547282870440448,3.235696315765381,-1.2285792827606201,0.7948612570762634,-0.4503324627876282,-0.1188034638762474,-0.41157761216163635,-0.9035981297492981,-0.05532984435558319,-0.6301246881484985,0.1503327488899231,0.9554163273009854,0.21889250767228755,-0.01694106638864283,0.1974300499274826,0.4241843987331455,-0.13072836548893574,0.43573763810827065
1784547282880359424,3.245615243911743,-2.7282803058624268,0.20669464766979218,0.3510964810848236,-0.1142953410744667,-0.3930746912956238,-0.9123753905296326,0.08208402246236801,-0.5941994190216064,0.33339589834213257,0.9577527916958251,0.20864636654913943,-0.01670335588671632,0.1972235837329784,0.4039730588133204,-0.12462307153297167,0.43172076060357817
1784547282890279168,3.255535125732422,-3.616736888885498,0.062389932572841644,0.6678792834281921,-0.11572778224945068,-0.36373984813690186,-0.9242837429046631,0.11305750906467438,-0.7956687211990356,0.2651498317718506,0.9603601398947762,0.1935387271708276,-0.02002227173071381,0.19962568665341682,0.3722796158409479,-0.12455986122890228,0.43338028512789284
1784547282900199424,3.2654552459716797,-5.149358749389648,0.6657136678695679,0.041226763278245926,-0.11403205990791321,-0.32252252101898193,-0.9396679997444153,-0.1621672809123993,-0.6286493539810181,0.4270337224006653,0.9640881240680009,0.17211772145141144,-0.023270108120657156,0.20091827903632162,0.3283932130254522,-0.12076306485051043,0.4309559038367547
1784547282910119168,3.2753751277923584,-5.830479621887207,0.691114068031311,-0.2596435844898224,-0.1058257669210434,-0.2713441252708435,-0.9566469192504883,-0.1829315423965454,-0.2639036774635315,0.5238771438598633,0.9686593374121342,0.14515195644411527,-0.0246467113466223,0.20005666683967288,0.2747892689599046,-0.11017360917699007,0.4225802383752681
1784547282920038400,3.2852942943573,-6.644218444824219,0.16182319819927216,-0.17903433740139008,-0.10183441638946533,-0.21144048869609833,-0.9720713496208191,-0.015200495719909668,0.17831365764141083,0.2633616328239441,0.9730543019784109,0.11455240338999825,-0.029018626024610954,0.1979924263565143,0.21304852830211923,-0.10437949433686385,0.41264095323339023
1784547282929958400,3.2952141761779785,-5.906667232513428,0.13152840733528137,-0.03741941228508949,-0.10080545395612717,-0.14998197555541992,-0.9835363030433655,0.26857584714889526,0.4548983573913574,0.06617790460586548,0.9762976228933709,0.08380739735254232,-0.03475868758643285,0.19649699949715194,0.15055003647398627,-0.10213621996594924,0.40493757143169323
1784547282939878400,3.3051342964172363,-5.217434883117676,0.740432858467102,-0.20255866646766663,-0.09559032320976257,-0.09650293737649918,-0.9907318949699402,0.17492076754570007,0.4224916994571686,-0.3985808491706848,0.9784701255741587,0.05678812250810132,-0.03753885500508587,0.19483848714914564,0.09665335219339098,-0.09618681089478723,0.3977649168767845
1784547282949797376,3.3150532245635986,-5.6010847091674805,0.8307222723960876,-0.2507224678993225,-0.08760150521993637,-0.043852102011442184,-0.995189905166626,0.10447773337364197,0.2845137119293213,-0.14326828718185425,0.9800621437599693,0.029994600503318366,-0.03879904166292275,0.19254398986122617,0.04386616719522969,-0.08779861201300097,0.389907997876906
1784547282959717632,3.3249733448028564,-5.8870649337768555,1.3146628141403198,-0.21368415653705597,-0.07687270641326904,0.012933634221553802,-0.996957004070282,0.16451919078826904,-0.0245760940015316,-0.008810758590698242,0.9809664708467543,0.0009690825963461953,-0.03899421277459892,0.19021936752638535,-0.012933994527812225,-0.07695507073647398,0.38256841740564795
1784547282969637376,3.334893226623535,-6.023969650268555,1.320684790611267,-0.05658748000860214,-0.0636022761464119,0.07161276787519455,-0.9954026341438293,0.3199651837348938,-0.33443015813827515,-0.07375019788742065,0.9809932208130476,-0.02921353657526893,-0.038016608304449126,0.1880257599668028,-0.07167411737712019,-0.06380928618765379,0.3764556869216457
1784547282979557632,3.344813346862793,-6.447558403015137,0.9482323527336121,0.02171115204691887,-0.05241304636001587,0.13303379714488983,-0.9897246360778809,0.5243216156959534,-0.469764769077301,-0.12882083654403687,0.9798882249178172,-0.06061009132696089,-0.03826345980335138,0.18622954569595582,-0.13342936676764425,-0.05290777929748445,0.3720881578436835
1784547282989476352,3.3547322750091553,-6.690229415893555,0.5484293103218079,-0.040048085153102875,-0.045449595898389816,0.19721703231334686,-0.9793057441711426,0.5479978322982788,-0.47111231088638306,-0.05044889450073242,0.9776016121277781,-0.09317692028566729,-0.04080662617558815,0.18424977242056367,-0.1985183913395891,-0.04637673657063703,0.36795273614416485
1784547282999396352,3.364652156829834,-6.823637962341309,0.3474971055984497,0.12431200593709946,-0.040799956768751144,0.2623974084854126,-0.9640969634056091,0.47460734844207764,-0.33567014336586,-0.02819734811782837,0.974080477397581,-0.12634833005929444,-0.04458271727472871,0.18225152596945485,-0.265505842926552,-0.04229411388501581,0.3642763897194536
1784547283009316352,3.374572277069092,-6.7341227531433105,0.3684071898460388,0.2559643089771271,-0.03696613013744354,0.32657957077026367,-0.9444465637207031,0.34261494874954224,-0.030803203582763672,-0.053005218505859375,0.9692793494505034,-0.159356454005939,-0.04880826880436989,0.18088869878015762,-0.3326824476745586,-0.03912055285409738,0.36243006353619556
1784547283019235328,3.384491205215454,-6.479451656341553,0.5588346719741821,0.3576976954936981,-0.031470052897930145,0.38806164264678955,-0.9210959672927856,0.13709139823913574,0.20889267325401306,-0.12553483247756958,0.9634172788994511,-0.19166295482499754,-0.05212802725911536,0.17993052465433346,-0.3985274925010425,-0.03415259336946675,0.362373820659055
1784547283029155584,3.394411325454712,-5.757864952087402,0.6649160981178284,0.1280471682548523,-0.024835379794239998,0.44375813007354736,-0.8958024382591248,-0.06217024475336075,0.27825725078582764,-0.11527550220489502,0.9571168024021264,-0.2216990083238952,-0.054298665289769774,0.17840618657593002,-0.4597879929088987,-0.027717072551204956,0.36208240975234046
1784547283039075328,3.4043312072753906,-4.773866653442383,0.7841191291809082,0.11736444383859634,-0.018224196508526802,0.48966312408447266,-0.8717212080955505,-0.15186551213264465,0.07294368743896484,-0.28088194131851196,0.9511932150288289,-0.24712590773875245,-0.05539111155502182,0.1763293509088134,-0.511703354093111,-0.020902947400450306,0.36112445541587795
1784547283048995584,3.4142513275146484,-4.216896057128906,0.7294846177101135,0.15088538825511932,-0.010937200859189034,0.527759313583374,-0.8493235111236572,-0.03410673886537552,-0.0016515851020812988,-0.1990315318107605,0.9456498566352427,-0.26883794436877134,-0.05535695882250766,0.1743790298825808,-0.5559604131994194,-0.012876831420807795,0.36103084404808355
1784547283058914304,3.4241702556610107,-4.138195037841797,0.6036754250526428,0.1761809140443802,-0.004429930355399847,0.5626705884933472,-0.8266692757606506,0.15166199207305908,0.09206873178482056,-0.10538327693939209,0.9399268843174062,-0.2891074075816688,-0.05551805325844708,0.17283523155809202,-0.5976127705416819,-0.005358718104790764,0.3620495829392512
1784547283068834304,3.4340901374816895,-3.1846883296966553,0.5703137516975403,0.0011984542943537235,0.001141435350291431,0.5925718545913696,-0.80551677942276,0.18443594872951508,0.1676209568977356,-0.1385902762413025,0.9346330008946676,-0.306855255126353,-0.05551090120472329,0.1709373946629152,-0.6342479264544042,0.0014170214788263784,0.3622516326877033
1784547283078754304,3.4440102577209473,-2.235399007797241,0.6362078785896301,0.036579716950654984,0.005882955156266689,0.6137908697128296,-0.7894467711448669,0.11203695833683014,0.1679474115371704,-0.23313623666763306,0.9306593695872792,-0.3197776092052697,-0.05494453063687206,0.16910539790857945,-0.6608535036350733,0.007451859479174332,0.36204380825893867
1784547283088673280,3.4539291858673096,-1.898992896080017,0.5957621932029724,-0.03945672884583473,0.010739006102085114,0.6295807361602783,-0.7768608331680298,0.07765515148639679,0.3017851710319519,-0.17856824398040771,0.9276078404537632,-0.3296826256973962,-0.05365575803516198,0.16725480956984537,-0.6810134655184189,0.013822709548047875,0.36167945083240166
1784547283098593536,3.4638493061065674,-1.7723543643951416,0.6182443499565125,-0.1710730940103531,0.014739949256181717,0.6435627341270447,-0.7652513980865479,0.08267216384410858,0.44945478439331055,-0.16117066144943237,0.9248858737870848,-0.3385657078035178,-0.05241711968185757,0.16496008502108297,-0.6991439995379619,0.0192591951671822,0.3600235476626667
1784547283108513280,3.473769187927246,-1.385353446006775,0.6795620322227478,-0.2086833119392395,0.018464842811226845,0.6555394530296326,-0.7549351453781128,0.0912306010723114,0.42647653818130493,-0.2317286729812622,0.9225697773689385,-0.34632463272593644,-0.05090855682707967,0.16227294393308697,-0.7148967388402925,0.024453972129404533,0.3573564292056647
1784547283118433536,3.483689308166504,-1.365005373954773,0.5426737070083618,-0.36347877979278564,0.021037716418504715,0.665542483329773,-0.7460634112358093,0.1479381024837494,0.26591503620147705,-0.3338620662689209,0.9206806388711488,-0.35285287850716307,-0.04962990179572777,0.15930760719663764,-0.728220402232909,0.028190823642789676,0.3534160732083436
1784547283128352512,3.493608236312866,-1.4156712293624878,0.31468716263771057,-0.291011780500412,0.02178947627544403,0.6760284304618835,-0.7365533113479614,0.18263253569602966,0.20446467399597168,-0.2658880949020386,0.9186207033970778,-0.35957332736580794,-0.04929886816447936,0.15624545794085562,-0.7423595063303314,0.029574402560260376,0.3484611525978908
1784547283138272256,3.503528118133545,-1.152776837348938,0.31593120098114014,-0.2890051305294037,0.022430695593357086,0.6853770017623901,-0.7278429269790649,0.17146271467208862,0.11328327655792236,-0.35931527614593506,0.9166549520936664,-0.3656031151670456,-0.04912133380298357,0.1538352918284927,-0.7551212979741458,0.03080829460812028,0.34476509320340903
1784547283148192512,3.5134482383728027,-0.966809093952179,0.41161006689071655,-0.4776570796966553,0.022620895877480507,0.6930314898490906,-0.7205522656440735,0.05834224447607994,0.08101636171340942,-0.41593754291534424,0.9151619060007383,-0.3706067890086746,-0.048728461660667376,0.15084688559086284,-0.7656857229949312,0.031383522470012706,0.3393632294519977
1784547283158111232,3.523367166519165,-0.6589069962501526,0.37946560978889465,-0.6290696263313293,0.02210313454270363,0.6987935900688171,-0.7149817943572998,-0.005562610924243927,0.10282689332962036,-0.3962547779083252,0.9142598177417857,-0.3744231361990129,-0.048129082634337544,0.14703699786446925,-0.7737095497010276,0.030904419517527253,0.33151237559611063
1784547283168031488,3.533287286758423,-0.35024213790893555,0.08686917275190353,-0.5860379934310913,0.020808648318052292,0.702160120010376,-0.7117149829864502,0.024296319112181664,0.15002793073654175,-0.3773353099822998,0.9139290710348551,-0.3766459055821619,-0.047753236497331215,0.14349656996427632,-0.7784267947885746,0.029229007854820965,0.32346691656410675
1784547283177951232,3.5432071685791016,-0.12185243517160416,0.19435131549835205,-0.7267142534255981,0.01775638572871685,0.703829288482666,-0.7101471424102783,0.0536852702498436,0.1933874487876892,-0.3060118556022644,0.9140449290322112,-0.37763840993880987,-0.0481212145599593,0.1399834972085607,-0.7807737796466186,0.024998603559591964,0.3142206130168563
1784547283187871488,3.5531272888183594,0.03191715106368065,0.02254866249859333,-0.6448689103126526,0.013617875054478645,0.704334557056427,-0.7097375988960266,0.0075613101944327354,0.2501180171966553,-0.2545263171195984,0.9145071447653645,-0.3778202058712094,-0.04881690399915993,0.136182088951862,-0.7814852554919143,0.019184842319743437,0.30355649601852086
1784547283197790464,3.5630462169647217,0.4346434473991394,0.08492989838123322,-0.6490498781204224,0.009652158245444298,0.7026925086975098,-0.711428165435791,0.04607294499874115,0.18515539169311523,-0.3044866919517517,0.915421910012491,-0.3766123009001293,-0.04948821906744181,0.1331042000037045,-0.7791747287427911,0.01356646543220585,0.29435034800005955
1784547283207710464,3.5729663372039795,0.7164011001586914,0.12488476932048798,-0.7069113254547119,0.006070219445973635,0.6986097693443298,-0.7154771685600281,-0.020947551354765892,0.06945663690567017,-0.35950446128845215,0.9170331171920539,-0.373910400641527,-0.04952189700798997,0.12957202938147128,-0.7734526040901957,0.008483951874717286,0.2841862743415519
1784547283217630464,3.582886219024658,0.7256984114646912,0.008444143459200859,-0.7261579036712646,0.001709519186988473,0.6935529112815857,-0.7204036116600037,0.018844077363610268,0.014988899230957031,-0.38843733072280884,0.9188703677498212,-0.370552987086718,-0.04988661252076495,0.12601190987541236,-0.7664092708802488,0.00237299756071581,0.27353205105369494
1784547283227549440,3.5928051471710205,0.78130704164505,-0.0389137864112854,-0.6975478529930115,-0.0033008272293955088,0.688001275062561,-0.7257019281387329,0.0006305568385869265,-0.05325096845626831,-0.3461058735847473,0.9207709251764173,-0.3668576669388397,-0.05064087518437536,0.12260403949101051,-0.7587313097090914,-0.004548430177383641,0.2629366331921048
1784547283237469440,3.6027252674102783,0.6571388244628906,-0.002594088204205036,-0.8333579897880554,-0.008746124804019928,0.6827167868614197,-0.7306307554244995,-0.07093527913093567,-0.09108775854110718,-0.2408353090286255,0.9225825777043996,-0.36334841750381924,-0.051599889485647144,0.11898248186706618,-0.7514743784753096,-0.011970078301889979,0.25179563486253537
