time,seconds_elapsed,rotationRateX,rotationRateY,rotationRateZ,gravityX,gravityY,gravityZ,accelerationX,accelerationY,accelerationZ,quaternionW,quaternionX,quaternionY,quaternionZ,pitch,roll,yaw
1782818535307309056,0.32328319549560547,2.717087984085083,0.8613858819007874,-1.3732616901397705,0.1747688502073288,0.6796315312385559,-0.7124302387237549,-0.1025947630405426,0.08375042676925659,0.07055401802062988,0.7180584919396081,-0.22542077807243346,0.3049104006833456,-0.5836155844545282,-0.7472602113192466,0.24056311935049082,-1.2702587393836742
1782818535317228032,0.3332021236419678,3.762326240539551,0.8879892230033875,-1.7973779439926147,0.17075590789318085,0.6587939262390137,-0.7326889038085938,-0.11113981902599335,0.10307741165161133,0.14186859130859375,0.7108902307916023,-0.21108076520102909,0.29849700982012295,-0.6008157658850775,-0.7192145022721599,0.22896679455595942,-1.3169493171601627
1782818535327148288,0.3431222438812256,4.157410621643066,0.9766298532485962,-1.7222932577133179,0.16642352938652039,0.6328437924385071,-0.7561824917793274,-0.10302327573299408,0.18649214506149292,0.23663604259490967,0.7062137223126916,-0.19611850062324815,0.2888706887478968,-0.6159168121876903,-0.6852205318239902,0.2166302390522895,-1.3568835511672699
1782818535337065728,0.3530397415161133,4.90360164642334,0.7547347545623779,-1.6262421607971191,0.16259606182575226,0.6006402969360352,-0.7828114628791809,0.09864965081214905,0.20213985443115234,0.3242848515510559,0.7025134101753772,-0.1791529238255092,0.27658364245425104,-0.6307777944424905,-0.6443017278146369,0.20479582845570315,-1.3947237357747575
1782818535346985728,0.3629598617553711,5.191368103027344,0.6955931186676025,-1.6828892230987549,0.1585661768913269,0.5635086894035339,-0.8107494711875916,0.1473878175020218,0.28095847368240356,0.41009944677352905,0.6985429377724436,-0.1608115608722693,0.26223064156521303,-0.6460746640808027,-0.5986269417764297,0.19314172610107216,-1.4330252868175446
1782818535356904704,0.3728787899017334,5.2538299560546875,0.5144683718681335,-1.4877183437347412,0.1553357094526291,0.5238033533096313,-0.8375564813613892,0.1770617514848709,0.28393590450286865,0.5687881708145142,0.6957882638394469,-0.14260552045571104,0.2467497264140599,-0.6592851936344524,-0.5513097535408655,0.18337937782789154,-1.4649292139429968
1782818535366824960,0.3827989101409912,5.247857570648193,0.32407423853874207,-1.44911527633667,0.15209613740444183,0.4822906255722046,-0.8627065420150757,0.19627727568149567,0.1534363031387329,0.6502279043197632,0.6934688467209972,-0.1247501060543066,0.23039998783926058,-0.6711588833148057,-0.5032676669355167,0.17450786602305315,-1.4931321438942884
1782818535376744704,0.3927187919616699,5.229421615600586,0.19572137296199799,-1.5517637729644775,0.14822691679000854,0.43990635871887207,-0.8857263326644897,0.13789063692092896,0.23915553092956543,0.7159723043441772,0.6905035609054593,-0.10741942691748195,0.2135366331310498,-0.6826916804609312,-0.4554943989837836,0.1658141373056173,-1.5209046963848971
1782818535386663680,0.4026377201080322,5.336584568023682,0.11127519607543945,-1.6509801149368286,0.14379218220710754,0.3962137699127197,-0.906828761100769,0.08489128947257996,0.3589894473552704,0.7588185667991638,0.6866087031320307,-0.090315479809892,0.19603245846315412,-0.6942497568196825,-0.40738942764943087,0.15725671444763395,-1.549316045273342
1782818535396583680,0.41255784034729004,5.537247180938721,0.030937140807509422,-1.7408870458602905,0.13903172314167023,0.3500642478466034,-0.926350474357605,0.07208888232707977,0.3970670998096466,0.768147349357605,0.6815887703277276,-0.07289751011690684,0.17751258693119495,-0.7061246121631254,-0.35763970530766964,0.1489735084028473,-1.5791788468502015
1782818535406502656,0.42247676849365234,5.59339714050293,-0.06280958652496338,-1.8921359777450562,0.13396331667900085,0.30179306864738464,-0.9439145922660828,0.05391813814640045,0.40122511982917786,0.7642881274223328,0.6759329437449747,-0.055479989113338055,0.15800210521661043,-0.7176852732724442,-0.3065728620747395,0.1409816003069343,-1.6088812243550277
1782818535416422912,0.43239688873291016,5.291192054748535,-0.028034644201397896,-2.1306281089782715,0.12889263033866882,0.2538398802280426,-0.9586198329925537,0.04424886405467987,0.4079032838344574,0.7734086513519287,0.6688268548751963,-0.03868261703483521,0.13854145981342117,-0.7293699053759549,-0.2566481184416846,0.13365487240548984,-1.64007258280338
1782818535426341888,0.44231581687927246,4.567916393280029,0.028613721951842308,-2.398411750793457,0.12468927353620529,0.2105240821838379,-0.9696041345596313,0.010839276015758514,0.3930983543395996,0.7714077234268188,0.6598167203343898,-0.023599668293773187,0.12099992329194909,-0.7412449869782282,-0.21211102813787258,0.12789617871724407,-1.6732702691605312
1782818535436261632,0.45223569869995117,3.837883472442627,0.08318919688463211,-2.6530613899230957,0.12132881581783295,0.17413870990276337,-0.9772180318832397,-0.02268073707818985,0.33812934160232544,0.6839135885238647,0.6496932827225607,-0.011033964410112089,0.10615672089054938,-0.7526669817848658,-0.17503103910061038,0.12352524043446063,-1.7065391201865305
1782818535446180864,0.4621548652648926,3.3424973487854004,0.14812399446964264,-2.869175910949707,0.11888963729143143,0.14375270903110504,-0.9824461340904236,-0.049279049038887024,0.37326085567474365,0.5303892493247986,0.6381646937658997,-0.0004464123571391558,0.09368421441208752,-0.7641786050575519,-0.14425247982476425,0.12042831274946483,-1.741322428822907
1782818535456100608,0.4720747470855713,3.164494752883911,0.22744624316692352,-3.082362413406372,0.11758626997470856,0.11673817038536072,-0.9861773252487183,-0.06332600861787796,0.5547858476638794,0.32707393169403076,0.6255233820446221,0.009161661731582981,0.08262816967463014,-0.7757634979514935,-0.11700495534441328,0.11867413718842368,-1.7774529854368413
1782818535466019840,0.4819939136505127,3.5583865642547607,0.34198108315467834,-3.2639927864074707,0.1178489625453949,0.08887908607721329,-0.9890460968017578,-0.0595909059047699,0.7322878837585449,0.1283893585205078,0.6113759019143663,0.01936173785220393,0.07142889623131606,-0.7878722141223448,-0.08899651990311264,0.11859501830641068,-1.8164572445553715
1782818535475939840,0.4919137954711914,3.922356605529785,0.5341216921806335,-3.488004207611084,0.1203586608171463,0.05713735893368721,-0.9910848140716553,-0.025967799127101898,0.7387152910232544,0.002284824848175049,0.5966811312147673,0.031217947299852267,0.05901721476513123,-0.7996961411202566,-0.0571684925342981,0.12084955498812155,-1.8560874039170954
1782818535485858560,0.5018327236175537,4.151327133178711,0.7361091375350952,-3.6784942150115967,0.12605373561382294,0.023223813623189926,-0.9917515516281128,0.003645971417427063,0.5389710068702698,0.07588851451873779,0.5807637443752108,0.044588637869641415,0.04621780414101085,-0.8115351267510166,-0.02322590262897755,0.12642425480188477,-1.8978364561652306
1782818535495778816,0.5117528438568115,4.3222551345825195,0.8813356757164001,-3.7705905437469482,0.13469330966472626,-0.011961838230490685,-0.9908151030540466,0.06397610902786255,0.21969500184059143,0.1174936294555664,0.5633491084601048,0.05909634073391811,0.03316709834344651,-0.8234350630823337,0.011962123577482178,0.13511367021909473,-1.9423906057963092
1782818535505697792,0.5216717720031738,4.485062122344971,1.0910063982009888,-3.797699213027954,0.1462431252002716,-0.048486851155757904,-0.9880596995353699,0.1446046531200409,0.033334869891405106,0.09874695539474487,0.5451910301067379,0.07470101959208836,0.01974606877709054,-0.8347434272685138,0.04850586807647731,0.1469435805602316,-1.9880270401565694
1782818535515617792,0.5315918922424316,3.5683963298797607,-0.35738417506217957,-4.008733749389648,0.16046221554279327,-0.08168920874595642,-0.9836558103561401,0.2586509585380554,0.007638305425643921,-0.41929829120635986,0.5255515269007051,0.09007315947129967,0.007676007818002715,-0.8459453396587351,0.08178033455368676,0.1617040924584316,-2.0364129951610126
1782818535525536768,0.541510820388794,3.0069899559020996,1.3532882928848267,-4.110556125640869,0.17001014947891235,-0.10332944989204407,-0.9800099730491638,0.33969444036483765,-0.41522523760795593,-1.511429786682129,0.5059887529296015,0.09996704054426753,-0.0012635613051701258,-0.8567265837733943,0.10351421291136102,0.1717684860999896,-2.0835442089604936
1782818535535456768,0.5514307022094727,4.096258640289307,-0.8760200142860413,-1.92069673538208,0.17615458369255066,-0.12990853190422058,-0.9757527112960815,0.6715779304504395,-1.5061845779418945,-0.26588547229766846,0.4899648336512608,0.10931639465202696,-0.013174836311339937,-0.8647605051561201,0.130276731890598,0.17860819660873675,-2.1222919935187705
1782818535545375744,0.5613498687744141,4.018173694610596,-1.2936224937438965,-1.3022269010543823,0.16893264651298523,-0.16668981313705444,-0.9714300036430359,1.2358067035675049,-2.243161201477051,-0.1995447278022766,0.4803416325627456,0.11507058149471736,-0.03230719525619293,-0.8688998579057824,0.16747155767018573,0.17217911593282012,-2.146074509896512
1782818535555295744,0.5712697505950928,3.7812883853912354,-2.022700548171997,-1.6518425941467285,0.1559368073940277,-0.19948488473892212,-0.9674138426780701,0.4855579435825348,-1.4543390274047852,0.46318715810775757,0.4701966679842237,0.11689151085788824,-0.05127830914632837,-0.8732823285844975,0.20083220710715174,0.15981470580366572,-2.1699033797477516
1782818535565214976,0.5811889171600342,4.478257179260254,-1.569250226020813,-1.2408297061920166,0.14227761328220367,-0.23588116466999054,-0.9613101482391357,0.07252036035060883,-0.5535017251968384,0.26575350761413574,0.45959938039424103,0.11890632388599598,-0.07215415598450313,-0.8771679368047934,0.2381252252405037,0.14693717250965893,-2.19394185711975
1782818535575134720,0.5911087989807129,5.262931823730469,-1.2175002098083496,-1.0888689756393433,0.1325448751449585,-0.2799183428287506,-0.9508299231529236,-0.2139352709054947,-0.193012535572052,0.18845510482788086,0.4500384484396098,0.12430556535225916,-0.09556755728977528,-0.8791361033840439,0.2837090554490453,0.13850657804612052,-2.2151441820103996
1782818535585053696,0.6010277271270752,5.890927314758301,-1.0017961263656616,-1.2869799137115479,0.12619875371456146,-0.3303147852420807,-0.9353961944580078,-0.19893738627433777,-0.1301496922969818,0.12430000305175781,0.439496454611162,0.1323952030071712,-0.12154594045503929,-0.880080112046977,0.3366370488411502,0.134105010625048,-2.238107180296063
1782818535594973696,0.610947847366333,6.143889904022217,-0.9647795557975769,-1.302186131477356,0.1221364438533783,-0.383846253156662,-0.9152839779853821,-0.0278828963637352,-0.236850768327713,0.19683915376663208,0.4279545090496392,0.14188783999546423,-0.14908337382239206,-0.8800551401646084,0.3939580466158116,0.13265735176951265,-2.2628787391274243
1782818535604892672,0.6208667755126953,6.116032600402832,-0.9952578544616699,-1.3223085403442383,0.11878900974988937,-0.43701791763305664,-0.8915742039680481,0.09051579982042313,-0.19971609115600586,0.3282502293586731,0.4159541633674398,0.15130446014841875,-0.17697420047358375,-0.8790729597759273,0.45228054203420076,0.13245504937990144,-2.2881953438346714
1782818535614812928,0.6307868957519531,6.056917190551758,-0.9665913581848145,-1.4682989120483398,0.11672884225845337,-0.48827797174453735,-0.8648462295532227,0.03469938784837723,-0.12343162298202515,0.39556217193603516,0.4032169999218684,0.16049602026248783,-0.20449427178898177,-0.8774048542242878,0.5101154259982986,0.1341598824342228,-2.3150770077096934
1782818535624731904,0.6407058238983154,6.306094646453857,-0.8638327717781067,-1.6505131721496582,0.11693832278251648,-0.5383018851280212,-0.8345996737480164,-0.08391828089952469,-0.09861528873443604,0.43776434659957886,0.3893702775791368,0.17002299270916535,-0.23193178844143103,-0.8750375683675591,0.5684208115359184,0.13920683930620426,-2.344982404818198
1782818535634651648,0.6506257057189941,6.519914150238037,-0.8077411651611328,-1.8387603759765625,0.1200101226568222,-0.5881707072257996,-0.7997829914093018,-0.147201269865036,-0.10233527421951294,0.41909146308898926,0.3741034028353139,0.18038552283114334,-0.2599414871480799,-0.871744329126168,0.6287950657502634,0.14894213432303646,-2.379356418422734
1782818535644570880,0.6605448722839355,6.894033908843994,-0.7821572422981262,-1.819802165031433,0.12508702278137207,-0.6378812193870544,-0.7599083781242371,-0.11394810676574707,-0.08074671030044556,0.43643730878829956,0.3576761543369346,0.19127665377148642,-0.28889280546059226,-0.8671919608993947,0.6917439561374009,0.16314500900568596,-2.418105562434024
1782818535654490624,0.6704647541046143,7.350414276123047,-0.9651221036911011,-1.6534473896026611,0.13005822896957397,-0.6878307461738586,-0.7141244411468506,-0.03131861984729767,-0.04819220304489136,0.4835793972015381,0.34102624641767765,0.2021477316148574,-0.31949035249449337,-0.8606760574414117,0.7584963378479651,0.18014821250614552,-2.4590473867702944
1782818535664409856,0.6803839206695557,7.727920055389404,-1.1254163980484009,-1.5752441883087158,0.1340600699186325,-0.7375848889350891,-0.661812961101532,0.008182361721992493,0.03050786256790161,0.5930874347686768,0.3236186179313975,0.2123806366396917,-0.3521192562303286,-0.8521604533978597,0.8294867090403871,0.19986056453991466,-2.5039454992826764
1782818535674329856,0.6903038024902344,7.600529670715332,-1.1893647909164429,-1.5439720153808594,0.13834290206432343,-0.7841314077377319,-0.6049786806106567,-0.028372809290885925,0.13009393215179443,0.6034222841262817,0.30568731708072033,0.22192840864692487,-0.3850434367882534,-0.8420478925515602,0.9012953079966858,0.22480866960745677,-2.5542513804020444
1782818535684248576,0.7002227306365967,7.0624542236328125,-1.075270175933838,-1.5181055068969727,0.14391964673995972,-0.8241962194442749,-0.5477114915847778,-0.10652032494544983,0.2422870397567749,0.6236544847488403,0.2879727379061234,0.23064694751772147,-0.4158680534102713,-0.8312205576921635,0.96878138140279,0.2569566303554974,-2.6103347818639544
1782818535694168832,0.7101428508758545,6.214656352996826,-0.9298554062843323,-1.6767874956130981,0.15172676742076874,-0.8565455675125122,-0.49326345324516296,-0.14377690851688385,0.1258631944656372,0.5236437320709229,0.2708394671615101,0.23872774369528554,-0.44314482432591024,-0.82053508480064,1.0285382591140533,0.2984126102458622,-2.673411327621037
1782818535704087808,0.7200617790222168,4.8961262702941895,-0.719028890132904,-1.866641879081726,0.1631738394498825,-0.879988431930542,-0.4460880160331726,-0.2090875804424286,-0.08961594104766846,0.3977787494659424,0.2541520904429416,0.24622174881801412,-0.46511379840878414,-0.8114497113855128,1.0758379034645762,0.3506704441944604,-2.7451344144350753
1782818535714007808,0.7299818992614746,3.705390453338623,-0.6020566821098328,-1.5593056678771973,0.1744636744260788,-0.8957154750823975,-0.40896961092948914,-0.0683693140745163,0.02143263816833496,0.2745397090911865,0.24022503101327705,0.2522987259631661,-0.4815190003573411,-0.8042242515485893,1.1100377114548359,0.40321936870467084,-2.8131662541443863
1782818535723926784,0.7399008274078369,3.3967177867889404,-0.6820905804634094,-1.7935380935668945,0.18667428195476532,-0.9066864848136902,-0.3782489597797394,-0.141737163066864,0.031289756298065186,0.23612862825393677,0.22663037648888068,0.25725463875117194,-0.49466712662948475,-0.798600718643435,1.135360933056761,0.45845199765211503,-2.8839821530989567
1782818535733846784,0.7498207092285156,3.456324338912964,-0.6115027070045471,-1.8653703927993774,0.20063012838363647,-0.9156343936920166,-0.3483690917491913,-0.30229949951171875,0.07310521602630615,0.12981745600700378,0.21269252881629996,0.26243605628993466,-0.5068952306682888,-0.7930613597562846,1.1570832044068844,0.5225198310299644,-2.9632880970244733
1782818535743765760,0.759739875793457,3.6262238025665283,-0.5377845168113708,-1.9562546014785767,0.2158738076686859,-0.9236692786216736,-0.3165971040725708,-0.301429808139801,0.23589462041854858,0.1188431978225708,0.1984012139039163,0.2681839997605535,-0.5194023358536315,-0.7867246345927453,1.1775482134617012,0.5984450771851009,-3.0538385419729326
1782818535753685760,0.7696597576141357,3.5655574798583984,-0.5035049915313721,-2.0489501953125,0.23243089020252228,-0.9303097724914551,-0.28372472524642944,-0.2819761633872986,0.23110628128051758,0.16514867544174194,0.1837631767572536,0.2743633907944469,-0.5318480726565169,-0.7798035101247933,1.195256504805083,0.6863467030741103,3.1273029151594494
1782818535763604992,0.7795789241790771,2.4484474658966064,-0.3540619909763336,-2.1437342166900635,0.2503400146961212,-0.9337084293365479,-0.25596559047698975,-0.2818647027015686,0.13985472917556763,0.28158512711524963,0.1698464812005247,0.28054894659957147,-0.5415805572665351,-0.7740380520709679,1.2046345122818043,0.7742876220590708,3.0269828925510915
1782818535773524736,0.7894988059997559,0.7231988906860352,-0.19612833857536316,-2.323591470718384,0.26998141407966614,-0.9322001338005066,-0.24106641113758087,-0.34848785400390625,0.008845031261444092,0.4229053854942322,0.15790439474343804,0.28649301697397356,-0.5453334251927133,-0.7717509210272174,1.2004447688218556,0.841917730041963,2.9505052071474998
1782818535783444992,0.7994189262390137,-1.2794411182403564,0.03966926410794258,-2.3928635120391846,0.29130467772483826,-0.9251508116722107,-0.24338790774345398,-0.41651827096939087,-0.0816546082496643,0.49019885063171387,0.1487722894334265,0.29210336876147314,-0.5412778123062942,-0.7743131230574581,1.1814326634885304,0.8747749494407016,2.913526156362323
1782818535793363712,0.809337854385376,-2.2614548206329346,0.11560157686471939,-2.3847219944000244,0.31300806999206543,-0.9137080311775208,-0.25915923714637756,-0.3941543400287628,-0.08990824222564697,0.5047036409378052,0.1421507133519947,0.2972028218440566,-0.5311222643994974,-0.780623294677788,1.1523171362338243,0.8792355415793629,2.908745196563595
1782818535803283712,0.8192577362060547,-2.36151123046875,0.2496456652879715,-2.400402307510376,0.33455783128738403,-0.9000961780548096,-0.2791018486022949,-0.3702176511287689,0.040889084339141846,0.3381991684436798,0.13690989552104146,0.3024266624403461,-0.5186397485731971,-0.787912769130437,1.1199901862942032,0.8755226334304034,2.9148277377242433
1782818535813202944,0.8291769027709961,-1.817651629447937,0.3929784893989563,-2.3568084239959717,0.3562377095222473,-0.8862364888191223,-0.2961072623729706,-0.3830169141292572,0.2309631109237671,0.15821358561515808,0.13114484921928007,0.307977597746571,-0.5070465198388094,-0.7942635730671109,1.08915654248595,0.877314272523925,2.9151738418670092
1782818535823122688,0.8390967845916748,-1.0006119012832642,0.4193006157875061,-2.306053400039673,0.3775937259197235,-0.8739065527915955,-0.30612167716026306,-0.3225857615470886,0.22813934087753296,-0.03289806842803955,0.12459220544348518,0.31419370930781415,-0.49821830488913826,-0.7984595906871647,1.0631817687959801,0.8895546817437379,2.9046317081580453
1782818535833041664,0.8490157127380371,0.0044173914939165115,0.3461466133594513,-2.2397408485412598,0.39787665009498596,-0.8640794157981873,-0.30831971764564514,-0.22009646892547607,0.17171186208724976,-0.14065486192703247,0.11695512467526117,0.32062459382587044,-0.49299088145015424,-0.8003008329736964,1.0433185741742976,0.9115407066779982,2.8825618799161847
1782818535842961664,0.8589358329772949,0.8914388418197632,0.34019550681114197,-2.1631252765655518,0.41746556758880615,-0.8569889664649963,-0.3021467328071594,-0.217056542634964,0.11815828084945679,-0.28662893176078796,0.1078518774077885,0.3273474843101109,-0.4917013937576179,-0.7996508584361587,1.0293981005207282,0.9442984770167174,2.8474073371011777
1782818535852880640,0.8688547611236572,1.494079828262329,0.22198866307735443,-2.052318811416626,0.43582412600517273,-0.8519889712333679,-0.29012441635131836,-0.19171401858329773,0.10841292142868042,-0.3315797448158264,0.09804357500111718,0.33403727631576674,-0.49331216641837144,-0.7971510067073924,1.019772621332026,0.9834691533171382,2.8043106696117506
1782818535862800896,0.878774881362915,1.93617844581604,-0.0359715111553669,-2.103851318359375,0.45332178473472595,-0.8480015397071838,-0.27457720041275024,-0.16895905137062073,-0.018529772758483887,-0.36026474833488464,0.08695734855473397,0.3400932036850807,-0.4970392452972659,-0.7935533890204612,1.0122031580342796,1.0261958820984978,2.7545054458109233
1782818535872719872,0.8886938095092773,2.283266067504883,-0.3269197940826416,-1.9818639755249023,0.46969297528266907,-0.8445805907249451,-0.2570449709892273,-0.15348508954048157,-0.07367807626724243,-0.3100937008857727,0.07483890067991808,0.3451861144745474,-0.5023186849727802,-0.7892538476711718,1.005781400244818,1.0700579035808209,2.7003682232975295
1782818535882639616,0.898613691329956,2.786579132080078,-0.6258124709129333,-2.0796492099761963,0.48512718081474304,-0.8415021896362305,-0.23775151371955872,-0.15474388003349304,-0.04523181915283203,-0.2423967719078064,0.06121181092492393,0.3490166085227309,-0.5092265240456124,-0.7843015447288645,1.000057732026977,1.1151155290207337,2.6406886424776896
1782818535892558848,0.9085328578948975,3.390763759613037,-0.779926061630249,-2.0318732261657715,0.5005244612693787,-0.8385986089706421,-0.21500609815120697,-0.21951866149902344,0.003973424434661865,-0.20189450681209564,0.04587046739375063,0.35218910995008107,-0.5181310443683653,-0.7780738690352301,0.9947055682676617,1.165068290538232,2.5724328856168177
1782818535902478592,0.9184527397155762,3.9064440727233887,-0.8757625818252563,-2.0672900676727295,0.5156617760658264,-0.8358186483383179,-0.1884142905473709,-0.2271333932876587,0.012149274349212646,-0.1841290444135666,0.0291542607482581,0.3547418969027695,-0.5291040003234556,-0.7702967539715189,0.9896222720107956,1.2204831384462576,2.4956471296064304
1782818535912397824,0.9283719062805176,4.235855579376221,-0.8587188720703125,-1.8455413579940796,0.530171275138855,-0.8329267501831055,-0.15859293937683105,-0.1911056637763977,0.03933227062225342,-0.13689352571964264,0.011980851309302211,0.35685578071776836,-0.5416248548778332,-0.7610210793996343,0.984375627448541,1.2801330426875606,2.413303919750814
1782818535922317824,0.9382917881011963,4.36637544631958,-0.9691652059555054,-1.8003348112106323,0.5435968041419983,-0.8296117782592773,-0.12746302783489227,-0.10748535394668579,0.08653926849365234,-0.07656228542327881,-0.005114702111424977,0.35822989886857975,-0.5549232620483646,-0.7508031321723914,0.9784119931465038,1.340476426049397,2.3293522061924405
1782818535932236544,0.9482107162475586,4.6221771240234375,-1.0724680423736572,-1.6640690565109253,0.5565093159675598,-0.8253096342086792,-0.09571488201618195,-0.15526419878005981,0.0826033353805542,-0.04506272077560425,-0.022286847530404053,0.3589741943788942,-0.5685772480862067,-0.7398383130499271,0.9707503575515636,1.4004712293243147,2.244842035355666
1782818535942156800,0.9581308364868164,4.689990997314453,-1.141372799873352,-1.562254548072815,0.5686861276626587,-0.8201162815093994,-0.06328985095024109,-0.20961624383926392,0.06321918964385986,-0.05781913548707962,-0.039611026350306305,0.3588426079364685,-0.5827409855928447,-0.7280631939377936,0.9616142031812878,1.459961057844622,2.1594085453647645
1782818535952075776,0.9680497646331787,4.481213092803955,-1.0639628171920776,-1.3465090990066528,0.5798185467720032,-0.8141284584999084,-0.03171117231249809,-0.1997373104095459,0.0051226019859313965,0.006030615419149399,-0.05617902372051483,0.3580757086951544,-0.5965955083431691,-0.7160304656791655,0.95122668038809,1.5161592132432895,2.0775600688893636
1782818535961995776,0.9779698848724365,3.9610607624053955,-1.0783463716506958,-1.3672606945037842,0.590343177318573,-0.807144284248352,-0.003620470641180873,-0.15684092044830322,-0.053863346576690674,0.08406484127044678,-0.07161038007052185,0.35695609290825797,-0.6089105947700315,-0.7047568586048241,0.9392987498168208,1.5646635796799464,2.0047101380283965
1782818535971914752,0.9878888130187988,3.361884832382202,-0.9677537679672241,-1.3072338104248047,0.6008021235466003,-0.7991486191749573,0.019956037402153015,-0.12008929252624512,0.02841198444366455,0.12399542331695557,-0.08565983458343769,0.3560608409921237,-0.6190304485115977,-0.6947548938327409,0.9258776265498936,1.603999777087035,1.9435602890909054
1782818535981834752,0.9978086948394775,2.7361629009246826,-0.8323953747749329,-1.3540828227996826,0.6114956140518188,-0.7902860641479492,0.038996439427137375,-0.0389096736907959,0.14764702320098877,0.10818981379270554,-0.09829344637298539,0.3557894235543666,-0.6268270138650092,-0.6861778449075362,0.911275747739881,1.6344823145568883,1.894418471066899
1782818535991753728,1.007727861404419,1.915950894355774,-0.6567525863647461,-1.297680377960205,0.6220353841781616,-0.7811905741691589,0.05304091423749924,0.06233656406402588,0.20341652631759644,0.12429678440093994,-0.10901721075102541,0.35635371627277995,-0.6320858221668105,-0.6794076981240772,0.8965706195692076,1.6558604918668702,1.8585365626440098
1782818536001673728,1.0176477432250977,1.6863549947738647,-0.6074395775794983,-1.2739622592926025,0.6321093440055847,-0.772276759147644,0.06345460563898087,0.11985903978347778,0.05476272106170654,0.13266658782958984,-0.11842267220448831,0.35724253435981396,-0.6356925935642744,-0.6739798224506393,0.8824171749897445,1.6708466329573735,1.8314842447230457
1782818536011592960,1.027566909790039,1.236009120941162,-0.5377125144004822,-1.0809910297393799,0.6414285898208618,-0.7638654708862305,0.07126709073781967,0.09242767095565796,-0.03563404083251953,0.08884334564208984,-0.12662112599200342,0.3582993502528892,-0.6381654343541718,-0.6695771505233172,0.8692815309130015,1.6814493146984038,1.810822655869842
1782818536021512704,1.0374867916107178,1.2597945928573608,-0.5076813697814941,-1.154342532157898,0.6500685214996338,-0.755887508392334,0.07774990051984787,0.05510115623474121,-0.09587335586547852,0.04445779323577881,-0.13416558338589757,0.35925285102215104,-0.6401658698065159,-0.6656760961471042,0.8570086365339848,1.6898335027801101,1.7931435181991313
1782818536031431680,1.04740571975708,1.26472806930542,-0.570625364780426,-1.069315791130066,0.6585759520530701,-0.7477763295173645,0.08431042730808258,0.06789499521255493,-0.05466806888580322,-0.06294811517000198,-0.14164879895432791,0.3601930132547308,-0.6421963920233306,-0.6616497442342836,0.8447066005976085,1.6981230522462185,1.775612080915557
1782818536041351680,1.057325839996338,1.2774536609649658,-0.5869180560112,-1.0580239295959473,0.6669241189956665,-0.7396634817123413,0.09005676209926605,0.098899245262146,-0.04761373996734619,-0.06805360317230225,-0.14925202350141123,0.3607957798999348,-0.6440922188129292,-0.6577959192179416,0.8325701529097405,1.7050174608846136,1.7587395013965754
1782818536051270656,1.0672447681427002,1.1393749713897705,-0.5135762691497803,-0.9353788495063782,0.6744754910469055,-0.7320439219474792,0.09588681906461716,0.11376291513442993,-0.08738350868225098,-0.12741148471832275,-0.15632714611701973,0.36125823545366387,-0.6460927926574247,-0.6539253235203918,0.8213173791383495,1.712015028996441,1.7422783767911596
1782818536061190912,1.077164888381958,1.1157692670822144,-0.5841370224952698,-0.9375229477882385,0.6817050576210022,-0.7246702909469604,0.1006544828414917,0.1202206015586853,-0.08071911334991455,-0.0976637601852417,-0.1629968265200393,0.36171453931695763,-0.6476803489400241,-0.6504651037712965,0.810555801494429,1.7173882504333726,1.728002576065779
1782818536071109888,1.0870838165283203,1.1382842063903809,-0.5083483457565308,-0.7473853826522827,0.6882219314575195,-0.717823326587677,0.1052633747458458,0.15792369842529297,-0.160014808177948,-0.176125168800354,-0.16952724218209173,0.36167014105163825,-0.6494816359666209,-0.6470153638321371,0.8006708437796224,1.7225698590650815,1.7132842169899183
1782818536081029632,1.097003698348999,1.3284943103790283,-0.48401346802711487,-0.6440046429634094,0.6935371160507202,-0.7118305563926697,0.11092203110456467,0.18784117698669434,-0.18625599145889282,-0.1728268712759018,-0.17538269363014874,0.3613631174486267,-0.6518264449727168,-0.6432573084686478,0.7921011321459125,1.7293898695993233,1.697462621059732
1782818536090948864,1.1069228649139404,1.6281794309616089,-0.48267170786857605,-0.542738676071167,0.6983974575996399,-0.7058379650115967,0.11846502870321274,0.2177860140800476,-0.22549748420715332,-0.22826731204986572,-0.1816150036647386,0.36049772775029404,-0.6551899743480898,-0.6385793221551728,0.783605367138009,1.7388211053954017,1.6775590997683851
1782818536100868608,1.1168427467346191,1.9416347742080688,-0.5171961188316345,-0.27861037850379944,0.7016369104385376,-0.701040506362915,0.12746642529964447,0.2703936696052551,-0.14792793989181519,-0.10476137697696686,-0.18753978902729337,0.3585976323069996,-0.6596521439609145,-0.6333210276060218,0.7768555286612325,1.7505064547119569,1.6541543583110165
1782818536110787840,1.1267619132995605,2.340724468231201,-0.6774898767471313,-0.299811989068985,0.7044099569320679,-0.6961382627487183,0.13855643570423126,0.2753109931945801,-0.18621641397476196,-0.07907773554325104,-0.19421232518189302,0.3556772234357396,-0.6654111016070938,-0.6268997218600769,0.7700042195551178,1.7650154385206493,1.6251742624279772
1782818536120707840,1.1366817951202393,2.6136670112609863,-0.6490925550460815,-0.13210473954677582,0.7067909836769104,-0.6910461187362671,0.15133294463157654,0.2680777311325073,-0.23150020837783813,-0.0033837705850601196,-0.20143375653142062,0.35189806006948343,-0.6721861548278684,-0.6194819743881803,0.7629353429649572,1.7817242612449333,1.591799669607706
1782818536130626560,1.1466007232666016,2.72172474861145,-0.7015607953071594,0.1375841498374939,0.7077187299728394,-0.6869034171104431,0.1652212291955948,0.2798759341239929,-0.3727431893348694,0.043915748596191406,-0.2082524041198663,0.34712389830439583,-0.6797908606890174,-0.6115720361181983,0.7572195148884621,1.8001446610871465,1.5557021093147867
1782818536140546816,1.1565208435058594,2.5729799270629883,-0.7052729725837708,0.278682678937912,0.7074792981147766,-0.6838143467903137,0.17852503061294556,0.28003907203674316,-0.528221845626831,0.03666962683200836,-0.21448531097093926,0.3415820096706882,-0.6874476332041617,-0.6039318063841934,0.7529774942729706,1.8179757341705394,1.5198239478032831
1782818536150465792,1.1664397716522217,2.403528928756714,-0.661646842956543,0.4439532160758972,0.7061975002288818,-0.681739330291748,0.19109229743480682,0.2795048952102661,-0.5493244528770447,0.05722913146018982,-0.21991495122014626,0.33562208712731334,-0.6949129180576634,-0.5967337363514608,0.750137463676642,1.8350610386255588,1.4852165727381383
1782818536160385792,1.1763598918914795,2.033473014831543,-0.6446452140808105,0.7582491040229797,0.7033958435058594,-0.6815624833106995,0.20175985991954803,0.1841316819190979,-0.4416675567626953,0.13126316666603088,-0.22399858735302625,0.3292714985544873,-0.7017550910277187,-0.5907154653256591,0.7498957383345539,1.8501335341406373,1.4540022841274183
1782818536170304768,1.1862788200378418,1.8077549934387207,-0.5633609890937805,0.9567268490791321,0.6986304521560669,-0.6836586594581604,0.21101298928260803,0.1320275068283081,-0.4594230055809021,0.07325828075408936,-0.22660951479642114,0.3223401922928265,-0.7082395738489653,-0.5857829777642518,0.7527641674463884,1.8641218532572232,1.4251602127797414
1782818536180224768,1.1961987018585205,1.239575982093811,-0.5983607769012451,1.0403023958206177,0.6929702162742615,-0.6872565150260925,0.21787796914577484,0.1716233491897583,-0.6291496753692627,-0.07238531112670898,-0.2281142069394299,0.3154428212208094,-0.7137470209279679,-0.5822584851594478,0.7577055599366759,1.875421907046152,1.4007331906921199
1782818536190143744,1.206117868423462,0.4495042860507965,-0.6189643740653992,1.244795560836792,0.6864483952522278,-0.6931896805763245,0.21972063183784485,0.27279549837112427,-0.8148822784423828,-0.10082408785820007,-0.22829977763604448,0.30866107402342285,-0.7173483516101916,-0.5813940783653663,0.7659051282939179,1.8805747919022913,1.3846132454106561
1782818536200063744,1.2160377502441406,-0.6269341707229614,-0.40731337666511536,1.330350399017334,0.678493082523346,-0.7021540999412537,0.21593217551708221,0.2651256322860718,-0.9072971343994141,-0.00044752657413482666,-0.22616213420964845,0.30270302829466417,-0.7185659096441906,-0.5838532157398806,0.7784183285228163,1.8789133749163702,1.3800806892748598
1782818536209982976,1.225956916809082,-1.465806007385254,-0.26734861731529236,1.4294127225875854,0.6693990230560303,-0.7135990858078003,0.20659483969211578,0.2211344838142395,-0.9133692979812622,0.05045473575592041,-0.22170321113642383,0.297989262086903,-0.717286430120923,-0.5895339765760664,0.7946223484509587,1.870149217265,1.3880618464477297
1782818536219902720,1.2358767986297607,-2.165367841720581,-0.15683142840862274,1.4481589794158936,0.659309446811676,-0.7268261909484863,0.19244496524333954,0.24239349365234375,-0.8903613686561584,-0.0018320977687835693,-0.21536948293547348,0.2942397843761011,-0.7138945510691517,-0.5978240940987097,0.8136895621471528,1.8547950198760361,1.4069083376747922
1782818536229822976,1.2457969188690186,-2.630704402923584,-0.08608021587133408,1.543211579322815,0.6484776735305786,-0.7409829497337341,0.17441615462303162,0.2801721692085266,-0.7999563813209534,-0.046776413917541504,-0.20777227735236206,0.2910626756224114,-0.7088657098397207,-0.6079659828878595,0.8345329630347339,1.8335408589151374,1.4343847999462658
1782818536239741696,1.2557158470153809,-3.0888521671295166,0.04785068333148956,1.6838735342025757,0.6362758278846741,-0.7560840845108032,0.15326431393623352,0.2868351340293884,-0.7191661596298218,-0.03241467475891113,-0.1986130377199936,0.288256229662429,-0.702524377192134,-0.6196133367609622,0.8573089149670509,1.8071705279559411,1.469818255987437
1782818536249661696,1.2656357288360596,-3.3000359535217285,0.02971235290169716,1.7432581186294556,0.6228805780410767,-0.7715070843696594,0.12960155308246613,0.25695639848709106,-0.6956559419631958,0.0002355426549911499,-0.1884220397458625,0.28541613993431203,-0.6952254316228762,-0.6322154149424515,0.8812065728212622,1.7759374620603778,1.5115328348363284
1782818536259580928,1.275554895401001,-3.500831127166748,0.02509416453540325,1.850299596786499,0.6084668636322021,-0.786736249923706,0.10399243235588074,0.2910083532333374,-0.689292311668396,0.07284165918827057,-0.1775358372003995,0.2823682078291294,-0.6872149670930577,-0.6453564444706205,0.9055038291876865,1.7400697708815736,1.5585383842320948
1782818536269500672,1.2854747772216797,-3.820218563079834,-0.09407023340463638,1.9078067541122437,0.5928064584732056,-0.8018114566802979,0.07536029070615768,0.373197078704834,-0.7575910687446594,0.13336467742919922,-0.16605624308052652,0.27872733647965736,-0.6782265244494322,-0.6593522063676538,0.9303204605837772,1.69724269904032,1.612423916724351
1782818536279419648,1.295393705368042,-4.239068984985352,-0.20948150753974915,1.9684797525405884,0.5737201571464539,-0.8179011344909668,0.043396659195423126,0.4148358702659607,-0.816071093082428,0.19323670864105225,-0.15296330359968535,0.27372436707806064,-0.6684110270827758,-0.6744657759457704,0.9577536173734855,1.6462933755167521,1.674671708239698
1782818536289339904,1.3053138256072998,-4.492362976074219,-0.31289613246917725,2.063211441040039,0.5561341643333435,-0.8310670852661133,0.006490041501820087,0.4698057174682617,-0.8114804625511169,0.2823587656021118,-0.1406216975533002,0.2689667993259965,-0.6564311704785237,-0.6906377177307799,0.9810236205840105,1.5824657174858572,1.749107860424541
1782818536299258624,1.315232753753662,-4.513216972351074,-0.32065126299858093,2.168242931365967,0.5381587743759155,-0.8422056436538696,-0.032783761620521545,0.5348087549209595,-0.7256807088851929,0.3933795094490051,-0.1282268160706318,0.2638725288895813,-0.6434123157731928,-0.7070712685190461,1.0013611844565138,1.5099531383711053,1.8318527290386792
1782818536309178880,1.32515287399292,-4.508309364318848,-0.30762356519699097,2.2639808654785156,0.5190057754516602,-0.8517277240753174,-0.07206212729215622,0.5747747421264648,-0.5993525981903076,0.4801889657974243,-0.11536250869294616,0.25836321773110016,-0.6302518422186517,-0.7229955786441167,1.0192738073809675,1.4328319126856504,1.9193240069562034
1782818536319097856,1.3350718021392822,-4.30419921875,-0.32783880829811096,2.376133680343628,0.49893879890441895,-0.8594887852668762,-0.11108081787824631,0.5675589442253113,-0.5359273552894592,0.5968443751335144,-0.10221131448695488,0.2524741621241713,-0.6170221950504997,-0.7383042570727392,1.0342687307034035,1.3517348690746496,2.0106923790771707
1782818536329017856,1.34499192237854,-3.9050421714782715,-0.40519148111343384,2.490079879760742,0.477315217256546,-0.8662399053573608,-0.14764349162578583,0.6113231182098389,-0.5331283807754517,0.644133985042572,-0.08914913741810077,0.24557622552724104,-0.6048723592468115,-0.7522460937909419,1.0476267464076756,1.2708104844685855,2.100297615536638
1782818536338936576,1.3549106121063232,-3.6682004928588867,-0.4705049693584442,2.4950315952301025,0.4550730884075165,-0.8715887069702148,-0.18232324719429016,0.6189320087432861,-0.5011987686157227,0.6535146832466125,-0.07650678797290969,0.23806791140742825,-0.5934324286096323,-0.7650545354153498,1.0584337555950218,1.1897331170592427,2.188602470253989
1782818536348856576,1.364830493927002,-3.339481830596924,-0.4946643114089966,2.714872360229492,0.43151623010635376,-0.8762107491493225,-0.21458876132965088,0.6098350286483765,-0.47944098711013794,0.7298475503921509,-0.06392207955395188,0.22981795344400735,-0.5830002828977379,-0.7766648472751375,1.0679424495949978,1.1093189748098928,2.2750978454570014
1782818536358775552,1.3747496604919434,-3.4258649349212646,-0.4731936454772949,2.8887906074523926,0.4057390093803406,-0.8803409337997437,-0.2457149177789688,0.5949934124946594,-0.46081507205963135,0.8502070903778076,-0.05068267667911387,0.22070503134503577,-0.5730897220360582,-0.7875841778552856,1.0765805111985254,1.026270492633545,2.3639429551336324
1782818536368695552,1.384669542312622,-3.602325916290283,-0.3369271457195282,2.768841505050659,0.37995776534080505,-0.8823299407958984,-0.2777152359485626,0.5255139470100403,-0.4618014097213745,0.8910422325134277,-0.03684678266008569,0.21198849726279576,-0.5623195368663781,-0.7984358404686667,1.0807901590428524,0.9396246575830743,2.457978435262161
1782818536378614528,1.3945884704589844,-3.6031737327575684,-0.15024197101593018,3.0202271938323975,0.3537391722202301,-0.8825094103813171,-0.3099123537540436,0.508672297000885,-0.4491555690765381,0.9239413738250732,-0.022279567427309386,0.2034551660963112,-0.5510442970179442,-0.8089868648118786,1.0811716010399726,0.8513413092326292,2.5551203531296967
1782818536388534528,1.4045085906982422,-3.4460906982421875,0.008577999658882618,3.018193244934082,0.3270840644836426,-0.8814226984977722,-0.34074923396110535,0.4904818534851074,-0.4006512761116028,0.9833579063415527,-0.006583169787022661,0.19540825217078547,-0.5398527502822452,-0.8187376039105498,1.078865850744562,0.7649390363112776,2.6528562201219135
1782818536398453504,1.4144275188446045,-3.1809241771698,-0.08880767226219177,3.0759165287017822,0.30046021938323975,-0.8794255256652832,-0.3692350685596466,0.49269166588783264,-0.28379786014556885,0.8854398727416992,0.00884500680184307,0.1872359010325895,-0.5294574461710274,-0.8273689431808378,1.0746540138675416,0.6830612138316995,2.745573107803827
1782818536408373504,1.4243476390838623,-3.381058692932129,-0.050097256898880005,3.135319232940674,0.27265965938568115,-0.8761245012283325,-0.39757105708122253,0.5129238963127136,-0.10234546661376953,0.7827486395835876,0.024533009417819322,0.17839609376915636,-0.5190272671196308,-0.8355739349425648,1.0677634677910428,0.6011413213942745,2.8378544821607905
1782818536418292480,1.4342665672302246,-3.616055727005005,-0.016568327322602272,2.993189811706543,0.24628710746765137,-0.869840681552887,-0.42745736241340637,0.35532116889953613,-0.08261287212371826,0.6843239068984985,0.040228425770749296,0.1701106662679495,-0.5072806661054038,-0.8438662912744961,1.0548792767470445,0.5227113538117141,2.927751003106004
1782818536428212480,1.4441864490509033,-3.72108793258667,0.05195975303649902,3.1404683589935303,0.21982964873313904,-0.8610343337059021,-0.4585791230201721,0.28746405243873596,-0.0773354172706604,0.5619726777076721,0.05620968624840752,0.16161103684476677,-0.49456275107725023,-0.8521326489869793,1.0373001080218514,0.44700884362124543,3.015295556588717
1782818536438131456,1.4541056156158447,-3.7913506031036377,0.22438478469848633,3.15800404548645,0.19364424049854279,-0.8500962257385254,-0.4897329807281494,0.2338765263557434,-0.10446310043334961,0.4584829807281494,0.07290164127947214,0.1533845489561866,-0.481255321088662,-0.8599720256113359,1.016167933709783,0.3765413118260065,3.099334819993904
1782818536448051456,1.4640254974365234,-4.112128257751465,0.36494243144989014,2.9763243198394775,0.16944582760334015,-0.8362533450126648,-0.5215060114860535,0.19577328860759735,-0.1160171627998352,0.4373384714126587,0.08975460475771616,0.14595117990593,-0.46684607654685006,-0.8675811942769672,0.9904144917542885,0.3141562485711425,-3.1060867369296514
1782818536457970688,1.4739446640014648,-4.690398693084717,0.27545249462127686,2.988081216812134,0.14675061404705048,-0.8176758885383606,-0.5566601157188416,0.20792467892169952,-0.0707060694694519,0.3733562231063843,0.10645725124035901,0.138481930823255,-0.44999189474792367,-0.8757836253926097,0.9573621796556451,0.2577623577800713,-3.0339717969084776
1782818536467890432,1.4838645458221436,-5.1863884925842285,0.092787005007267,2.938772439956665,0.12410953640937805,-0.7937169075012207,-0.5954916477203369,0.18639156222343445,0.015747547149658203,0.3315908908843994,0.12313736770212987,0.13007157599845484,-0.43050615651161916,-0.8846372570479437,0.9168953248002716,0.20547388038994413,-2.9666547881257745
1782818536477809408,1.4937834739685059,-5.498186111450195,0.006459835916757584,2.9031357765197754,0.10144208371639252,-0.7647441029548645,-0.6362987160682678,0.09185629338026047,0.14192599058151245,0.3602367043495178,0.1394622460685508,0.12058414929718972,-0.40903556967325094,-0.8937000610401703,0.8706440822179105,0.15809480881002128,-2.9056355857983154
1782818536487729664,1.5037035942077637,-5.732561111450195,0.06257142126560211,2.6855475902557373,0.08094517141580582,-0.7309975624084473,-0.6775621175765991,-0.06794470548629761,0.24759918451309204,0.3712114691734314,0.15523435582879672,0.11119523323948399,-0.3858167563213954,-0.9025980601767264,0.8197826804909882,0.11890180154596755,-2.8526653815962475
1782818536497648384,1.513622522354126,-5.821829319000244,0.17475707828998566,2.554266929626465,0.06283333152532578,-0.6933048963546753,-0.7178999185562134,-0.18095161020755768,0.3138340711593628,0.3938337564468384,0.1702807936603544,0.1020425094663859,-0.3614379060060933,-0.911018339648823,0.7660650043672167,0.08730132926846591,-2.8072271374016875
1782818536507568640,1.5235426425933838,-5.826138973236084,0.3461204469203949,2.2589378356933594,0.04855835810303688,-0.6525124907493591,-0.7562206387519836,-0.2305346578359604,0.29232877492904663,0.38636285066604614,0.18455959984698322,0.09397395409413521,-0.3362418543544588,-0.9187209619116349,0.7108952991903456,0.0641238600242716,-2.7689057982044836
1782818536517487616,1.533461570739746,-5.750759601593018,0.35918858647346497,2.068833589553833,0.03767482936382294,-0.6095602512359619,-0.7918440103530884,-0.25827112793922424,0.24438691139221191,0.2825514078140259,0.19757352536692718,0.08667487052998783,-0.3107498252854952,-0.9256818378479378,0.655505761137857,0.047542746777063494,-2.7371997740628293
1782818536527407360,1.5433814525604248,-5.389445781707764,0.22926384210586548,2.0625314712524414,0.027869772166013718,-0.5660108923912048,-0.823926568031311,-0.24249990284442902,0.31372207403182983,0.17550432682037354,0.2098469158018979,0.07935618681651102,-0.28590089931091295,-0.9316262629465915,0.6016589361689082,0.0338126619917706,-2.708982868600692
1782818536537326592,1.5533006191253662,-4.479257583618164,0.045254599303007126,1.9274553060531616,0.017758503556251526,-0.5258799195289612,-0.850373387336731,-0.2740756571292877,0.5064250230789185,0.08276480436325073,0.22121764014778972,0.07185433175191469,-0.263913349885205,-0.9360819110575492,0.5537492992630932,0.02088014821150225,-2.6833957710479903
1782818536547246336,1.563220500946045,-3.237971782684326,-0.19263364374637604,1.7079768180847168,0.007746302057057619,-0.4939151704311371,-0.8694756031036377,-0.36525973677635193,0.698947548866272,0.016738176345825195,0.23088531437793489,0.06489002949966405,-0.24708598413146368,-0.9388449445130704,0.5165867482265982,0.008908929809932738,-2.661667237242823
1782818536557165568,1.5731396675109863,-2.1777915954589844,-0.30783185362815857,1.4927161931991577,-0.002567072631791234,-0.47138863801956177,-0.8819218277931213,-0.4700433909893036,0.7695758938789368,0.08143049478530884,0.23892742672818407,0.058564735738543754,-0.23581612829039209,-0.9401460408140019,0.49086467347241053,-0.0029107627881350966,-2.6431234714302088
1782818536567085568,1.583059549331665,-1.4684550762176514,-0.3081020712852478,1.2002537250518799,-0.011832255870103836,-0.4563796818256378,-0.8897064328193665,-0.5986261367797852,0.7475937008857727,0.21304023265838623,0.2453665687474049,0.053368818338910246,-0.2286887425471967,-0.9405575317685612,0.47392218213029885,-0.013298272094662798,-2.6280088817684137
1782818536577004544,1.5929784774780273,-1.3491121530532837,-0.24467913806438446,0.9970971941947937,-0.01966003328561783,-0.4450283646583557,-0.8953006267547607,-0.6792535185813904,0.6654110550880432,0.32541537284851074,0.25042846615373315,0.04904412780720264,-0.22348232156019904,-0.9407103527181916,0.4612059277679322,-0.021955611570643723,-2.616081877637243
1782818536586924544,1.6028985977172852,-1.7567174434661865,-0.056684624403715134,0.7297345995903015,-0.025624161586165428,-0.4321861267089844,-0.9014202952384949,-0.7125502824783325,0.6937828063964844,0.39206671714782715,0.25478764017706296,0.04522886169912814,-0.21735728802381646,-0.9411660560945241,0.44691558059323844,-0.028418777618934868,-2.6063780539054013
1782818536596843520,1.6128175258636475,-2.118838310241699,-0.17616894841194153,0.29590192437171936,-0.029507333412766457,-0.4157494902610779,-0.9090003967285156,-0.8149598240852356,0.8348168730735779,0.3129005432128906,0.2576158520387883,0.04153780792319813,-0.20922338413455277,-0.9424087415840531,0.42876673259692244,-0.03244990573633205,-2.6008469783952197
1782818536606763520,1.6227376461029053,-1.8787651062011719,-0.13793949782848358,-0.16771502792835236,-0.03299789875745773,-0.3992154002189636,-0.9162631630897522,-0.7950660586357117,0.9620358943939209,0.12468302249908447,0.2581512074484346,0.0375218593284961,-0.20114803215960397,-0.9441871708629302,0.41066094729582214,-0.03599800264752273,-2.600317905916806
1782818536616682496,1.6326565742492676,-0.80985027551651,-0.2147434651851654,-0.5664427280426025,-0.03677614778280258,-0.3907577097415924,-0.9197586178779602,-0.8574194312095642,1.0480910539627075,-0.054667651653289795,0.25692878484099124,0.034185063883882934,-0.19736279581879737,-0.9454453181733438,0.40145461221431517,-0.039963278094310634,-2.602768025792713
1782818536626602496,1.6425764560699463,0.6137480735778809,-0.1650955229997635,-0.7605360150337219,-0.043102461844682693,-0.39490649104118347,-0.9177096486091614,-0.8763158917427063,1.1183867454528809,-0.20338404178619385,0.2538475463594902,0.03101747485513275,-0.2004571884737382,-0.9457357663611076,0.4059660609457985,-0.04693293529537074,-2.6074675657257242
1782818536636522496,1.652496576309204,1.3422541618347168,-0.32082119584083557,-0.773903489112854,-0.0474829226732254,-0.40723350644111633,-0.912088930606842,-0.6174951195716858,0.9399940967559814,-0.28720611333847046,0.25048645053175056,0.029877361603475955,-0.20751594143692925,-0.9451460708589181,0.4194229660639807,-0.05201257480184191,-2.6123834900773475
1782818536646441472,1.6624155044555664,1.248910903930664,-0.35137587785720825,-0.6064413785934448,-0.05108293890953064,-0.41951629519462585,-0.9063093066215515,-0.5619693994522095,0.7194125652313232,-0.07580733299255371,0.24694206135913324,0.02903298356489363,-0.21448175254412244,-0.9445497449687883,0.43291239600867687,-0.056304116646286706,-2.6177773738960166
1782818536656361472,1.6723356246948242,1.2709203958511353,-0.41018033027648926,-0.8899327516555786,-0.05318199843168259,-0.4315861463546753,-0.9005026817321777,-0.6447702646255493,0.5803898572921753,-0.008936405181884766,0.24319818996888498,0.028812377183911452,-0.22117527410151938,-0.9439841311461056,0.4462503623031352,-0.058989604514131246,-2.6239112556344386
1782818536666280448,1.6822545528411865,1.3371423482894897,-0.5757654309272766,-1.3611655235290527,-0.05380668118596077,-0.44323572516441345,-0.8947888016700745,-0.8093525171279907,0.7077010869979858,0.017576217651367188,0.23726538165241726,0.028695558051705993,-0.2275569789379926,-0.9439806899904515,0.45920512051906803,-0.060061064803589734,-2.6350615557002595
1782818536676200704,1.6921746730804443,1.03636634349823,-0.4859849214553833,-1.329170823097229,-0.053312718868255615,-0.45511093735694885,-0.8888373374938965,-0.8754287362098694,0.47375717759132385,-0.16311883926391602,0.2302013010881141,0.028817592782428233,-0.23398908617209893,-0.9441535361136627,0.47249680205321987,-0.0599085162640468,-2.6488627545525447
1782818536686119680,1.7020936012268066,0.5758158564567566,-0.5027410984039307,-1.24703049659729,-0.05278269946575165,-0.4625455439090729,-0.8850229382514954,-0.7705662846565247,0.19986549019813538,-0.006258189678192139,0.22346251428004724,0.028378692976789244,-0.238082306649677,-0.9447623679679106,0.4808642132551819,-0.05956936197491742,-2.6624651505060677
1782818536696039424,1.7120134830474854,-0.23158535361289978,-0.3276137709617615,-0.8747153282165527,-0.052304934710264206,-0.4640180468559265,-0.8842802047729492,-0.7391074299812317,0.09275645017623901,0.09280681610107422,0.21796699052618543,0.02742057353746188,-0.23897284454429274,-0.9458490602772422,0.4825257647054813,-0.05908089446212938,-2.6740678803680846
1782818536705958656,1.7219326496124268,-0.8333829641342163,-0.14512379467487335,-0.4162057936191559,-0.05334954708814621,-0.45919278264045715,-0.8867332339286804,-0.7650250792503357,0.10409021377563477,0.16015547513961792,0.21520995524406877,0.025596625037049212,-0.23659710499769165,-0.9471279702828727,0.47708628513833967,-0.060091707654103765,-2.680115845623723
1782818536715878400,1.7318525314331055,-1.145128846168518,-0.6994436979293823,-1.8116891384124756,-0.051576435565948486,-0.44989871978759766,-0.8915890455245972,-0.7304365038871765,0.40448856353759766,0.07962310314178467,0.21012572576082314,0.024086093232573567,-0.2315714646733393,-0.9495481390447704,0.4666519330530658,-0.05778336908695931,-2.6922952866904963
1782818536725797376,1.7417714595794678,-0.8599348664283752,-0.20032818615436554,-1.4799703359603882,-0.050134070217609406,-0.4421974718570709,-0.895515501499176,-0.7271181344985962,0.6078468561172485,-0.560966432094574,0.20168663311101245,0.021860671041198702,-0.2275178368131104,-0.9524076574927588,0.4580472222929776,-0.05592510112718911,-2.71118844331641
1782818536735717632,1.7516915798187256,-0.42397457361221313,-0.37474262714385986,-1.1548433303833008,-0.04934386909008026,-0.43578851222991943,-0.8986954689025879,-0.39300841093063354,0.20115411281585693,-0.5417494773864746,0.19532167959433008,0.020022662967498522,-0.22416814118182615,-0.9545665032987284,0.45091417411869406,-0.054851030727610633,-2.72534490654671
1782818536745636352,1.761610507965088,-1.1105948686599731,-0.103725865483284,-1.3832998275756836,-0.050068747252225876,-0.4293859302997589,-0.9017321467399597,-0.11861716210842133,-0.11921331286430359,-0.5281079411506653,0.19015604000092887,0.01775456288311296,-0.2209495517207681,-0.9564030511213052,0.44381271998996563,-0.05546812123372146,-2.7365454094688606
1782818536755556608,1.7715306282043457,-1.8989486694335938,-0.19225546717643738,-0.4118556082248688,-0.05153462663292885,-0.4141002595424652,-0.9087712168693542,0.23378561437129974,0.1410747468471527,-0.019268274307250977,0.185758571050807,0.014404884455723667,-0.21308889274561907,-0.9591034562348298,0.4269540938109708,-0.05664736023773649,-2.746688072056821
1782818536765475584,1.781449556350708,-3.0266597270965576,-0.8757472038269043,-1.2641558647155762,-0.05680329352617264,-0.3923949897289276,-0.9180411696434021,0.7733712792396545,-0.3522644340991974,-0.0508766770362854,0.1821385866831585,0.008766037362309251,-0.20224384319987787,-0.962209058665043,0.4032339688270535,-0.06179567203421561,-2.75480092979188
1782818536775395584,1.7913696765899658,-3.735028028488159,-0.3185662627220154,-1.7341917753219604,-0.05701310187578201,-0.36017969250679016,-0.9311391115188599,0.6280274987220764,0.24459436535835266,0.15524494647979736,0.17452340177534123,0.004001503794858081,-0.18551123301236278,-0.9670114742427766,0.3684605084667439,-0.06115306717363309,-2.773083774771509
1782818536785314560,1.8012886047363281,-3.5383994579315186,-0.44415438175201416,-1.5374616384506226,-0.05768832936882973,-0.3260052502155304,-0.9436061978340149,1.1723581552505493,0.0659497082233429,-0.004574954509735107,0.16690650190415238,-0.0008416156706457284,-0.1679172306317011,-0.9715685206649541,0.33207487435320776,-0.06106002570567069,-2.791096920038036
1782818536795234560,1.8112084865570068,-3.7127840518951416,-0.43862247467041016,-1.110732078552246,-0.060788314789533615,-0.2908022105693817,-0.9548501968383789,1.2134066820144653,-0.1767118275165558,0.0894784927368164,0.1602282749922382,-0.0065012608658937925,-0.1501087828866085,-0.9755777976243553,0.2950651864046964,-0.06357687444665983,-2.806569148272086
1782818536805153536,1.8211276531219482,-2.265909194946289,-0.7969003915786743,-1.3865489959716797,-0.06334161758422852,-0.2608872950077057,-0.9632889628410339,0.798861026763916,0.2733842432498932,-0.09269553422927856,0.15388285424107337,-0.011129257916097908,-0.13502463098119974,-0.9787566077085955,0.26394121451489944,-0.06566104895750474,-2.8209811352403205
1782818536815073536,1.831047534942627,-0.8658888339996338,-0.4945051074028015,-0.8694131374359131,-0.06719548255205154,-0.24623335897922516,-0.9668784141540527,0.32491645216941833,0.39459457993507385,-0.55105060338974,0.1478126614039945,-0.014996338798649532,-0.12781193782536682,-0.980607355659783,0.24879202313959947,-0.06938578155547291,-2.8336941507157984
1782818536824992512,1.8409664630889893,0.5939891338348389,-0.3229674994945526,-0.7064225077629089,-0.07084222137928009,-0.2444150596857071,-0.9670794606208801,0.2314257174730301,0.2581174373626709,-0.4119946360588074,0.1439331799150005,-0.017454029867891394,-0.1271048143699833,-0.9812353842331524,0.24691640543952037,-0.0731231694456297,-2.8412208532554475
1782818536834912512,1.850886583328247,1.1307004690170288,-0.39933764934539795,-0.3090389370918274,-0.07355519384145737,-0.2520166337490082,-0.9649234414100647,0.30918142199516296,-0.07619991898536682,-0.3514522910118103,0.1415921974320917,-0.0185635848675759,-0.13112463968115148,-0.9810266919182102,0.2547635787733189,-0.0760819090690317,-2.845162276607778
1782818536844831488,1.8608055114746094,2.9241943359375,-0.21291474997997284,-0.194161519408226,-0.0765254870057106,-0.2702006697654724,-0.9597580432891846,0.2327602356672287,-0.1729298233985901,-0.24191737174987793,0.14024861962352325,-0.018926961623732835,-0.1405800860499332,-0.9799027426492092,0.2736014408723255,-0.07956582011906853,-2.846314755261833
1782818536854751488,1.8707256317138672,3.385707378387451,-0.19001822173595428,-0.32561275362968445,-0.07801519334316254,-0.3013136088848114,-0.9503282308578491,0.0025452151894569397,-0.0456102192401886,-0.2673536539077759,0.1391111293461317,-0.017615487274416575,-0.15660646552999627,-0.9776564400712364,0.3060699991148531,-0.08190922142170241,-2.8462687540099014
1782818536864670464,1.8806445598602295,2.9683659076690674,-0.06808386743068695,-0.5187336206436157,-0.07740100473165512,-0.3320043385028839,-0.940096914768219,0.039376094937324524,-0.4542810618877411,0.104891836643219,0.13725077053247564,-0.01542261859268763,-0.17237658912840312,-0.9753002418979931,0.33842763448193547,-0.08214772379032827,-2.8479330333181565
1782818536874590464,1.8905644416809082,2.4426474571228027,0.2547799348831177,-0.2782650589942932,-0.07480839639902115,-0.35746699571609497,-0.9309248328208923,0.18007877469062805,-0.48869389295578003,0.11311477422714233,0.13565477221065173,-0.01258940402002905,-0.18541599897901007,-0.9731701420748413,0.3655542767158669,-0.08018691252126647,-2.8497587176589616
1782818536884509440,1.9004836082458496,2.1471214294433594,0.2845006287097931,-0.1248917356133461,-0.07181675732135773,-0.37830865383148193,-0.9228894114494324,0.4147885739803314,-0.24989566206932068,0.11693549156188965,0.13513706003500092,-0.009684999544019008,-0.1961159992477203,-0.9711759195652052,0.387968486981084,-0.07766078464755546,-2.849808259887752
1782818536894429440,1.9104034900665283,1.6541701555252075,0.11926586180925369,0.18980121612548828,-0.07007935643196106,-0.3954940438270569,-0.9157910943031311,0.41964295506477356,-0.2614578604698181,0.1274152398109436,0.1354222890741126,-0.0075006687142046575,-0.20505654363986348,-0.9693071564470608,0.406605678754989,-0.07637445287806262,-2.848216869250798
1782818536904348672,1.9203226566314697,0.7275934219360352,0.09620155394077301,0.28839752078056335,-0.07004107534885406,-0.40698498487472534,-0.9107455611228943,0.48514115810394287,-0.28329211473464966,0.1479434370994568,0.13659499598516248,-0.0063830841112407595,-0.2111551089795786,-0.9678401590220028,0.41915089065864614,-0.07675412379721323,-2.844843876478713
1782818536914268416,1.9302425384521484,-0.36955833435058594,0.0695723369717598,0.25879064202308655,-0.07076966017484665,-0.407671183347702,-0.9103822708129883,0.43415772914886475,-0.3809793293476105,0.2700624465942383,0.1383830018589989,-0.006309908291345629,-0.21158699077238016,-0.9674922357184434,0.41990222451978754,-0.07758018403752126,-2.840914908905268
1782818536924187392,1.9401614665985107,-1.1113327741622925,-0.0562613345682621,0.26044169068336487,-0.07156014442443848,-0.4014105796813965,-0.9130983948707581,0.4090540409088135,-0.522219181060791,0.11613184213638306,0.13987859467088168,-0.006857964032848989,-0.2083357084637628,-0.9679789090025788,0.4130564316015067,-0.0782108173024736,-2.8381734863265575
1782818536934107648,1.9500815868377686,-1.4293709993362427,-0.08883766084909439,0.7334007620811462,-0.0747523158788681,-0.38937896490097046,-0.9180392622947693,0.3273768424987793,-0.16009002923965454,0.1924533247947693,0.14167637163680694,-0.009003294755853508,-0.20223575217893025,-0.96899302247936,0.39995723985058323,-0.08124680790851124,-2.8347538340149243
1782818536944027392,1.9600014686584473,-1.380613088607788,0.05883599817752838,0.41339483857154846,-0.07685542106628418,-0.3760712742805481,-0.9233978986740112,0.24441219866275787,-0.1514708399772644,0.09804999828338623,0.14409430715042867,-0.01058618833170838,-0.19542002578286766,-0.9700185077196755,0.38555263932387485,-0.08303970419600844,-2.830435162605029
1782818536953946624,1.9699206352233887,-1.3802729845046997,-0.3021829426288605,0.3924783766269684,-0.07965429127216339,-0.3629849851131439,-0.9283841252326965,0.22284278273582458,-0.16206997632980347,-0.1469179391860962,0.14600045726569016,-0.012627039039222613,-0.1888080582137789,-0.9710180836547898,0.3714693655484429,-0.08558924031860941,-2.827020647064038
1782818536963866368,1.9798405170440674,-0.9892710447311401,-0.4017336666584015,0.18759159743785858,-0.08412648737430573,-0.3518127202987671,-0.9322824478149414,0.26378345489501953,0.00737607479095459,-0.1508321762084961,0.14686707687325978,-0.015573309686271861,-0.18334736065714086,-0.9718905459680842,0.3595069215980592,-0.08999338906816041,-2.8252686833002776
1782818536973785344,1.9897594451904297,-0.96297687292099,-0.2740657329559326,0.4047742486000061,-0.08810269832611084,-0.34245720505714417,-0.9353935122489929,0.16143643856048584,0.07384148240089417,-0.06126481294631958,0.1478175344812499,-0.018116622960141694,-0.17881566544806968,-0.972546538381671,0.34953099983446645,-0.0939107961749703,-2.8233277771738217
1782818536983705600,1.9996795654296875,-0.35139331221580505,-0.48546701669692993,0.11387813091278076,-0.09304860979318619,-0.33585500717163086,-0.9373064637184143,0.3340764343738556,0.13520193099975586,-0.00017827749252319336,0.14850315461614585,-0.020985117164551648,-0.17580216775538263,-0.9729337492639628,0.3425128228070328,-0.0989481519350877,-2.821535231897121
1782818536993624576,2.00959849357605,-0.37927475571632385,-0.43433618545532227,0.23444503545761108,-0.09782387316226959,-0.3321996331214905,-0.9381225109100342,0.2641599476337433,0.048996537923812866,0.019818127155303955,0.1491012291186475,-0.023556992963737457,-0.17430949254451258,-0.9730519819618088,0.33863470254593386,-0.10390072125652745,-2.819719209785392
1782818537003544576,2.0195186138153076,-0.16086924076080322,-0.44554296135902405,0.26905569434165955,-0.10254914313554764,-0.329845666885376,-0.938448429107666,0.21627290546894073,-0.06566211581230164,0.07274109125137329,0.14966167543677622,-0.02601057098912755,-0.17349127165547387,-0.9730496309547024,0.33614008547389473,-0.10884333452652624,-2.8178855770195255
1782818537013463552,2.02943754196167,0.16294611990451813,-0.5951018333435059,0.21978402137756348,-0.10812436789274216,-0.32930123805999756,-0.9380137920379639,0.28991758823394775,0.01606881618499756,0.027888059616088867,0.15054254414060894,-0.028694203046714647,-0.17369443241963342,-0.9728021269947074,0.33556343337882266,-0.11476298874334677,-2.8150669376988557
1782818537023383552,2.0393576622009277,0.33906254172325134,-0.4352371096611023,0.1874215453863144,-0.11327921599149704,-0.33161646127700806,-0.9365886449813843,0.15340983867645264,0.08308133482933044,-0.08930546045303345,0.1511561310882856,-0.03099270077934106,-0.1753428532933102,-0.9723405722703177,0.338016482692961,-0.12036408825283143,-2.8125870571285976
1782818537033302528,2.04927659034729,0.4389113783836365,-0.41287961602211,0.316276490688324,-0.1179630383849144,-0.3350505232810974,-0.9347865581512451,0.21088907122612,0.05277818441390991,-0.12318158149719238,0.1521393443686144,-0.03289929386050893,-0.17755102909037437,-0.9717236796506207,0.34165885368517707,-0.12552896503304603,-2.809298621439867
1782818537043222528,2.0591964721679688,0.6525623202323914,-0.37546178698539734,0.28084227442741394,-0.12302520126104355,-0.3402273654937744,-0.9322608113288879,0.25443390011787415,-0.003919363021850586,-0.19417357444763184,0.15329250977327186,-0.034824446954331,-0.18071211055786038,-0.9708923587773243,0.3471586718763322,-0.1312062384990867,-2.8053633419249517
1782818537053141504,2.06911563873291,0.22117260098457336,-0.4910869300365448,0.4228169918060303,-0.12789644300937653,-0.3438560664653778,-0.9302717447280884,0.20161163806915283,-0.08900526165962219,-0.17772996425628662,0.154927713888206,-0.036679859124183416,-0.18308119049929977,-0.9701201683808013,0.3510202856038172,-0.1366263664788398,-2.8006029145277913
1782818537063061504,2.079035520553589,-0.011797131970524788,-0.3339534103870392,0.4335058033466339,-0.13292387127876282,-0.3444470465183258,-0.9293478727340698,0.2563675045967102,-0.2181139886379242,-0.19244778156280518,0.1561581761932533,-0.038928196599221046,-0.1838767391365675,-0.9696848179441714,0.35164973083029694,-0.14206565708508564,-2.796973656580397
1782818537072980480,2.088954448699951,-0.47666892409324646,-0.41053900122642517,0.27233022451400757,-0.13797426223754883,-0.3415388762950897,-0.9296850562095642,0.27106142044067383,-0.3285355865955353,-0.2568536400794983,0.15782009223629523,-0.04138743515885239,-0.1828785160268422,-0.9695026650691704,0.34855374802260447,-0.14733426502725383,-2.792868691597537
1782818537082900480,2.098874568939209,-0.4019792675971985,-0.4552290439605713,0.357363224029541,-0.14264941215515137,-0.3370518684387207,-0.930616557598114,0.20318102836608887,-0.1601099967956543,-0.175187885761261,0.15849704215272248,-0.04397339507684715,-0.18099188014036893,-0.9696323791551702,0.34378377572600505,-0.15210094694247495,-2.7910816618500314
1782818537092819456,2.1087934970855713,-0.44050323963165283,-0.4583057761192322,0.1085376963019371,-0.14760243892669678,-0.3320879638195038,-0.9316282272338867,0.21338307857513428,0.12966486811637878,-0.09510517120361328,0.15919416175013182,-0.04673532851495007,-0.17889020276939688,-0.969779030719424,0.3385162909953626,-0.1571288705591341,-2.789278679426448
1782818537102739456,2.118713617324829,0.21846942603588104,-0.5838757157325745,0.29837357997894287,-0.15337038040161133,-0.33161190152168274,-0.9308657646179199,0.21162845194339752,0.18849971890449524,-0.13550996780395508,0.1596462699012551,-0.04959082574860758,-0.17918666685510726,-0.9695081729768373,0.3380116366383446,-0.16329395617645714,-2.7872636336958077
1782818537112658432,2.1286325454711914,0.3718999922275543,-0.5705626010894775,0.20177938044071198,-0.15962788462638855,-0.3339950442314148,-0.9289597868919373,0.25188255310058594,0.1166793704032898,-0.16996294260025024,0.16042956389448373,-0.05240063887271978,-0.18103670605915653,-0.9688871446803905,0.34053885434501796,-0.17017316538811314,-2.7840805208764237
1782818537122578688,2.138552665710449,0.21469585597515106,-0.5620991587638855,0.18454986810684204,-0.1658242791891098,-0.3363545536994934,-0.9270210266113281,0.2238687127828598,0.021474182605743408,-0.16494369506835938,0.1609001480262281,-0.055240486104336996,-0.18286057452046373,-0.9683086854108323,0.3430432273787116,-0.1770065754727442,-2.7815297249580313
1782818537132497664,2.1484715938568115,0.03334950655698776,-0.6510346531867981,0.2980159819126129,-0.17239755392074585,-0.3368401527404785,-0.9256445169448853,0.27878183126449585,-0.13464117050170898,-0.20536744594573975,0.16150873748122055,-0.0583974118844273,-0.18375929794290816,-0.9678518236590818,0.343558917015528,-0.18413621948494172,-2.778859487614381
1782818537142417408,2.1583914756774902,-0.1725575178861618,-0.803168773651123,0.12701377272605896,-0.18018241226673126,-0.3357158303260803,-0.9245697259902954,0.36510369181632996,-0.2668384909629822,-0.2697814702987671,0.16188707126604976,-0.062341419202653334,-0.18392574625780667,-0.9675109871093798,0.34236505188553273,-0.19247003289773867,-2.7766446629313153
1782818537152336640,2.1683106422424316,-0.46418726444244385,-0.8553171753883362,0.4587789475917816,-0.18857187032699585,-0.33232051134109497,-0.924123227596283,0.25546640157699585,-0.08752506971359253,-0.24396759271621704,0.16240227837869342,-0.06675128767902201,-0.18298265221584503,-0.9673092617012775,0.33876284759778563,-0.20129144834858845,-2.774375656627959
1782818537162256384,2.1782305240631104,-0.6026235222816467,-0.6560131907463074,0.3101939260959625,-0.1965188980102539,-0.3270774185657501,-0.9243379831314087,0.2371988296508789,-0.010187596082687378,-0.1596463918685913,0.16357664787802523,-0.07096691729743837,-0.18109310602568182,-0.9671667840745928,0.3332092205740282,-0.2094858783888208,-2.771150643978273
1782818537172175360,2.1881494522094727,-0.6455965638160706,-0.6956676244735718,0.34899961948394775,-0.20394381880760193,-0.31996437907218933,-0.9252187013626099,0.10994969308376312,-0.03185749053955078,-0.07676488161087036,0.164236581310071,-0.07517144518396741,-0.17815692377567516,-0.9672825717162293,0.3256918826347214,-0.21695821246791147,-2.769434039382497
1782818537182095616,2.1980695724487305,-0.48184120655059814,-0.714715301990509,0.31381648778915405,-0.21144330501556396,-0.31390753388404846,-0.9256099462509155,0.15004195272922516,0.004550844430923462,-0.08334696292877197,0.16482707370616811,-0.07934375442958054,-0.1757827842440563,-0.9672833551431363,0.31930579923761593,-0.22458315061669457,-2.767718988305646
1782818537192015360,2.207989454269409,-0.30760282278060913,-0.5871621370315552,0.5456627607345581,-0.21844232082366943,-0.3092041313648224,-0.9255678057670593,0.15846002101898193,0.05767825245857239,-0.008788883686065674,0.16627845736626612,-0.08300147659701207,-0.17414606052616158,-0.9670239883407573,0.3143560282613744,-0.2317679204875175,-2.7641328279780493
1782818537201934592,2.2179086208343506,-0.32390156388282776,-0.57820063829422,0.47218775749206543,-0.22528403997421265,-0.30542805790901184,-0.92518150806427,0.20062582194805145,-0.05297034978866577,0.01102745532989502,0.16793047995913524,-0.08647369842401909,-0.17300739439370758,-0.9666384824456783,0.31038794967517563,-0.23885411776286744,-2.7600300973125296
1782818537211854336,2.2278285026550293,-0.835436224937439,-0.53762286901474,0.7233097553253174,-0.23221299052238464,-0.29898571968078613,-0.9255726337432861,0.15005967020988464,-0.12983202934265137,0.07706189155578613,0.17008048267656709,-0.09012933487864437,-0.1705590529576792,-0.9663638276835455,0.30362957399616336,-0.24581214442546187,-2.75536692917217
1782818537221773568,2.2377476692199707,-1.5429041385650635,-0.6567360758781433,0.6684678196907043,-0.23969218134880066,-0.28657662868499756,-0.9275890588760376,0.18489786982536316,-0.14993155002593994,0.1547313928604126,0.17257041205686585,-0.09451932524594879,-0.16514103621347184,-0.9664439727228149,0.2906516880120457,-0.25287198215668333,-2.7509887745059363
1782818537231693568,2.2476675510406494,-2.1938672065734863,-0.6036020517349243,0.6036877632141113,-0.24715018272399902,-0.26756754517555237,-0.931302547454834,0.18411614000797272,0.004032999277114868,0.14249944686889648,0.17396604033095603,-0.0996657143168157,-0.15625453274401654,-0.9671541739762649,0.27086764557572107,-0.2594018878408956,-2.750106635830514
1782818537241612544,2.2575864791870117,-2.660109519958496,-0.5627040266990662,0.7101766467094421,-0.25434765219688416,-0.24305756390094757,-0.9360717535018921,0.21060070395469666,0.005615547299385071,0.08226621150970459,0.17538640628286872,-0.10516788248631417,-0.14458163252361647,-0.968129898727062,0.24551670642372003,-0.26531251687927365,-2.750235742220755
1782818537251532544,2.2675065994262695,-2.563758611679077,-0.5289042592048645,0.6436706185340881,-0.260797917842865,-0.21713900566101074,-0.9406567215919495,0.2128395438194275,-0.07889676094055176,0.013349592685699463,0.1768524729543671,-0.11043879598696854,-0.1321926635521383,-0.9690468094508323,0.2188825898336021,-0.2704576439494324,-2.7506647865197893
1782818537261451520,2.277425527572632,-2.7679951190948486,-0.46426957845687866,0.5942732691764832,-0.2666175067424774,-0.19076009094715118,-0.9447357654571533,0.09280464053153992,-0.09259563684463501,0.05246281623840332,0.17801615166020193,-0.11550674309838571,-0.11954203530392121,-0.9698856925545544,0.1919363947981368,-0.27506040095070505,-2.7519016032847157
1782818537271371520,2.2873456478118896,-2.5174431800842285,-0.16315287351608276,0.9843059778213501,-0.27100005745887756,-0.16369390487670898,-0.948558509349823,0.09204497933387756,-0.06973503530025482,0.22217917442321777,0.17986241109356144,-0.11986878352787884,-0.10654675896662996,-0.9705301176906925,0.16443390702282887,-0.27828340289676873,-2.75202337356196
1782818537281290496,2.297264575958252,-2.5431222915649414,-0.24846738576889038,0.8463353514671326,-0.27390989661216736,-0.13727767765522003,-0.9519076347351074,0.16033875942230225,-0.013570696115493774,0.1288638710975647,0.18288053968006213,-0.12337376768993429,-0.09394190355520822,-0.970828713085963,0.1377125401741307,-0.2801792206716482,-2.7497556043063454
1782818537291210496,2.3071844577789307,-2.9150943756103516,-0.39476707577705383,0.41421934962272644,-0.2771724760532379,-0.10988616943359375,-0.954515814781189,0.17300072312355042,0.22576141357421875,0.023378729820251465,0.1842236461884203,-0.12737638104019366,-0.08073011017934464,-0.9712463585674135,0.11010852408830074,-0.2826080824120905,-2.7510124782634766
1782818537301129472,2.317103624343872,-2.974700689315796,-0.3545408248901367,-0.042404815554618835,-0.28051236271858215,-0.08124588429927826,-0.9564056992530823,0.15871670842170715,0.37897539138793945,-0.18293750286102295,0.1830058650861997,-0.1317615840606412,-0.0666034578057765,-0.9719628449374179,0.08133553644544406,-0.28529735533859024,-2.7576925666546286
1782818537311049472,2.327023506164551,-2.3621444702148438,-0.12939584255218506,0.05818197876214981,-0.2831624150276184,-0.05563649907708168,-0.9574568271636963,0.1770986020565033,0.2803374230861664,-0.40063637495040894,0.18100101353696246,-0.13555132573976775,-0.05382760015063686,-0.9726084115726757,0.055665241782609155,-0.2875479357211904,-2.765544318319694
1782818537320968704,2.336942672729492,-2.2768545150756836,0.043500106781721115,-0.21914945542812347,-0.282783180475235,-0.03441283479332924,-0.9585663676261902,0.22975888848304749,-0.015040900558233261,-0.4633849263191223,0.17934549192757826,-0.1373621156813874,-0.04299392843504437,-0.9732000764406097,0.034419632278175676,-0.2868692098522766,-2.772141759176326
1782818537330890752,2.346864700317383,-2.892918825149536,-0.11948055773973465,-0.4293482303619385,-0.2834742069244385,-0.010961167514324188,-0.9589172005653381,0.17214608192443848,-0.10695875436067581,-0.20152896642684937,0.1754909215969048,-0.13996415596915318,-0.030845226499342588,-0.9739926041524821,0.010961387028536999,-0.2874327670501106,-2.783477918280103
1782818537340809472,2.356783628463745,-2.7265546321868896,-0.19300414621829987,-0.4498615264892578,-0.28468939661979675,0.014827397651970387,-0.9585051536560059,0.25516363978385925,-0.1426807940006256,-0.10837411880493164,0.17160472709859556,-0.14296453474964285,-0.017566240736953103,-0.974579102129431,-0.014827941049139717,-0.2887150512847996,-2.7951597911961787
1782818537350729728,2.366703748703003,-2.9448230266571045,-0.16168564558029175,-0.5827500820159912,-0.28638893365859985,0.03990762308239937,-0.9572819471359253,0.15612465143203735,-0.21690957248210907,-0.1521846055984497,0.16708229428945132,-0.1460758757667447,-0.004566819040076493,-0.9750509980482089,-0.03991822253477329,-0.2906940793989177,-2.8080181537096336
1782818537360648704,2.3766226768493652,-3.2489962577819824,-0.1460779905319214,-0.4345761239528656,-0.2879149615764618,0.06770671159029007,-0.9552595615386963,0.1624571979045868,-0.11323893815279007,-0.12025618553161621,0.16214339358477436,-0.14923886357090735,0.009899111976901725,-0.9753662625670104,-0.0677585484675076,-0.29274044275335537,-2.822121638023097
1782818537370568704,2.386542797088623,-3.378147840499878,-0.2114439606666565,-0.20218974351882935,-0.28958654403686523,0.09858667105436325,-0.9520610570907593,0.2573752701282501,-0.14755213260650635,-0.17151981592178345,0.15811728768473013,-0.15265671267648168,0.025795203958627246,-0.975207325959451,-0.09874707644881457,-0.29527628785630655,-2.8348133492509207
1782818537380487680,2.3964617252349854,-3.2794225215911865,-0.27448710799217224,-0.029576700180768967,-0.29190266132354736,0.12922236323356628,-0.9476784467697144,0.35219013690948486,-0.3147082030773163,-0.28433144092559814,0.15498813531804714,-0.15634623062743408,0.04143232809617272,-0.9745860085352118,-0.12958472039826235,-0.2987970478391374,-2.8457063633428787
1782818537390407680,2.406381607055664,-3.6016736030578613,-0.3646329939365387,-0.07283922284841537,-0.2949436604976654,0.16196352243423462,-0.9416878819465637,0.3221805989742279,-0.3290777802467346,-0.11397618055343628,0.15211692199822188,-0.16056409187532764,0.05809674224683945,-0.9735011110232733,-0.1626801182654479,-0.3035292367617088,-2.8565185139044775
1782818537400326656,2.4163007736206055,-3.1417791843414307,-0.14815685153007507,0.0612618587911129,-0.29702770709991455,0.1933458149433136,-0.9350892901420593,0.11375442147254944,-0.0029924362897872925,-0.057525455951690674,0.14954248547236093,-0.16417077771072383,0.07418439546019753,-0.9722045175889598,-0.19457117672365642,-0.30756647872574683,-2.8666022485961156
1782818537410246656,2.426220655441284,-2.554304838180542,-0.08765224367380142,-0.22634834051132202,-0.2981936037540436,0.21944262087345123,-0.9289378523826599,0.09277978539466858,0.03940747678279877,-0.1479054093360901,0.1468707433063471,-0.16681948917376108,0.08776296445829757,-0.9710293088930069,-0.2212431347691867,-0.3106142393805221,-2.876141141631171
1782818537420166656,2.436140775680542,-1.6483936309814453,-0.01086052693426609,-0.24223117530345917,-0.2992515563964844,0.23810656368732452,-0.9239879846572876,0.06418991088867188,-0.12754137814044952,-0.1654590368270874,0.14388303760306853,-0.1687089203809826,0.09768991002632059,-0.9702018405947218,-0.24041587897454153,-0.3132091084329504,-2.8852748609828778
1782818537430085632,2.4460597038269043,-1.2381627559661865,0.1604989767074585,-0.255296915769577,-0.2990717589855194,0.25019514560699463,-0.9208466410636902,0.11747691035270691,-0.26673567295074463,-0.17592459917068481,0.14140305586258275,-0.1694071931830807,0.10429713894845356,-0.9697569873752498,-0.2528818084990103,-0.3140321033522161,-2.892253099589104
1782818537440005632,2.455979585647583,-0.941141664981842,0.14707452058792114,-0.18568506836891174,-0.2980371415615082,0.2597493827342987,-0.9185336828231812,0.19792422652244568,-0.2618856132030487,-0.03718531131744385,0.139346097373762,-0.16946779315548574,0.10960761234737194,-0.9694583089723869,-0.2627626577944346,-0.3137529620644036,-2.8978736196192694
1782818537449924608,2.4658987522125244,-0.7829662561416626,-0.04941229149699211,-0.10721896588802338,-0.2978317141532898,0.26698532700538635,-0.9165233969688416,0.2776138186454773,-0.27246323227882385,-0.027888834476470947,0.1376789267452044,-0.1697919374200507,0.11361780715688381,-0.9691781298799087,-0.27026344821367637,-0.3141940132078647,-2.9024323981923
1782818537459844608,2.475818634033203,-0.10605824738740921,-0.13023896515369415,0.06865093857049942,-0.29877904057502747,0.2711315453052521,-0.9149965643882751,0.26083049178123474,-0.12801939249038696,-0.017620563507080078,0.1373521627136652,-0.170604375889456,0.11574046584169442,-0.9688305376830907,-0.2745684275705672,-0.31562026168984936,-2.90389000871313
1782818537469763840,2.4857378005981445,0.5110163688659668,-0.13002297282218933,0.30338913202285767,-0.2990766167640686,0.26975059509277344,-0.9153074622154236,0.174717515707016,-0.19363978505134583,-0.07799386978149414,0.13860998500849808,-0.17078987557998027,0.11479145881548224,-0.9687316270172972,-0.2731340183783613,-0.3158138049758252,-2.9011111980151476
1782818537479683584,2.4956576824188232,0.3896064758300781,0.06061114743351936,0.341415673494339,-0.2986712157726288,0.26618507504463196,-0.9164829850196838,0.10099360346794128,-0.35998085141181946,0.018991529941558838,0.1405763506552518,-0.17049853803716808,0.11264442078257146,-0.9687517247407924,-0.26943314796370815,-0.3150352707705179,-2.8964319046190274
1782818537489602560,2.5055766105651855,-0.14052075147628784,0.41848647594451904,0.5159025192260742,-0.29538679122924805,0.2661527991294861,-0.9175561666488647,-0.062263935804367065,-0.35494372248649597,0.22927802801132202,0.1424886061565253,-0.1690065007464277,0.11251094911399988,-0.9687492839067111,-0.2693996659958951,-0.31145065007274686,-2.892062714111667
1782818537499522560,2.5154967308044434,-0.36054617166519165,0.7991160154342651,0.7731277346611023,-0.28828203678131104,0.2702842950820923,-0.9186075329780579,-0.06050333380699158,-0.2903648912906647,0.31603801250457764,0.14513832205462973,-0.1659883221524853,0.11464771180270288,-0.9686271542020657,-0.2736883167990116,-0.30409155209822075,-2.886321570516503
1782818537509441536,2.5254156589508057,-0.36463281512260437,1.0368627309799194,1.0244147777557373,-0.2771376669406891,0.2763659656047821,-0.9202263951301575,-0.011863797903060913,-0.2888781726360321,0.28729182481765747,0.14855074446745647,-0.16116321199930547,0.11795436512131946,-0.9685277248365111,-0.2800107459662897,-0.2925229520815824,-2.8787239696600526
1782818537519361792,2.5353357791900635,0.17284974455833435,1.0967581272125244,1.319307565689087,-0.26403599977493286,0.2806524932384491,-0.9227779507637024,0.08326509594917297,-0.2795080840587616,0.2473934292793274,0.15337752424174458,-0.15537269567908174,0.12029272900677739,-0.9684339560622863,-0.2844738492165852,-0.2786854852961524,-2.867611973295947
1782818537529280768,2.545254707336426,0.9876127243041992,1.0117318630218506,1.32760751247406,-0.250447541475296,0.2787167429924011,-0.9271423816680908,0.17690017819404602,-0.2848355174064636,0.14299321174621582,0.1598907400293008,-0.14898974002676973,0.11929316437457804,-0.9685072343284076,-0.282457645314317,-0.2638315517600014,-2.8520894265382437
1782818537539200512,2.5551745891571045,1.5731719732284546,0.892730712890625,0.8203469514846802,-0.2384571135044098,0.26899009943008423,-0.9331572651863098,0.1281665861606598,-0.23082786798477173,0.11492002010345459,0.16544721596826564,-0.14256404894541302,0.1144414499378224,-0.9691263562858813,-0.27234433215992554,-0.2501840358880787,-2.837873813748313
1782818537549119744,2.565093755722046,1.2164669036865234,1.0186254978179932,0.5914192199707031,-0.2278253585100174,0.25720706582069397,-0.9391166567802429,0.09865972399711609,-0.11607855558395386,0.1907188892364502,0.1692271965103259,-0.13641233114608722,0.10878114403523874,-0.9700105783854813,-0.2601309243049844,-0.23799754443270157,-2.827427270285221
1782818537559039488,2.5750136375427246,0.7642413973808289,0.8305893540382385,0.5334582328796387,-0.2176215946674347,0.24895887076854706,-0.9437479972839355,0.1473701447248459,-0.05945998430252075,0.18762928247451782,0.17202029298879176,-0.13071345389636432,0.10507133305950139,-0.9707126227890363,-0.25160513164242015,-0.2266314309311364,-2.8195971555309396
1782818537568958720,2.584932804107666,0.3894081711769104,0.7901766896247864,0.5554964542388916,-0.20845302939414978,0.24496929347515106,-0.9468565583229065,0.1794918328523636,-0.08028119802474976,0.1619139313697815,0.17459099762064445,-0.12594076255753361,0.1034921825470304,-0.9710542695760949,-0.24748802576310489,-0.21669594065524558,-2.812860219588498
1782818537578878720,2.5948526859283447,0.46220770478248596,0.7358001470565796,0.5306280851364136,-0.19970311224460602,0.24206675589084625,-0.9494853019714355,0.13140477240085602,-0.15356577932834625,0.13683271408081055,0.17709573383394,-0.12148647352732647,0.10246160132810592,-0.9712774322221025,-0.244495391552688,-0.20730608568603484,-2.806449382174087
1782818537588798464,2.6047725677490234,0.4950903058052063,0.9176671504974365,0.44629189372062683,-0.190270334482193,0.23817890882492065,-0.9524011611938477,0.03467647731304169,-0.13533468544483185,0.20359140634536743,0.17941894451595267,-0.11657477712406272,0.10104320196973406,-0.9716015184150222,-0.24049036075876967,-0.19718363161106972,-2.800282374354492
1782818537598717696,2.614691734313965,0.5251362323760986,1.0182777643203735,0.2919166386127472,-0.17956477403640747,0.2338545024394989,-0.9555462002754211,0.03938227891921997,0.0004899799823760986,0.31774407625198364,0.18111807113890876,-0.11092007688589678,0.09961740415679647,-0.9720954170623499,-0.2360402370835836,-0.18575216621882185,-2.7952700925758682
1782818537608637696,2.6246116161346436,1.1173481941223145,1.0434269905090332,0.3780059814453125,-0.16781342029571533,0.22661417722702026,-0.9594189524650574,0.10226166248321533,0.11571675539016724,0.3931500315666199,0.1825786523710084,-0.10443238328450638,0.0968731883525149,-0.9728178578561057,-0.22860001555670423,-0.17315981421891394,-2.790476600805209
1782818537618556672,2.634530782699585,1.4216605424880981,1.0559186935424805,0.28501102328300476,-0.1545732021331787,0.21341204643249512,-0.96465665102005,0.09234786033630371,0.08321881294250488,0.28898221254348755,0.1847543014527234,-0.09668094565150027,0.09123858123668599,-0.9737525547937819,-0.21506613923479684,-0.15888584286417723,-2.783768940349875
1782818537628476672,2.6444506645202637,1.4144119024276733,1.0491745471954346,0.15508951246738434,-0.14325998723506927,0.19989509880542755,-0.969287633895874,0.05895516276359558,0.10181693732738495,0.366016149520874,0.18588736079338591,-0.08977719197546574,0.08541800396489856,-0.9747255068059325,-0.20125086390960992,-0.14673692997855053,-2.779545353598606
1782818537638395648,2.654369592666626,1.7345011234283447,1.0349863767623901,0.2874982953071594,-0.13263311982154846,0.1848033368587494,-0.9737844467163086,0.11728279292583466,0.057078972458839417,0.27000337839126587,0.1872226952300208,-0.08308874994532162,0.07876565413218833,-0.9756227985702591,-0.18587174699457457,-0.13537076916554017,-2.7750373627349716
1782818537648315648,2.664289712905884,1.4431962966918945,0.9933643341064453,0.24251008033752441,-0.1220003142952919,0.16941487789154053,-0.977964460849762,0.12052021920681,-0.07059897482395172,0.24482548236846924,0.18875135271262694,-0.07639079684066119,0.07198754153670527,-0.9763990891325823,-0.1702359290637729,-0.12410807630715472,-2.7702790483822635
1782818537658234624,2.674208641052246,1.1014460325241089,0.7781981825828552,0.07738403975963593,-0.11303497850894928,0.15739448368549347,-0.9810454249382019,0.12019135802984238,-0.11215218901634216,0.3798643946647644,0.18979235528181826,-0.07082415064972133,0.06679252747952445,-0.9769859391080459,-0.1580516944873963,-0.11471306935008907,-2.7669401473832202
1782818537668154624,2.684128761291504,1.1056429147720337,0.6673454642295837,0.08692880719900131,-0.10614045709371567,0.14629219472408295,-0.9835307598114014,0.13337740302085876,-0.10361336171627045,0.35415148735046387,0.1902731096464892,-0.0663416831072292,0.06191438171724009,-0.9775282682379393,-0.14681909345626057,-0.10750173651880358,-2.765019391440816
1782818537678073600,2.694047689437866,1.0734145641326904,0.5330944657325745,-0.0030242856591939926,-0.09985969215631485,0.1360967457294464,-0.9856498837471008,0.19095465540885925,-0.07449701428413391,0.39292222261428833,0.19081373223599207,-0.06226091515513459,0.057433694157499424,-0.9779648065787603,-0.13652041729260375,-0.10096902955266103,-2.763116983140894
1782818537687993600,2.703967571258545,0.5217602252960205,0.6851577162742615,-0.03266366943717003,-0.09431782364845276,0.12722574174404144,-0.987379252910614,0.10205402970314026,-0.12458597123622894,0.248457133769989,0.19062718046560742,-0.05863868631176331,0.05358997757731194,-0.9784431061681265,-0.12757148835953688,-0.09523444119478301,-2.762846785168826
1782818537697912576,2.7138867378234863,-0.5146529674530029,0.780816376209259,-0.02289576083421707,-0.08667145669460297,0.1274091899394989,-0.9880561232566833,0.16530001163482666,-0.2130720466375351,0.3422431945800781,0.1904157779984073,-0.05486885756577459,0.05441813837811314,-0.9786571487790123,-0.12775644309861003,-0.08749520324644673,-2.762857878892063
1782818537707832576,2.723806619644165,-0.9558772444725037,0.6407764554023743,-0.09533374756574631,-0.0798431783914566,0.13470938801765442,-0.9876631498336792,0.1585022360086441,-0.3501482307910919,0.2095717191696167,0.18957899916942847,-0.05216282507915888,0.05871521923753366,-0.9787192415201633,-0.13512016532960722,-0.08066508000875244,-2.7643903243055736
1782818537717751808,2.7337257862091064,-1.77634596824646,0.7049564719200134,0.03321707621216774,-0.07337980717420578,0.14766472578048706,-0.9863115549087524,0.19899016618728638,-0.38065117597579956,0.06312429904937744,0.18893006956014363,-0.05019374534320117,0.06576320434882,-0.9784994325330721,-0.1482067019342187,-0.0742613902386838,-2.76563961095607
1782818537727671552,2.743645668029785,-2.59698748588562,0.7377495169639587,0.00039281626231968403,-0.06611984223127365,0.16918665170669556,-0.9833636283874512,0.17595261335372925,-0.29479700326919556,0.13466984033584595,0.18828260125654014,-0.048660556079923784,0.07713839884964283,-0.9778708493776214,-0.17000436927888804,-0.06713739056560482,-2.7668841629048173
1782818537737590528,2.7535645961761475,-3.0030877590179443,0.8490455746650696,-0.06174622103571892,-0.05830192193388939,0.19661937654018402,-0.9787449836730957,0.12061882019042969,-0.16573558747768402,0.0903935432434082,0.1871019940827544,-0.047375473440978,0.09155918072362787,-0.9769161849166602,-0.19790879948679327,-0.059497737507236775,-2.769038111728845
1782818537747510784,2.7634847164154053,-3.2884178161621094,0.8113616108894348,-0.26894253492355347,-0.05057916417717934,0.22687020897865295,-0.9726107716560364,0.15296563506126404,-0.015169769525527954,-0.03213471174240112,0.18525757561502537,-0.04632407729566678,0.10746491566302033,-0.9756971966859577,-0.22886288571227226,-0.05195669961656872,-2.7722887517420878
1782818537757429504,2.7734036445617676,-3.3988752365112305,0.5945100784301758,-0.2438366413116455,-0.04424143582582474,0.2591966390609741,-0.9648107290267944,0.16301585733890533,0.07339915633201599,-0.09767395257949829,0.18268953783584815,-0.04603583953962366,0.12439984909896948,-0.974181620405368,-0.26219030842539004,-0.045822940653132686,-2.7768791218951416
1782818537767349760,2.7833237648010254,-3.218644380569458,0.3216817378997803,-0.10614854097366333,-0.040132127702236176,0.2904545068740845,-0.9560468792915344,0.21797332167625427,0.11666524410247803,-0.19561022520065308,0.18088196366292758,-0.04680724966411179,0.140661490734662,-0.9722679721229117,-0.2947017794838182,-0.04195252445907992,-2.7799436022551895
1782818537777269504,2.793243646621704,-2.7993927001953125,0.07209990918636322,0.02052871137857437,-0.03845494985580444,0.31904077529907227,-0.9469605088233948,0.11384861916303635,0.22549962997436523,-0.2612609267234802,0.17984234033533048,-0.04863120259392771,0.15541798303470253,-0.9701221798730892,-0.3247171853284672,-0.040586519616519726,-2.781641143715735
1782818537787188480,2.8031625747680664,-2.1944682598114014,0.07828696072101593,0.02184377983212471,-0.037703078240156174,0.34233832359313965,-0.9388200044631958,-0.015840008854866028,0.32393670082092285,-0.3691023588180542,0.17936421005864672,-0.05049669308694464,0.1674517665752058,-0.9681107965766053,-0.34940447333696295,-0.040138504401966,-2.782287823249063
1782818537797108736,2.813082695007324,-1.853166103363037,0.3328968286514282,0.09409581124782562,-0.03563607111573219,0.36076122522354126,-0.9319771528244019,-0.1247338056564331,0.26472705602645874,-0.31675636768341064,0.1789474321020854,-0.05124112082816318,0.1771602952086336,-0.9664194284529156,-0.36908396561719414,-0.038218444669983406,-2.7825442517029075
1782818537807027456,2.8230016231536865,-1.9836527109146118,0.18435770273208618,0.07071511447429657,-0.03213777393102646,0.37854379415512085,-0.9250252842903137,-0.10079679638147354,0.13235098123550415,-0.15468662977218628,0.17872387184174915,-0.05124964429784691,0.18671056990147397,-0.9646608044180103,-0.38822251868718166,-0.034728621913967576,-2.782032541123114
1782818537816947712,2.8329217433929443,-1.4968205690383911,0.041086941957473755,0.055983904749155045,-0.031130475923419,0.3944037854671478,-0.9184097647666931,-0.049695324152708054,0.22131884098052979,-0.11517477035522461,0.1783472559847876,-0.0522932819360905,0.1950910601491769,-0.9630145766642241,-0.4054189634401453,-0.03388308954203527,-2.782313168009866
1782818537826866688,2.8428406715393066,-1.3723797798156738,0.06646020710468292,-0.009964482858777046,-0.030327418819069862,0.40734946727752686,-0.9127686619758606,-0.04315890371799469,0.40888893604278564,-0.1165434718132019,0.17824158304087212,-0.05320482108106048,0.20195274352174145,-0.9615686100370555,-0.4195499332816538,-0.03321352562095636,-2.7820944736883653
1782818537836786688,2.8527607917785645,-1.4182021617889404,0.3151249587535858,-0.20898078382015228,-0.02898150496184826,0.419475793838501,-0.9073037505149841,-0.1924998164176941,0.448993444442749,-0.05461031198501587,0.17706778780186808,-0.053535497031933214,0.2085235534754998,-0.9603638692500746,-0.43286777878734983,-0.03193159350126896,-2.78395806042866
1782818537846705664,2.8626797199249268,-1.9188690185546875,0.5111464262008667,-0.20706596970558167,-0.025875592604279518,0.43410977721214294,-0.9004882574081421,-0.09141871333122253,0.31975069642066956,-0.01976931095123291,0.17533530135464995,-0.05310585178529005,0.21664632297912934,-0.9589064669698926,-0.44904985362688754,-0.028727163973407233,-2.7864509084493343
1782818537856625664,2.8725996017456055,-2.3840110301971436,0.3752287030220032,-0.3219362199306488,-0.02262152172625065,0.45351549983024597,-0.890961229801178,0.1247486025094986,0.30811166763305664,0.036377549171447754,0.172998819833416,-0.05293759358427396,0.22741369026895575,-0.9568448027866827,-0.470705863104093,-0.02538456460442415,-2.7899420438545204
1782818537866544640,2.882518768310547,-2.6376283168792725,0.43757808208465576,-0.350462406873703,-0.020543619990348816,0.475178062915802,-0.879649817943573,0.3467459976673126,0.2555500864982605,-0.1098673939704895,0.1702996848431874,-0.05348277757989631,0.23940486585680154,-0.9543704587286639,-0.49516639107277094,-0.023350071398712823,-2.7943284325086513
1782818537876464640,2.8924386501312256,-2.978646755218506,0.28688937425613403,-0.28347909450531006,-0.01850142516195774,0.4996802806854248,-0.8660122752189636,0.4347459375858307,0.1575920581817627,-0.13833647966384888,0.16774823256267785,-0.054351132125728584,0.25306088686781764,-0.951244742516978,-0.5232296445101235,-0.021360678925487743,-2.798209367375187
1782818537886383616,2.902357578277588,-2.9696860313415527,0.24317064881324768,-0.4729342460632324,-0.017684537917375565,0.5249581336975098,-0.8509443402290344,0.4577174782752991,0.16194677352905273,-0.18497484922409058,0.16502083841628873,-0.05585777632609272,0.2672222735810133,-0.9477554582143228,-0.5526659198095707,-0.020779258479500348,-2.802707067325858
1782818537896303616,2.9122776985168457,-2.5415964126586914,0.2575886845588684,-0.8195808529853821,-0.01828903704881668,0.5481938719749451,-0.8361513018608093,0.2718138098716736,0.26146799325942993,-0.2573545575141907,0.16100040248910985,-0.057475733081633174,0.28039416595529476,-0.9445393549697463,-0.5802031843716873,-0.021869392155317937,-2.810458922793386
1782818537906222592,2.922196626663208,-1.8598170280456543,0.310738742351532,-1.0308464765548706,-0.019453931599855423,0.565895676612854,-0.8242473006248474,0.16676229238510132,0.353232741355896,-0.3672810196876526,0.15572746511094274,-0.05835631990484666,0.2906387702885337,-0.9422699144302942,-0.6015192373246527,-0.023597675511165966,-2.821336380830208
1782818537916142592,2.932116746902466,-1.5665702819824219,0.27003782987594604,-0.806723952293396,-0.02171582728624344,0.5794054865837097,-0.814750075340271,0.21754711866378784,0.2650311589241028,-0.3732229471206665,0.1506042140759473,-0.0593395237188032,0.29850254571972734,-0.9405814383562842,-0.6179990548178866,-0.026647049639139293,-2.8325584756961826
1782818537926062592,2.9420366287231445,-1.0378614664077759,0.061059847474098206,-0.607461154460907,-0.024222154170274734,0.5898575186729431,-0.8071439862251282,0.33199194073677063,0.1540236473083496,-0.3059541583061218,0.14683397600670406,-0.060515090258743534,0.3045750148585251,-0.9391548030364648,-0.6308823837035463,-0.030000703745038257,-2.8412009249492955
1782818537935981824,2.951955795288086,-0.5149188041687012,-0.13495610654354095,-0.6870110630989075,-0.02785339206457138,0.5957754850387573,-0.8026679158210754,0.330007940530777,0.12482082843780518,-0.37294548749923706,0.1438420546961376,-0.06203910935957963,0.30792400935069913,-0.9384260857732525,-0.6382308895075044,-0.03468709858994648,-2.848861953066347
1782818537945901568,2.9618756771087646,-0.10911170393228531,-0.3261926472187042,-0.7891643643379211,-0.03406497463583946,0.5981506109237671,-0.8006593585014343,0.17180606722831726,0.1931701898574829,-0.2652128338813782,0.14052483095685367,-0.06443271385882818,0.30906107332396743,-0.9383935469427456,-0.6411913898930536,-0.04252050901949772,-2.858421800871762
1782818537955820544,2.971794605255127,0.5540885329246521,-0.352363258600235,-0.6533404588699341,-0.04082107916474342,0.5959285497665405,-0.8019992709159851,0.15321731567382812,0.23570597171783447,-0.2210567593574524,0.137861129632258,-0.06686590167695132,0.30745621302777987,-0.9391453541282655,-0.6384214699566989,-0.05085526259407615,-2.866897726553768
1782818537965740800,2.9817147254943848,0.4773319661617279,-0.26803508400917053,-0.7943769097328186,-0.04728114604949951,0.591139554977417,-0.8051822781562805,0.14998804032802582,0.2159740924835205,-0.1367579698562622,0.13521829065443502,-0.06890989873423062,0.30440149904892244,-0.9403761177529352,-0.6324709553508485,-0.05865368971586213,-2.8751644312809392
1782818537975659520,2.991633653640747,0.2503691613674164,-0.15394814312458038,-1.0207579135894775,-0.05439265817403793,0.5878589153289795,-0.8071327805519104,0.09250910580158234,0.213853120803833,0.0219765305519104,0.13137150980713946,-0.07107130888916671,0.30229533954151816,-0.9414393254858361,-0.6284096061370632,-0.06728823829666425,-2.886170816893367
1782818537985579776,3.001553773880005,-0.23304197192192078,0.07268074154853821,-1.1786631345748901,-0.06095815822482109,0.5868117213249207,-0.8074255585670471,0.07659842818975449,0.08069920539855957,0.033209919929504395,0.12639436028889647,-0.07281315769500034,0.3016379593080093,-0.942198048777851,-0.6271157266004401,-0.075353985395753,-2.899332333600333
1782818537995498752,3.011472702026367,-0.6592814326286316,0.17555992305278778,-1.1594794988632202,-0.06679407507181168,0.5900271534919739,-0.8046157956123352,0.08528772741556168,0.08670008182525635,0.1060226559638977,0.12057783349059216,-0.07429756660989004,0.3035983962298745,-0.9422149126045937,-0.6310924699539441,-0.08282372604405216,-2.9140827421436777
1782818538005418496,3.021392583847046,-0.9050863981246948,0.19646786153316498,-1.092481255531311,-0.07176146656274796,0.5953580141067505,-0.800249457359314,0.18055662512779236,0.07328212261199951,0.019167304039001465,0.11468136849250446,-0.07546780282152273,0.3068874248193702,-0.9417924170961691,-0.6377111490253005,-0.08943466146998097,-2.928788947965046
1782818538015337728,3.0313117504119873,-1.1886237859725952,0.269729882478714,-0.9770826101303101,-0.07597777247428894,0.6028287410736084,-0.7942448854446411,0.22093625366687775,0.0619356632232666,0.011438488960266113,0.10907523402123896,-0.0764881211003991,0.31149176413659074,-0.9408640288205803,-0.6470417067706584,-0.09537017959325171,-2.9427605590193524
1782818538025257472,3.041231632232666,-1.1880195140838623,0.2620972692966461,-0.7936767935752869,-0.07898817211389542,0.6116962432861328,-0.7871394753456116,0.21347913146018982,0.009092330932617188,-0.020355641841888428,0.1041580383084528,-0.07717641349899362,0.3169764372337542,-0.9395322562070836,-0.6582030194520662,-0.1000135718739044,-2.95495312073426
1782818538035176704,3.0511507987976074,-1.3297691345214844,0.3591844141483307,-0.8927085995674133,-0.08183712512254715,0.6205747127532959,-0.7798652052879333,0.16077083349227905,0.0201723575592041,-0.07914358377456665,0.09923524160770436,-0.07773432107506836,0.3225287070326026,-0.938128455518639,-0.6694753682251063,-0.10455486744894416,-2.9672126065922404
1782818538045096704,3.061070680618286,-1.429844617843628,0.33035674691200256,-0.8928720951080322,-0.0844690203666687,0.6307721138000488,-0.7713569402694702,0.0874902680516243,0.10285520553588867,-0.008947014808654785,0.09408120801101554,-0.0781546580125106,0.32895803197255624,-0.9363904754887207,-0.6825478314606472,-0.10907243809012104,-2.98009328620661
1782818538055015680,3.0709896087646484,-1.2666040658950806,0.2739728093147278,-0.9537351727485657,-0.08802615106105804,0.6402214169502258,-0.7631303071975708,0.07401859760284424,0.035971760749816895,-0.053840458393096924,0.08865336075585109,-0.0788584896439054,0.3349868213138427,-0.9347222451948495,-0.6947864508565751,-0.11484124158898994,-2.9940903166085047
1782818538064935680,3.0809097290039062,-1.1234989166259766,0.2970014214515686,-0.8469362854957581,-0.09141871333122253,0.6484625935554504,-0.7557373046875,0.12721584737300873,0.02939385175704956,-0.0411834716796875,0.08362342276539289,-0.07947617100455498,0.3403158730222198,-0.9332072100292519,-0.7055631018928282,-0.12038136271361911,-3.0072215733684233
1782818538074855680,3.090829610824585,-1.0428310632705688,0.36535507440567017,-0.8136047124862671,-0.09433694183826447,0.6556808948516846,-0.7491215467453003,0.10698649287223816,-0.01429295539855957,-0.022271275520324707,0.07873272320673685,-0.07977279830033264,0.3450732353035009,-0.9318593196583117,-0.7150840498572562,-0.12527066893318428,-3.01986692761232
1782818538084774656,3.1007487773895264,-0.949500322341919,0.386067271232605,-0.7920016646385193,-0.09667675197124481,0.6624570488929749,-0.742835283279419,0.11669627577066422,-0.031841814517974854,-0.020287275314331055,0.07407154004066725,-0.07977355138393623,0.34959766391300334,-0.9305542237021055,-0.7240940467163235,-0.1294181932950364,-3.031803596549772
1782818538094694656,3.110668659210205,-0.7829155921936035,0.4214168190956116,-0.6348153352737427,-0.09829296916723251,0.6682187914848328,-0.7374429106712341,0.10540357977151871,-0.06595444679260254,-0.0997152328491211,0.0696311478012763,-0.07936204443245937,0.3535253882768381,-0.9294476225366851,-0.7318120111174088,-0.13250789183555337,-3.0428739177838486
1782818538104613632,3.1205875873565674,-0.45081645250320435,0.3295082151889801,-0.5626663565635681,-0.09934927523136139,0.6722883582115173,-0.7335926294326782,0.1634514331817627,-0.17187637090682983,-0.16171681880950928,0.06596532790981482,-0.0788024278310925,0.356361993828768,-0.9286791586297588,-0.7372956476565795,-0.13460943526022445,-3.0518358174817006
1782818538114533632,3.130507707595825,-0.12871137261390686,0.2657984793186188,-0.4907974302768707,-0.10061954706907272,0.6737087368965149,-0.7321149110794067,0.14775395393371582,-0.1394374966621399,-0.22723567485809326,0.06296399920404193,-0.07842644098384113,0.3574798483178101,-0.9284895936229769,-0.7392159699748599,-0.1365811579830052,-3.0591564870530035
1782818538124452608,3.1404266357421875,0.26391419768333435,0.23502936959266663,-0.4538570046424866,-0.10156189650297165,0.6729827523231506,-0.7326523065567017,0.08921754360198975,-0.10575252771377563,-0.18002164363861084,0.06046775991205795,-0.07792935318835312,0.3572126467150169,-0.9288001628113739,-0.738234041005323,-0.1377444039614399,-3.064927821001192
1782818538134372608,3.1503467559814453,0.4719970226287842,0.30386900901794434,-0.5467957258224487,-0.10317366570234299,0.6696894764900208,-0.7354394793510437,-0.02699904888868332,-0.14187276363372803,-0.1854742169380188,0.057777499123626994,-0.07756866999675263,0.35533557846466135,-0.9297211627059887,-0.7337905549184097,-0.13937884144976223,-3.07109903779673
1782818538144291584,3.1602656841278076,0.5286893844604492,0.38997405767440796,-0.37296032905578613,-0.10350211709737778,0.6656977534294128,-0.7390086054801941,-0.041975170373916626,-0.16800183057785034,-0.08350110054016113,0.05527230084764733,-0.07655959530504844,0.35303585696083034,-0.9308325221281413,-0.7284284916701844,-0.13915023062586035,-3.076093463935569
1782818538154211584,3.1701855659484863,0.8836005926132202,0.3239212930202484,-0.27901118993759155,-0.10295349359512329,0.6600845456123352,-0.7441028356552124,-0.0002722218632698059,-0.2475631833076477,-0.0530773401260376,0.05340625798644778,-0.0752461720006821,0.3496950160364543,-0.932308533765046,-0.7209312809413745,-0.13748634988723463,-3.0790434403376863
1782818538164130560,3.1801047325134277,0.7643082737922668,0.36977824568748474,-0.17116008698940277,-0.10173758119344711,0.6537500023841858,-0.749840259552002,0.017798982560634613,-0.2571740746498108,-0.009330272674560547,0.05213223353934958,-0.07377586556244903,0.3458858093011562,-0.9339177375078802,-0.7125295346472625,-0.1348555185629974,-3.080317713349358
1782818538174050560,3.1900246143341064,1.0318979024887085,0.3859778046607971,-0.24806831777095795,-0.10048556327819824,0.6466303467750549,-0.7561559677124023,-0.02398037165403366,-0.28054147958755493,0.07868099212646484,0.050866372569574714,-0.07226791630975687,0.341612901137894,-0.9356764728946464,-0.7031586291297629,-0.1321159122052336,-3.0814969224517976
1782818538183969792,3.199943780899048,1.0511802434921265,0.4590991735458374,-0.1764359474182129,-0.09840482473373413,0.6388314962387085,-0.7630273699760437,-0.04113680124282837,-0.2432931661605835,0.08881783485412598,0.04961608515389427,-0.07031001916417882,0.33696112939376427,-0.9375776781327398,-0.6929784621193068,-0.12825835527206075,-3.082216010901422
1782818538193889536,3.2098636627197266,1.0605084896087646,0.5230274200439453,-0.27503058314323425,-0.09621290117502213,0.630439817905426,-0.7702524065971375,-0.03211352229118347,-0.21894079446792603,0.09723299741744995,0.04799581115520132,-0.06815909358745094,0.3320062203427946,-0.9395864423838722,-0.6821196455814087,-0.12426724185359209,-3.083673491144358
1782818538203808512,3.219782590866089,1.4046844244003296,0.40693122148513794,-0.15218453109264374,-0.09371230006217957,0.6211788654327393,-0.7780455350875854,0.07822461426258087,-0.22908902168273926,0.13127124309539795,0.0467850508341623,-0.06597833955373701,0.3265334475326858,-0.9417186467533694,-0.6702461074761484,-0.11986835006458967,-3.0841024969984945
1782818538213728768,3.2297027111053467,1.8897907733917236,0.4246446192264557,-0.09994520246982574,-0.09133342653512955,0.607959508895874,-0.788697361946106,0.07348063588142395,-0.22385001182556152,-0.03695571422576904,0.04597017064805891,-0.06385648251186599,0.31870626197942775,-0.9445821558521236,-0.6534880300239345,-0.11528935781282336,-3.0834438493763696
1782818538223648512,3.2396225929260254,2.073841094970703,0.4892611801624298,0.167451873421669,-0.08725586533546448,0.5926140546798706,-0.800746500492096,0.059729017317295074,-0.1293267011642456,-0.04764217138290405,0.0460942992048178,-0.06109340376191392,0.3096681173036461,-0.9477597340504135,-0.6343002996676126,-0.10853990024036368,-3.0800564713828367
1782818538233567744,3.249541759490967,2.522639036178589,0.4296414256095886,0.029426299035549164,-0.08271216601133347,0.5742320418357849,-0.8145036697387695,-0.0077724456787109375,-0.1660442352294922,-0.1077985167503357,0.046575485832422145,-0.058106270563774334,0.2989511890151625,-0.951358268538625,-0.6116657906748255,-0.10120224033196747,-3.0757351651457165
1782818538243487488,3.2594616413116455,3.026075601577759,0.41979146003723145,0.2169775515794754,-0.07872819900512695,0.5516073107719421,-0.8303802013397217,-0.020286090672016144,-0.11435145139694214,-0.14215397834777832,0.04730275012378883,-0.05535254008335214,0.28591257019011795,-0.9554855193944737,-0.5842899860766217,-0.09452726636115184,-3.0711087842140126
1782818538253406464,3.269380569458008,3.4406416416168213,0.15689854323863983,0.025518108159303665,-0.07584802061319351,0.5246520042419434,-0.8479312062263489,0.05874292552471161,-0.07877492904663086,-0.09133881330490112,0.048548792007533655,-0.05318686499994258,0.2705652346789513,-0.9600044550383668,-0.5523062565752384,-0.08921324086333851,-3.065833820502532
1782818538263326720,3.2793006896972656,3.423675060272217,0.31923922896385193,0.03295791521668434,-0.07368947565555573,0.4953247308731079,-0.8655768632888794,-0.09626291692256927,0.05789792537689209,-0.044976115226745605,0.04915316267398956,-0.05115016243819515,0.25415592533682996,-0.964558152498554,-0.5182085930525417,-0.08492858954352167,-3.062286222516119
1782818538273245696,3.289219617843628,3.530073404312134,0.3416741192340851,-0.036831215023994446,-0.0701461061835289,0.4651402533054352,-0.882453441619873,-0.0821213573217392,-0.02208605408668518,0.06032514572143555,0.0498041133038181,-0.048410068195756266,0.2375494493815246,-0.9688892359912015,-0.48379303687024555,-0.0793230777689433,-3.0584572896890547
1782818538283165696,3.2991397380828857,3.426703929901123,0.36175140738487244,-0.18296286463737488,-0.0678153932094574,0.43409493565559387,-0.8983110189437866,-0.1032814010977745,-0.07677987217903137,0.012095808982849121,0.049492013136109694,-0.04607665106355504,0.2207293499302833,-0.9729881533176252,-0.44903337635903395,-0.07534918621101218,-3.0571632289878705
1782818538293084672,3.309058666229248,3.228644847869873,0.2494356632232666,-0.24081014096736908,-0.06539692729711533,0.4044865667819977,-0.912202775478363,-0.024401046335697174,0.02880200743675232,0.005876481533050537,0.048953603493204316,-0.04375387687649673,0.2049005185389539,-0.9765781996637866,-0.4164173650913686,-0.07156877413308964,-3.0565476726999745
1782818538303004672,3.318978786468506,2.7959201335906982,0.3089176118373871,-0.36974549293518066,-0.06426513940095901,0.376272588968277,-0.9242775440216064,-0.010838620364665985,-0.030203253030776978,-0.029808759689331055,0.04763316094608286,-0.04203421843822328,0.18998515848073916,-0.9797295237988584,-0.3857699168307607,-0.06941841361826945,-3.057995366802206
1782818538312923648,3.328897714614868,2.3755569458007812,0.39502638578414917,-0.12467491626739502,-0.06150561943650246,0.35256627202033997,-0.9337633848190308,0.008542358875274658,-0.062283098697662354,0.08720582723617554,0.04684218831867169,-0.039779877178471715,0.1775833894938826,-0.9821851360220335,-0.3603120728727185,-0.06577351284809718,-3.058264812948914
1782818538322843648,3.338817596435547,2.4731600284576416,0.24419771134853363,-0.5603196024894714,-0.05976876616477966,0.32966628670692444,-0.94220370054245,-0.03260794281959534,-0.11340346932411194,0.02243441343307495,0.045380640677858575,-0.037996433294978746,0.16569373932379844,-0.9843995257194937,-0.3359500747876617,-0.06335019485631899,-3.0602042111065493
1782818538332761344,3.3487353324890137,2.519735813140869,0.4748454689979553,-0.35381215810775757,-0.057773884385824203,0.3062417507171631,-0.9501990079879761,-0.069896399974823,0.10257172584533691,0.011310458183288574,0.0431775433921575,-0.036005688097465974,0.15363621511387693,-0.9865268032297937,-0.3112425919264554,-0.06072711816435757,-3.063644348396577
1782818538342681344,3.3586554527282715,2.7913126945495605,0.4332732558250427,-0.24293625354766846,-0.0537441149353981,0.28139784932136536,-0.9580850005149841,-0.0016910657286643982,0.026204079389572144,0.03703397512435913,0.04202979621810187,-0.033173769269517595,0.14091491689888572,-0.9885726845550841,-0.28525051166551346,-0.05603662455130982,-3.0646614961406513
1782818538352600320,3.368574380874634,3.014026641845703,0.46331986784935,-0.325713187456131,-0.05001266673207283,0.25307413935661316,-0.9661533236503601,-0.05298415571451187,0.04830220341682434,-0.011278927326202393,0.040610464465731876,-0.030426681114253652,0.1264814763494298,-0.9906701660707475,-0.25585651451362196,-0.05171857065189674,-3.066306739781659
1782818538362520576,3.3784945011138916,3.5660183429718018,0.1277085691690445,-0.29338347911834717,-0.04750513285398483,0.2214270681142807,-0.9740191698074341,-0.03359533101320267,0.1859673410654068,0.04146301746368408,0.039551132083379764,-0.028325886926137297,0.11039957465287314,-0.9926959828734911,-0.2232776242793569,-0.04873365991491587,-3.0674148507293073
1782818538372440320,3.3884143829345703,3.533457040786743,0.13671036064624786,-0.2745482921600342,-0.04680480808019638,0.18630649149417877,-0.9813761711120605,0.007162466645240784,0.16449306905269623,-0.03690385818481445,0.03848074999090548,-0.027112850651108553,0.09261102824507214,-0.9945890998060367,-0.18740146116692522,-0.0476569222139668,-3.0687304868280805
1782818538382359552,3.3983335494995117,3.837764024734497,0.18383605778217316,-0.18195921182632446,-0.0456530787050724,0.14987942576408386,-0.9876497387886047,0.00012085214257240295,0.07828524708747864,0.08117085695266724,0.03783395453105387,-0.025733733461505644,0.07424903344498807,-0.9961894199617379,-0.15044631498501143,-0.04619107668638425,-3.0691536082451116
1782818538392279296,3.4082534313201904,3.8230741024017334,0.29372379183769226,-0.2355896234512329,-0.04325536638498306,0.11191806942224503,-0.992775559425354,0.011150870472192764,0.012318991124629974,0.018898606300354004,0.037263700728502616,-0.023744546658509568,0.05521244669159967,-0.997496545455428,-0.11215303704678108,-0.04354259679588522,-3.069357610737135
1782818538402198272,3.4181723594665527,3.650954484939575,0.12710098922252655,-0.2804417908191681,-0.040805429220199585,0.07504042983055115,-0.9963452219963074,0.10588416457176208,0.09895553439855576,0.06430792808532715,0.03642358340099705,-0.021776929519267633,0.03678507796208376,-0.9984217010143385,-0.07511103316260395,-0.04093223486603246,-3.0702008377071217
1782818538412118528,3.4280924797058105,3.38087797164917,0.11778765171766281,-0.0514938160777092,-0.03955746814608574,0.040090203285217285,-0.9984127283096313,0.24024106562137604,0.09180676937103271,0.029983162879943848,0.03585304292945282,-0.020493104231481818,0.019330467733318566,-0.9989599147085089,-0.040100951855866575,-0.03959964313333937,-3.0706369074412407
1782818538422037248,3.438011407852173,3.037978410720825,0.05400174856185913,-0.12477283179759979,-0.038863711059093475,0.00826206337660551,-0.9992103576660156,0.2972865700721741,-0.049491312354803085,0.0525246262550354,0.03600069628476763,-0.019571869321321635,0.0034293315531065145,-0.999154137501024,-0.008262157466582935,-0.03887482917119118,-3.069722072827828
1782818538431957504,3.4479315280914307,2.7467713356018066,0.03966884687542915,-0.211758092045784,-0.03815322369337082,-0.020531360059976578,-0.9990609288215637,0.17526870965957642,-0.06351404637098312,0.046531081199645996,0.03530257762471931,-0.018706617570777732,-0.010935457490380163,-0.9991417348094981,0.020532803025496208,-0.038170536713456896,-3.070564297651466
1782818538441876480,3.457850456237793,2.259239673614502,0.12633369863033295,0.15164248645305634,-0.03718903660774231,-0.04508201777935028,-0.9982908368110657,0.1762423813343048,-0.06687171757221222,0.051116764545440674,0.03550126357723463,-0.017789811988859393,-0.023197110266537042,-0.9989420472289311,0.04509730070586709,-0.03723548862998729,-3.0697049916139707
1782818538451796224,3.4677703380584717,2.1038379669189453,0.04734613001346588,-0.14678888022899628,-0.03635704517364502,-0.06645695120096207,-0.9971266984939575,0.18755638599395752,-0.06736262887716293,0.10198509693145752,0.03595506991547448,-0.016983364025176376,-0.03388538759382533,-0.9986344168291167,0.06650596810279626,-0.03644566730393423,-3.0684027719057836
1782818538461715456,3.477689504623413,1.8586399555206299,0.060598284006118774,-0.1375383883714676,-0.035300321877002716,-0.08651057630777359,-0.9956253170967102,0.1276617795228958,0.020226404070854187,0.05164039134979248,0.03520244047348057,-0.016132490971275438,-0.043898468376052,-0.9982852343118382,0.08661885320539238,-0.035440581475005256,-3.0695600122792897
1782818538471635456,3.487609386444092,1.545870304107666,0.1470102071762085,0.031310684978961945,-0.03405436873435974,-0.10294505208730698,-0.9941039085388184,0.21517619490623474,0.023309439420700073,0.12873226404190063,0.035258732321222744,-0.015221482413711664,-0.052118549068628076,-0.9979022256702897,0.10312775437915594,-0.034242957756142,-3.069188899458383
1782818538481554432,3.497528553009033,1.473999261856079,0.13917624950408936,-0.05716511607170105,-0.032496899366378784,-0.11780518293380737,-0.9925048351287842,0.19845148921012878,-0.007866203784942627,0.07885432243347168,0.03534512708775234,-0.014179019967598648,-0.05955272502010341,-0.9974984703625295,0.11807938620163747,-0.03273061397275726,-3.0688199369293105
1782818538491474432,3.507448434829712,1.2307640314102173,0.20656941831111908,-0.1065358966588974,-0.03042164444923401,-0.1310790628194809,-0.9909050464630127,0.207515150308609,-0.004266396164894104,0.0721733570098877,0.03832256870985228,-0.012711157970615778,-0.06622616594691434,-0.9969874626675573,0.13145735875430334,-0.0306912267451816,-3.0627333970323374
1782818538501394176,3.5173683166503906,1.349650502204895,0.21305528283119202,0.041230395436286926,-0.027824481949210167,-0.1438293308019638,-0.9892112612724304,0.2022782266139984,0.022842392325401306,0.09416121244430542,0.04122681753797782,-0.01095709969738862,-0.07262444145877682,-0.9964467559213724,0.1443298960315803,-0.028120532474373277,-3.056859196891143
1782818538511313408,3.527287483215332,1.3751332759857178,0.15530283749103546,0.14976611733436584,-0.02600153721868992,-0.15718229115009308,-0.9872272610664368,0.22609002888202667,0.07472379505634308,0.07372933626174927,0.044829126469482485,-0.00948346879291019,-0.07935010185506447,-0.995793093197537,0.15783683041690857,-0.026331857361662436,-3.0495338526924236
1782818538521233408,3.5372073650360107,1.433741807937622,0.11718954890966415,0.0805811882019043,-0.024701643735170364,-0.17078156769275665,-0.9849992394447327,0.25446850061416626,0.13734956085681915,0.08811813592910767,0.04856401212131356,-0.008204405556945406,-0.08621526180663097,-0.9950584145922884,0.17162283369143078,-0.025072575161402145,-3.0419027577940856
1782818538531152384,3.547126531600952,1.5378600358963013,0.009541037492454052,0.13641032576560974,-0.02384677715599537,-0.1853349208831787,-0.9823859930038452,0.24235263466835022,0.0953080803155899,0.1299232840538025,0.05199574322418553,-0.007098773256591591,-0.09357668761072284,-0.9942280641065256,0.18641268208976366,-0.02426957967041099,-3.0348238878323537
1782818538541072384,3.557046413421631,1.5884771347045898,0.04644712433218956,0.21494536101818085,-0.02335326187312603,-0.20057018101215363,-0.9794009327888489,0.18823973834514618,0.06723889708518982,0.19680821895599365,0.05572534341484158,-0.0060722255041257426,-0.10130474056545005,-0.993275022153709,0.20193989613767058,-0.023839917917259788,-3.027089459997583
1782818538550991360,3.566965341567993,1.4507975578308105,0.052048131823539734,0.39919254183769226,-0.022563213482499123,-0.21520847082138062,-0.9763074517250061,0.17972874641418457,-0.007630884647369385,0.2338452935218811,0.06013161597283241,-0.004780260651259349,-0.10873559030483367,-0.9922388699589173,0.21690529574658982,-0.0231066543680612,-3.0180208425770223
1782818538560911360,3.576885461807251,1.5260014533996582,0.011048500426113605,0.40407782793045044,-0.021464291960000992,-0.2294498234987259,-0.9730837941169739,0.1454266905784607,-0.0016445368528366089,0.2682040333747864,0.06479764203746806,-0.0032467678564525996,-0.1159636258947005,-0.9911323013758823,0.23151238943625596,-0.02205443358237733,-3.0084591970317396
1782818538570830336,3.5868043899536133,1.8884836435317993,-0.08608652651309967,0.5745623707771301,-0.022241437807679176,-0.2457299530506134,-0.9690831303596497,0.13387474417686462,0.0455804169178009,0.21374255418777466,0.06978221708240924,-0.00247152319219313,-0.12430739326851346,-0.9897837981191291,0.24827266117297145,-0.022946983207595188,-2.99795720974973
1782818538580750592,3.596724510192871,2.2724227905273438,-0.18776948750019073,0.6850478649139404,-0.024744128808379173,-0.2654721140861511,-0.9638009667396545,0.15995225310325623,0.13290375471115112,0.16448456048965454,0.07544027483120523,-0.002251106299659104,-0.13451563769705774,-0.9880329845891876,0.2686935861888197,-0.025667845111660672,-2.98571088253274
1782818538590669312,3.6066434383392334,2.3417084217071533,-0.23653580248355865,0.7000811696052551,-0.028335897251963615,-0.28751713037490845,-0.9573562145233154,0.10173067450523376,0.22132453322410583,0.1555221676826477,0.0813699427094583,-0.0023204483797886815,-0.1460016992075769,-0.985929515151062,0.29163350547660344,-0.029589431373302232,-2.9725577093165865
1782818538600589312,3.616563320159912,2.368912935256958,-0.21152126789093018,0.6982110738754272,-0.032326050102710724,-0.3095186948776245,-0.9503437280654907,0.11217528581619263,0.2386263608932495,0.19466745853424072,0.08725576308445358,-0.002456018709244431,-0.15755032880930497,-0.9836453976520649,0.314686843621553,-0.034002005576421766,-2.9592476730172077
1782818538610508544,3.6264824867248535,2.263329267501831,-0.2052495926618576,0.800877571105957,-0.03654829040169716,-0.3313007652759552,-0.9428170919418335,0.10226789116859436,0.1247577965259552,0.1380685567855835,0.09320379922519399,-0.002564367361193857,-0.16907067357477507,-0.9811837126859518,0.33768186433613007,-0.038745584703682376,-2.945573096104077
