time,seconds_elapsed,rotationRateX,rotationRateY,rotationRateZ,gravityX,gravityY,gravityZ,accelerationX,accelerationY,accelerationZ,quaternionW,quaternionX,quaternionY,quaternionZ,pitch,roll,yaw
1783160371379516160,0.17179417610168457,0.9216280579566956,-0.39386412501335144,-0.03941478580236435,-0.032567672431468964,0.6597220301628113,-0.7508037090301514,-0.06635505706071854,-0.02591770887374878,-0.03926587104797363,0.6263205592728192,-0.2489338432346605,0.2502600186757374,-0.6950715488954515,-0.7204487860070312,-0.043349906075788695,-1.6910913812468331
1783160371389436160,0.18171429634094238,0.9062607884407043,-0.4008575975894928,-0.032997097820043564,-0.03811119869351387,0.6516343355178833,-0.7575752139091492,-0.08147192746400833,0.0412825345993042,0.03673475980758667,0.6276805619325126,-0.24781540747436098,0.24454019497029986,-0.6962792496198765,-0.709737073882871,-0.05026444195954457,-1.6929595199974312
1783160371399357184,0.1916351318359375,0.8031162619590759,-0.3723064959049225,-0.06817429512739182,-0.04605632275342941,0.6448411345481873,-0.762927770614624,-0.10314412415027618,0.11629778146743774,0.12196707725524902,0.6284197193524648,-0.2480854034062903,0.2387252584717589,-0.6975332637820806,-0.7008154146808379,-0.06029469503174813,-1.6969924961502678
1783160371409277184,0.2015552520751953,0.5590839385986328,-0.2731013298034668,-0.05372531712055206,-0.05574542656540871,0.6422274112701416,-0.7644844651222229,-0.07967634499073029,0.0230252742767334,0.2104988694190979,0.6281109404108266,-0.2506799310334218,0.234344491273979,-0.6983688362228668,-0.6974006149954802,-0.07279014779174665,-1.7031024335699936
1783160371419197184,0.21147513389587402,0.17460018396377563,-0.208710715174675,0.053855106234550476,-0.06556586176156998,0.644333004951477,-0.7619292140007019,-0.045106157660484314,-0.10392773151397705,0.3025023937225342,0.6269975273717364,-0.25528261953517795,0.23209085879538463,-0.6984546168034063,-0.700150784350268,-0.0858409582831325,-1.709873593991256
1783160371429117184,0.22139525413513184,-0.05681625008583069,-0.03777465969324112,0.07391936331987381,-0.06962738931179047,0.6466427445411682,-0.7596086263656616,-0.023023977875709534,-0.1331539750099182,0.3296312093734741,0.6265529623901714,-0.2578740324749773,0.23172542505831922,-0.6980227657432103,-0.7031748847383004,-0.09140675971338416,-1.7121562145314424
1783160371439037184,0.23131513595581055,-0.11509593576192856,0.07614616304636002,0.14702080190181732,-0.07101792842149734,0.6492608785629272,-0.7572429180145264,-0.026867225766181946,-0.11543214321136475,0.32082629203796387,0.6261938632298115,-0.2595531615073506,0.2324020244541133,-0.6974975113526547,-0.7066122055869501,-0.0935113439108142,-1.7129337574978385
1783160371448958208,0.24123620986938477,-0.1691780835390091,0.2178628146648407,0.21923373639583588,-0.07047899812459946,0.652132511138916,-0.75482177734375,-0.010117918252944946,-0.033648014068603516,0.3128509521484375,0.6259928947613572,-0.2606195111299877,0.23380888145399514,-0.6968096824534272,-0.7103939924676488,-0.09310177719276709,-1.712320695607883
1783160371458878208,0.2511563301086426,-0.17799201607704163,0.3764481842517853,0.2142823040485382,-0.06826061755418777,0.6553442478179932,-0.7522395253181458,-0.04775191843509674,0.04814690351486206,0.279964804649353,0.6257229346654114,-0.2611412111610342,0.23597775377239974,-0.69612529388447,-0.7146382997590277,-0.0904953495515389,-1.71102254942642
1783160371468798208,0.2610762119293213,-0.22732201218605042,0.4906083345413208,0.1179666817188263,-0.06528045982122421,0.658828616142273,-0.7494553327560425,-0.08221101015806198,0.07827770709991455,0.22583472728729248,0.6250695924147287,-0.26135571930465085,0.2386745027178042,-0.6957123564668267,-0.719260627504713,-0.08688457659684587,-1.7103502228813252
1783160371478716672,0.2709946632385254,-0.3458494544029236,0.560241162776947,-0.052808523178100586,-0.06257714331150055,0.6630657911300659,-0.7459409832954407,-0.08007729053497314,0.05731689929962158,0.20074445009231567,0.6236865273531323,-0.26179547711034884,0.24185250956873933,-0.6956908699637809,-0.7249069468467466,-0.0836942385425433,-1.711590622743091
1783160371488637440,0.2809154987335205,-0.6756545305252075,0.4909172058105469,-0.606645941734314,-0.06253764778375626,0.6690807938575745,-0.7405537962913513,-0.06807757914066315,0.025194108486175537,0.17144674062728882,0.6205885393806491,-0.26358444165990874,0.24545131288067448,-0.6965247763059473,-0.7329712787722271,-0.0842472485994372,-1.7183284634504925
1783160371498557440,0.2908356189727783,0.021683216094970703,0.6570497751235962,-0.9177021980285645,-0.06500605493783951,0.6733915209770203,-0.7364225387573242,-0.004024714231491089,-0.010259807109832764,0.12036418914794922,0.6162985271500983,-0.26516555899000677,0.247943471584979,-0.698847264087754,-0.7387868201252854,-0.08804456274649254,-1.7302740315856149
1783160371508477440,0.30075550079345703,0.964072585105896,0.7989028096199036,-1.527126669883728,-0.06926397979259491,0.6709265112876892,-0.7382818460464478,-0.105128712952137,0.09083801507949829,0.055954575538635254,0.6110443207706593,-0.2639014127410968,0.24741687765111456,-0.704106372674605,-0.7354575627136954,-0.09354398544358677,-1.7481443174544224
1783160371518397696,0.31067562103271484,1.8422954082489014,1.022830605506897,-2.580552339553833,-0.07696852833032608,0.6611708402633667,-0.7462766766548157,-0.14124742150306702,0.2370530366897583,0.20614612102508545,0.6045027819142477,-0.2602811294976453,0.24313654885215596,-0.7125410309133862,-0.7223783573898235,-0.10277333746971168,-1.7733446199385974
1783160371528318720,0.32059669494628906,3.241856098175049,1.5143656730651855,-2.2590243816375732,-0.08586303889751434,0.64289790391922,-0.7611240148544312,-0.44897276163101196,0.42742979526519775,0.2767185568809509,0.596272210167779,-0.2529958994079762,0.23543801747107843,-0.7245835514139654,-0.6982756543970723,-0.11233590610721063,-1.8054070565639517
1783160371538238464,0.3305165767669678,5.349570274353027,1.4337159395217896,-1.3503303527832031,-0.08839451521635056,0.6115814447402954,-0.7862280607223511,0.14271578192710876,0.6696075201034546,0.19728457927703857,0.5927952478301246,-0.23938801419568773,0.2226641876595967,-0.7360081466593974,-0.6580579174623902,-0.11195844267287015,-1.8237817926854887
1783160371548158720,0.3404366970062256,7.285637855529785,1.3235303163528442,-1.5428729057312012,-0.08835887163877487,0.5640303492546082,-0.8210130929946899,0.25884532928466797,0.8831284642219543,0.23428213596343994,0.6042378614548548,-0.22298728389290678,0.1994244999515287,-0.738514164350795,-0.5992585279762959,-0.10720911123406593,-1.8032841244633122
1783160371558078464,0.3503565788269043,8.94893741607666,1.2592014074325562,-1.9054924249649048,-0.08910177648067474,0.5018064975738525,-0.8603785037994385,0.11672017723321915,0.877694845199585,0.418224573135376,0.6030403887255945,-0.1987095199628661,0.17414154675160973,-0.7526829884952676,-0.5256859919852085,-0.1031932770388896,-1.8184521764592214
1783160371567998720,0.3602766990661621,10.234291076660156,1.1931688785552979,-2.1105358600616455,-0.08963735401630402,0.42821717262268066,-0.8992192149162292,0.10098988562822342,0.6990411281585693,0.6225773692131042,0.6032864475427123,-0.17214198218198049,0.14407472601213459,-0.7652811011064463,-0.4425189989035113,-0.09935531234466718,-1.828802739509512
1783160371577919488,0.3701975345611572,11.262531280517578,1.1242159605026245,-2.295912504196167,-0.08835279941558838,0.3398447334766388,-0.9363222122192383,0.11710036545991898,0.5401296019554138,0.8491030335426331,0.6032525538433655,-0.1413462101773372,0.10890421883704618,-0.7773335217853603,-0.3467517904408659,-0.0940829479289103,-1.8381454442745746
1783160371587839488,0.38011765480041504,12.17420768737793,0.9336798191070557,-2.5404927730560303,-0.08553814888000488,0.23407526314258575,-0.9684482216835022,0.15922284126281738,0.43877628445625305,1.0740238428115845,0.5993817061179262,-0.10562758394839236,0.06796097396068003,-0.7905476734930592,-0.2362672969527666,-0.08809634649881594,-1.8546166551805408
1783160371597759488,0.39003753662109375,12.656929016113281,0.6073703169822693,-2.8253304958343506,-0.0825735479593277,0.11531919240951538,-0.989890456199646,0.2242666631937027,0.4289618134498596,1.2359079122543335,0.5926351217979606,-0.06763849273700606,0.021904590526821782,-0.8023272106617595,-0.11557632826633411,-0.0832241762045404,-1.8740216200436854
1783160371607679488,0.39995765686035156,12.708242416381836,0.23121480643749237,-3.0256710052490234,-0.07973049581050873,-0.008932470344007015,-0.9967764616012573,0.2930026054382324,0.4539550542831421,1.2509421110153198,0.5823517615414583,-0.029815524837262894,-0.026885267489998865,-0.811945005438913,0.008932589286051255,-0.07981840626157354,-1.8968425577457262
1783160371617600512,0.4098784923553467,12.760772705078125,-0.14256533980369568,-2.9885003566741943,-0.07737333327531815,-0.13449805974960327,-0.9878884553909302,0.32586270570755005,0.39047950506210327,1.1839640140533447,0.5686473981457315,0.006600749233472695,-0.07753832986156067,-0.8188921887249243,0.13490690559626067,-0.07816236928322934,-1.9223800526993842
1783160371627520512,0.4197986125946045,11.806573867797852,-0.37009647488594055,-2.6868107318878174,-0.07326672226190567,-0.2546981871128082,-0.9642410278320312,0.35337233543395996,0.17574924230575562,1.1077957153320312,0.55322335948621,0.041065630351130714,-0.1272520544005921,-0.822231335495918,0.25753558247370634,-0.07583809564620991,-1.9472508885863429
1783160371637440512,0.4297184944152832,9.259293556213379,-0.7219259738922119,-2.7685203552246094,-0.07049386948347092,-0.35533708333969116,-0.9320762753486633,0.688154399394989,-0.09639936685562134,1.375054121017456,0.535121659868689,0.06833653930641494,-0.17114901782201444,-0.824428831837712,0.36327467224882154,-0.07548729569866215,-1.976263351304834
1783160371647360512,0.439638614654541,6.768321990966797,-0.5142918229103088,-2.603449583053589,-0.0653204694390297,-0.4288565516471863,-0.9010079503059387,0.6877570152282715,-0.4478219151496887,1.4371559619903564,0.516906841613502,0.08820755178710873,-0.204243631763836,-0.8266264484763531,0.44322663918296185,-0.07237049756867169,-2.007619643129872
1783160371657281536,0.44955968856811523,4.354864120483398,-0.4092668890953064,-2.509516477584839,-0.05790746212005615,-0.4795109033584595,-0.8756232261657715,0.7464298009872437,-1.200802206993103,1.1453070640563965,0.5013790181198234,0.10260040424506083,-0.2272917511325312,-0.8285112034821933,0.5000972764169634,-0.06603669176176184,-2.036316710188811
1783160371667201536,0.45947957038879395,1.4185712337493896,0.18005630373954773,-2.610588788986206,-0.04626540094614029,-0.5051693320274353,-0.8617792129516602,0.4138191044330597,-1.665820598602295,0.8017359375953674,0.4867802223992215,0.1113806083495388,-0.23812757530495798,-0.8330273618230047,0.5295781560284253,-0.05363441807309712,-2.0693795252578444
1783160371677121536,0.46939969062805176,-0.2854163348674774,0.7785195112228394,-2.119138240814209,-0.029482785612344742,-0.509837806224823,-0.8597651720046997,0.11061375588178635,-1.6475565433502197,0.6523982882499695,0.47525632314120864,0.11698572726690004,-0.2375536881935913,-0.8390553397576546,0.5349962277975642,-0.03427824160897493,-2.1014751117101826
1783160371687041536,0.47931957244873047,-0.12746664881706238,0.6168632507324219,-1.5854421854019165,-0.013842013664543629,-0.5074085593223572,-0.8615943789482117,0.41005173325538635,-1.0004801750183105,0.07683491706848145,0.46696912313800576,0.12100283481713607,-0.2335832003396158,-0.8442375379888234,0.5321748119129026,-0.016064197945241197,-2.126735263348338
1783160371696961536,0.4892396926879883,1.2606624364852905,0.46669337153434753,-1.2364171743392944,-0.0021235186140984297,-0.5122032165527344,-0.8588616251945496,0.6840083003044128,-0.2990913391113281,-0.40516114234924316,0.4592492619879643,0.1255762854941012,-0.23409350866988884,-0.8476561591506058,0.5377481305684837,-0.0024724752470893416,-2.147879506119298
1783160371706882560,0.4991605281829834,2.8767709732055664,0.30284157395362854,-1.027111291885376,0.0073214806616306305,-0.52949059009552,-0.8482841849327087,0.6118191480636597,0.03483116626739502,-0.5265784859657288,0.45259097029070916,0.1330164146793572,-0.24117323159839055,-0.8481176366365417,0.5579999673689959,0.008630714585564067,-2.1636703240790753
1783160371716802560,0.5090806484222412,4.071614742279053,0.09839931130409241,-0.9022133946418762,0.01444530114531517,-0.5590934753417969,-0.8289787769317627,0.41299915313720703,-0.14279556274414062,-0.5022742748260498,0.4447958719691577,0.14265398499092033,-0.2552654365734131,-0.8465495240555204,0.59329201808127,0.017423653755469518,-2.179362882694141
1783160371726722560,0.5190005302429199,3.845168352127075,-0.2282608300447464,-1.0425912141799927,0.01999812386929989,-0.591411292552948,-0.8061220645904541,0.12157291918992996,-0.483997642993927,-0.3506619930267334,0.4354276883746494,0.15193248412220323,-0.27176367011220326,-0.844667877431133,0.6328079156113993,0.024802724769042068,-2.197769810127449
1783160371736642560,0.5289206504821777,2.6531314849853516,-0.47129496932029724,-1.1583988666534424,0.024354344233870506,-0.6171534657478333,-0.7864657640457153,-0.10862865298986435,-0.7141910791397095,-0.1335018277168274,0.4255791835683976,0.15852505568801287,-0.28572175661225446,-0.8438691503575694,0.6651198998942813,0.03095692770307269,-2.2180918934199876
1783160371746563328,0.5388414859771729,1.2857142686843872,-0.6047052145004272,-1.267667531967163,0.028422391042113304,-0.6316823363304138,-0.7747061252593994,-0.23548416793346405,-0.8191233277320862,0.07113862037658691,0.4165863668173975,0.16180907613564918,-0.2940489168933079,-0.8448720451583659,0.683721409591156,0.03667151679354071,-2.2384561225600175
1783160371756483584,0.5487616062164307,0.46548980474472046,-0.21808135509490967,-1.440569281578064,0.03282449021935463,-0.6378358006477356,-0.769472599029541,-0.16589637100696564,-0.8918425440788269,-0.14364385604858398,0.40917383230382365,0.16320466134440012,-0.2977044484351645,-0.8469434272281754,0.6916849710135229,0.04263257891558885,-2.2568538466045815
1783160371766403328,0.5586814880371094,0.7118383049964905,-1.3853871822357178,-1.318758487701416,0.03735736757516861,-0.6410190463066101,-0.7666152715682983,0.07232281565666199,-0.6199367642402649,-0.29092562198638916,0.40061581408042946,0.1633423201068568,-0.3000194041390617,-0.8501850639051257,0.6958252603383368,0.048691747554134794,-2.2785512873171254
1783160371776323584,0.5686016082763672,0.640567421913147,-0.49710559844970703,-1.1823337078094482,0.03803255409002304,-0.646700918674469,-0.761794924736023,0.07965849339962006,-0.5412721037864685,0.06942737102508545,0.39262247776969694,0.16252277638837456,-0.30444851715496996,-0.8524934842374691,0.7032512152716236,0.04988350831739705,-2.2966989236352466
1783160371786244608,0.5785226821899414,0.9883243441581726,-0.1633065938949585,-0.7801283001899719,0.04226158559322357,-0.6520665287971497,-0.7569829821586609,-0.15569542348384857,-0.37161511182785034,0.11123102903366089,0.3865221505118356,0.16398793332487394,-0.307597914199273,-0.8538689272681543,0.7103069761943741,0.05577108452936364,-2.312134982734916
1783160371796164608,0.5884425640106201,1.1869374513626099,0.005425353068858385,-0.6976842284202576,0.046685922890901566,-0.6607272028923035,-0.7491728067398071,0.17674851417541504,-0.31427884101867676,-0.1868928074836731,0.38175012057787505,0.16698741037050083,-0.3122959932076179,-0.8537289988842609,0.7217871653231177,0.06223614727281849,-2.324115655465115
1783160371806084608,0.5983626842498779,1.0441720485687256,-0.16853606700897217,-0.5157071948051453,0.050314754247665405,-0.6691260933876038,-0.7414436340332031,0.3428126871585846,-0.36422961950302124,-0.21697616577148438,0.37767790464283524,0.16977096378293255,-0.31694793822634076,-0.8532767102703448,0.7330321840775037,0.06775664121729576,-2.3342094708015444
1783160371816004608,0.6082825660705566,1.014087200164795,-0.32505762577056885,-0.6063792705535889,0.05236205458641052,-0.6768292188644409,-0.7342754006385803,0.4069732427597046,-0.5293017029762268,-0.2580646276473999,0.37391025165527036,0.1716738066456174,-0.32154378649242654,-0.8528356624439037,0.7434467377860636,0.07119067927975484,-2.3429714357121307
1783160371825924608,0.6182026863098145,1.278027057647705,-0.4314482510089874,-0.6940726041793823,0.054433006793260574,-0.6850833296775818,-0.7264281511306763,0.21821102499961853,-0.3920498490333557,-0.19387519359588623,0.3690568579146421,0.17333301973228146,-0.32671332349741566,-0.8526494047754026,0.7547180714632851,0.07479262994643542,-2.3542714529778372
1783160371835845376,0.6281235218048096,2.020508289337158,-0.5655001997947693,-0.7804316282272339,0.056394487619400024,-0.6968911290168762,-0.7149562239646912,0.07611285150051117,-0.05918186902999878,-0.13753700256347656,0.36355612081709704,0.17574051294547513,-0.3341214550880993,-0.8516484979431781,0.7710534692623263,0.07871525598269634,-2.366619303030516
1783160371845765632,0.6380436420440674,3.1352055072784424,-0.5639135241508484,-0.8627083897590637,0.05869551748037338,-0.714849591255188,-0.6968106031417847,-0.039683036506175995,0.2767239809036255,-0.12931549549102783,0.3563831524796126,0.17952112241100396,-0.34549508199206896,-0.8493506666480487,0.7964089517732692,0.08403614801338212,-2.382395081026175
1783160371855685376,0.6479635238647461,4.528040885925293,-0.5824037790298462,-0.906146228313446,0.061838436871767044,-0.7407598495483398,-0.6689176559448242,-0.040338803082704544,0.5103979706764221,-0.094235360622406,0.3479214561383731,0.1857234715270581,-0.3620054579479202,-0.8446357591583039,0.8342008015662695,0.09218350406400996,-2.400984604336713
1783160371865605632,0.6578836441040039,5.730018138885498,-0.5708645582199097,-0.9196140766143799,0.06548476964235306,-0.7736319899559021,-0.6302422285079956,0.060156092047691345,0.6265830397605896,0.018380045890808105,0.338140928723458,0.19409123336194692,-0.3836762745533133,-0.8371271256588698,0.884553290700459,0.10353261416908326,-2.422876282631741
1783160371875526400,0.667804479598999,6.7490692138671875,-0.5476727485656738,-0.8452052474021912,0.06970575451850891,-0.8106374740600586,-0.5813844799995422,0.1350061297416687,0.6600485444068909,0.18985921144485474,0.32704190402405436,0.20409393663993075,-0.40945505083443634,-0.8268831413325718,0.9452400134554144,0.1193265396175619,-2.449391492818425
1783160371885446656,0.6777245998382568,7.504605293273926,-0.5253687500953674,-0.7101802825927734,0.07373116165399551,-0.8493034243583679,-0.5227307677268982,0.21366813778877258,0.5951377749443054,0.3009442687034607,0.3149772010809833,0.2150796455082432,-0.4386061681389409,-0.813728907302671,1.014664344478254,0.14012559144015757,-2.4809351835632723
1783160371895366400,0.6876444816589355,7.754762649536133,-0.5397325754165649,-0.6186341047286987,0.07731254398822784,-0.8860398530960083,-0.4571170210838318,0.2772101163864136,0.5109026432037354,0.34081459045410156,0.30222820222630314,0.22613262059110034,-0.469367159069679,-0.7982584057540207,1.0887322170037848,0.16754520457142646,-2.5193088112157334
1783160371905286656,0.6975646018981934,7.46366024017334,-0.5041391849517822,-0.5585017800331116,0.08081957697868347,-0.9176515340805054,-0.38908088207244873,0.29753735661506653,0.37475907802581787,0.41300666332244873,0.28976796840902636,0.2368889030393526,-0.49934277693103923,-0.7813930055020231,1.1621297916973394,0.20480675765589523,-2.5661267850300185
1783160371915207680,0.7074856758117676,6.610003471374512,-0.383047878742218,-0.578725278377533,0.08488727360963821,-0.9421687722206116,-0.3242097795009613,0.2854587733745575,0.22517359256744385,0.5460878610610962,0.2769740288278246,0.24611225778660506,-0.5266154769484559,-0.7651079532193557,1.2290438404941557,0.2560797477065485,-2.628135849505388
1783160371925127424,0.7174055576324463,5.4690351486206055,-0.1799379289150238,-0.5994660258293152,0.09001443535089493,-0.95943284034729,-0.2671819031238556,0.29758933186531067,0.12288498878479004,0.6351323127746582,0.2658688845559824,0.25459517930015746,-0.5491724198609609,-0.7502698049539175,1.2849836347236594,0.32495997924096237,-2.7046283178487815
1783160371935047680,0.7273256778717041,4.364786148071289,-0.07344138622283936,-0.6944355964660645,0.09637200832366943,-0.9706499576568604,-0.22034358978271484,0.30836740136146545,0.03917717933654785,0.6531133651733398,0.25622128170868874,0.26207022259347623,-0.5666986871326966,-0.7379177521515417,1.3279188859417852,0.4123025940214839,-2.7975851267774705
1783160371944967424,0.7372455596923828,3.7585229873657227,0.08865989744663239,-0.6299213171005249,0.1032242476940155,-0.9780281782150269,-0.1811230629682541,0.3183913230895996,-0.06443697214126587,0.5717633366584778,0.2479226413936236,0.2688624304290193,-0.5806474484948662,-0.7273897419817006,1.3607831285443157,0.5180022704488373,-2.9070717806444675
1783160371954887680,0.7471656799316406,3.515594482421875,0.22485239803791046,-0.5970485210418701,0.10967898368835449,-0.9832680821418762,-0.14544513821601868,0.368546724319458,-0.006462693214416504,0.5042097568511963,0.240657400577525,0.27528639342643935,-0.592869999032936,-0.7175002077382828,1.3876092201648567,0.6461147307119623,-3.037512879665901
1783160371964808448,0.7570865154266357,4.04980993270874,0.4722885489463806,-0.7109739780426025,0.11704440414905548,-0.9872658848762512,-0.10773488134145737,0.3408718705177307,0.24672621488571167,0.38118767738342285,0.23313669157622335,0.28245981566491085,-0.6052677176881864,-0.7067636019177693,1.4110387601462406,0.8267907871021366,3.06367493362391
1783160371974728704,0.7670066356658936,4.111602783203125,0.5424795150756836,-0.7126187682151794,0.12474405020475388,-0.9899598360061646,-0.06647207587957382,0.3614009618759155,0.40074169635772705,0.13713550567626953,0.22554112621048017,0.29059804620991564,-0.6183176679796056,-0.6945266515362998,1.4289723111458876,1.0812015927798164,2.8095585699461307
1783160371984648448,0.7769265174865723,4.168432712554932,0.33739081025123596,-0.8538861274719238,0.13294920325279236,-0.9908075928688049,-0.025001179426908493,0.40242069959640503,0.6295709013938904,0.0300976000726223,0.21751188660979195,0.2987216773151371,-0.63108222096701,-0.6820478808180357,1.4351017883767925,1.3849165149772713,2.5058213381863723
1783160371994568704,0.7868466377258301,4.4222893714904785,0.09772910922765732,-0.9071166515350342,0.14206412434577942,-0.9896985292434692,0.017740504816174507,0.3761853873729706,0.6776410341262817,-0.09717774391174316,0.20806054083940792,0.30642387274757843,-0.6441852704877514,-0.669208952323507,1.4271356004992053,1.6950299562435356,2.193261901890214
1783160372004489728,0.7967677116394043,4.6774444580078125,-0.10382930934429169,-0.966688871383667,0.15157197415828705,-0.9864653944969177,0.06254678964614868,0.31441619992256165,0.5178069472312927,-0.11796677112579346,0.1971782917959193,0.31349219706372067,-0.6580243440914535,-0.65562749727645,1.406083109708654,1.962163547522913,1.920955969428236
1783160372014409472,0.806687593460083,4.813920974731445,-0.329423725605011,-1.0303634405136108,0.16199395060539246,-0.9807798862457275,0.10875941067934036,0.25493717193603516,0.2827209234237671,-0.04860927164554596,0.18505996815085304,0.32023162498116337,-0.6721840605779017,-0.6413836837492863,1.3744191396403602,2.162054517398247,1.7139822461450713
1783160372024329728,0.8166077136993408,5.089385509490967,-0.4662784934043884,-1.0183658599853516,0.17286232113838196,-0.972496509552002,0.15610595047473907,0.29349204897880554,0.09209495782852173,0.0766821950674057,0.1719466933031816,0.3264617584802598,-0.6866408781184422,-0.6264034947579835,1.3357198487633768,2.3053023580283165,1.561854131283879
1783160372034249472,0.8265275955200195,5.535642623901367,-0.4883413314819336,-1.0718600749969482,0.1841098666191101,-0.9609987139701843,0.20636150240898132,0.3286617398262024,-0.030242741107940674,0.11984097957611084,0.157845326375274,0.33260307515235704,-0.701823300764742,-0.6098394108447268,1.2905910852626823,2.413119510865789,1.4441087465259852
1783160372044169472,0.8364474773406982,5.852529525756836,-0.38767147064208984,-1.1311801671981812,0.1960078626871109,-0.9456185698509216,0.2595895230770111,0.3241032660007477,-0.09336775541305542,0.1538321077823639,0.14279591848054277,0.33894645942039553,-0.7175723398486544,-0.5914513323219492,1.239491059114084,2.494855613615112,1.3520059791192613
1783160372054090496,0.8463685512542725,6.049163341522217,-0.2799015939235687,-1.1726346015930176,0.20805281400680542,-0.9262343645095825,0.3143312931060791,0.27992331981658936,-0.12036609649658203,0.2548978626728058,0.12759892048158056,0.3457614883868581,-0.7332220976728611,-0.5714481351783312,1.1842972143608692,2.5569041054970776,1.2807885015232487
1783160372064010496,0.8562886714935303,5.885400772094727,-0.27241942286491394,-1.226106882095337,0.22031281888484955,-0.9031898975372314,0.36838892102241516,0.17670562863349915,-0.18375468254089355,0.2849313020706177,0.11230640186562421,0.3526611963682963,-0.7482142393676096,-0.5506294949814651,1.1271438031517995,2.6026125844715673,1.2265228268552173
1783160372073930496,0.866208553314209,5.308142185211182,-0.37179112434387207,-1.28900146484375,0.23306329548358917,-0.8782453536987305,0.41757187247276306,0.03350768983364105,-0.2323501706123352,0.3286133110523224,0.097203336400142,0.35898360906844345,-0.7615226268574675,-0.530815841872278,1.0721805598521157,2.6325219200498933,1.1877485049117988
1783160372083850496,0.8761286735534668,4.076544284820557,-0.49264511466026306,-1.4036600589752197,0.24696733057498932,-0.8543442487716675,0.45727813243865967,-0.16511914134025574,-0.22933506965637207,0.2538730502128601,0.08311073907415617,0.36484286523202536,-0.7717050883951604,-0.5142505609052725,1.0242877980022431,2.646396490367138,1.1655921302990335
1783160372093771520,0.8860495090484619,2.82938289642334,-0.5744050741195679,-1.3787646293640137,0.2616414725780487,-0.8345659375190735,0.4848131537437439,-0.38847246766090393,-0.09414517879486084,0.16159498691558838,0.07085787200207094,0.3700164761621701,-0.7781352010737901,-0.5025661239119479,0.9873444224613519,2.6467111504290775,1.1579582830754673
1783160372103691520,0.8959696292877197,1.9817168712615967,-0.4879780411720276,-1.3378928899765015,0.2756754159927368,-0.8190572261810303,0.5031389594078064,-0.5357613563537598,-0.015064656734466553,0.14981532096862793,0.06060488416749667,0.3743977144816305,-0.7819180423817492,-0.494729953402833,0.9597657758186564,2.640354605583472,1.1580383494873048
1783160372113611520,0.9058895111083984,1.4108332395553589,-0.4769113063812256,-1.3570536375045776,0.2892090678215027,-0.8065643310546875,0.515569806098938,-0.5582825541496277,-0.0374908447265625,0.1535128355026245,0.052091904629739894,0.37890117219474573,-0.7837211348565938,-0.48938898603506015,0.9383170111096487,2.6303811688812058,1.1640621299893328
1783160372123531520,0.9158096313476562,1.260787844657898,-0.4809446632862091,-1.225314974784851,0.30233922600746155,-0.7956526875495911,0.5249071717262268,-0.5113541483879089,-0.09108120203018188,0.14010125398635864,0.04439453325642064,0.3832227942678069,-0.7845979125644549,-0.4853611704779934,0.9200843474032868,2.6190176562795333,1.1721610866069585
1783160372133452544,0.9257307052612305,1.2774832248687744,-0.5205538272857666,-1.0589253902435303,0.31391119956970215,-0.7853376269340515,0.5335768461227417,-0.4495008885860443,-0.14799660444259644,0.09795379638671875,0.037168556941813244,0.3866321579360997,-0.7856869574851095,-0.48148724114666097,0.9032412906592568,2.6098094534459846,1.1772852855992793
1783160372143372544,0.9356505870819092,1.3163427114486694,-0.5803707838058472,-0.9964891672134399,0.32499656081199646,-0.7747640609741211,0.5423262715339661,-0.40298426151275635,-0.13389676809310913,0.0024887919425964355,0.029924742681607632,0.38968459405375483,-0.7869619120993538,-0.477432028570102,0.8863418451887456,2.6017145890200712,1.1807367020486184
1783160372153292544,0.945570707321167,1.2141045331954956,-0.7091335654258728,-0.9605626463890076,0.33595719933509827,-0.7644461393356323,0.5502315759658813,-0.25658103823661804,-0.0266457200050354,-0.10443085432052612,0.022587051210012143,0.39220909813683885,-0.7882181269039523,-0.47368132998610796,0.8701817402054687,2.593434265971597,1.1833218823058473
1783160372163212544,0.9554905891418457,1.023777723312378,-0.9084565043449402,-1.045352816581726,0.34797337651252747,-0.7545625567436218,0.5563719272613525,-0.09072548151016235,0.1042940616607666,-0.2503874897956848,0.014797255603087724,0.3944071070063817,-0.7890684353337837,-0.47073880389330175,0.8549872486876663,2.582682023166455,1.1870397356957696
1783160372173132544,0.9654107093811035,0.7257355451583862,-1.1839661598205566,-1.1506448984146118,0.36203432083129883,-0.7456323504447937,0.559431791305542,0.05959659814834595,0.22776424884796143,-0.3538958430290222,0.006347344338478829,0.39638800307254934,-0.7890452790510437,-0.46930153837639804,0.8414833012986551,2.5672260473865096,1.193865567743681
1783160372183053568,0.9753315448760986,0.4874593913555145,-1.3426541090011597,-1.2634814977645874,0.37807855010032654,-0.7375642657279968,0.5595138072967529,0.17726507782936096,0.3435518145561218,-0.27757716178894043,-0.0027476711500983254,0.3982028716677144,-0.7881569443357066,-0.46929265338843307,0.8294562025517552,2.547343737152806,1.2036424136387633
1783160372192973568,0.9852516651153564,0.16182826459407806,-1.2635743618011475,-1.2962654829025269,0.39485928416252136,-0.7306311130523682,0.5570141077041626,0.1853714883327484,0.4550268054008484,-0.012641489505767822,-0.011624333008012622,0.4001999675877491,-0.7863504559557233,-0.4704869180472234,0.8192457986413875,2.524928038118295,1.216360276121511
1783160372202893568,0.9951715469360352,-0.10401538759469986,-1.0381298065185547,-1.4230676889419556,0.41100984811782837,-0.7249413728713989,0.5527486205101013,0.1488809883594513,0.5036125779151917,0.2844858765602112,-0.019347879667081947,0.40284710395448864,-0.7836380031296065,-0.4724948534656297,0.8109492761232044,2.5022164977852226,1.2320030684025984
1783160372212813568,1.005091667175293,-0.24419939517974854,-0.8332163691520691,-1.5211201906204224,0.4267105758190155,-0.7195579409599304,0.5478639006614685,0.05716097354888916,0.45246803760528564,0.33719176054000854,-0.02611437097794755,0.406491157013583,-0.7801902928304865,-0.47474859016423016,0.8031655622110879,2.4798740742725034,1.2503227096674838
1783160372222734336,1.015012502670288,-0.2869234085083008,-0.8314405679702759,-1.6426628828048706,0.4425905644893646,-0.7139003872871399,0.5426418781280518,0.01711106300354004,0.3777034282684326,0.10187417268753052,-0.032622046007712145,0.41076474373157273,-0.7762688037035497,-0.4770901239928044,0.7950525256811942,2.457398514021947,1.2702320956202933
1783160372232654592,1.024932622909546,-0.3764961063861847,-1.0127105712890625,-1.7141515016555786,0.4594687521457672,-0.7078567743301392,0.536495566368103,-0.02660733461380005,0.3370681405067444,-0.25658828020095825,-0.039569135953253155,0.4151707415299303,-0.7719333120617112,-0.479777642051397,0.7864594043450208,2.4333797794858434,1.2912561208643363
1783160372242574336,1.0348525047302246,-0.5731054544448853,-1.240973711013794,-1.821143627166748,0.47797200083732605,-0.7018103003501892,0.5282092690467834,0.015970230102539062,0.333890438079834,-0.5154834389686584,-0.04725491341400468,0.41942569725850115,-0.7669333209348776,-0.4833863077584356,0.7779355590886583,2.4060816955276625,1.314129116114195
1783160372252494592,1.0447726249694824,-0.43715596199035645,-1.451127290725708,-1.8356595039367676,0.49779799580574036,-0.6954385042190552,0.5182300209999084,0.17505356669425964,0.3078805208206177,-0.5753132104873657,-0.05576143835493417,0.42335312851722207,-0.761503214878,-0.48762241869078093,0.7690299753858532,2.3763015141449935,1.3376913389588274
1783160372262415616,1.0546936988830566,0.08280602842569351,-1.5197476148605347,-1.7492353916168213,0.5179362893104553,-0.6871172785758972,0.5095212459564209,0.3513569235801697,0.22112911939620972,-0.5239865779876709,-0.06545907028269682,0.4266482801283235,-0.7567905020463332,-0.4908711675083512,0.7575138613679618,2.3480045086969072,1.3571673891742837
1783160372272335616,1.0646135807037354,0.741561233997345,-1.5388152599334717,-1.60102379322052,0.5371003746986389,-0.6760883927345276,0.5044082403182983,0.4496854543685913,0.14113056659698486,-0.45826560258865356,-0.07624296629306068,0.4291074920243586,-0.7537047689459048,-0.4919175660507586,0.7424408264100818,2.3248155539640867,1.3688792801105705
1783160372282255616,1.0745337009429932,1.2340031862258911,-1.52318274974823,-1.4849035739898682,0.5551890730857849,-0.6625097393989563,0.5028381943702698,0.45062458515167236,0.03786063194274902,-0.3355560898780823,-0.08800494372306915,0.4307554337198827,-0.7522425551270245,-0.49075057459629945,0.724164335670005,2.306755113352057,1.3729571914846677
1783160372292175616,1.0844535827636719,1.336366057395935,-1.528926134109497,-1.4306069612503052,0.5725257992744446,-0.6475642919540405,0.5028663277626038,0.34089577198028564,-0.0834994912147522,-0.16515880823135376,-0.10017675522909761,0.4319741533154202,-0.7515527139349508,-0.48839678301901673,0.7043836897246939,2.2915089561365023,1.3730110038314691
1783160372302096640,1.094374656677246,1.11002516746521,-1.5226662158966064,-1.3542765378952026,0.5892168879508972,-0.6332096457481384,0.5018655061721802,0.21246463060379028,-0.12850910425186157,-0.012073636054992676,-0.1120264277711555,0.4328508206204625,-0.7507149316767748,-0.48633047187481127,0.6856931286790211,2.2763054580674718,1.372800364467238
1783160372312016384,1.1042945384979248,0.7649866342544556,-1.4047572612762451,-1.211915135383606,0.6046855449676514,-0.6206681132316589,0.49912595748901367,0.1368916630744934,-0.13021689653396606,0.054966509342193604,-0.12272158479452265,0.43363692810856264,-0.7493477122983705,-0.48515619065305987,0.6695945570806091,2.2608525274212328,1.374186934124807
1783160372321936640,1.1142146587371826,0.44041335582733154,-1.3806405067443848,-1.1152772903442383,0.6190310716629028,-0.6104031205177307,0.49417442083358765,0.1516903042793274,-0.08341395854949951,0.030559957027435303,-0.13218755768504656,0.43429809554342536,-0.7473100963638002,-0.4852207408403935,0.6565694076046423,2.244501718523397,1.3778403771430976
1783160372331856384,1.1241345405578613,0.3329717218875885,-1.2875055074691772,-0.9728310704231262,0.6321673393249512,-0.6018035411834717,0.48805439472198486,0.17731142044067383,-0.01510930061340332,-0.012025952339172363,-0.14068173130175535,0.4347358290024687,-0.7450046644839243,-0.4859851001506116,0.6457574633803544,2.228250393382981,1.3823065290503824
1783160372341776640,1.1340546607971191,0.3065486252307892,-1.1030882596969604,-0.8605284690856934,0.6435666680335999,-0.5942209959030151,0.48241373896598816,0.1860383152961731,0.04629325866699219,-0.03906974196434021,-0.14812952835201873,0.4350675004629116,-0.7429152971477406,-0.48667304833310615,0.6362967814420586,2.214037591272662,1.386071152472865
1783160372351697408,1.1439754962921143,0.20244526863098145,-0.9939398765563965,-0.8115624189376831,0.653641402721405,-0.5875200629234314,0.47704648971557617,0.15965211391448975,0.04168260097503662,-0.046840131282806396,-0.15463679647134332,0.4354808597943102,-0.7408641324934648,-0.4874056742143073,0.6279907416979619,2.2012625591050994,1.3899021952307131
1783160372361617664,1.153895616531372,0.29375946521759033,-0.7800856232643127,-0.6390556693077087,0.662326991558075,-0.5813619494438171,0.4725896120071411,0.090434730052948,-5.882978439331055e-05,-0.054147928953170776,-0.16034989634763103,0.43588796591659573,-0.7391187233412073,-0.4878452660372328,0.6204015912417267,2.190544668280374,1.3928560966321197
1783160372371537408,1.1638154983520508,0.20031952857971191,-0.6101778745651245,-0.5329121947288513,0.6690530776977539,-0.5761713981628418,0.4694616496562958,0.04823201894760132,-0.05935710668563843,-0.06456977128982544,-0.1649643275501,0.43614158016675114,-0.7379101166970887,-0.48790968692961906,0.6140366097178468,2.182649379095133,1.3943726165405992
1783160372381457664,1.1737356185913086,-0.04126938432455063,-0.5644543170928955,-0.5432215332984924,0.6752073764801025,-0.5718713998794556,0.4658951759338379,-0.043173015117645264,-0.07949584722518921,-0.10308688879013062,-0.16878002286266705,0.4367538500557263,-0.7363380081573837,-0.48843195683586016,0.6087852604703125,2.1747814044036584,1.397613111419824
1783160372391378688,1.1836566925048828,-0.2948824167251587,-0.6147427558898926,-0.45976245403289795,0.681048572063446,-0.5690155625343323,0.460862934589386,-0.08505529165267944,-0.11955267190933228,-0.1960618495941162,-0.1719475135424115,0.4373753233430195,-0.7342576495965931,-0.48990074091014013,0.6053081879081276,2.1657103266623228,1.4029218859857349
1783160372401298432,1.1935765743255615,-0.40003520250320435,-0.6483803391456604,-0.348847895860672,0.6864847540855408,-0.5677376985549927,0.4543268382549286,-0.0983651876449585,-0.2175711989402771,-0.2189294695854187,-0.1746344926493679,0.4376171863297316,-0.7318842965710309,-0.4922798746869594,0.6037551073478576,2.155433514993713,1.4093796845301525
1783160372411218688,1.2034966945648193,-0.3778538107872009,-0.6335939168930054,-0.2712719142436981,0.6912496089935303,-0.5672655701637268,0.4476422071456909,-0.11240750551223755,-0.3318585157394409,-0.2362317442893982,-0.1769422594363263,0.43755568057932187,-0.7296342438387925,-0.4948436708812645,0.6031817151148444,2.1454712920431818,1.415535590582879
1783160372421138432,1.213416576385498,-0.3573826253414154,-0.5988346338272095,-0.1340584009885788,0.6954073905944824,-0.5673455595970154,0.44105297327041626,-0.08970975875854492,-0.4128943085670471,-0.23698186874389648,-0.1790179502065839,0.4371507300327352,-0.7276164646458476,-0.49741949010325537,0.6032788274028913,2.1360102736920403,1.420935247026967
1783160372431059712,1.2233376502990723,-0.14322525262832642,-0.5922098755836487,0.022917797788977623,0.6986145973205566,-0.5678638815879822,0.43527981638908386,-0.018011510372161865,-0.4520946741104126,-0.2594373822212219,-0.1809273601126967,0.436151162937925,-0.726231418580284,-0.4996253329415162,0.6039083723964981,2.1280004043027914,1.424128322935795
1783160372440979456,1.233257532119751,0.09349462389945984,-0.6092785596847534,0.22428393363952637,0.700749397277832,-0.5686370730400085,0.4308154881000519,0.0831708312034607,-0.4131438732147217,-0.23850899934768677,-0.1828732512839332,0.4342895116147934,-0.7258101464405367,-0.5011482397796598,0.604848042865374,2.1220217623282065,1.4237955311938466
1783160372450899712,1.2431776523590088,0.25093817710876465,-0.5523364543914795,0.35704895853996277,0.7018152475357056,-0.569760799407959,0.4275839328765869,0.16978204250335693,-0.3629631996154785,-0.15558075904846191,-0.18479651708042127,0.4316080534903381,-0.7262963921032405,-0.5020540739101463,0.606214755094755,2.1179926482814375,1.4201778376013057
1783160372460819456,1.2530975341796875,0.04002540558576584,-0.5121222138404846,0.46554693579673767,0.7019242644309998,-0.5718406438827515,0.4246186316013336,0.23873436450958252,-0.3201729655265808,-0.15284425020217896,-0.18611792299913407,0.42870219218131755,-0.7269963892995507,-0.5030416816367868,0.6087478015297693,2.114836695693408,1.4161923701543941
1783160372470739712,1.2630176544189453,-0.2614314556121826,-0.5932595729827881,0.49368736147880554,0.7017530798912048,-0.5755545496940613,0.419856995344162,0.39829885959625244,-0.2868722677230835,-0.1265525221824646,-0.1868285699147237,0.42567715811305,-0.7271364744445912,-0.5051402783628705,0.613282095486766,2.1099629126238324,1.4145361159031402
1783160372480660736,1.2729387283325195,-0.6197152733802795,-0.7510254979133606,0.5837327837944031,0.7017903327941895,-0.5810187458992004,0.4121987819671631,0.5145031213760376,-0.32045531272888184,-0.07233971357345581,-0.18716128619217165,0.42245986265573904,-0.7263794141858666,-0.5087940068341283,0.6199798032664561,2.1018648039876857,1.4162139248351753
1783160372490580736,1.2828588485717773,-0.8172410130500793,-0.7868818044662476,0.567719578742981,0.7019564509391785,-0.5877832174301147,0.40220433473587036,0.4616025686264038,-0.37060612440109253,-0.015561878681182861,-0.18717743506889745,0.4191365413186833,-0.7248632499923333,-0.5136755261723732,0.6283160151956259,2.091108338144748,1.4207640746709325
1783160372500500736,1.292778730392456,-0.9082928895950317,-0.8349995613098145,0.737180769443512,0.7018424868583679,-0.5954734683036804,0.3909326195716858,0.3376014232635498,-0.3559882640838623,0.001447141170501709,-0.1869112000277601,0.4155792100274194,-0.7230215959376853,-0.5192281254222355,0.6378548813323545,2.079004828087252,1.426663559448306
1783160372510420736,1.3026988506317139,-0.9706739187240601,-0.6795381307601929,0.9920342564582825,0.6999473571777344,-0.6049374341964722,0.37963736057281494,0.2564430832862854,-0.37299829721450806,0.1437697410583496,-0.18566702486101064,0.41139073795775766,-0.7215097640327796,-0.5250801099424267,0.6496873288260572,2.0677703490517625,1.4320864627562655
1783160372520341760,1.312619686126709,-0.884003758430481,-0.4437224268913269,1.1948784589767456,0.6957157254219055,-0.6158920526504517,0.369670569896698,0.2466822862625122,-0.41834861040115356,0.32420751452445984,-0.18309587264689905,0.4068472880363022,-0.7206320599385119,-0.5306981251982517,0.6635177499608386,2.0592105362331026,1.4362635730256013
1783160372530261760,1.3225398063659668,-1.067361831665039,-0.3758484721183777,1.3590432405471802,0.6896485686302185,-0.6280111074447632,0.3605372905731201,0.38023674488067627,-0.4935861825942993,0.34559372067451477,-0.17945128928715265,0.40206222195054175,-0.7201490243561723,-0.5362170034961898,0.6789948581313635,2.0525046387177435,1.439820777581994
1783160372540181760,1.3324596881866455,-1.5878090858459473,-0.40049681067466736,1.4349782466888428,0.6825330257415771,-0.6421001553535461,0.3490791320800781,0.5671312808990479,-0.5139057040214539,0.3469810485839844,-0.17476493758500525,0.3970405560259268,-0.7189564374067055,-0.5430632658052122,0.6972345917966133,2.0435591376546336,1.4467113963151412
1783160372550101760,1.3423798084259033,-2.372993230819702,-0.46177735924720764,1.3028647899627686,0.6756958961486816,-0.6577059626579285,0.332953542470932,0.6336607933044434,-0.48568087816238403,0.3127220869064331,-0.1689395298646585,0.3928393682868534,-0.7156493591190679,-0.552252416833377,0.7177693002782282,2.0286323571957112,1.4625381063113125
1783160372560021760,1.352299690246582,-2.8232429027557373,-0.5880045294761658,1.4212929010391235,0.6690650582313538,-0.6749229431152344,0.31117627024650574,0.6893485188484192,-0.4669989347457886,0.32633596658706665,-0.1623482004582273,0.38871456705829455,-0.7102739775707093,-0.5639634917941672,0.7408602967607418,2.0061289920188643,1.4870919918003442
1783160372569942784,1.3622207641601562,-2.981250047683716,-0.5221569538116455,1.538615107536316,0.6614755392074585,-0.6929131746292114,0.28691670298576355,0.6434560418128967,-0.4509313702583313,0.3688296973705292,-0.1549818640198169,0.38431584115454537,-0.7041020455748808,-0.5766473422694114,0.7655215976277672,1.9800570726501636,1.5159043991961423
1783160372579862784,1.372140884399414,-2.841634750366211,-0.5735639929771423,1.6670821905136108,0.652876079082489,-0.7107810378074646,0.26180756092071533,0.5406816601753235,-0.4351540207862854,0.41852080821990967,-0.14726459828357566,0.37949681663606355,-0.6977721304721066,-0.5894144290535769,0.790607932092089,1.9521700941306,1.5464190639605215
1783160372589782784,1.3820607662200928,-2.7876856327056885,-0.400213360786438,1.7270010709762573,0.643603503704071,-0.7276537418365479,0.23726467788219452,0.4815490245819092,-0.4408947825431824,0.45582008361816406,-0.1395896173583631,0.37443849924838757,-0.6916850068913057,-0.6015665930228299,0.8148952245162324,1.9239886348082675,1.5768801081122377
1783160372599702784,1.3919808864593506,-2.8448538780212402,-0.49178165197372437,1.8521283864974976,0.6358869671821594,-0.7424018383026123,0.2109200358390808,0.4538804888725281,-0.4041435718536377,0.5341665744781494,-0.1327371360976866,0.3698628854862959,-0.6845885339285692,-0.613938788685034,0.8366483355389391,1.891070942696517,1.6117639485180884
1783160372609623552,1.4019017219543457,-3.2029101848602295,-0.4250105917453766,1.8898673057556152,0.626629650592804,-0.7572839856147766,0.18400028347969055,0.5199767351150513,-0.3756963014602661,0.48656249046325684,-0.12501970474782997,0.3650024608814492,-0.6773280934161965,-0.6263943359182097,0.8591442509985878,1.856403319691133,1.6492636658739341
1783160372619543808,1.4118218421936035,-3.946046829223633,-0.4413139224052429,1.8466274738311768,0.6143477559089661,-0.7738637924194336,0.15398572385311127,0.49113619327545166,-0.41178983449935913,0.519766092300415,-0.11479696385053494,0.3598700021491506,-0.6689442731881624,-0.6401787146555102,0.884919180901929,1.8163858165498594,1.6953307452280955
1783160372629463552,1.4217417240142822,-4.873790264129639,-0.43166622519493103,1.8397949934005737,0.6012775301933289,-0.790425717830658,0.11701584607362747,0.5189159512519836,-0.5102792382240295,0.5886116027832031,-0.10278767685117457,0.35500373756745374,-0.6576323203731004,-0.6564501789800212,0.9115036243514407,1.7630058256970016,1.7578412957206015
1783160372639383808,1.43166184425354,-5.2515363693237305,-0.48675477504730225,1.9766035079956055,0.5871872901916504,-0.8060916662216187,0.07366988062858582,0.5081800818443298,-0.5001369118690491,0.6519465446472168,-0.08997233068262041,0.3493182714871782,-0.6440587584667863,-0.6745887684040982,0.9375178151627632,1.695606498330735,1.834380232327345
1783160372649304832,1.4415829181671143,-4.911957263946533,-0.44130057096481323,2.2451093196868896,0.570805549621582,-0.8205417990684509,0.02987542189657688,0.5397291779518127,-0.4178921580314636,0.5936139822006226,-0.07628000739551055,0.3428044550220923,-0.6304147974588693,-0.6922743783184859,0.962358212570346,1.6230876649330723,1.9161841990091573
1783160372659224832,1.451502799987793,-4.200257301330566,-0.173855260014534,2.4000625610351562,0.5518648624420166,-0.8338828086853027,-0.009209895506501198,0.5461423993110657,-0.2663522958755493,0.615685760974884,-0.06177085573496012,0.3359317090758683,-0.61850217383396,-0.7076647476579732,0.9861055361944863,1.5541091970913334,1.9952036941204117
1783160372669144832,1.4614229202270508,-3.802443504333496,-0.013403844088315964,2.4278059005737305,0.5317782759666443,-0.8458044528961182,-0.042743247002363205,0.5635281801223755,-0.1908472776412964,0.6358066201210022,-0.047392450113270354,0.3290008760895333,-0.6085941179452053,-0.7205038112508627,1.0080712575083166,1.4905908125696883,2.0685854113877253
1783160372679064832,1.4713428020477295,-4.002017974853516,-0.00486548338085413,2.3110671043395996,0.5120478868484497,-0.8556160926818848,-0.07568537443876266,0.6133641600608826,-0.17833483219146729,0.6428698301315308,-0.03260829401671882,0.32282008816004787,-0.5982846326445508,-0.7326523661922915,1.0267399065189406,1.4240496759969818,2.1469238812794176
1783160372688985856,1.4812638759613037,-4.678411960601807,-0.11618420481681824,2.2365992069244385,0.49273061752319336,-0.862907886505127,-0.11227978765964508,0.6775881052017212,-0.3050304651260376,0.5056666135787964,-0.01707531976190307,0.31702634931405643,-0.5859645048053801,-0.7455524606031344,1.040995820753337,1.3467494284280008,2.237986855263657
1783160372698905600,1.4911837577819824,-5.920750141143799,-0.42343202233314514,2.031369209289551,0.4743146300315857,-0.8659391403198242,-0.15866689383983612,0.6952563524246216,-0.3642702102661133,0.3792327046394348,-0.0010932430576552608,0.3107645133557498,-0.5692907638908532,-0.7611388198885294,1.047025005628276,1.2479797430783308,2.3509900459613102
1783160372708825856,1.5011038780212402,-7.321963310241699,-0.7873818278312683,1.882377028465271,0.45655497908592224,-0.862592339515686,-0.21792630851268768,0.6803926229476929,-0.4357779622077942,0.4978030323982239,0.015694483719710443,0.3035845093072444,-0.5466930497801419,-0.7802030414931418,1.0403717690802279,1.125450564883171,2.488405983924842
1783160372718745600,1.511023759841919,-8.591114044189453,-0.9124816656112671,1.753474473953247,0.4391433298587799,-0.8504582047462463,-0.28960981965065,0.5794570446014404,-0.5162104368209839,0.7321451902389526,0.033300663437874974,0.29516561207069575,-0.5177570393726175,-0.8023066211013535,1.0168557573417871,0.9877799639244307,2.6415595352493004
1783160372728665856,1.5209438800811768,-9.027318000793457,-0.9056617021560669,1.7644904851913452,0.4216817021369934,-0.8291512727737427,-0.3670048415660858,0.4149118661880493,-0.46734219789505005,0.8823552131652832,0.05210672423167129,0.28612429174367965,-0.4843866988142254,-0.82509827103798,0.9775877083132446,0.8546139174720787,2.7925157159882685
1783160372738586624,1.5308647155761719,-8.708434104919434,-0.6482978463172913,1.7693760395050049,0.40443578362464905,-0.8003817200660706,-0.4425163269042969,0.35156089067459106,-0.23817718029022217,1.0054588317871094,0.07001647056590483,0.2761462715195185,-0.4499834114140124,-0.8463780603363572,0.9279317355738628,0.7404665659287785,2.9230024616812256
1783160372748506880,1.5407848358154297,-6.9585700035095215,-0.3166920840740204,2.021566867828369,0.38763657212257385,-0.7707902193069458,-0.5055891275405884,0.30875930190086365,-0.0824660062789917,1.0207868814468384,0.08767649221039867,0.2671290065626622,-0.41934178785197823,-0.8631960302244983,0.8800805543401825,0.6541054437188583,3.027273872759907
1783160372758426624,1.5507047176361084,-5.221281051635742,-0.23504622280597687,2.1042544841766357,0.37070509791374207,-0.7470704913139343,-0.5517821311950684,0.3632426857948303,-0.06603986024856567,0.9400420188903809,0.10432732237071472,0.2591702847903555,-0.3961561501635109,-0.8746467803782809,0.8436441219482015,0.5915703249133637,3.1072197939865247
1783160372768346880,1.5606248378753662,-4.320298194885254,-0.2166699469089508,2.038147449493408,0.3544919788837433,-0.7278587818145752,-0.58698970079422,0.4373323321342468,-0.01196354627609253,0.700560986995697,0.11959991203671552,0.2520295187064194,-0.37813523939400556,-0.8827177509824359,0.8151942177737164,0.5432933020079633,-3.111629525448312
1783160372778267904,1.5705459117889404,-3.739924192428589,-0.4731624722480774,2.0665533542633057,0.3380803167819977,-0.7110476493835449,-0.6165329813957214,0.49732309579849243,0.0472903847694397,0.42189186811447144,0.1337260027412675,0.2447527703129943,-0.36308345419184085,-0.8890353138628101,0.7909870326390758,0.5015810928873672,-3.0560964374929678
1783160372788187648,1.5804657936096191,-3.42653226852417,-0.7173857092857361,2.2071683406829834,0.3194214403629303,-0.6961162090301514,-0.6429558396339417,0.4939330816268921,0.028635740280151367,0.20025265216827393,0.1472531156273047,0.23626183237251047,-0.3502890516666514,-0.8943123444954388,0.7699735197586728,0.46108554347433167,-3.0048573400519394
1783160372798107904,1.590385913848877,-3.793945074081421,-0.9111040234565735,2.0971786975860596,0.29950737953186035,-0.6796820759773254,-0.6695727109909058,0.37856268882751465,-0.0025383830070495605,0.28853023052215576,0.16085134121051609,0.22682661166725035,-0.33728820535589954,-0.8993959994047269,0.7473290880872551,0.42061567137854194,-2.954650252787346
1783160372808027648,1.6003057956695557,-4.569199085235596,-0.9846723079681396,2.007141351699829,0.27962934970855713,-0.6573290228843689,-0.6998042464256287,0.27818620204925537,-0.0927625298500061,0.48998063802719116,0.17441161139999992,0.21636671533411575,-0.3213772279283265,-0.905252861026963,0.7172690145130342,0.3801461731675571,-2.904912391527574
1783160372817948928,1.6102268695831299,-5.095106601715088,-1.0873955488204956,2.0733585357666016,0.25933781266212463,-0.6285865306854248,-0.7332277297973633,0.23991450667381287,-0.1932823657989502,0.5695772171020508,0.18844620003766419,0.20475065774326115,-0.3024290139913822,-0.9116479054861523,0.6797344547903396,0.3399613744914567,-2.855144294989217
1783160372827868672,1.6201467514038086,-5.630631923675537,-1.1428488492965698,1.9389488697052002,0.23910312354564667,-0.5938495993614197,-0.7682267427444458,0.18431301414966583,-0.16912037134170532,0.5263749361038208,0.20119293084043094,0.19177042735764388,-0.28126630682541603,-0.918495933622804,0.6358351049876377,0.3017368425948161,-2.810284634271675
1783160372837788928,1.6300668716430664,-5.639772891998291,-1.274322748184204,2.068955183029175,0.21845880150794983,-0.5544690489768982,-0.8030191659927368,0.13308842480182648,-0.10347461700439453,0.4535776972770691,0.21381945915368164,0.17784073135034215,-0.2585789582374481,-0.9250896104350697,0.5877248062131198,0.2656185743079928,-2.7681172748944602
1783160372847708672,1.6399867534637451,-5.324505805969238,-1.2503880262374878,2.118131399154663,0.19727040827274323,-0.5144734978675842,-0.8345066905021667,0.10727977752685547,-0.12702125310897827,0.43210190534591675,0.22657132039431557,0.16360497394383203,-0.2366010559358708,-0.930547591643804,0.5403935178384008,0.23213035179700017,-2.7284847173737345
1783160372857628928,1.649906873703003,-4.687448501586914,-1.1770187616348267,2.1665427684783936,0.17671358585357666,-0.47667497396469116,-0.8611348867416382,0.01298367977142334,-0.13453108072280884,0.4591268301010132,0.23902455698656838,0.1499566322647886,-0.21666925352431401,-0.9345772871863185,0.4968684077760841,0.20240022009694525,-2.6923220644564267
1783160372867549696,1.659827709197998,-4.036867618560791,-1.1390886306762695,2.3064258098602295,0.15651017427444458,-0.44295555353164673,-0.8827767968177795,-0.04650956392288208,-0.11106055974960327,0.4275461435317993,0.25129562573852904,0.13702387655502152,-0.19958969028906792,-0.9371439962922021,0.4588926168807892,0.1754696852053525,-2.6587005325229045
1783160372877469696,1.6697478294372559,-3.029974937438965,-1.214644193649292,2.458379030227661,0.13639046251773834,-0.41518688201904297,-0.8994539976119995,-0.11952951550483704,0.00022411346435546875,0.281549334526062,0.2634872027084495,0.12496430798628808,-0.18616370302820656,-0.9382438031075915,0.4281482082461307,0.1504904996829652,-2.626812242487834
1783160372887389696,1.6796677112579346,-1.3059569597244263,-1.194909691810608,2.617280960083008,0.11547248810529709,-0.39922693371772766,-0.9095515012741089,-0.23244637250900269,0.23545438051223755,0.11461442708969116,0.27561126540529685,0.11431020339845614,-0.1793248919098744,-0.9374509042558643,0.4106735058470847,0.1262798557463496,-2.59603902906983
1783160372897309696,1.6895878314971924,0.22626133263111115,-1.1877961158752441,2.3761181831359863,0.09488178044557571,-0.39785128831863403,-0.9125304222106934,-0.4081904888153076,0.6147855520248413,-0.024771153926849365,0.2864960421040818,0.10598276026498234,-0.18028430905803744,-0.9349787836599823,0.4091736080399961,0.10360427727419233,-2.5684357642649887
1783160372907230976,1.6995089054107666,1.3593472242355347,-1.108384609222412,2.026205062866211,0.07589663565158844,-0.40744417905807495,-0.9100708365440369,-0.5482324361801147,0.9389688372612,-0.020562708377838135,0.29520171452239896,0.09998794938068098,-0.18699463643382716,-0.9316068045533749,0.4196536492955787,0.0832038658479982,-2.545592575405358
1783160372917150720,1.7094287872314453,1.9080818891525269,-1.0806957483291626,1.7242697477340698,0.058609072118997574,-0.4244883060455322,-0.9035345315933228,-0.5309296250343323,0.8888742923736572,0.022415757179260254,0.30197081567348283,0.09590223575981102,-0.197573992817559,-0.9276750910557269,0.4383966628652893,0.0647756914679763,-2.526635498870321
1783160372927070976,1.7193489074707031,1.5494266748428345,-1.030207633972168,1.4995718002319336,0.04204019159078598,-0.4417494833469391,-0.8961528539657593,-0.4697287976741791,0.624320924282074,0.08368343114852905,0.30739772937916593,0.09209887984636321,-0.20842589772843165,-0.9238955261456465,0.45754780839774417,0.046877483254387634,-2.51011453515216
1783160372936990720,1.7292687892913818,0.4052419364452362,-0.8995131254196167,1.1218892335891724,0.02806846611201763,-0.4519331157207489,-0.8916101455688477,-0.520225465297699,0.3430006206035614,0.19963932037353516,0.3119365107116738,0.08819441356455514,-0.2154453013499998,-0.9211409809737744,0.46893118769815767,0.03147025623925069,-2.496069758925262
1783160372946911744,1.739189863204956,-1.0094952583312988,-0.7598999738693237,0.7793877124786377,0.016592100262641907,-0.4499337375164032,-0.8929077982902527,-0.6701565384864807,0.2747475802898407,0.3114411234855652,0.3155166121633804,0.08306312570775197,-0.21597828753510698,-0.920273427336633,0.46669115449523774,0.01857995909606412,-2.485425165496584
1783160372956831744,1.7491097450256348,-1.561702013015747,-0.41616714000701904,0.29642584919929504,0.009068458341062069,-0.43864893913269043,-0.8986127376556396,-0.8787736296653748,0.5049483776092529,0.28879523277282715,0.31792205678184315,0.07785061676043312,-0.21126500913291207,-0.9209950823887528,0.4540946858293098,0.010091276870718098,-2.4791501018853945
1783160372966751744,1.7590298652648926,-1.128666877746582,-0.174065962433815,-0.20431658625602722,0.006847751792520285,-0.4269545078277588,-0.9042471647262573,-1.0518916845321655,0.8388502597808838,0.06507480144500732,0.31819916385751473,0.07466107170285702,-0.2056748421946264,-0.9224276734158207,0.44112220501951044,0.00757273127835649,-2.47893776071482
1783160372976671744,1.7689497470855713,0.0841527134180069,-0.24886056780815125,-0.2955993711948395,0.006523977965116501,-0.4232291877269745,-0.9059991836547852,-1.017250895500183,1.0412406921386719,-0.21173763275146484,0.31678179674053714,0.07350238064363507,-0.20395542865035493,-0.9233899043573902,0.4370065147253053,0.007200741086710907,-2.48222678826446
1783160372986592768,1.7788708209991455,1.1914044618606567,-0.2329479604959488,-0.45442989468574524,0.005382914561778307,-0.42995360493659973,-0.902834951877594,-0.8324397802352905,0.9721288681030273,-0.263058602809906,0.3149024398641553,0.07376508863905376,-0.20770467814559287,-0.9231761046972601,0.4444413881746349,0.005962164760158429,-2.485477842807937
1783160372996512768,1.7887907028198242,1.8080663681030273,-0.012482160702347755,-0.2087801843881607,0.0055490522645413876,-0.44499000906944275,-0.8955183625221252,-0.7083383202552795,0.6923350095748901,-0.047047555446624756,0.31244171641082413,0.07604770399407958,-0.21554018073290981,-0.9220300727775121,0.4611631025478873,0.006196390059966899,-2.4896097422534873
1783160373006432768,1.798710823059082,1.1530060768127441,-0.5140739679336548,0.02756418287754059,0.0036783881951123476,-0.45949703454971313,-0.8881717324256897,-0.6650858521461487,0.5108886361122131,0.12698698043823242,0.3108982666943889,0.07745216375287703,-0.22341734379582853,-0.9205586467421959,0.4774288134760607,0.0041415045964582325,-2.491199845257666
1783160373016352768,1.8086307048797607,0.7754392623901367,-0.4507911503314972,-0.3680952489376068,0.0004192157357465476,-0.4700532555580139,-0.8826379179954529,-0.6531444191932678,0.3974061906337738,0.09555912017822266,0.30923602955231055,0.07741420966818018,-0.22953881524121356,-0.9196151459138621,0.48935112771627587,0.0004749577149507589,-2.492934548081624
1783160373026273792,1.818551778793335,0.572283148765564,-0.1702193170785904,-0.6607732772827148,0.0005651102983392775,-0.47918635606765747,-0.8777129650115967,-0.7403722405433655,0.5117791891098022,-0.005221545696258545,0.3060602325059833,0.07838228825758113,-0.23452020768117954,-0.9193386163299111,0.4997274881967071,0.0006438439654727193,-2.499011564732751
1783160373036193792,1.8284718990325928,0.2668558955192566,-0.40032416582107544,-0.6508548259735107,0.0019300986314192414,-0.4875882565975189,-0.873071551322937,-0.6678694486618042,0.5592893362045288,-0.09255039691925049,0.30212059691623877,0.07959383372940032,-0.23901681239629818,-0.9193796545361074,0.5093252620176204,0.002210695627114608,-2.507174668929084
1783160373046113792,1.8383917808532715,0.14878171682357788,-0.36843371391296387,-0.697277307510376,0.0017002769745886326,-0.4908435046672821,-0.8712460994720459,-0.4973667860031128,0.4895007312297821,-0.00015282630920410156,0.2982812123482717,0.07907773108065053,-0.24108851002748172,-0.9201365608754856,0.5130576500324688,0.0019515436545047386,-2.5151414245233155
1783160373056033792,1.8483119010925293,0.7295747995376587,-0.3340587019920349,-0.3815678358078003,0.0018487612251192331,-0.49532127380371094,-0.8687079548835754,-0.4959436058998108,0.36975669860839844,-0.11444640159606934,0.295316678339472,0.07918744754718843,-0.24367064471637406,-0.9204032746859736,0.5182046130610977,0.002128170360600291,-2.521198841198651
1783160373065953792,1.858231782913208,0.652218759059906,-0.18045400083065033,-0.36477193236351013,0.0016064243391156197,-0.5023790597915649,-0.8646459579467773,-0.26091429591178894,0.5004106760025024,-0.24637699127197266,0.29285726836491593,0.07969524786074475,-0.2476402187685121,-0.9200856031240114,0.5263480689891171,0.0018578962570595656,-2.5257847643345195
1783160373075874816,1.8681528568267822,0.32535675168037415,-0.23898416757583618,-0.20618654787540436,0.0017961978446692228,-0.5071526169776917,-0.8618543744087219,-0.03951592743396759,0.40261465311050415,-0.060814082622528076,0.2915485737406924,0.08030255954673997,-0.25024849072106586,-0.9197426571849776,0.5318777871796515,0.0020841053025501405,-2.528221273527599
1783160373085794560,1.878072738647461,-0.1511663943529129,-0.25557154417037964,0.046498555690050125,0.000827875395771116,-0.5081390738487244,-0.8612746000289917,0.024288088083267212,0.006735324859619141,-0.058067381381988525,0.29110654807123226,0.0798829136564377,-0.2509609688560276,-0.9197250785585374,0.5330227433905026,0.0009612208571659631,-2.528778552044117
1783160373095714816,1.8879928588867188,-0.9383046627044678,-0.44408100843429565,0.07295599579811096,-0.003611781867220998,-0.5037766098976135,-0.8638263940811157,0.22687838971614838,-0.3368605971336365,-0.08729970455169678,0.2909354090561265,0.07685367775537638,-0.2493597996017029,-0.9204725965463675,0.5279651777110592,-0.004181118908977008,-2.528191433624405
1783160373105634816,1.8979127407073975,-0.8468454480171204,-0.8826041221618652,0.5231499671936035,-0.010124517604708672,-0.49627402424812317,-0.8681069016456604,0.4985736012458801,-0.13711830973625183,0.1367378830909729,0.2916448314379026,0.07248350418806872,-0.2463588835404534,-0.9214101469841649,0.5193017118582002,-0.01166222593919331,-2.525408317254065
1783160373115555840,1.9078338146209717,0.05623513460159302,-0.43443140387535095,0.10079474747180939,-0.019006747752428055,-0.49233999848365784,-0.8701953887939453,0.7482089996337891,0.2611388564109802,0.029726088047027588,0.29268809069693297,0.06768521104643005,-0.24560335566952446,-0.9216459846585204,0.5147761291481291,-0.02183845914905373,-2.5208477875973756
1783160373125475584,1.9177536964416504,0.3811756670475006,-0.0440405048429966,-0.7633302211761475,-0.01978222094476223,-0.4950438141822815,-0.8686427474021912,0.7197638750076294,0.18283376097679138,0.04909324645996094,0.29104855275695846,0.06734709257439594,-0.24727107795258388,-0.9217440055750445,0.5178852590069711,-0.022769777030709083,-2.5238593496466444
1783160373135395840,1.9276738166809082,0.9314835667610168,-0.3738788664340973,-0.3101658821105957,-0.019153263419866562,-0.501466691493988,-0.8649649024009705,0.8594242930412292,-0.008237898349761963,0.17122405767440796,0.2874433641342375,0.06782234558487214,-0.2508339404898259,-0.9218778833014457,0.5252931936295991,-0.02213977983273947,-2.531142344942132
1783160373145315584,1.937593698501587,0.30275222659111023,-0.3726010322570801,-0.2685641348361969,-0.021432578563690186,-0.5067321062088013,-0.8618371486663818,0.7865235209465027,-0.40533149242401123,0.14494872093200684,0.2855548231193272,0.06710961162001987,-0.2541214941407683,-0.9216165486226983,0.5313899315592407,-0.024863355158482054,-2.5339046678863464
1783160373155236608,1.9475147724151611,-0.21356891095638275,-0.18835769593715668,-0.25324615836143494,-0.021621564403176308,-0.5072687864303589,-0.8615165948867798,0.20013412833213806,-0.3491307497024536,0.16750109195709229,0.28390828885580466,0.06665635625650647,-0.254555743489935,-0.9220381446025074,0.5320125921631165,-0.025091828747748273,-2.5373531382860306
1783160373165156864,1.957434892654419,-0.7064382433891296,-0.5154461860656738,-0.09848769009113312,-0.02413814328610897,-0.503132164478302,-0.8638722896575928,0.08740106970071793,-0.08320200443267822,0.02059537172317505,0.28287167351828674,0.06440488508715336,-0.2528158866836417,-0.9229949142456417,0.527219309653363,-0.02793452786537131,-2.539286118293374
1783160373175076608,1.9673547744750977,-1.0665702819824219,0.03234020620584488,-0.10572483390569687,-0.025079205632209778,-0.49569857120513916,-0.868132472038269,0.06681200861930847,0.01027071475982666,0.011107325553894043,0.2822093894592294,0.06247350957465374,-0.24905987668232943,-0.9243507091840947,0.5186389921196588,-0.028880652671155173,-2.5412961653705692
1783160373184996864,1.9772748947143555,-1.5172748565673828,-0.8400559425354004,0.011090199463069439,-0.02766302600502968,-0.4848150908946991,-0.8741791248321533,0.03726080805063248,0.0545782744884491,0.00682377815246582,0.28167419317684833,0.05919383343015417,-0.2437345618886488,-0.9261475394648145,0.506151725630913,-0.031634017988988454,-2.5429181407391668
1783160373194917632,1.9871957302093506,-2.033869743347168,-0.3504068851470947,-0.24967455863952637,-0.03296343982219696,-0.46881547570228577,-0.8826808333396912,0.35606828331947327,-0.10491499304771423,0.009389817714691162,0.28098755551673615,0.05371059312036292,-0.236166806547654,-0.9286475924859703,0.48794928790349695,-0.03732734347129864,-2.544660608669929
1783160373204837888,1.9971158504486084,-2.0251617431640625,-0.3565317690372467,-0.5827425122261047,-0.03302783891558647,-0.4514355957508087,-0.8916922211647034,0.2613908648490906,-0.07120844721794128,-0.08345115184783936,0.2789647953838536,0.0503059169547434,-0.2272073749732965,-0.9316784578736815,0.4683735470501838,-0.037022580498568686,-2.5509070216992935
1783160373214757632,2.007035732269287,-2.4350156784057617,-0.43742743134498596,-0.5551628470420837,-0.03464508056640625,-0.43192633986473083,-0.9012432098388672,0.41265106201171875,-0.008900076150894165,-0.2480182647705078,0.27641428725582856,0.045758272761729855,-0.21745014153080744,-0.9349956242698486,0.44662753762890933,-0.038422515133945026,-2.557977223050766
1783160373224677888,2.016955852508545,-2.067439556121826,-0.2551915943622589,-0.22697119414806366,-0.03421727195382118,-0.4114951193332672,-0.9107694029808044,0.3223489820957184,0.007030397653579712,-0.07609277963638306,0.2750073796148889,0.04242793930061729,-0.20691824388282054,-0.9379528689428783,0.4240938927506296,-0.03755197219566805,-2.5630948891040854
1783160373234598656,2.02687668800354,-1.588133454322815,-0.09671672433614731,-0.22337326407432556,-0.035297490656375885,-0.39564022421836853,-0.9177270531654358,0.4076577126979828,-0.12735477089881897,-0.2969946265220642,0.27412635853199097,0.039251441329772256,-0.19898695760418694,-0.9400629232262565,0.40676485836886284,-0.03844291354553262,-2.566190315498325
1783160373244518656,2.036796808242798,-1.3484704494476318,-0.29179301857948303,-0.534634530544281,-0.033921923488378525,-0.3834466338157654,-0.9229398965835571,0.3349168002605438,0.11335080862045288,-0.29361283779144287,0.27208508870662756,0.03763731145383292,-0.19264864089688635,-0.9420402247952754,0.39352531360588466,-0.036737669740463115,-2.571921499827567
1783160373254438656,2.0467166900634766,-1.0037063360214233,-0.6217831969261169,-0.336150199174881,-0.03450075536966324,-0.37273600697517395,-0.9272958636283875,0.33407655358314514,0.13372236490249634,-0.08327847719192505,0.2694924799940919,0.03522185060434252,-0.187380635671841,-0.9439394672808673,0.38195575843760227,-0.037188615550655266,-2.578203341968425
1783160373264358656,2.0566368103027344,-0.4027647376060486,-0.39799070358276367,-0.3254181146621704,-0.03651951253414154,-0.3661629855632782,-0.9298338294029236,0.40538549423217773,0.11190581321716309,-0.26132822036743164,0.26782008700036125,0.03293117148722822,-0.18438712588322748,-0.9450869384495129,0.3748822798015029,-0.03925513325670813,-2.5818632197972304
1783160373274278656,2.066556692123413,-0.34878671169281006,-0.4844973683357239,-0.04182954132556915,-0.037318505346775055,-0.36421582102775574,-0.9305666089057922,0.22692422568798065,0.05206677317619324,-0.19692057371139526,0.26680391686235255,0.032056399900893824,-0.18354588525513865,-0.9455680833756609,0.37279063728447087,-0.04008151466833916,-2.5840071055215232
1783160373284199680,2.0764777660369873,-0.5797462463378906,-0.21156573295593262,0.09535451233386993,-0.040557146072387695,-0.3592606782913208,-0.932355523109436,0.3693687915802002,-0.09597000479698181,-0.09491187334060669,0.26669786419953206,0.02972751674094883,-0.18148966747620715,-0.946070761357723,0.36747554762473206,-0.04347224891641098,-2.5839723185669534
1783160373294119936,2.086397886276245,-1.0894670486450195,-0.4408937394618988,-0.08474494516849518,-0.04264634847640991,-0.3523464798927307,-0.9348974823951721,0.4026469588279724,-0.2815951704978943,0.005683004856109619,0.26598869397031744,0.02756557723203572,-0.17830146283622636,-0.946941833151172,0.36007720903572504,-0.04558447215837157,-2.585622586079778
1783160373304039680,2.096317768096924,-1.7066748142242432,-0.16966965794563293,-0.018976587802171707,-0.04575096070766449,-0.338880717754364,-0.9397162795066833,0.3521932363510132,-0.4571855664253235,0.06679147481918335,0.2657339215643517,0.024058759638236754,-0.17193902426958405,-0.9482845837048143,0.34572695698399125,-0.04864751630247069,-2.5866605104053684
1783160373313959936,2.1062378883361816,-2.2417590618133545,-0.010626204311847687,0.2924151122570038,-0.04693981260061264,-0.32094806432724,-0.9459328651428223,0.14114758372306824,-0.4736533761024475,0.056604862213134766,0.26657371824134857,0.021058380512155254,-0.16306473131506216,-0.9496867541188146,0.32673032669081387,-0.04958210346199247,-2.5861093805246735
1783160373323880704,2.1161587238311768,-2.846027374267578,0.07292777299880981,-0.08449940383434296,-0.04588313773274422,-0.2974877953529358,-0.9536224603652954,0.09594723582267761,-0.2841772437095642,0.03692018985748291,0.26719347815898226,0.018338946840815384,-0.15117030891908065,-0.9515350669531782,0.3020602331760428,-0.04807749867838577,-2.5867689612526794
1783160373333800704,2.1260788440704346,-3.79545259475708,-0.17924241721630096,-0.28904563188552856,-0.046302251517772675,-0.26586809754371643,-0.9628968238830566,0.25438636541366577,-0.21666058897972107,-0.005197048187255859,0.26626216450284396,0.013555304435574013,-0.1355280432773662,-0.9542290142489496,0.26910433263700295,-0.04804939800102645,-2.590861981358875
1783160373343720704,2.1359987258911133,-4.472630977630615,-0.1515699326992035,-0.20062647759914398,-0.04629417881369591,-0.22612379491329193,-0.9729979038238525,0.1310109794139862,0.002002701163291931,-0.05857253074645996,0.26518194400666034,0.007933348289817989,-0.11592291705336674,-0.9571715383905948,0.22809655901925832,-0.047543056523087365,-2.5956082980726656
1783160373353640704,2.145918846130371,-4.221488952636719,-0.28095749020576477,-0.6677587628364563,-0.047343794256448746,-0.1836889088153839,-0.9818436503410339,0.16450077295303345,0.11857965588569641,-0.21429282426834106,0.2634037932911065,0.0014813424677346334,-0.0952679499258467,-0.9599688415846618,0.184737910060976,-0.048181960351777686,-2.6015344974869588
1783160373363561984,2.1558399200439453,-3.821148633956909,-0.31978943943977356,-0.35074108839035034,-0.04985974356532097,-0.14455924928188324,-0.9882391691207886,0.21355603635311127,0.13911186158657074,-0.3130151033401489,0.26046059929177723,-0.005197936272372114,-0.0765075375660178,-0.9624343728312112,0.1450675319812322,-0.05041036995054845,-2.609337005172712
1783160373373481728,2.165759801864624,-3.0390191078186035,-0.2990860044956207,-0.21723738312721252,-0.05280864238739014,-0.11061220616102219,-0.9924596548080444,0.31936442852020264,0.13481265306472778,-0.35713446140289307,0.2589929661326274,-0.011170021325723848,-0.06037713131598392,-0.9639255619624332,0.11083901538354957,-0.0531597306238101,-2.61367009081865
1783160373383401984,2.175679922103882,-2.1137874126434326,-0.3233090043067932,-0.6900910139083862,-0.05597781762480736,-0.08546262234449387,-0.9947676062583923,0.22074222564697266,0.15394407510757446,-0.4005570411682129,0.256312228758238,-0.016105586552390985,-0.04854686934304572,-0.9652398047584699,0.08556700173883788,-0.05621297262885794,-2.6200803750562467
1783160373393321728,2.1855998039245605,-1.3521498441696167,-0.3612108528614044,-0.42015784978866577,-0.05903680995106697,-0.06809581816196442,-0.995930552482605,0.26893672347068787,0.14133800566196442,-0.32117760181427,0.253372126886035,-0.019937902117503816,-0.04046252929894774,-0.9663166676200419,0.06814855291180001,-0.05920875275887542,-2.626710979995863
1783160373403242752,2.1955208778381348,-0.5676442980766296,-0.7008867263793945,-0.36861342191696167,-0.06399305164813995,-0.05918610841035843,-0.9961937069892883,0.34988170862197876,0.05474579706788063,-0.24709242582321167,0.25120587575463477,-0.023549912351210393,-0.03672260730494395,-0.9669501292323031,0.059220716405937894,-0.06414941836591419,-2.6313456295303714
1783160373413162752,2.2054407596588135,-0.7350961565971375,-0.9904063940048218,-0.19596947729587555,-0.07219958305358887,-0.05315452441573143,-0.9959728121757507,0.31605029106140137,-0.04050392284989357,-0.21452218294143677,0.24968867408415055,-0.028339843226264184,-0.03479157647966709,-0.9672858548338403,0.05317958620808325,-0.07236493948698869,-2.6344296744159643
1783160373423082752,2.2153608798980713,-0.9243220090866089,-0.7276080250740051,-0.12128139287233353,-0.08031532913446426,-0.045099347829818726,-0.9957486987113953,0.26938700675964355,-0.2906092703342438,-0.03750014305114746,0.24855919850639546,-0.03331919290746965,-0.03186652648377836,-0.967518859171006,0.045114649251755345,-0.0804839984802311,-2.6368445767186284
1783160373433002752,2.22528076171875,-1.7485322952270508,-0.6144980192184448,-0.4873392581939697,-0.08648005872964859,-0.03228059411048889,-0.995730459690094,0.06443110853433609,-0.3710244596004486,-0.0708436369895935,0.24681920247648123,-0.037951877026439346,-0.0263518763338941,-0.9679595288187066,0.0322862044511717,-0.0866334816956628,-2.640855553312308
1783160373442923776,2.235201835632324,-2.605558156967163,-0.6164627075195312,-0.25363031029701233,-0.09249807149171829,-0.011476583778858185,-0.9956467151641846,0.05404592305421829,-0.4235667586326599,0.06159520149230957,0.24431281870129742,-0.04348830872661983,-0.016893960608047726,-0.9685735402570651,0.011476835847955984,-0.09263660195144353,-2.6468894877417575
1783160373452843776,2.245121717453003,-3.316953420639038,-0.658995509147644,-0.20071223378181458,-0.09870140999555588,0.01784392260015011,-0.9949570894241333,0.2698745131492615,-0.33595916628837585,0.1194230318069458,0.242615891256959,-0.05010298758905436,-0.0033378880706792188,-0.9688220692843942,-0.017844869791552403,-0.09887816829046267,-2.6517211140078984
1783160373462763776,2.2550418376922607,-3.479722499847412,-0.34882107377052307,-0.3443741798400879,-0.10380035638809204,0.05106380954384804,-0.9932864308357239,0.14739471673965454,-0.17830686271190643,0.05914342403411865,0.24034071099315335,-0.056615492245258484,0.012306929196429197,-0.9689580091962512,-0.05108602821504749,-0.10412399941109937,-2.657988374102394
1783160373472683776,2.2649617195129395,-3.454944610595703,-0.4285963177680969,-0.6875576972961426,-0.1078590601682663,0.08529826998710632,-0.9905002117156982,0.0877632349729538,0.012434273958206177,-0.0011532306671142578,0.23677768519459513,-0.06265997974734853,0.028698978705193636,-0.9691163253087203,-0.08540204305967321,-0.10846615481404738,-2.6669740824479655
1783160373482605312,2.274883270263672,-2.767976760864258,-0.5531975626945496,-0.5529889464378357,-0.11331356316804886,0.1151028573513031,-0.9868694543838501,0.26986873149871826,0.0104159414768219,-0.0996631383895874,0.23250116464552198,-0.06874471015731747,0.04288852117172115,-0.9692151172056602,-0.11535854374634034,-0.11432058149718573,-2.677326650269525
1783160373492526080,2.284804105758667,-2.3500521183013916,-0.5913329720497131,-0.3973029553890228,-0.11943135410547256,0.13940556347370148,-0.9830067157745361,0.39305195212364197,-0.12057621777057648,-0.16558337211608887,0.2297105431884247,-0.07450205488723068,0.054277774572085366,-0.9688840839687544,-0.1398610863559576,-0.12090339742824775,-2.684492511027282
1783160373502446080,2.294724225997925,-2.1167359352111816,-0.5311470031738281,-0.6309195756912231,-0.1248936727643013,0.16010691225528717,-0.9791666865348816,0.2123112678527832,-0.02634836733341217,-0.11572772264480591,0.22644497658005458,-0.07944513311859001,0.06407137502251803,-0.9686619646613476,-0.16079895983923592,-0.12686594354104064,-2.692534558753895
1783160373512366080,2.3046441078186035,-1.7561839818954468,-0.6554311513900757,-0.3577796518802643,-0.1312800496816635,0.17841115593910217,-0.9751589894294739,0.229134663939476,-0.06561818718910217,-0.18124359846115112,0.22319535417475933,-0.0845247178115466,0.07263669981708452,-0.9683817612968502,-0.17937146637865745,-0.1338196832371243,-2.7005906710362466
1783160373522286080,2.3145642280578613,-1.5932878255844116,-0.7550117373466492,-0.3202962279319763,-0.13874924182891846,0.19386644661426544,-0.9711665511131287,0.34336960315704346,-0.20708055794239044,-0.31652265787124634,0.22131938034553011,-0.08988857237258682,0.07960385312433975,-0.9677815172552345,-0.19510183789533087,-0.14190832573306073,-2.7058605308106496
1783160373532207360,2.3244853019714355,-1.6888692378997803,-0.6371775269508362,-0.3392925560474396,-0.14583873748779297,0.20916789770126343,-0.9669435620307922,0.19169139862060547,-0.20497173070907593,-0.22133463621139526,0.21935068381210568,-0.0950344389614042,0.08658332588089948,-0.9671386472367292,-0.21072395924194584,-0.14969616047087325,-2.711391649105917
1783160373542127104,2.3344051837921143,-1.5991557836532593,-0.6200509667396545,-0.4356726408004761,-0.15236075222492218,0.22434982657432556,-0.9625244736671448,0.16259939968585968,-0.18707260489463806,-0.23730462789535522,0.21691334657200825,-0.09983473476395603,0.0936524886508137,-0.9665458471951383,-0.22627579822321556,-0.1569902874426105,-2.7179397791648254
1783160373552047360,2.344325304031372,-1.4029428958892822,-0.7359810471534729,-0.3281562924385071,-0.1595311164855957,0.23818247020244598,-0.9580286741256714,0.2563176155090332,-0.10591928660869598,-0.2564946413040161,0.21461058422304785,-0.10480290588291799,0.10001009418923794,-0.9658967511774437,-0.24049403859173957,-0.16500616429789713,-2.724302497137746
1783160373561967104,2.354245185852051,-1.1205124855041504,-0.6578635573387146,-0.18342623114585876,-0.16677367687225342,0.24971462786197662,-0.9538496732711792,0.3324993848800659,0.0032150596380233765,-0.2750931978225708,0.21322574866829982,-0.10963097605998826,0.10514858008395626,-0.9651215877834155,-0.25238553027710997,-0.17309306266981153,-2.7287293350176673
1783160373571888128,2.364166259765625,-0.7706269025802612,-0.9050424695014954,-0.12033140659332275,-0.17458803951740265,0.2585253119468689,-0.9500966668128967,0.32880860567092896,0.0772290825843811,-0.23909705877304077,0.21237307435361527,-0.11448946269471381,0.10882934106218788,-0.9643371465252157,-0.2614953040387277,-0.18173077916323357,-2.732021113299387
1783160373581808128,2.3740861415863037,-0.5263407230377197,-0.9685666561126709,0.026281369850039482,-0.18383526802062988,0.2643575966358185,-0.9467415809631348,0.3766148090362549,0.07556244730949402,-0.28520727157592773,0.2123191410492728,-0.11981536637214726,0.1107857321904971,-0.9634788145246045,-0.2675377681819029,-0.19179012797121517,-2.7336792356696438
1783160373591728128,2.3840062618255615,-0.6323856711387634,-0.8547066450119019,0.08702674508094788,-0.1915692239999771,0.269763708114624,-0.9436783194541931,0.3079785108566284,-0.010135412216186523,-0.21962124109268188,0.2128905121241757,-0.1244169395515717,0.11261111632293408,-0.9625574517850763,-0.27314763598246994,-0.20028107738231066,-2.7338724301855652
1783160373601648128,2.3939261436462402,-0.7936399579048157,-0.8071545362472534,0.16023002564907074,-0.19909852743148804,0.2766937017440796,-0.9401065707206726,0.26797670125961304,-0.07852780818939209,-0.11494714021682739,0.21372760316260084,-0.12914705792818884,0.11518568994521536,-0.9614436761865384,-0.2803517561937283,-0.2086991976968264,-2.733662127787653
1783160373611569152,2.4038472175598145,-1.149115800857544,-0.6567187309265137,-0.17305420339107513,-0.20615221560001373,0.2858223617076874,-0.9358454942703247,0.11322619020938873,0.05162575840950012,-0.1345280408859253,0.2133586646391718,-0.133778641100139,0.11908196638380222,-0.9604169954867192,-0.2898644715654628,-0.21682161366671637,-2.736156597348356
1783160373621489408,2.4137673377990723,-1.1872625350952148,-0.7468183040618896,-0.1618446558713913,-0.2126656025648117,0.2962668836116791,-0.9311279654502869,0.1075478047132492,0.14251485466957092,-0.24793392419815063,0.21216282556613963,-0.13820915002387618,0.12383153231809672,-0.959453482633462,-0.3007816734394563,-0.22454413989975203,-2.740505809685862
1783160373631409152,2.423687219619751,-1.3495981693267822,-0.9183165431022644,-0.21254591643810272,-0.2208188772201538,0.30749163031578064,-0.9255743622779846,0.2468808889389038,0.010821938514709473,-0.2817315459251404,0.210915320493783,-0.1435733470541757,0.12883907298796124,-0.9582807534739444,-0.3125558349985957,-0.23419713004811216,-2.745371918977257
1783160373641329152,2.4336071014404297,-1.3955166339874268,-0.5737059116363525,-0.033373769372701645,-0.2287253737449646,0.32010164856910706,-0.9193582534790039,0.2432364821434021,-0.09739962220191956,-0.2583608627319336,0.21004702382356405,-0.14905605043949102,0.13454796717417916,-0.9568486821395786,-0.3258367805874893,-0.2438376976711878,-2.7496838384869022
1783160373651250176,2.443528175354004,-1.4231547117233276,-0.7028878927230835,-0.602128803730011,-0.23492880165576935,0.3317822813987732,-0.9136350154876709,0.11047811806201935,-0.1116284728050232,-0.1684114933013916,0.2075524327727715,-0.153336446516913,0.14025124590097857,-0.9558972647236496,-0.3381922354402195,-0.2516838933391495,-2.7571640888716584
1783160373661170176,2.4534482955932617,-1.487500548362732,-0.707406222820282,-0.0667150542140007,-0.24268268048763275,0.34458205103874207,-0.9068452715873718,0.21315692365169525,-0.08405348658561707,-0.12730389833450317,0.20554056080698105,-0.158628295425238,0.14633671625205885,-0.9545552369235255,-0.35179353758720067,-0.2614847620369322,-2.7641499220425847
1783160373671090176,2.4633681774139404,-1.295620322227478,-0.4021005928516388,0.14210394024848938,-0.24714025855064392,0.3569313883781433,-0.9008449912071228,0.14064915478229523,-0.09940880537033081,-0.0610690712928772,0.20471139195086305,-0.1623658585849808,0.15236413697882345,-0.9531609784944512,-0.3649808239559086,-0.2677550256405222,-2.7681776171315904
1783160373681010176,2.4732882976531982,-0.958290159702301,-0.7052512168884277,0.17480269074440002,-0.2505640983581543,0.36747026443481445,-0.8956468105316162,0.1682124137878418,-0.16469621658325195,-0.09518265724182129,0.20541206489493433,-0.16560628540889094,0.15732495730559198,-0.9516455927316885,-0.37628750950784806,-0.2727840009648849,-2.7686664759864517
1783160373690931200,2.4832091331481934,-0.6310057640075684,-0.6029360890388489,-0.08690667152404785,-0.25616541504859924,0.37430596351623535,-0.8912206888198853,0.15968409180641174,-0.11411309242248535,-0.16973817348480225,0.20534430974282886,-0.16938583337859275,0.1603062381562828,-0.950496771252318,-0.3836482105279603,-0.279887095683081,-2.770756169008403
1783160373700851200,2.493129253387451,-0.19441471993923187,-0.5330230593681335,0.016225771978497505,-0.26152345538139343,0.3779636323451996,-0.888115406036377,0.12169191241264343,-0.11015662550926208,-0.16878461837768555,0.20537756463978896,-0.17265197743234248,0.16165886573353364,-0.9496724618628577,-0.3875957775236652,-0.2863758172230303,-2.7722061197469685
1783160373710771200,2.50304913520813,0.4833509922027588,-0.5588248372077942,0.30617398023605347,-0.26571470499038696,0.3772946298122406,-0.8871552348136902,0.16038331389427185,-0.2127591073513031,-0.15962821245193481,0.20660651117982615,-0.17494876126872483,0.16067144102644515,-0.9491529063015127,-0.3868732876379066,-0.29101014411458936,-2.770324970972095
1783160373720691200,2.5129692554473877,0.5708054304122925,-0.4529414474964142,0.4330231547355652,-0.2686052620410919,0.3734584152698517,-0.8879076838493347,0.20949271321296692,-0.3168788254261017,-0.18716555833816528,0.2092484130624998,-0.176380879497521,0.15791121913641265,-0.9487723169402346,-0.3827344049667507,-0.2937623896405862,-2.764759703148036
1783160373730612224,2.522890329360962,0.7168135046958923,-0.33023497462272644,0.5950964689254761,-0.27026158571243286,0.3689943552017212,-0.8892704248428345,0.18917638063430786,-0.3838564157485962,0.04405558109283447,0.21257556244330678,-0.17718640203257788,0.1548217633941738,-0.9483917079130998,-0.3779267840991333,-0.29504359390087176,-2.75741834388745
1783160373740532224,2.5328102111816406,0.6716657876968384,-0.10692591965198517,0.681123673915863,-0.2695855498313904,0.3642582893371582,-0.8914255499839783,0.11847776174545288,-0.4175572693347931,0.13748878240585327,0.2166065241977535,-0.1768405065613614,0.15170580396534283,-0.9480477280862531,-0.37283626408824794,-0.29367614068276554,-2.748127754892943
1783160373750452224,2.5427303314208984,0.7681702375411987,-0.08636445552110672,0.48072290420532227,-0.2682048976421356,0.3596837818622589,-0.893696665763855,0.01388666033744812,-0.2371099293231964,0.351765513420105,0.21971168287279433,-0.1759873803876417,0.14892987388421808,-0.9479320623633167,-0.36792896151946874,-0.2915552319592147,-2.7406992737759874
1783160373760372224,2.552650213241577,0.8942804932594299,0.029446609318256378,0.6154290437698364,-0.2658275067806244,0.35334131121635437,-0.8969312310218811,0.09003099799156189,-0.14972802996635437,0.2800946831703186,0.2230207900134417,-0.17439230686064494,0.1453330859178307,-0.9480122640155891,-0.3611404160538504,-0.288127282110342,-2.7324477871051296
1783160373770292224,2.562570333480835,0.589576005935669,-0.041873909533023834,0.35238438844680786,-0.26414594054222107,0.34808358550071716,-0.8994802832603455,0.09510907530784607,0.003127962350845337,0.34473174810409546,0.22601472872387648,-0.17324521586674663,0.14228830374244777,-0.9479754736553887,-0.3555260704285503,-0.28563483728099737,-2.7251521001622456
1783160373780212992,2.57249116897583,0.912286102771759,-0.1440509855747223,0.5437785387039185,-0.2633984088897705,0.3425747752189636,-0.901811420917511,0.10841488838195801,0.03201323747634888,0.3287675976753235,0.2287500841811266,-0.17249257795999898,0.13907052475931117,-0.9479341288117212,-0.34965614258804223,-0.2841722783379105,-2.7185414562867223
1783160373790133248,2.582411289215088,0.7713244557380676,0.08097173273563385,0.230352982878685,-0.2616569399833679,0.3356884717941284,-0.9049026966094971,0.09077376127243042,-0.07116210460662842,0.19402623176574707,0.23152540220000295,-0.1710276165437492,0.135270852328955,-0.9480755744123663,-0.3423360024697788,-0.28147758731107886,-2.711527222857227
1783160373800052992,2.5923311710357666,1.1185835599899292,0.1812511533498764,0.42108553647994995,-0.25990721583366394,0.3285023272037506,-0.9080387949943542,0.09645506739616394,-0.06248059868812561,0.25513046979904175,0.2334068251909248,-0.16937884953732585,0.13149681557088597,-0.948441122532202,-0.3347174713530399,-0.2787756559148732,-2.7063867947557387
1783160373809973248,2.6022512912750244,1.3243833780288696,0.4549697935581207,0.6880181431770325,-0.25450313091278076,0.31813114881515503,-0.9132473468780518,0.24788081645965576,-0.23506230115890503,0.09970974922180176,0.23708292410035695,-0.16564614155617907,0.12624451997442687,-0.9489022117483766,-0.3237575717315695,-0.27178360595738493,-2.696570482945839
1783160373819894016,2.6121721267700195,1.3552597761154175,0.2764285206794739,0.2477806955575943,-0.24971657991409302,0.3078010380268097,-0.9180959463119507,0.17621497809886932,-0.12062147259712219,0.24231469631195068,0.24018405671252366,-0.16214501416392818,0.12108270015667155,-0.9493996591179096,-0.31288100359143,-0.2655693990540392,-2.6881499326280776
1783160373829814272,2.6220922470092773,2.400209426879883,0.5706303119659424,0.23469232022762299,-0.2454013079404831,0.291331946849823,-0.9246101379394531,0.1939944475889206,-0.161601722240448,0.13348770141601562,0.24252875324320106,-0.15790979056807525,0.11295765824161165,-0.9505182397802269,-0.2956188989297067,-0.2594293316070203,-2.680786148680793
1783160373839734016,2.632012128829956,2.6275994777679443,0.2045738846063614,0.29978305101394653,-0.24067161977291107,0.26844215393066406,-0.9327464699745178,0.12731406092643738,-0.025491714477539062,-0.011574208736419678,0.24539180438473918,-0.1526191683750988,0.10165700906588736,-0.9519224008761307,-0.27177546252452867,-0.2525169301985681,-2.6717152542696403
1783160373849654272,2.641932249069214,2.670267343521118,0.5877257585525513,0.4772922992706299,-0.23569592833518982,0.24458938837051392,-0.9405442476272583,0.23226268589496613,0.18891280889511108,0.2603989839553833,0.2493722062149278,-0.14717352046673748,0.08982110863806,-0.9529353423651428,-0.24709619644856617,-0.24553882146167813,-2.66033763059827
1783160373859575296,2.651853322982788,2.901682138442993,0.7850809693336487,0.22640404105186462,-0.2281394749879837,0.21913422644138336,-0.9486477375030518,0.0634056031703949,0.18882474303245544,0.44896823167800903,0.2526708869003127,-0.1401266883220553,0.07772148117052653,-0.9541914766431145,-0.2209270337012654,-0.23600741633054823,-2.6501705015994217
1783160373869495040,2.661773204803467,2.1510074138641357,0.490597665309906,0.016482234001159668,-0.22175085544586182,0.19502988457679749,-0.9554004073143005,0.14336645603179932,0.037498801946640015,0.43710511922836304,0.25474145525239794,-0.13375523395983874,0.06640289234146253,-0.955409328847615,-0.19628792681114046,-0.2280643737137095,-2.64300720501507
1783160373879415296,2.6716933250427246,1.668755292892456,0.7545884251594543,0.3806900978088379,-0.21523551642894745,0.17727358639240265,-0.9603372812271118,0.24833184480667114,-0.08178409934043884,0.4683939814567566,0.2566672455055864,-0.12819497260445661,0.058287169412814234,-0.9561854437176951,-0.1782154661384343,-0.2204813690657142,-2.636878249089362
1783160373889335040,2.6816132068634033,0.43575721979141235,0.8402484655380249,0.02616555616259575,-0.20577998459339142,0.1670393943786621,-0.9642367362976074,0.19595332443714142,-0.3230605125427246,0.5201754570007324,0.2584076138627613,-0.12220592992026624,0.054289531791167876,-0.9567360398406076,-0.1678261005446916,-0.21025811774224126,-2.631745706540726
1783160373899256320,2.6915342807769775,-0.23233027756214142,0.7098912000656128,0.01527655590325594,-0.1985129714012146,0.16669832170009613,-0.965817928314209,0.2952842116355896,-0.2813223600387573,0.574338436126709,0.2580173030001322,-0.11854529676219293,0.05511849203448281,-0.9572544559889673,-0.16748018136473436,-0.20271553236837628,-2.63210197198099
1783160373909176064,2.7014541625976562,-0.5471369624137878,0.8263986110687256,0.19165877997875214,-0.18727530539035797,0.16880947351455688,-0.9676938056945801,0.3857005834579468,-0.22464138269424438,0.23867464065551758,0.25839183754705775,-0.11331128052641595,0.05756425795048155,-0.9576432903388123,-0.16962168022280658,-0.19116426739094697,-2.630804663837979
1783160373919096320,2.711374282836914,-0.6923023462295532,0.9406965970993042,0.12947240471839905,-0.17687398195266724,0.1747930645942688,-0.96858811378479,0.2541902959346771,0.06963746249675751,0.17542105913162231,0.2585176212564351,-0.10901445363227202,0.06182055990848401,-0.9578426909065111,-0.1756955859704717,-0.18061998054121586,-2.6303144415215747
1783160373929016064,2.7212941646575928,-0.2866360545158386,1.070053219795227,0.2518574297428131,-0.16565828025341034,0.17961150407791138,-0.969689130783081,0.10836154222488403,0.13253752887248993,0.03676682710647583,0.2589954064374833,-0.10418870906084275,0.06557546500760292,-0.9580009466292737,-0.1805915239771871,-0.16920302493467973,-2.6288731602151323
1783160373938937088,2.731215238571167,-0.5745261907577515,0.7580727338790894,-0.09446482360363007,-0.15530624985694885,0.18265269696712494,-0.9708336591720581,0.12062302231788635,0.17147327959537506,-0.027167439460754395,0.25892574065343443,-0.09951439613600709,0.06841098094399718,-0.9583185395945696,-0.18368386740970125,-0.1586280150313248,-2.628459704631735
1783160373948857088,2.7411351203918457,-1.0302667617797852,0.6585437655448914,0.09931769967079163,-0.14779743552207947,0.1905280351638794,-0.9704921245574951,0.19715963304042816,0.3110588788986206,0.1530788540840149,0.25820858766303817,-0.0968531730279672,0.07330344284690497,-0.9584228810548331,-0.19170000747140678,-0.15112999886867282,-2.6298270162977557
1783160373958777088,2.7510552406311035,-1.5649586915969849,0.6259214878082275,0.042162831872701645,-0.14045275747776031,0.20224738121032715,-0.9692105054855347,0.15366686880588531,0.09902215003967285,0.13084685802459717,0.2576380515651409,-0.09480671165746204,0.0800401888783327,-0.958242047604088,-0.20365218456433545,-0.14391278415536368,-2.6310148270511946
1783160373968697088,2.7609751224517822,-2.268437385559082,0.5561104416847229,0.17684102058410645,-0.13398943841457367,0.22083304822444916,-0.9660639762878418,-0.04171551764011383,0.05936409533023834,0.2750086784362793,0.2568332475436541,-0.09411215179825777,0.09006063024883143,-0.9576370604166184,-0.22266852895636854,-0.1378170157611488,-2.632967288225003
1783160373978618112,2.7708961963653564,-3.3107283115386963,0.6862234473228455,-0.11469459533691406,-0.12671735882759094,0.2467685043811798,-0.960753858089447,-0.08483050763607025,-0.09682038426399231,0.3044734001159668,0.25566638724845697,-0.09399622043621857,0.10386417670001323,-0.9565624844020341,-0.24934420481283567,-0.13113675265834407,-2.6357075256318736
1783160373988538368,2.7808163166046143,-3.9484267234802246,0.8446027040481567,-0.11485012620687485,-0.1195761039853096,0.2817576825618744,-0.9520053267478943,-0.188865065574646,-0.12509572505950928,0.3835849165916443,0.25285180356620446,-0.09500016854035805,0.12236134079909432,-0.9550229094401409,-0.285625531971832,-0.12495009694660437,-2.6419396099664842
1783160373998458112,2.790736198425293,-4.181962490081787,0.8999649286270142,-0.10681995749473572,-0.11135496944189072,0.31963038444519043,-0.9409763813018799,-0.12031923234462738,-0.16507411003112793,0.22326397895812988,0.24990544365858652,-0.09582213985937846,0.14258310279249248,-0.9529089740456064,-0.3253393841989193,-0.11779198761597433,-2.647987658154739
1783160374008378368,2.800656318664551,-4.364607810974121,0.8413045406341553,-0.2730667293071747,-0.10413078218698502,0.3594050705432892,-0.9273536205291748,-0.044856034219264984,0.09411665797233582,0.0880744457244873,0.24625859756030904,-0.09726293337920844,0.16389967239280953,-0.9502807763834015,-0.3676303004259053,-0.11181971296023785,-2.655272144480272
1783160374018299136,2.810577154159546,-3.762364149093628,0.9982564449310303,-0.2871430516242981,-0.09600122272968292,0.39634498953819275,-0.9130687117576599,0.052071161568164825,0.37677207589149475,-0.08757215738296509,0.2423479859222646,-0.09775752549223962,0.1841442926779404,-0.947524078131153,-0.407532347484922,-0.10475640644495433,-2.6624547121661317
1783160374028219136,2.8204972743988037,-2.9616386890411377,0.7856951355934143,-0.22235581278800964,-0.08906763792037964,0.4264807105064392,-0.9001006484031677,0.09056300669908524,0.5064569115638733,-0.3578491806983948,0.2385452585723859,-0.09784197925249866,0.200939377614397,-0.9450642335962087,-0.4405983183200132,-0.09863189117905641,-2.6692022445134502
1783160374038139136,2.8304171562194824,-2.3144593238830566,0.5664652585983276,-0.10497332364320755,-0.08303423970937729,0.44946858286857605,-0.8894286751747131,0.2555348575115204,0.42054176330566406,-0.44394534826278687,0.23587560521383108,-0.09754926750811707,0.21393881331178274,-0.9429088417647485,-0.46617035469098,-0.09308702281660111,-2.673453054854672
1783160374048059136,2.8403372764587402,-1.9608609676361084,0.415318101644516,-0.13394664227962494,-0.0788121297955513,0.4678818881511688,-0.8802699446678162,0.3686223030090332,0.3658430874347687,-0.47278785705566406,0.233812747686153,-0.09762339593998458,0.2243539299481709,-0.9409923975849943,-0.48689261639683096,-0.0892936874334033,-2.6766996030193826
1783160374057979136,2.850257158279419,-1.9635928869247437,0.2874489724636078,-0.2518009841442108,-0.07404438406229019,0.4844017028808594,-0.8717066049575806,0.4332515597343445,0.24769970774650574,-0.46981555223464966,0.2320215785443552,-0.09720065104243346,0.23387760192871188,-0.9391587497982791,-0.5056791339988028,-0.08473845464561985,-2.6790932249915573
1783160374067900160,2.860178232192993,-1.843127965927124,0.10211639851331711,-0.19499601423740387,-0.07284695655107498,0.5005071759223938,-0.8626620769500732,0.4557662904262543,0.0968591570854187,-0.45914578437805176,0.22988862235607802,-0.09842819888880226,0.24285973757608906,-0.9372737852097511,-0.524184512358126,-0.08424450968557096,-2.6831537671014596
1783160374077820160,2.870098114013672,-1.8052542209625244,0.11375977843999863,-0.24441799521446228,-0.07266519218683243,0.5158675909042358,-0.853580892086029,0.4135007858276367,0.0005355477333068848,-0.43854856491088867,0.22796881672549374,-0.10011261485767216,0.25137026224859493,-0.9353184828380795,-0.5420201170341111,-0.08492506917845849,-2.687056797530983
1783160374087740160,2.8800182342529297,-1.6662769317626953,-0.06420276314020157,-0.3170863389968872,-0.07365649193525314,0.5303487777709961,-0.8445737957954407,0.26541370153427124,0.034577369689941406,-0.3828431963920593,0.22582431207860376,-0.10220181274051958,0.2593605481737603,-0.9334292779040487,-0.5590119006317029,-0.08699133509460034,-2.691837633696223
1783160374097660160,2.8899381160736084,-1.3697798252105713,0.04494928568601608,-0.4822327494621277,-0.07562433183193207,0.5427755117416382,-0.8364661931991577,0.14769159257411957,0.10531103610992432,-0.3237205743789673,0.22324512602680266,-0.10435506904316359,0.2662271931570506,-0.931876988823112,-0.5737382548854368,-0.09016417610702986,-2.697940824551393
1783160374107581184,2.8998591899871826,-1.0760184526443481,-0.06120485067367554,-0.5855311751365662,-0.07816854119300842,0.5525371432304382,-0.829814612865448,0.09498373419046402,0.25482064485549927,-0.2633402347564697,0.2201040874872919,-0.10622826813128275,0.2716767095114623,-0.9308390870128779,-0.5854051944896803,-0.09392284254101596,-2.705530098176504
1783160374117501184,2.9097793102264404,-0.48559635877609253,-0.0906752347946167,-0.5666646361351013,-0.08192754536867142,0.5585398077964783,-0.8254218101501465,0.15768742561340332,0.37946373224258423,-0.2862725257873535,0.21712034665696905,-0.10819003531717102,0.27492545078616254,-0.9303599935618868,-0.5926243662741922,-0.09893133371835508,-2.7132808126179198
1783160374127421184,2.919699192047119,0.09361372888088226,-0.03843386471271515,-0.5133289694786072,-0.0852338895201683,0.5596710443496704,-0.8243200182914734,0.1689588725566864,0.3681091070175171,-0.3731134533882141,0.21459841750521896,-0.109315996447594,0.2754814131498754,-0.9306489622030493,-0.5939888215845237,-0.10303288077142168,-2.7198932627068504
1783160374137341184,2.929619312286377,0.5732041001319885,-0.3396533131599426,-0.4570636451244354,-0.08948896080255508,0.5563857555389404,-0.8260911703109741,0.20392988622188568,0.24044346809387207,-0.4319044351577759,0.2128094358077167,-0.11049079339487368,0.2733975302301383,-0.9315351194885808,-0.5900297808553727,-0.10790740690547207,-2.7252207004804214
1783160374147262208,2.939540147781372,0.8469283580780029,-0.31185364723205566,-0.3741091191768646,-0.09426299482584,0.5501592755317688,-0.8297224044799805,0.2139224261045456,0.0903283953666687,-0.42075061798095703,0.21168759914596927,-0.1117038748667909,0.26955713160451883,-0.9327644288851907,-0.582554940383408,-0.11312285604301973,-2.729207619204445
1783160374157182208,2.94946026802063,0.9390103220939636,-0.37678536772727966,-0.35329678654670715,-0.09917990118265152,0.5422596335411072,-0.8343367576599121,0.19332662224769592,-0.06037181615829468,-0.3772416114807129,0.2109528129407245,-0.1128700874576809,0.26474886435360756,-0.9341666375183055,-0.5731241521328049,-0.11831752933451962,-2.732306606272098
1783160374167102208,2.9593801498413086,1.1983097791671753,-0.39107030630111694,-0.3031339943408966,-0.1041669175028801,0.5331583619117737,-0.8395780920982361,0.208552286028862,-0.09729105234146118,-0.26613473892211914,0.21043442082575847,-0.11397302655019328,0.25927030257746175,-0.9356850386780536,-0.5623294364033401,-0.12343974005935832,-2.73484938670648
1783160374177022208,2.9693002700805664,1.7174755334854126,-0.3551121950149536,-0.30245792865753174,-0.10903923213481903,0.520679771900177,-0.8467603325843811,0.20175163447856903,-0.102070152759552,-0.2114977240562439,0.21038377482910942,-0.11467606734687617,0.25193101829187864,-0.9376133738661361,-0.5476469511822774,-0.12806746871088698,-2.7361567379198033
1783160374186942976,2.9792211055755615,2.5049564838409424,-0.25267690420150757,-0.18608951568603516,-0.1128130778670311,0.5028097033500671,-0.8570038676261902,0.1409350335597992,0.06550389528274536,-0.15630179643630981,0.21071634484121254,-0.11417560598763093,0.24178916780332046,-0.9402662496487186,-0.5268462116995185,-0.1308840719715276,-2.7360169201547557
1783160374196863232,2.9891412258148193,3.1606032848358154,-0.45159852504730225,-0.17002469301223755,-0.11622557789087296,0.4779483675956726,-0.870664656162262,0.13478025794029236,0.1780422031879425,-0.18922603130340576,0.21187378263615586,-0.11276148741679394,0.2279309291699594,-0.9436322547450454,-0.4983175352084846,-0.132706079034092,-2.733671452254695
1783160374206782976,2.999061107635498,2.8535168170928955,-0.4251461625099182,-0.1205010861158371,-0.12122088670730591,0.4513247609138489,-0.8840879201889038,0.09331255406141281,0.14817780256271362,-0.04820883274078369,0.21334402289697313,-0.11202536640373209,0.21308765488012124,-0.9468518095401262,-0.4682493272990306,-0.13626436436763564,-2.7309022666458027
1783160374216703232,3.008981227874756,2.311414957046509,-0.32444489002227783,-0.2577180862426758,-0.12499351799488068,0.4280967116355896,-0.8950473666191101,0.07955283671617508,-0.0241813063621521,0.15031170845031738,0.21436127776302624,-0.11105273316488375,0.20035866452091997,-0.9495119562373391,-0.44238568852125143,-0.1387528162553446,-2.728767608118412
1783160374226624256,3.01890230178833,1.4074883460998535,-0.24532397091388702,-0.28364768624305725,-0.1284075528383255,0.4111573100090027,-0.9024750590324402,0.0713549554347992,-0.15665599703788757,0.19414681196212769,0.21432946629801844,-0.11053990516210589,0.1911633159364832,-0.9514727866769307,-0.4237232788602274,-0.1413351154066456,-2.728915508090249
1783160374236544256,3.028822183609009,0.22072520852088928,-0.004862172529101372,-0.3185925781726837,-0.13090381026268005,0.40338730812072754,-0.9056174159049988,0.07398854196071625,-0.19927048683166504,0.2851950526237488,0.21358673368054934,-0.11064103110374864,0.18694883534849907,-0.9524649039618873,-0.4152157112630976,-0.1435522227496251,-2.730686730421128
1783160374246464256,3.0387423038482666,-0.3974549174308777,0.09196503460407257,-0.2573119103908539,-0.1314782351255417,0.4040730595588684,-0.9052283763885498,0.04074949026107788,-0.1754353940486908,0.4102028012275696,0.21199728157301345,-0.11070801634986825,0.1874287651784278,-0.9527178875239791,-0.4159652642378976,-0.1442345730158033,-2.734179247984288
1783160374256384256,3.0486621856689453,-0.9165951609611511,0.21321800351142883,-0.29254013299942017,-0.13116741180419922,0.4094622731208801,-0.9028487205505371,0.12265300750732422,-0.20302611589431763,0.3301100730895996,0.21039691616559142,-0.11092828594961673,0.19044833483381765,-0.952448185860258,-0.42186459091294437,-0.1442723224711855,-2.7377156857881166
1783160374266305280,3.0585832595825195,-1.2240760326385498,0.35323768854141235,-0.3396298587322235,-0.12971319258213043,0.41895586252212524,-0.8986937403678894,0.04905521869659424,-0.10410603880882263,0.2956663966178894,0.2078690848288159,-0.11089916963672032,0.19584303260610142,-0.9519124937995906,-0.43229510766939905,-0.14334529628509823,-2.743129563332184
1783160374276225024,3.0685031414031982,-1.2932668924331665,0.2608323395252228,-0.39655083417892456,-0.12804566323757172,0.42952170968055725,-0.893932580947876,0.10679017007350922,-0.15429893136024475,0.09260201454162598,0.20505232389279165,-0.11081744194344265,0.20187424921529906,-0.9512727975475501,-0.4439630773442928,-0.14227088364548474,-2.74914027397452
1783160374286145280,3.078423261642456,-1.2781531810760498,0.192156583070755,-0.3651044964790344,-0.12745796144008636,0.44062376022338867,-0.888597309589386,0.21667610108852386,-0.062495678663253784,0.006547749042510986,0.20238110663190828,-0.11136061823243491,0.20808690239625732,-0.9504422689476598,-0.45629338763337784,-0.14246552221450953,-2.7551241717632933
1783160374296065024,3.0883431434631348,-1.1409268379211426,0.3191736340522766,-0.41360488533973694,-0.12658563256263733,0.4507350027561188,-0.8836368322372437,0.15789666771888733,0.043924421072006226,-0.05001795291900635,0.19964166684922643,-0.11159579483808213,0.2138409715674335,-0.9497166560064036,-0.46758855843626496,-0.14228719834873668,-2.76114218573897
1783160374305986048,3.098264217376709,-1.1969269514083862,0.2562548816204071,-0.5387976765632629,-0.1262187957763672,0.46033310890197754,-0.8787276744842529,0.0814952701330185,0.07608962059020996,-0.03332066535949707,0.19640182741570014,-0.11188660661330917,0.21935716146323894,-0.9490997048534735,-0.4783703845712603,-0.14266233823313332,-2.7683275076941074
1783160374315906304,3.108184337615967,-0.9914262294769287,0.2760811150074005,-0.4279429614543915,-0.12570655345916748,0.4693140685558319,-0.8740378618240356,0.14642798900604248,0.1334996521472931,-0.033783793449401855,0.19326163912512206,-0.11202237234115275,0.22457083008794923,-0.9485087873702696,-0.48851382292448386,-0.14284325158397465,-2.775247390912564
1783160374325826048,3.1181042194366455,-0.7534730434417725,0.20481199026107788,-0.5072000026702881,-0.1256464421749115,0.47630220651626587,-0.8702581524848938,0.170827716588974,0.12571805715560913,-0.0855218768119812,0.19023537275466126,-0.1121438485013589,0.22868032412715933,-0.9481243078286471,-0.4964444222811764,-0.14338753115047206,-2.781963243622777
1783160374335746048,3.128024101257324,-0.19777117669582367,0.2574315667152405,-0.38661107420921326,-0.125727578997612,0.47972068190574646,-0.8683666586875916,0.1408490538597107,0.08630409836769104,-0.12166935205459595,0.18757109709470657,-0.11196472016804297,0.2308258631319685,-0.9481562861095629,-0.5003363393686409,-0.14378710708341436,-2.7877816412301706
1783160374345667072,3.1379451751708984,0.10655063390731812,0.3884891867637634,-0.4330744445323944,-0.12442456185817719,0.47961533069610596,-0.8686124682426453,0.08113537728786469,0.03973281383514404,-0.09949666261672974,0.18546552382564402,-0.11076969749949402,0.23113595948265234,-0.9486351774218655,-0.5002162718632183,-0.14227731930695456,-2.7918510458436985
1783160374355587328,3.1478652954101562,0.32246774435043335,0.34820520877838135,-0.37629982829093933,-0.12331420183181763,0.4772191345691681,-0.8700893521308899,-0.005485229194164276,0.05528205633163452,-0.06013214588165283,0.18305455301449636,-0.10932259880701778,0.23022573396921145,-0.9494923372937252,-0.49748754313620636,-0.14078826620532428,-2.796498203168196
1783160374365507072,3.157785177230835,0.3382192850112915,0.28979673981666565,-0.48771610856056213,-0.12235500663518906,0.47371384501457214,-0.8721378445625305,0.07816554605960846,0.016108542680740356,-0.018151402473449707,0.1809615425990488,-0.10790559361025155,0.2286644899713523,-0.9504324915925576,-0.49350304644671744,-0.13938348733389583,-2.8004602110433763
1783160374375427328,3.1677052974700928,0.19478195905685425,0.22501443326473236,-0.4795408844947815,-0.122173972427845,0.47073349356651306,-0.8737754225730896,0.1163298562169075,0.012787014245986938,-0.0058174729347229,0.1784924140742985,-0.10686983900335602,0.22735681677415162,-0.95132970428477,-0.4901219641511028,-0.13892241661483748,-2.8054521564677284
1783160374385348096,3.177626132965088,-0.01960596814751625,0.3602138161659241,-0.43957507610321045,-0.12158732861280441,0.4693349599838257,-0.8746091723442078,0.15613321959972382,0.024958252906799316,0.012029826641082764,0.17610085312563237,-0.10583577537240399,0.22692332020203507,-0.9519943119337788,-0.4885374856292088,-0.13813371125255827,-2.8102465885590973
1783160374395268096,3.1875462532043457,-0.07731021195650101,0.3295576274394989,-0.43043041229248047,-0.12057013064622879,0.4693794846534729,-0.8747261166572571,0.08774847537279129,-0.0226936936378479,-0.03086775541305542,0.17352697238997844,-0.10470475533802492,0.22731885066864083,-0.9524975132265158,-0.4885879013415917,-0.13697446830456003,-2.815377392403755
1783160374405188096,3.1974661350250244,-0.11410444229841232,0.4046132266521454,-0.41848668456077576,-0.11925742030143738,0.46960124373435974,-0.8747870326042175,0.13974997401237488,-0.08138713240623474,-0.11032038927078247,0.1711879583673907,-0.10349700144690469,0.22780441990271677,-0.9529366453732367,-0.4888390649999258,-0.1354921184727067,-2.819940430673155
1783160374415108096,3.2073862552642822,-0.09291806071996689,0.367637038230896,-0.40171360969543457,-0.11751306802034378,0.47020936012268066,-0.8746964335441589,0.07854212075471878,0.002599477767944336,-0.10737448930740356,0.16875270554162516,-0.10208578252930914,0.2285394496175458,-0.9533471069227956,-0.48952797231462974,-0.13354761785373703,-2.8246036116507267
1783160374425028096,3.217306137084961,0.2244202047586441,0.2731398344039917,-0.46669501066207886,-0.11665059626102448,0.4691866636276245,-0.8753607869148254,0.11687948554754257,0.04091465473175049,-0.15451592206954956,0.16633889094488213,-0.10095246432480297,0.22831602563633624,-0.9539453551282778,-0.48836955291133166,-0.13247950356673302,-2.829378647148786
1783160374434949120,3.227227210998535,0.5137704014778137,0.33256927132606506,-0.3982456922531128,-0.11586455255746841,0.4654184579849243,-0.8774742484092712,0.07767181098461151,0.040974974632263184,-0.15229564905166626,0.16409526419328943,-0.09960752717761638,0.22658600606849105,-0.9548873409115223,-0.4841073453716387,-0.1312837711524251,-2.833678704685689
1783160374444869376,3.237147331237793,0.8979031443595886,0.2982661724090576,-0.4388405382633209,-0.11501171439886093,0.4587983191013336,-0.8810654878616333,0.03165294975042343,0.03253468871116638,-0.1093519926071167,0.16213104452240065,-0.09800578802855411,0.22329826238991185,-0.9561622841697526,-0.47664229954544934,-0.12980311879284798,-2.8372350625980483
1783160374454789120,3.2470672130584717,1.0464237928390503,0.21116212010383606,-0.3362242579460144,-0.1144629493355751,0.44976934790611267,-0.8857797384262085,0.005805104970932007,-0.03102242946624756,-0.132515549659729,0.16040227306509103,-0.09638638305520547,0.2186773544319487,-0.9576852890377157,-0.46650708934644186,-0.1285106580476461,-2.840265268672805
1783160374464709376,3.2569873332977295,1.296451210975647,0.1088956668972969,-0.2566918730735779,-0.11430547386407852,0.4390393793582916,-0.8911670446395874,0.044527024030685425,-0.09618964791297913,-0.1290661096572876,0.15947099292811526,-0.09500011071635202,0.21305271071350687,-0.9592458754587895,-0.45452923133947276,-0.12756838781166752,-2.8416529422611414
1783160374474630144,3.2669081687927246,1.3065271377563477,0.12901964783668518,-0.34179505705833435,-0.11467345803976059,0.42696312069892883,-0.8969684839248657,-0.03811278194189072,-0.13257533311843872,-0.099933922290802,0.1586752846547456,-0.09380065871079508,0.2066813713476721,-0.9608883057705487,-0.4411317203433208,-0.12715581231478035,-2.8428252049294
1783160374484550656,3.2768287658691406,1.3165286779403687,0.17802155017852783,-0.3505707085132599,-0.11468080431222916,0.4151197075843811,-0.9025098085403442,-0.12132687866687775,-0.0937543511390686,-0.04362666606903076,0.1573183596163027,-0.0923475758872293,0.2005418357286579,-0.9625516910841324,-0.4280743761863847,-0.12639141150660044,-2.8450878494489578
1783160374494470912,3.2867488861083984,1.497089147567749,0.0780891701579094,-0.17628547549247742,-0.11444981396198273,0.40208950638771057,-0.908419132232666,-0.00849025696516037,-0.12975063920021057,-0.10737371444702148,0.1567054747777788,-0.09083980499622914,0.19374872875032265,-0.9641851802123121,-0.413797809813627,-0.12532757450780785,-2.8456971236283897
1783160374504390656,3.296668767929077,1.5167109966278076,0.08283385634422302,-0.35829710960388184,-0.11486055701971054,0.3880816400051117,-0.9144395589828491,-0.024742111563682556,-0.0768786370754242,-0.04298841953277588,0.1560711356930782,-0.08958555342816575,0.18642599327000794,-0.9658476227241306,-0.39854918404837836,-0.12495319854604725,-2.8464491117509954
1783160374514311680,3.3065898418426514,1.5739814043045044,-0.012825176119804382,-0.2959458827972412,-0.11550246179103851,0.37389248609542847,-0.9202519059181213,-0.07245530933141708,-0.06922024488449097,0.022150099277496338,0.1550881313306718,-0.08839253964072093,0.1790552852481426,-0.967509025825986,-0.383202355571577,-0.12485887262569981,-2.847954883823451
1783160374524231680,3.31650972366333,1.4259897470474243,-0.0341871902346611,-0.10274339467287064,-0.1165575310587883,0.3594493269920349,-0.9258566498756409,0.0185045525431633,-0.1841258406639099,0.03025728464126587,0.1547882217983317,-0.08753675922432617,0.1714905109268709,-0.9690040679113268,-0.367677709634378,-0.12523273342459515,-2.8481051258235346
1783160374534151680,3.326429843902588,0.9111610054969788,0.24784798920154572,-0.15373177826404572,-0.11590831726789474,0.34838780760765076,-0.9301565289497375,-0.06496936827898026,-0.20698460936546326,0.20861417055130005,0.15471964297347884,-0.08618360998538879,0.16581349690496505,-0.970123711511195,-0.35585060352882536,-0.12397257548196818,-2.847608836023214
1783160374544071680,3.3363497257232666,0.49253395199775696,0.2948152422904968,-0.21881596744060516,-0.11375033855438232,0.34184661507606506,-0.9328460693359375,-0.17384731769561768,-0.29607024788856506,0.273712158203125,0.15381342312953933,-0.08434592048457833,0.16267370737535505,-0.9709606478194388,-0.3488811821523028,-0.12133998520171269,-2.8487858429970836
1783160374553992704,3.346270799636841,0.2020399272441864,0.3637864291667938,-0.06967782229185104,-0.11119074374437332,0.3383360803127289,-0.9344331622123718,-0.11224371194839478,-0.3805266320705414,0.18328875303268433,0.15303296614943823,-0.08260690233296746,0.16111959014678895,-0.97149242074702,-0.34514813516050824,-0.11843582559458249,-2.8497809348578627
1783160374563912960,3.3561909198760986,-0.5175581574440002,0.46469441056251526,-0.12009838223457336,-0.10770834982395172,0.33943653106689453,-0.9344419240951538,-0.12878762185573578,-0.3360185921192169,0.11296981573104858,0.15219726170814102,-0.08080549080677674,0.16201696431529147,-0.9716259637468333,-0.34631779424981773,-0.11475845180673275,-2.85092810648135
1783160374573832704,3.3661108016967773,-0.9100629687309265,0.350019633769989,-0.11339260637760162,-0.10415869951248169,0.3462819457054138,-0.932330310344696,-0.08166282624006271,-0.3016347289085388,0.23166197538375854,0.15095551856503042,-0.07940674046609775,0.16591993485463313,-0.9712762325604148,-0.3536049352279729,-0.1112573305866461,-2.8531182690617976
1783160374583752960,3.376030921936035,-0.7865290641784668,0.31609630584716797,0.15474510192871094,-0.10107553005218506,0.35448214411735535,-0.9295838475227356,0.02114998549222946,-0.35341402888298035,0.1575043797492981,0.15032630597552676,-0.07846180480996066,0.17044592121717936,-0.970666836104794,-0.36236019890464594,-0.1083065346442656,-2.85415507458063
1783160374593673728,3.3859517574310303,-0.6138028502464294,0.40808290243148804,0.23856261372566223,-0.09688097983598709,0.3614170253276825,-0.9273574352264404,0.046221792697906494,-0.2570164203643799,0.14781641960144043,0.15083342446307776,-0.077043162088771,0.17431475561484192,-0.9700144747214999,-0.3697872167597418,-0.10409235566013675,-2.852556660271352
1783160374603593728,3.395871877670288,0.005437999963760376,0.5505737066268921,0.15661926567554474,-0.0918564647436142,0.3643105626106262,-0.9267362952232361,0.0835709497332573,-0.05571684241294861,0.23081350326538086,0.15118552971357713,-0.07482126173817208,0.17616362261490118,-0.9697994875878699,-0.3728923859112622,-0.09879553505926413,-2.8509461496300323
1783160374613513728,3.405791759490967,0.6094440817832947,0.5970748662948608,0.2730138301849365,-0.08488626778125763,0.36161285638809204,-0.9284559488296509,0.20906229317188263,0.05856841802597046,0.21718275547027588,0.15181003440257518,-0.07117013179827648,0.17523365786762735,-0.9701451711820828,-0.3699972352710407,-0.09117387054890196,-2.848220228444961
1783160374623433728,3.4157118797302246,1.2855721712112427,0.4375075697898865,0.22645537555217743,-0.07916072010993958,0.3528803884983063,-0.9323137998580933,0.3038006126880646,0.11300095915794373,0.08665645122528076,0.15285569069804705,-0.06769233956093237,0.17105802988476973,-0.9709747612172318,-0.360647741005148,-0.08470464221881883,-2.844756535616573
1783160374633354752,3.4256327152252197,1.6273956298828125,0.5058861374855042,0.019930562004446983,-0.07402113825082779,0.33931002020835876,-0.9377577304840088,0.3266914486885071,0.13488736748695374,0.01693558692932129,0.15366703904753393,-0.06404703865216026,0.16437490265472157,-0.9722475132061891,-0.3461833036763984,-0.07877085528549807,-2.8418585525032887
1783160374643274752,3.4355528354644775,2.004167318344116,0.43648338317871094,0.007910385727882385,-0.06930439174175262,0.3222293257713318,-0.9441213607788086,0.21063129603862762,0.04105192422866821,-0.053940773010253906,0.15383812205201217,-0.06021415166549463,0.15592809897268747,-0.9738554579033488,-0.3280834791090958,-0.07327480372818725,-2.840380074171198
1783160374653194752,3.4454727172851562,2.102762222290039,0.2987058758735657,-0.04338742047548294,-0.06552644073963165,0.3029586970806122,-0.9507482647895813,0.20169587433338165,-0.16019749641418457,-0.12501156330108643,0.1542106173196718,-0.056716825522015464,0.1463183357011409,-0.9754964328514563,-0.30779573599325083,-0.06881209590764308,-2.8386976839213642
1783160374663114752,3.455392837524414,2.224071741104126,0.2300461232662201,-0.09413448721170425,-0.06332533806562424,0.2822222113609314,-0.9572567939758301,0.15423721075057983,-0.1985887885093689,-0.07548856735229492,0.15731806834939044,-0.05428335328999772,0.13573847797907898,-0.9766674694935634,-0.28610970173912254,-0.06605668332222249,-2.831701535452533
1783160374673035776,3.4653139114379883,2.500612735748291,0.23338951170444489,-0.03682149946689606,-0.061152566224336624,0.2599416673183441,-0.9636859893798828,0.06856833398342133,-0.09124049544334412,-0.023542404174804688,0.16052667171566679,-0.051699695558211516,0.1244353089105694,-0.9777904446736906,-0.2629617981587409,-0.06337196999673339,-2.8245333290195456
1783160374682955776,3.475233793258667,2.8682098388671875,0.3101988136768341,-0.06483209878206253,-0.05852658674120903,0.2340003252029419,-0.9704733490943909,-0.025228898972272873,0.0048454999923706055,-0.05607694387435913,0.16374157703511527,-0.04852268203014515,0.11139517631576834,-0.9789919677541212,-0.23619022035126827,-0.060234308261342046,-2.8172987312439575
1783160374692875776,3.485153913497925,3.252284526824951,0.3191685974597931,-0.11369630694389343,-0.05518229305744171,0.20444762706756592,-0.9773208498954773,-0.03106037527322769,0.1388903707265854,0.01322484016418457,0.1667222182653703,-0.04459452247614763,0.09670002234722899,-0.9802367420529079,-0.20589937981654163,-0.05640293456376222,-2.810478563674967
