time,seconds_elapsed,rotationRateX,rotationRateY,rotationRateZ,gravityX,gravityY,gravityZ,accelerationX,accelerationY,accelerationZ,quaternionW,quaternionX,quaternionY,quaternionZ,pitch,roll,yaw
1783166224181475072,0.27367520332336426,2.3142287731170654,0.8720762133598328,-1.6620699167251587,-0.04237981140613556,0.5204245448112488,-0.8528553247451782,0.008688408881425858,0.01096278429031372,0.07305490970611572,0.58929849231591,-0.18292707303074296,0.2002748485592748,-0.7610222430986664,-0.5473480318097736,-0.04965083465570985,-1.8377238347617422
1783166224191395072,0.28359508514404297,2.757685661315918,0.9168083667755127,-1.6488759517669678,-0.04361281543970108,0.4968773126602173,-0.8667242527008057,0.06035169959068298,0.0609535276889801,-0.005391836166381836,0.5844058178330372,-0.17352834055434696,0.19111723508325326,-0.7693062208926695,-0.5199967291059101,-0.050276731926707716,-1.8556690083536522
1783166224201314304,0.2935142517089844,3.416795492172241,0.8539226055145264,-1.6049503087997437,-0.04390477016568184,0.46831950545310974,-0.8824676871299744,0.09886690974235535,0.10034504532814026,-0.11033016443252563,0.5799781619052755,-0.16242561128309252,0.17995574577536244,-0.777727021372686,-0.4873878588720391,-0.049711277158982284,-1.872423501100588
1783166224211234048,0.3034341335296631,4.243498802185059,0.745177686214447,-1.5331273078918457,-0.043748028576374054,0.43282678723335266,-0.9004149436950684,0.12104905396699905,0.21231481432914734,-0.20181894302368164,0.5762087695460488,-0.14933346750813023,0.16580725438381094,-0.7862511315166002,-0.4476261562799789,-0.04854834110147583,-1.8877689510944635
1783166224221153280,0.3133533000946045,5.351949214935303,0.5555251836776733,-1.402808427810669,-0.043157126754522324,0.3882451057434082,-0.9205450415611267,0.19392922520637512,0.2721095085144043,-0.2679772973060608,0.5446367764546829,-0.1284063721116773,0.1524443378044415,-0.8146430251015295,-0.3987265461321803,-0.046847840766395726,-1.972436922205081
1783166224231073024,0.3232731819152832,6.389189720153809,0.2977367639541626,-1.391078233718872,-0.04185720905661583,0.3332044780254364,-0.941925048828125,0.23234793543815613,0.1803758442401886,-0.2619476318359375,0.5344748989554226,-0.1095510825661921,0.13052220944428186,-0.827827963902013,-0.33970024034253316,-0.044408725781321004,-2.0026086782782673
1783166224240992000,0.3331921100616455,7.155791282653809,0.066536545753479,-1.4821200370788574,-0.037504784762859344,0.26987287402153015,-0.9621652960777283,0.25996267795562744,0.05927446484565735,-0.20705467462539673,0.5262822905245481,-0.088422748291676,0.10535074312677534,-0.8391123796056907,-0.2732610090786649,-0.03895984177199214,-2.0266056281530602
1783166224250912256,0.3431122303009033,7.756183624267578,-0.14162138104438782,-1.5517082214355469,-0.034656986594200134,0.19874699413776398,-0.9794378876686096,0.28754088282585144,-0.008652999997138977,-0.05507749319076538,0.5164878356394375,-0.06674530765773205,0.07632909818525582,-0.8502701589489751,-0.2000792371719749,-0.035369810635346624,-2.053399528660734
1783166224260831232,0.3530311584472656,8.146998405456543,-0.33395326137542725,-1.5735530853271484,-0.033570546656847,0.12125331908464432,-0.992053747177124,0.2939160168170929,0.044701263308525085,0.1391180157661438,0.506779848175231,-0.045335936186848856,0.04379241814872079,-0.8597680269438525,-0.12155242121928704,-0.033826535572028894,-2.078417150878151
1783166224270751232,0.36295127868652344,8.074673652648926,-0.4575706422328949,-1.6877660751342773,-0.03238233923912048,0.042217474430799484,-0.9985835552215576,0.24891981482505798,0.15159966051578522,0.4076411724090576,0.4959151843911211,-0.02453885996289423,0.01029945178760033,-0.8679630469373049,-0.042230024512779504,-0.03241691194540809,-2.10409568443621
1783166224280670208,0.37287020683288574,8.27930736541748,-0.7178869247436523,-1.3294588327407837,-0.034877896308898926,-0.03867332637310028,-0.9986430406570435,0.3669396638870239,0.20476524531841278,0.46757614612579346,0.48410326242839175,-0.005895565066676218,-0.025371758199640475,-0.874623105605981,0.038682973971709604,-0.03491109922032708,-2.1298656317328257
1783166224290589952,0.38279008865356445,7.786842346191406,-0.9031516909599304,-1.1853797435760498,-0.04022068530321121,-0.1180814579129219,-0.9921890497207642,0.3514694571495056,0.1443113088607788,0.6774307489395142,0.4720546916238753,0.010226336574926158,-0.06165151123956805,-0.8793513298878077,0.11835759945101093,-0.04051513808184925,-2.1538536142097224
1783166224300509184,0.39270925521850586,7.19036865234375,-0.9995304346084595,-1.0550163984298706,-0.04678060859441757,-0.19125227630138397,-0.9804254770278931,0.34702780842781067,-0.18646377325057983,0.7111536860466003,0.46026188639297677,0.023607938070058076,-0.09607247315608557,-0.8822538034977041,0.19243781689031003,-0.04767843806587015,-2.1752946784323193
1783166224310429184,0.40262913703918457,6.870423316955566,-1.0039403438568115,-0.8643528819084167,-0.05329505354166031,-0.2592211961746216,-0.9643464088439941,0.3852347433567047,-0.6207684278488159,0.6287446022033691,0.4478585448773237,0.03511466750601559,-0.12881673073453104,-0.884079203444024,0.2622157453641381,-0.05520930189996072,-2.196512240993914
1783166224320348160,0.412548303604126,5.959679126739502,-0.3429512083530426,-1.2053767442703247,-0.05703432112932205,-0.3212781846523285,-0.9452657699584961,0.38619691133499146,-0.8679612874984741,0.4901723861694336,0.43688969078642426,0.04623274238951896,-0.15883840533010227,-0.8841721175204177,0.32707893156030776,-0.060263747856536445,-2.2137756767317915
1783166224330268160,0.4224681854248047,5.562341690063477,-1.1907670497894287,-0.9951126575469971,-0.060697540640830994,-0.3748451769351959,-0.9250982999801636,0.4255352020263672,-0.891802191734314,0.3433569669723511,0.425358790157156,0.05494860197945324,-0.1855572392798432,-0.8840922531060561,0.38422976974917517,-0.06551807742376133,-2.231976490297761
1783166224340187136,0.432387113571167,5.078297138214111,-1.0414893627166748,-0.9485074281692505,-0.06549366563558578,-0.4251267611980438,-0.9027612209320068,0.3891783654689789,-0.6406385898590088,0.27411437034606934,0.4137806947484809,0.06204700980938902,-0.21158818304775634,-0.8832701437836306,0.4391019259082098,-0.07242128425192808,-2.2492203671448885
1783166224350107136,0.4423072338104248,4.510849952697754,-1.3118548393249512,-0.7427760362625122,-0.0720987543463707,-0.4678628146648407,-0.8808553814888,0.4610910713672638,-0.4092886447906494,0.37151700258255005,0.40375461379620237,0.06663547304160676,-0.2348021231489038,-0.8817084935747952,0.48687104825376476,-0.08166878914597657,-2.2624524202507827
1783166224360026112,0.4522261619567871,5.065421104431152,-1.3088947534561157,-0.5108869075775146,-0.07967545837163925,-0.5102126002311707,-0.856349766254425,0.36910414695739746,-0.21615153551101685,0.31354886293411255,0.39372389895492194,0.07047423550572528,-0.25857012024852877,-0.8792930470523446,0.5354319668480323,-0.09277370852344395,-2.2741265466284273
1783166224369946368,0.4621462821960449,5.169954299926758,-1.3280891180038452,-0.49299630522727966,-0.08709415793418884,-0.5542461276054382,-0.8277837038040161,0.26124274730682373,0.09065359830856323,0.3486882448196411,0.3843848327580693,0.07485063522327043,-0.2837349716695387,-0.8752943609091489,0.587456994114824,-0.10482799380795363,-2.2822704447912905
1783166224379865088,0.4720652103424072,5.177412033081055,-1.5049257278442383,-0.5437915325164795,-0.09489782899618149,-0.596932590007782,-0.7966592311859131,0.22211036086082458,0.21810263395309448,0.3493783473968506,0.3751692860344451,0.07867529413361757,-0.30899932616569636,-0.8703893797236842,0.6396723112284316,-0.11856106178286124,-2.2883390031483537
1783166224389785088,0.48198509216308594,4.9878129959106445,-1.2516990900039673,-0.6465216875076294,-0.10112540423870087,-0.6371407508850098,-0.7640846371650696,0.15077751874923706,0.21567773818969727,0.4067237973213196,0.3663445206335975,0.08274115324405436,-0.33333403393795485,-0.8647739654256347,0.690782808316432,-0.13158370790709217,-2.292767378653548
1783166224399704320,0.49190425872802734,4.888207912445068,-0.971908688545227,-0.6353577375411987,-0.10468392819166183,-0.6748388409614563,-0.7305024266242981,0.17910104990005493,0.1525152325630188,0.46660172939300537,0.357197518482604,0.08733918026070785,-0.35653982391206407,-0.8588720106751547,0.7407462795703987,-0.1423349523499253,-2.297984886948773
1783166224409624064,0.501824140548706,4.808082580566406,-0.9574722647666931,-0.6825598478317261,-0.10654371231794357,-0.7101176977157593,-0.6959750652313232,0.22672192752361298,0.08388173580169678,0.46324801445007324,0.3492452693505239,0.09270363899717982,-0.3787063719111711,-0.8520652695999159,0.7896653751325696,-0.15190621736396712,-2.3001996667384796
1783166224419543296,0.5117433071136475,4.616300106048584,-0.9018753170967102,-0.8696714043617249,-0.10677745193243027,-0.742992639541626,-0.660727322101593,0.23705700039863586,0.05509591102600098,0.459860622882843,0.34033625101425397,0.09791381602819124,-0.40006153111115206,-0.8453017216231651,0.8375306382401879,-0.16022070882841447,-2.3046295298293074
1783166224429463040,0.5216631889343262,4.628017902374268,-0.8094944953918457,-1.0273569822311401,-0.10464157164096832,-0.7737076878547668,-0.6248412728309631,0.23688949644565582,0.08706218004226685,0.44173580408096313,0.33079172496436543,0.10351744389038783,-0.42055142556109415,-0.8384494748981924,0.8846727023495904,-0.16592926582747006,-2.3113018609178853
1783166224439382016,0.5315821170806885,4.719449043273926,-0.6927473545074463,-1.0666316747665405,-0.1005714163184166,-0.8031402826309204,-0.5872402191162109,0.2312171459197998,0.1914917230606079,0.45390892028808594,0.3210981222725319,0.10982252091161046,-0.44081619570436736,-0.8309729446016352,0.9325474239534874,-0.1696156075096132,-2.318597756295761
1783166224449302272,0.5415022373199463,4.824862480163574,-0.6450866460800171,-1.199279546737671,-0.09474606066942215,-0.8314844369888306,-0.5474090576171875,0.18800777196884155,0.26930493116378784,0.5056458115577698,0.31069351213285606,0.11656243796244559,-0.4612035024654257,-0.8229057901229069,0.9817744149439506,-0.17138300519420202,-2.3278025686611907
1783166224459221248,0.5514211654663086,4.834085941314697,-0.4595450460910797,-1.3790128231048584,-0.08677706122398376,-0.8580825924873352,-0.5061264634132385,0.15086397528648376,0.2457779049873352,0.4827958345413208,0.299506865845868,0.12371102225089352,-0.4812819838191365,-0.8144684872794377,1.0315240827403804,-0.16980230666467866,-2.3403977356491548
1783166224469141248,0.5613412857055664,4.73303747177124,-0.1899373084306717,-1.5020712614059448,-0.07548629492521286,-0.8826102018356323,-0.4640054404735565,0.11659348011016846,0.13102328777313232,0.46542447805404663,0.2879134762243331,0.132033743773956,-0.5005640573193145,-0.8056727457765283,1.0813860098334565,-0.1612712463690814,-2.358206400262138
1783166224479060224,0.5712602138519287,4.012996673583984,-0.1677827388048172,-1.6193053722381592,-0.06219641864299774,-0.9033143520355225,-0.4244464337825775,0.07481543719768524,0.05915236473083496,0.4593127965927124,0.2765284700353785,0.14054602418195306,-0.5177099493902109,-0.7973425894343588,1.127433844490806,-0.14549985007620622,-2.381853961964141
1783166224488979968,0.5811800956726074,3.0013747215270996,-0.05719216540455818,-1.7482033967971802,-0.047159455716609955,-0.9186187982559204,-0.3923209309577942,-0.01120540127158165,0.07219839096069336,0.4945700168609619,0.266663896975934,0.14915962879501174,-0.5306514281917348,-0.7906016601266185,1.1645706719327311,-0.11963231107906368,-2.4121502027245265
1783166224498899200,0.5910992622375488,2.2634127140045166,0.03493083640933037,-1.97212553024292,-0.030101824551820755,-0.9293003082275391,-0.3680962026119232,-0.11203379929065704,0.13378334045410156,0.4072502851486206,0.257033467928371,0.1572971865787854,-0.5396382922127142,-0.7861182543375086,1.192513788183417,-0.0815954867303492,-2.4541838261694697
1783166224508819200,0.6010191440582275,1.7153388261795044,0.39915379881858826,-1.92305588722229,-0.010488811880350113,-0.9370142817497253,-0.3491334617137909,-0.18076485395431519,0.20955151319503784,0.3294954299926758,0.2475156515243366,0.1658186872501096,-0.5458364452127172,-0.7831364471813242,1.2139819035832746,-0.030033378023508424,-2.508491104073754
1783166224518738176,0.610938310623169,1.5322115421295166,0.5263457894325256,-1.9807072877883911,0.009272334165871143,-0.9425485134124756,-0.3339407444000244,-0.13808701932430267,0.2952249050140381,0.2844717502593994,0.2396436371656498,0.17475658495408597,-0.54999069704416,-0.7807313128358554,1.2301787299669407,0.02775927292365734,-2.565568878271216
1783166224528658176,0.6208581924438477,1.8049618005752563,0.37421470880508423,-2.1954305171966553,0.030307071283459663,-0.9477826952934265,-0.317473441362381,0.009487850591540337,0.2327711582183838,0.10649016499519348,0.2310239326766201,0.1840955261019021,-0.5544115038520256,-0.7780518334722832,1.2462099503963158,0.0951749094832425,-2.6327422338959168
1783166224538577152,0.63077712059021,1.8519002199172974,0.2853247821331024,-2.3300793170928955,0.052999019622802734,-0.9525450468063354,-0.2997482419013977,0.10099266469478607,0.23989862203598022,0.09734043478965759,0.22116831680033255,0.19369785392613983,-0.5591127097033877,-0.7752152346353713,1.2614902817836045,0.17500307071515325,-2.713710315784834
1783166224548497152,0.6406972408294678,2.2197530269622803,0.17078061401844025,-2.1912944316864014,0.07528307288885117,-0.9570600986480713,-0.2799436151981354,0.18034744262695312,0.2343580722808838,-0.04964625835418701,0.21102863535564664,0.20318005657936813,-0.5645759935944109,-0.7716467893643537,1.2766849605797692,0.2627070564946321,-2.8031161971009255
1783166224558416128,0.6506161689758301,2.92051100730896,-0.050585851073265076,-2.051609992980957,0.09580099582672119,-0.9621009230613708,-0.2553117871284485,0.1737302839756012,0.34726327657699585,-0.144941508769989,0.20018668674190856,0.2119273606009458,-0.5722157798132836,-0.7665384851017769,1.2946046065873533,0.35897350289109514,-2.903309446178614
1783166224568336128,0.6605362892150879,3.924220561981201,-0.25553596019744873,-1.9125757217407227,0.11458438634872437,-0.9681949615478516,-0.22241608798503876,0.11219173669815063,0.41231727600097656,-0.24029141664505005,0.1883954279986909,0.22033859329312092,-0.5833034052638493,-0.7587589887916012,1.317912689743692,0.47571797550204414,-3.0260467447409294
1783166224578255104,0.6704552173614502,4.714484214782715,-0.5801571607589722,-1.9152777194976807,0.13227185606956482,-0.9745860695838928,-0.18079309165477753,0.05368700623512268,0.4775310158729553,-0.18618077039718628,0.17511083028692118,0.2283381770924588,-0.5978838785111078,-0.7481528899924366,1.3448658004742036,0.6316337962182879,3.0923789288383907
1783166224588175104,0.6803750991821289,5.404120922088623,-0.730057954788208,-1.8449509143829346,0.14963455498218536,-0.9798373579978943,-0.1323946863412857,0.06317977607250214,0.4354037642478943,-0.12482267618179321,0.16045998629166114,0.23598571101891863,-0.6149092631681508,-0.7351530218754017,1.3696456952150322,0.8464501447799108,2.866384484723677
1783166224598094336,0.6902942657470703,5.634822368621826,-0.8981894850730896,-1.8164470195770264,0.16668523848056793,-0.9828386306762695,-0.07901953905820847,0.11578543484210968,0.3633166551589966,0.04740334302186966,0.14473267984709057,0.24307349369934209,-0.6335657088274286,-0.7201126009722641,1.3852665236225565,1.1281116449986524,2.571501422832332
1783166224608014080,0.700214147567749,5.567480564117432,-0.9676235318183899,-1.9132295846939087,0.18462792038917542,-0.9824690818786621,-0.025827525183558464,0.14059792459011078,0.2898726463317871,0.1710454225540161,0.12804638813942382,0.24945506824803018,-0.6518116342033825,-0.7046402633804725,1.3832736412254956,1.43180866921752,2.252648554548484
1783166224617933312,0.7101333141326904,5.39849328994751,-1.0795150995254517,-2.068218469619751,0.20427273213863373,-0.9785737991333008,0.02580798789858818,0.17239049077033997,0.2965211868286133,0.15853345394134521,0.11088311107309562,0.25586645890805404,-0.6689068316123205,-0.6890580193012226,1.3634165633239534,1.696471314810266,1.9726811029530686
1783166224627853056,0.7200531959533691,4.857274055480957,-1.1720231771469116,-1.9987465143203735,0.2246711701154709,-0.9716681241989136,0.07337523251771927,0.2515556514263153,0.3247717618942261,0.20808839797973633,0.09402929047880748,0.2620544019085483,-0.684116295713087,-0.6741445694644873,1.3321893189382579,1.886465153951619,1.7679109247387916
1783166224637772032,0.7299721240997314,4.190023422241211,-1.304334282875061,-1.9981598854064941,0.24519459903240204,-0.962746262550354,0.11401548981666565,0.27229201793670654,0.24124956130981445,0.19488348066806793,0.07754927736882687,0.26721066417699346,-0.6968545080793334,-0.6610434721701489,1.296981068362284,2.006053994171052,1.6328168237969711
1783166224647692288,0.7398922443389893,3.5285840034484863,-1.3623614311218262,-1.9586756229400635,0.2657869756221771,-0.9526681900024414,0.14758193492889404,0.2559414803981781,0.19281113147735596,0.15860091149806976,0.06147059001258254,0.2713555913555368,-0.7072178651618143,-0.6499464036830599,1.2618951249190227,2.0776719779196626,1.5449009148455768
1783166224657611008,0.7498109340667725,2.8995985984802246,-1.390298843383789,-1.932247519493103,0.2863147556781769,-0.9421812295913696,0.1741219460964203,0.20871087908744812,0.18623030185699463,0.16306674480438232,0.04615061294748776,0.2748516503344978,-0.7152045448420971,-0.6409439746042573,1.2290809761515176,2.1171859611240715,1.4892542747167292
1783166224667530752,0.7597308158874512,2.488598346710205,-1.3462998867034912,-1.9462145566940308,0.30716773867607117,-0.9314090013504028,0.19525669515132904,0.14865800738334656,0.1873294711112976,0.14336630702018738,0.03148323101368136,0.27826098143074557,-0.7212483458592897,-0.6335458984838105,1.1982649433488282,2.1370302376028887,1.454092462317324
1783166224677449984,0.7696499824523926,2.225696086883545,-1.3106249570846558,-1.92488694190979,0.32791340351104736,-0.9204061627388,0.21289782226085663,0.13693037629127502,0.119273841381073,0.1279377043247223,0.017298836044530436,0.2814828442704835,-0.7260966331069437,-0.6270979980763667,1.169118039260059,2.146644227863347,1.4295699940853717
1783166224687369728,0.7795698642730713,2.1513760089874268,-1.4661195278167725,-1.8784270286560059,0.3480634391307831,-0.9092649221420288,0.22823117673397064,0.1412554681301117,0.07137417793273926,0.0727790892124176,0.00346672266006533,0.28423584382684314,-0.7302914300588405,-0.6211863711316835,1.1415144990756318,2.151180171554124,1.409910833893176
1783166224697288704,0.7894887924194336,2.086383104324341,-1.4619004726409912,-1.9498735666275024,0.36874204874038696,-0.8974388837814331,0.24214215576648712,0.10063356161117554,0.0917290449142456,0.0488429069519043,-0.010856968160295138,0.2866085153438298,-0.7341162299233969,-0.6154762844622305,1.1139290390752685,2.151846807595105,1.3928417477422423
1783166224707208960,0.7994089126586914,1.6947405338287354,-1.3140161037445068,-1.7750602960586548,0.3890811800956726,-0.8854987621307373,0.2539835572242737,0.11401629447937012,0.15304648876190186,0.0714559257030487,-0.024497590199354744,0.2891962838810249,-0.7371277259555635,-0.6102524308754711,1.0875663213834723,2.1491218207686407,1.3804385205267977
1783166224717127680,0.8093278408050537,1.7782500982284546,-1.5144339799880981,-1.5296196937561035,0.4071463346481323,-0.8744850754737854,0.26364290714263916,0.2237282395362854,0.14618313312530518,-0.07553258538246155,-0.03713973533931848,0.2907635090928326,-0.739782425745338,-0.605639437173556,1.0643731902786737,2.145439160245253,1.3687977772847149
1783166224727047936,0.8192479610443115,1.9736671447753906,-1.5997182130813599,-1.425488829612732,0.42405641078948975,-0.8632705807685852,0.27375221252441406,0.23570317029953003,0.15402668714523315,-0.13553807139396667,-0.049891375563077475,0.2913444725036719,-0.7429633265232677,-0.6005287931076093,1.0417139307621361,2.1440412071746877,1.3531961834816566
1783166224736966912,0.8291668891906738,2.1320574283599854,-1.7777518033981323,-1.46076500415802,0.44156378507614136,-0.8510217666625977,0.28422436118125916,0.20147210359573364,0.15432071685791016,-0.18760573863983154,-0.06369511552218006,0.29122594703504584,-0.7465250379185232,-0.5948367678891447,1.0179279264600825,2.1427135574948437,1.3349339285998378
1783166224746886912,0.8390870094299316,1.9453518390655518,-1.8325334787368774,-1.2721848487854004,0.4583810865879059,-0.8388535380363464,0.29361799359321594,0.2692800462245941,0.14787453413009644,-0.13202738761901855,-0.07745793894655778,0.2903750947612466,-0.7499942051653707,-0.5892293730680449,0.9951736710443726,2.140502704488381,1.3164218103301677
1783166224756805888,0.849005937576294,1.8227907419204712,-1.9116592407226562,-1.0820602178573608,0.47346508502960205,-0.8279196619987488,0.30063292384147644,0.2595672309398651,0.06667381525039673,-0.05385240912437439,-0.09060595676474867,0.28834438359303366,-0.7531095429678343,-0.5843579434724745,0.9753881620873744,2.1365281760701595,1.2986290498878983
1783166224766725888,0.8589258193969727,1.8677424192428589,-1.941748023033142,-0.9598983526229858,0.48816221952438354,-0.8171407580375671,0.3065600097179413,0.201413094997406,0.03921705484390259,-0.010646283626556396,-0.10370708883816461,0.2858323556259172,-0.7560290130723725,-0.5796248853955808,0.9564332806081214,2.1315414115773996,1.281093455689957
1783166224776644864,0.8688449859619141,1.8307114839553833,-1.8099015951156616,-0.6331090331077576,0.5004856586456299,-0.8074518442153931,0.31230685114860535,0.20814776420593262,0.054766297340393066,0.09272241592407227,-0.11569311812152878,0.28252651617396346,-0.7591654544881775,-0.5748579641429736,0.9398199025896855,2.1286816527916095,1.2617397648412243
1783166224786564864,0.8787648677825928,1.8067817687988281,-1.7293493747711182,-0.6315897107124329,0.5112258791923523,-0.7984535098075867,0.3179941475391388,0.1564071774482727,0.04151076078414917,0.1209707260131836,-0.12688064894025444,0.27872537457018404,-0.7624363811917542,-0.5700037519481223,0.9247221007794918,2.127251863566626,1.2412816632300234
1783166224796483840,0.8886837959289551,1.8562119007110596,-1.6647874116897583,-0.6033762097358704,0.5216645002365112,-0.7893270254135132,0.32377371191978455,0.19160771369934082,0.04199719429016113,0.10055795311927795,-0.13774554651437343,0.27501824758208665,-0.7656708291694915,-0.5649242938223319,0.9097121288890232,2.126265109924187,1.2209333833562828
1783166224806403840,0.8986039161682129,1.6202661991119385,-1.4663466215133667,-0.5809067487716675,0.5316649079322815,-0.7802823781967163,0.3293810486793518,0.2700623869895935,0.06452310085296631,0.16714000701904297,-0.14788472239180878,0.27178528049898837,-0.7686502996785941,-0.5598567624994091,0.895117149496809,2.12545067993409,1.2021300056841793
1783166224816322816,0.9085228443145752,1.2781832218170166,-1.3358207941055298,-0.34917232394218445,0.5398982167243958,-0.7728778123855591,0.3334216773509979,0.389453649520874,-0.012949943542480469,0.21250727772712708,-0.15672946100573365,0.26831219541712187,-0.7711805225724049,-0.5556303839555472,0.8833638706117252,2.1240304650858715,1.1853644508260583
1783166224826242816,0.918442964553833,0.8330628275871277,-1.2144427299499512,-0.3401173949241638,0.547112762928009,-0.7672538161277771,0.33464810252189636,0.40038174390792847,-0.0604744553565979,0.19016265869140625,-0.16418325392983982,0.2653317836839975,-0.7726079879406894,-0.5529194070162111,0.8745482129964419,2.119746760304833,1.1741671725259455
1783166224836161792,0.9283618927001953,0.35032516717910767,-1.0855613946914673,-0.19846117496490479,0.5531319379806519,-0.7636231780052185,0.33305346965789795,0.42692476511001587,-0.11007976531982422,0.16625985503196716,-0.17012490585566345,0.26288570193331406,-0.7729280980612164,-0.551843033612055,0.8689061900008711,2.1127754200092186,1.1686293991395509
1783166224846082048,0.9382820129394531,-0.30497750639915466,-0.8904248476028442,-0.026439452543854713,0.5574790239334106,-0.7627190947532654,0.3278362452983856,0.4254768490791321,-0.16211605072021484,0.1970202624797821,-0.1744830760897081,0.26052862091122353,-0.7720381810305144,-0.5528449172579282,0.8675071350066034,2.1023969578298614,1.1689049531675917
1783166224856001024,0.9482009410858154,-0.7408674359321594,-0.7217114567756653,-0.010146234184503555,0.5605919361114502,-0.7640569806098938,0.3193020522594452,0.3635719418525696,-0.2682459354400635,0.17218366265296936,-0.17713799405642885,0.2589436992722205,-0.7698046434212859,-0.5558517683417236,0.8695783992074619,2.088547937136971,1.1763078158052298
1783166224865920768,0.9581208229064941,-1.16209077835083,-0.5398924350738525,0.000675953458994627,0.5629196763038635,-0.7666866779327393,0.30872872471809387,0.3519211411476135,-0.34155935049057007,0.1438317894935608,-0.17851121342287515,0.25815911901193744,-0.7666278282590707,-0.5601513698044258,0.8736643354736117,2.0724424689602916,1.1890687805692657
1783166224875840000,0.9680399894714355,-1.311130404472351,-0.2018137127161026,0.2452678680419922,0.5633271932601929,-0.770936906337738,0.29718470573425293,0.38868391513824463,-0.38770872354507446,0.03826451301574707,-0.17800729999785864,0.2579549343131062,-0.7629230611842731,-0.5654388285760859,0.8803108832408009,2.0562422161750202,1.2055757148644006
1783166224885759744,0.9779598712921143,-1.3518763780593872,-0.20658089220523834,0.35880032181739807,0.561830997467041,-0.7762221693992615,0.2860509157180786,0.395383358001709,-0.4245529770851135,-0.06144154071807861,-0.17633643219664977,0.2575114026376006,-0.7594164427682331,-0.5708590200358666,0.8886513247643782,2.0417295728031606,1.221754328931096
1783166224895678720,0.9878787994384766,-1.1870468854904175,-0.20865735411643982,0.540945291519165,0.5593122243881226,-0.7819660902023315,0.2751348614692688,0.380415678024292,-0.457474946975708,-0.15565845370292664,-0.17437666654935852,0.25650043939814504,-0.7561580190471026,-0.5762164942376167,0.8978137798087412,2.0279561798566537,1.236755305720241
1783166224905598976,0.9977989196777344,-1.2447011470794678,-0.1819072663784027,0.6870535612106323,0.5552188158035278,-0.7883512377738953,0.2650173604488373,0.3324154019355774,-0.4813477396965027,-0.19262972474098206,-0.17191978615342202,0.2547373787030448,-0.7534039753433748,-0.5813216173279044,0.9081244542927425,2.0161363581283394,1.2493939649069843
1783166224915517696,1.0077178478240967,-1.6067070960998535,-0.012767787091434002,0.6826825141906738,0.5504471063613892,-0.7955189347267151,0.25329291820526123,0.2644941806793213,-0.5580271482467651,-0.13644126057624817,-0.16866754941736017,0.25323403403261074,-0.7500126577481195,-0.5872858485763742,0.9198634904695556,2.002065882932008,1.265831808268753
1783166224925437952,1.0176379680633545,-2.0937373638153076,0.05484755337238312,0.6950604319572449,0.5454356074333191,-0.80335932970047,0.2389848679304123,0.3027089238166809,-0.6425482630729675,-0.16545283794403076,-0.1644973529418844,0.2524512477920929,-0.7454936642047942,-0.5945150735771138,0.93291516546003,1.9837556847956481,1.2889225125771473
1783166224935356928,1.0275568962097168,-2.606243848800659,0.06361255049705505,0.8469037413597107,0.5395618677139282,-0.8126069903373718,0.2203250229358673,0.36484187841415405,-0.6994780898094177,-0.08842799067497253,-0.15923917563942688,0.2518312816472784,-0.7394210663477827,-0.6037221988189274,0.9486114291422683,1.9584721284032527,1.3207768778851043
1783166224945276928,1.0374770164489746,-2.908228874206543,0.1252547949552536,1.008432388305664,0.5323760509490967,-0.8228917121887207,0.19855830073356628,0.3838685154914856,-0.7570644617080688,-0.05672773718833923,-0.1528536931841966,0.25111389168180226,-0.7322710989675117,-0.614293721733884,0.9664816774542984,1.927782785727895,1.359494278325674
1783166224955195904,1.047395944595337,-3.222712993621826,0.04664973169565201,1.2033333778381348,0.5237341523170471,-0.8339559435844421,0.17383933067321777,0.4053887724876404,-0.7518442869186401,-0.019054174423217773,-0.14558829116893648,0.24988705236821204,-0.7242072414325675,-0.626006701771806,0.9862380346228831,1.8912769274266357,1.4045017690003307
1783166224965115904,1.0573158264160156,-3.6176514625549316,0.09116504341363907,1.2941679954528809,0.5138979554176331,-0.8453735113143921,0.14578206837177277,0.33470427989959717,-0.7443023324012756,0.06843601167201996,-0.1374787962520968,0.24831441419053213,-0.7150041865903103,-0.6389119556189172,1.0072640127512527,1.8472133336998344,1.4577408020925848
1783166224975034880,1.067234992980957,-3.890052556991577,0.16632850468158722,1.4046721458435059,0.5032350420951843,-0.8565201759338379,0.11457642912864685,0.3165739178657532,-0.7548536658287048,0.08361994475126266,-0.12832163881077746,0.24693189528022125,-0.7044947514167547,-0.6528747075253805,1.0284891531898483,1.7946599401227556,1.5212549672801243
1783166224984954880,1.0771548748016357,-4.148838520050049,0.06164005771279335,1.5004241466522217,0.49185553193092346,-0.8669148683547974,0.08084893971681595,0.4211845397949219,-0.7335183620452881,0.08092474192380905,-0.1189067909707951,0.2449950615708445,-0.6931103004066305,-0.667410380197823,1.0489792237969675,1.73371481242781,1.592702500657725
1783166224994873856,1.087073802947998,-4.5289788246154785,-0.05185907334089279,1.6227021217346191,0.48049196600914,-0.8759188055992126,0.04352129250764847,0.5105359554290771,-0.6867644190788269,0.09206831455230713,-0.10950045152542265,0.2427425243168976,-0.6803210362791173,-0.6828244163175257,1.0673369427423518,1.661126360928884,1.675340059845885
1783166225004793856,1.0969939231872559,-4.589407920837402,-0.11078040301799774,1.722242832183838,0.47717568278312683,-0.8788018822669983,0.0032578324899077415,0.5541353225708008,-0.6491217017173767,0.0420607328414917,-0.10341489960739372,0.2431409743103508,-0.6652152905714249,-0.6983383473349841,1.0733455973768715,1.577623543551895,1.7682002869754
1783166225014712832,1.1069128513336182,-4.286602020263672,-0.2254771590232849,1.8488843441009521,0.4638647735118866,-0.8851640224456787,-0.03624839708209038,0.5883964896202087,-0.5921002626419067,0.02028769627213478,-0.0928183458062619,0.24023848878084458,-0.6512766460243427,-0.7137989114467026,1.0868464634686006,1.4928104913278053,1.8639362885258985
1783166225024632832,1.116832971572876,-3.595695734024048,-0.25783753395080566,2.1868581771850586,0.44673219323158264,-0.8917498588562012,-0.0721994936466217,0.654723584651947,-0.5500227212905884,0.07615148276090622,-0.08125201033044369,0.23560480150860383,-0.6390544828384771,-0.7276661207893389,1.1011974186337181,1.4105648797758505,1.955948499714807
1783166225034551808,1.1267518997192383,-2.7733452320098877,-0.4131365716457367,2.331728219985962,0.4268050193786621,-0.898589551448822,-0.10185419023036957,0.6506333351135254,-0.517822802066803,0.16102778911590576,-0.06925385443257925,0.2297772337399456,-0.6295040345368571,-0.7390067717597986,1.1165444997310274,1.3365344905215275,2.038586796935433
1783166225044472064,1.136672019958496,-1.9130724668502808,-0.4627806544303894,2.27459454536438,0.40612509846687317,-0.9053055047988892,-0.12443657219409943,0.6266660690307617,-0.49590909481048584,0.22329825162887573,-0.05842638337077488,0.22295426020596812,-0.6229551429752251,-0.7475324206859132,1.1320984220827075,1.2734787189323549,2.107071900605706
1783166225054390784,1.1465909481048584,-1.4987722635269165,-0.5366902947425842,2.4521102905273438,0.3844648599624634,-0.9122464060783386,-0.1413973569869995,0.6576188802719116,-0.4821779727935791,0.352807879447937,-0.048215004800633,0.2154081886262272,-0.6187896506295562,-0.7539058146924286,1.148734863766209,1.218373076335535,2.1656238815798674
1783166225064310784,1.156510829925537,-1.6643648147583008,-0.33886486291885376,2.4035897254943848,0.36198651790618896,-0.9188805818557739,-0.15692095458507538,0.649152398109436,-0.4864690899848938,0.3972621560096741,-0.03763406793243515,0.2077895999976423,-0.6151121889153531,-0.7596342113172584,1.1652337581898988,1.161748663894911,2.2261359188927856
1783166225074230016,1.1664299964904785,-2.508594036102295,-0.31268438696861267,2.2078611850738525,0.3408603370189667,-0.9233676195144653,-0.17665325105190277,0.7190914154052734,-0.4518306851387024,0.30224835872650146,-0.026703598947701315,0.20110642451045038,-0.6092861235401474,-0.7665595158711473,1.1767617089477764,1.0926500495264364,2.3011183682380927
1783166225084149760,1.1763498783111572,-3.777562379837036,-0.7228153347969055,2.0242490768432617,0.3207222819328308,-0.9242920279502869,-0.20693419873714447,0.800951361656189,-0.3938996195793152,0.274393230676651,-0.01564656243239297,0.19440544455839626,-0.5989486009533267,-0.7766739693216981,1.1791765352499948,0.997793639311601,2.402246693381377
1783166225094068736,1.1862688064575195,-5.01895809173584,-0.7348714470863342,1.9134323596954346,0.30129021406173706,-0.9203477501869202,-0.2493673861026764,0.6958563327789307,-0.42237985134124756,0.375282883644104,-0.004085414695670776,0.18758884765584222,-0.5832038502852912,-0.7903587105279036,1.1689686615782426,0.879412600721308,2.527800259971424
1783166225103988992,1.1961889266967773,-6.03165340423584,-0.8347553610801697,1.7290563583374023,0.2828283905982971,-0.9104282855987549,-0.3018748164176941,0.6002281904220581,-0.48247021436691284,0.5464121103286743,0.007790366799338301,0.1807161660809529,-0.5624982345065888,-0.8067693082542493,1.1443182918610155,0.752835150911835,2.6623767602747916
1783166225113907712,1.2061078548431396,-6.561829090118408,-0.8679559230804443,1.7380902767181396,0.264980286359787,-0.8942394256591797,-0.3607233762741089,0.5459023118019104,-0.4855671525001526,0.6645563840866089,0.020214332530482677,0.17386138250250574,-0.5379689015042878,-0.8245927124539031,1.1067291034333648,0.6335592748243585,2.790999129536041
1783166225123827968,1.2160279750823975,-6.452976226806641,-0.8786811828613281,1.8269418478012085,0.24598319828510284,-0.8735246658325195,-0.4200558066368103,0.5194434523582458,-0.43944835662841797,0.7683681845664978,0.03306531024324029,0.16618848462458352,-0.5122045362285277,-0.8419825133900889,1.0623967363806255,0.5297613391430166,2.9040128325200296
1783166225133746944,1.2259469032287598,-6.044340133666992,-0.8885079622268677,1.837730050086975,0.22683514654636383,-0.8498804569244385,-0.4756565988063812,0.5173665285110474,-0.2839697599411011,0.8818455338478088,0.04367184035117772,0.1570204520202207,-0.4873564166226904,-0.85785849409237,1.0157583490247368,0.44498803852561236,2.9927996415594222
1783166225143666944,1.2358670234680176,-5.167433738708496,-0.8382694125175476,2.030164957046509,0.20675794780254364,-0.826304018497467,-0.5239015221595764,0.5312791466712952,-0.19676727056503296,0.8409028649330139,0.05406207389891721,0.14751860612614115,-0.4650672005003057,-0.8712221253848877,0.9725135120248666,0.37588617627351784,3.0651508093613145
1783166225153585920,1.2457859516143799,-4.32462739944458,-0.7802492380142212,2.0144615173339844,0.18619315326213837,-0.8046687245368958,-0.5637733340263367,0.48327094316482544,-0.15697067975997925,0.8444892764091492,0.06442887328392301,0.13815708816309022,-0.44612325619995613,-0.8818932059062583,0.9351173351244682,0.3189842177386012,3.1253699153497325
1783166225163505920,1.2557058334350586,-3.2659387588500977,-0.5922906994819641,2.0425174236297607,0.16641443967819214,-0.7865846753120422,-0.5946350693702698,0.45886021852493286,-0.19878214597702026,0.7562103867530823,0.07432035342494295,0.12952146339601694,-0.4311689342790176,-0.8898281754088042,0.9052583277495176,0.27287866726411286,-3.1082682691485877
1783166225173425920,1.2656259536743164,-2.666529893875122,-0.6657074093818665,2.1993939876556396,0.14624612033367157,-0.7724865078926086,-0.6179618239402771,0.443567156791687,-0.1788838505744934,0.6342123746871948,0.0840711241934803,0.12108233124910846,-0.41995019852237847,-0.8954960025133394,0.8827474418485641,0.23238339424453844,-3.06455397700793
1783166225183344896,1.2755448818206787,-2.286902904510498,-0.5121682286262512,2.3678438663482666,0.1254272162914276,-0.7603315711021423,-0.6373099684715271,0.4306183457374573,-0.14895492792129517,0.5178030729293823,0.09444147596737604,0.11279043790842389,-0.4106377325072117,-0.8998532194838684,0.8638234232728002,0.19432372195138226,-3.0222476273293895
1783166225193264896,1.2854650020599365,-2.007991313934326,-0.5799819231033325,2.4156599044799805,0.10425333678722382,-0.749514639377594,-0.653727114200592,0.3661751449108124,-0.148159921169281,0.515879213809967,0.10523612162596993,0.10463557540412957,-0.4027255087980999,-0.9032103945537362,0.847328551847344,0.15814363016106822,-2.9810492136026214
1783166225203183872,1.2953839302062988,-1.7431100606918335,-0.5237054228782654,2.4700546264648438,0.0828639417886734,-0.7398098707199097,-0.6676936745643616,0.2013615071773529,-0.19854456186294556,0.48934900760650635,0.11589565615940618,0.09641833096614645,-0.39605134432024786,-0.9057676136503408,0.8327877609723467,0.12347339931689903,-2.941732203045564
1783166225213103872,1.3053038120269775,-1.716262698173523,-0.3274078369140625,2.5786690711975098,0.06177522614598274,-0.7304299473762512,-0.6801881790161133,0.09694671630859375,-0.2525565028190613,0.5516176223754883,0.12717025020442618,0.08865816398460169,-0.3899302900430072,-0.9077014624436666,0.8189512537446503,0.0905723030325257,-2.9025328094068295
1783166225223022848,1.315222978591919,-1.803422212600708,-0.25550633668899536,2.571803331375122,0.04173045605421066,-0.7201538681983948,-0.6925582885742188,0.029009301215410233,-0.2610778212547302,0.5234909057617188,0.1389110204874458,0.08152533657493657,-0.38350288217673345,-0.909386063800659,0.804024093883999,0.0601827472380761,-2.8640251101552234
1783166225232942848,1.3251428604125977,-2.4006080627441406,-0.2963959872722626,2.5169498920440674,0.021941157057881355,-0.7071030735969543,-0.7067700028419495,-0.0345754399895668,-0.17221510410308838,0.32006651163101196,0.15062525781190714,0.07411972298562176,-0.37566111265253443,-0.9114258365818535,0.785392946832568,0.03103430108436664,-2.8268823593220738
1783166225242861824,1.33506178855896,-3.9266767501831055,-0.37015068531036377,2.3402204513549805,0.0032346253283321857,-0.6856248378753662,-0.7279478907585144,-0.1257626861333847,-0.02464127540588379,0.19074702262878418,0.1620527480175431,0.06601352008888453,-0.3628612129420851,-0.9152665883099733,0.7554616929884429,0.0044434551978544635,-2.7928774992962215
1783166225252781824,1.3449819087982178,-5.593038558959961,-0.6782150268554688,2.4522743225097656,-0.01663859933614731,-0.6505954265594482,-0.7592422366142273,-0.2805110514163971,0.10448336601257324,0.1056472659111023,0.173378647484167,0.05540071552161447,-0.34250494699797907,-0.9217163345486616,0.7083682027093334,-0.02191123762274034,-2.761627117919498
1783166225262700800,1.35490083694458,-7.0477800369262695,-0.7477167248725891,2.299351930618286,-0.03663897141814232,-0.6014001369476318,-0.7981074452400208,-0.5227634906768799,0.16199278831481934,0.08135634660720825,0.18473684625105738,0.042837266468953125,-0.3148194000529189,-0.9300139868145609,0.6452524270547941,-0.04587511006998738,-2.7340812052812336
1783166225272620800,1.364820957183838,-8.002793312072754,-0.7871072888374329,1.6930896043777466,-0.05413292348384857,-0.5394482016563416,-0.8402768969535828,-0.7240500450134277,0.23825496435165405,0.13933390378952026,0.19417792296323264,0.0292877575922087,-0.2810761078605104,-0.9393792909780111,0.5697816677040972,-0.06433381751235027,-2.7150703658332804
1783166225282539776,1.3747398853302002,-8.184693336486816,-0.7130579352378845,1.389457106590271,-0.06779740750789642,-0.4693014323711395,-0.8804315328598022,-0.7954533100128174,0.319627970457077,0.13665711879730225,0.2010880263766778,0.01598596805876358,-0.24398501248379584,-0.9485670205917265,0.4884995315369479,-0.07685307843030408,-2.7046326737239377
1783166225292460032,1.384660005569458,-7.309383869171143,-0.7663049101829529,1.3183104991912842,-0.08001857250928879,-0.39954355359077454,-0.913215160369873,-0.7731308341026306,0.4178541302680969,0.15026050806045532,0.20711463036501934,0.003273537242479062,-0.2082827346484567,-0.9558823118577698,0.41101888191805613,-0.08739968733763938,-2.696611954662508
1783166225302379008,1.3945789337158203,-5.526039123535156,-0.7793188691139221,1.1496018171310425,-0.09110061079263687,-0.3394823670387268,-0.9361903667449951,-0.7891331911087036,0.5525408983230591,0.09491229057312012,0.21199717651059508,-0.008036865496309489,-0.17843831112140296,-0.9608081469403748,0.34636654233891606,-0.09700450296448712,-2.690279931829528
1783166225312298752,1.404498815536499,-3.110499143600464,-0.9356034994125366,1.0901347398757935,-0.10265893489122391,-0.2986104190349579,-0.9488376975059509,-0.8522971272468567,0.7429616451263428,0.006058156490325928,0.21645630348025283,-0.017566837146003232,-0.1589734739702113,-0.9631019874568829,0.30323632414424806,-0.10777517436864291,-2.6829587479858077
1783166225322217984,1.4144179821014404,-0.606964647769928,-1.0873876810073853,0.6991297602653503,-0.1146998181939125,-0.2806529700756073,-0.9529311656951904,-0.9555821418762207,0.7956523895263672,-0.02067112922668457,0.21972882641005162,-0.025006999760724173,-0.1513573782072633,-0.9634234639724977,0.2844743661217055,-0.11978899428089271,-2.6759473893131687
1783166225332137728,1.4243378639221191,1.525818943977356,-1.343836784362793,0.6167795062065125,-0.1276267170906067,-0.2852780520915985,-0.9499093890190125,-0.8488747477531433,0.6759030818939209,0.02154940366744995,0.22190766278260354,-0.03050873668840311,-0.15528850933122296,-0.9621391545187592,0.28929653694475116,-0.13355691884403206,-2.6687576087410574
1783166225342056704,1.4342567920684814,2.374088764190674,-1.5397210121154785,0.42321890592575073,-0.1429448276758194,-0.30456212162971497,-0.9417052268981934,-0.8262934684753418,0.6032376289367676,0.11707448959350586,0.22362760441607252,-0.03556780090601371,-0.16698002534093084,-0.9596058421054245,0.30947868731399464,-0.15064361841490417,-2.660141348064821
1783166225351976960,1.4441769123077393,1.9352205991744995,-1.3332161903381348,0.3724808990955353,-0.1575486660003662,-0.32478541135787964,-0.9325732588768005,-0.9766523838043213,0.5146657824516296,0.24933046102523804,0.2243700382072931,-0.040314038094192435,-0.1791316734883477,-0.9570500060566272,0.33078483309402645,-0.1673594772903242,-2.653033038869555
1783166225361895680,1.4540958404541016,1.4027068614959717,-1.104623794555664,-0.02969796396791935,-0.16916534304618835,-0.341116338968277,-0.924674391746521,-1.1467525959014893,0.351492315530777,0.2103952169418335,0.22449536276241627,-0.044145776404982025,-0.18898136754907421,-0.9549549586725038,0.34810421527873986,-0.18094486128491155,-2.647907898201399
1783166225371815936,1.4640159606933594,0.793358325958252,-0.4296075403690338,-0.0772620141506195,-0.1752358376979828,-0.3512077033519745,-0.9197530150413513,-1.0758322477340698,0.4755821228027344,0.3836964964866638,0.2239277403339121,-0.0460968894033608,-0.19493225378065035,-0.953799213140211,0.35886067688174134,-0.18826849448893637,-2.6461499658585934
1783166225381734912,1.4739348888397217,-0.22869837284088135,-0.19394591450691223,-0.31271418929100037,-0.177826926112175,-0.3554573655128479,-0.9176206588745117,-0.8962392807006836,0.5989418625831604,0.5313138961791992,0.22241782525955892,-0.047201490029483546,-0.197387186320274,-0.9535934982732488,0.3634033479550489,-0.19141862166027615,-2.648029339630568
1783166225391654912,1.4838550090789795,-0.38319286704063416,0.08506468683481216,-0.09692995995283127,-0.17726361751556396,-0.35237178206443787,-0.918918788433075,-0.740796685218811,0.5393072366714478,0.48286837339401245,0.22077306591729587,-0.04761601656922726,-0.1956356899367728,-0.9543157887967525,0.36010423822857157,-0.1905637964656825,-2.652119066880213
1783166225401573888,1.4937739372253418,0.7116519808769226,0.0160351749509573,-0.03936527296900749,-0.1762334108352661,-0.3559306561946869,-0.9177445769309998,-0.3122767210006714,0.3755229711532593,0.18468189239501953,0.22106378693381634,-0.04663439575816381,-0.19736497840742953,-0.9539407916342936,0.3639097512041836,-0.18971933870039237,-2.6511488829499714
1783166225411493888,1.5036938190460205,0.12353677302598953,0.23205216228961945,-0.4716431796550751,-0.17389822006225586,-0.3611603081226349,-0.9161455035209656,-0.11127327382564545,0.2520905137062073,0.35855889320373535,0.2187242285384397,-0.045359296807019965,-0.19967415454790996,-0.9540610235207727,0.36951188089573805,-0.1875834503937606,-2.6557128006644564
1783166225421412864,1.513612985610962,0.8400530815124512,0.5515449047088623,-0.4575605094432831,-0.16909900307655334,-0.3672317564487457,-0.9146291017532349,0.510224461555481,-0.3475662171840668,0.19474995136260986,0.21732410953134937,-0.042571881742567375,-0.2021709544085128,-0.9539836012629503,0.3760310753934345,-0.1828182457496262,-2.6587463644805354
1783166225431332864,1.5235328674316406,-0.04583733528852463,0.6331436038017273,-0.02402985841035843,-0.16061867773532867,-0.3737485110759735,-0.9135172367095947,0.7508896589279175,-0.4015505611896515,0.3691294193267822,0.2168196838537438,-0.03771232561641986,-0.20449735706461725,-0.9538070789876265,0.38304712963574833,-0.17404551387682815,-2.660719411637472
1783166225441251840,1.533451795578003,-0.5773993134498596,1.0511549711227417,0.4539686143398285,-0.15342238545417786,-0.37138134241104126,-0.9157169461250305,1.101008415222168,-0.34869617223739624,0.3659122586250305,0.21831359724783864,-0.03408328582607888,-0.20243484570428796,-0.9540428193682768,0.38049631338473255,-0.1660016572805003,-2.659639952389502
1783166225451171840,1.5433719158172607,-0.591789186000824,1.3430042266845703,0.9954081773757935,-0.1444205343723297,-0.36756911873817444,-0.918714165687561,1.1500509977340698,-0.48641952872276306,0.26591265201568604,0.2227692042311938,-0.029115837475246032,-0.19948733819634204,-0.9537982213104527,0.3763937982653202,-0.15592256070770652,-2.6529450806177888
1783166225461090816,1.553290843963623,-2.077249765396118,0.06489276885986328,0.49890944361686707,-0.13966651260852814,-0.35895171761512756,-0.9228472113609314,0.8445615172386169,-0.20530307292938232,0.2696489691734314,0.22693731355269306,-0.02692267454915689,-0.19455479212553464,-0.9538989533400931,0.367144506124068,-0.15020317936156327,-2.646528666467542
1783166225471010816,1.5632109642028809,-1.9894592761993408,-0.2375810742378235,0.4902594983577728,-0.1393427848815918,-0.3407544493675232,-0.9297688007354736,0.7657618522644043,-0.016667455434799194,0.15210461616516113,0.22882011110065287,-0.02857203415177346,-0.18520054582779027,-0.9552621605286125,0.34771924134934495,-0.1487610554750148,-2.6452052870095177
1783166225480929792,1.5731298923492432,0.04874908924102783,-0.04656174033880234,1.165350079536438,-0.1388712376356125,-0.33629897236824036,-0.9314600229263306,0.4387369751930237,0.023478537797927856,-0.12818658351898193,0.2317587252936628,-0.028310860100998026,-0.18294391854280395,-0.9549963634140465,0.34298420490936515,-0.14799970525884953,-2.6397593398136516
1783166225490850048,1.583050012588501,0.04869476333260536,0.39703860878944397,1.3144240379333496,-0.1406138837337494,-0.33998528122901917,-0.9298589825630188,-0.11570324003696442,0.37421074509620667,-0.0825921893119812,0.23714507356297604,-0.02767808948922776,-0.18521453416093903,-0.9532532555586101,0.3469012346554708,-0.15008352744369072,-2.6275986350974625
1783166225500769024,1.5929689407348633,0.5271415710449219,0.5268977880477905,-0.04867259040474892,-0.13507109880447388,-0.3440690040588379,-0.9291782975196838,-0.4361721873283386,0.3813767433166504,-0.031133592128753662,0.24069720035214134,-0.0237386412390657,-0.18667438822162363,-0.9521838098404516,0.35124707781074244,-0.14435504795291507,-2.6207383530367028
1783166225510688768,1.602888822555542,1.2040101289749146,0.05609189718961716,-0.12708750367164612,-0.12901641428470612,-0.35774216055870056,-0.9248650074005127,0.12478974461555481,0.24827560782432556,-0.2525184154510498,0.23922668643946188,-0.01930916597526719,-0.19285911736636155,-0.9514216764633981,0.3658489112606602,-0.13860312366464805,-2.6232430578161963
1783166225520608000,1.6128079891204834,0.49030986428260803,0.3323742747306824,0.35503271222114563,-0.12688283622264862,-0.3668404519557953,-0.9215903878211975,0.3347533345222473,0.4265786111354828,0.05862957239151001,0.23979180154447952,-0.01697887561769696,-0.1972727299081085,-0.9504183354749317,0.37561040663646417,-0.13681797924023922,-2.6212650273228286
1783166225530527744,1.622727870941162,1.47835111618042,0.03323736786842346,-0.7211280465126038,-0.1203041598200798,-0.3787858784198761,-0.9176318049430847,0.0853157639503479,0.3357408344745636,-0.3406689167022705,0.23943561694678497,-0.012270306816500735,-0.2025673334334979,-0.9494664646009099,0.3884840715642219,-0.1303593834786748,-2.6218560267482
1783166225540446720,1.6326467990875244,1.4924368858337402,-0.415996789932251,-0.7139322757720947,-0.11720741540193558,-0.3948076665401459,-0.9112570285797119,0.28819739818573,0.14007744193077087,-0.2519357204437256,0.23511471759248562,-0.009621529654571484,-0.21042558120544905,-0.9488675021013435,0.4058585003228862,-0.12791936256165395,-2.62945241287732
1783166225550366976,1.6425669193267822,1.1247107982635498,0.19652970135211945,-0.4572720229625702,-0.11438032984733582,-0.40883252024650574,-0.9054132103919983,0.3000187575817108,-0.04351428151130676,-0.1603674292564392,0.23177554132456318,-0.007185957719025038,-0.2173516862496889,-0.9481490491466419,0.421174430183481,-0.12566374854063905,-2.635199678058779
1783166225560285696,1.6524858474731445,-0.3949132561683655,-0.4315541982650757,-0.7129389643669128,-0.112506203353405,-0.413246750831604,-0.9036423563957214,0.5996277928352356,-0.2325814962387085,-0.013288795948028564,0.2296405973058889,-0.006188314010367162,-0.21940950800216055,-0.9482016712095767,0.4260166193103944,-0.12386562978898623,-2.6395484978996215
1783166225570205952,1.6624059677124023,-1.363144874572754,0.19450809061527252,0.17230986058712006,-0.11162029206752777,-0.40587276220321655,-0.9070877432823181,0.6492942571640015,-0.551265299320221,-0.03294515609741211,0.22780156484829178,-0.007095059354875124,-0.2154199940307085,-0.9495527253920045,0.41793357459115904,-0.122437944856092,-2.6446886087779493
1783166225580124928,1.6723248958587646,-1.760732650756836,-0.05798167735338211,-0.11677227914333344,-0.11049630492925644,-0.3912699520587921,-0.9136183261871338,0.39745309948921204,-0.3852193057537079,-0.09332442283630371,0.22808459918265994,-0.008288873140532777,-0.20765870846514295,-0.9512027815201319,0.40201115896321005,-0.1203590457659393,-2.6463560783958924
1783166225590044928,1.6822450160980225,-1.7921494245529175,-0.26132309436798096,-0.24251262843608856,-0.11064184457063675,-0.37544262409210205,-0.9202180504798889,0.27609288692474365,-0.14283737540245056,-0.14826339483261108,0.22639362586478756,-0.010666157533523155,-0.19944227880177878,-0.9533388180472501,0.3848742970967607,-0.11965997470479614,-2.651939031010678
1783166225599963904,1.6921639442443848,-1.071357250213623,-0.44027361273765564,-0.2862359881401062,-0.11257834732532501,-0.3621126711368561,-0.9253110289573669,0.2617482542991638,0.10564294457435608,-0.04766565561294556,0.2252642605952655,-0.013470336747294876,-0.1927771560485783,-0.9549405487122539,0.37053339093780613,-0.12107037177818648,-2.6555582723772666
1783166225609883904,1.7020838260650635,-0.0263894684612751,-0.3499471843242645,-0.14749300479888916,-0.11271068453788757,-0.3581037223339081,-0.9268538355827332,0.14158031344413757,0.22973152995109558,-0.23760539293289185,0.22404641061207478,-0.014260522807630557,-0.19070845693257216,-0.9556308276194472,0.36623613352646367,-0.12101149880699744,-2.658576937431808
1783166225619802880,1.7120029926300049,0.2043938785791397,-0.8044288754463196,0.16198597848415375,-0.11700595170259476,-0.35927554965019226,-0.9258675575256348,0.25941622257232666,0.11243411898612976,-0.20779943466186523,0.22391188199989787,-0.016274182448792154,-0.19183686668598796,-0.9554042615367437,0.36749150078950044,-0.1257080202433354,-2.6577837542872076
1783166225629722880,1.7219228744506836,0.21118201315402985,0.3341076374053955,0.1956549882888794,-0.12088505923748016,-0.3606395423412323,-0.9248383045196533,0.28223150968551636,-0.2082691192626953,-0.053326308727264404,0.2247216865927745,-0.017869040086512175,-0.193032481093437,-0.9549446608463004,0.3689534991058354,-0.12997254758946214,-2.6550684424269275
1783166225639641856,1.731841802597046,-0.38212355971336365,-0.6713739633560181,-0.2382226139307022,-0.12070219218730927,-0.36031752824783325,-0.9249877333641052,0.39992278814315796,-0.24844712018966675,-0.043045103549957275,0.2239300138574125,-0.017976828806423633,-0.19282888153937597,-0.9551697549574983,0.3686082633229333,-0.1297574129783743,-2.6568080981176334
1783166225649561856,1.7417619228363037,-0.47630438208580017,-1.36341392993927,0.4100097119808197,-0.1286921203136444,-0.3563251197338104,-0.9254570603370667,0.4549098014831543,-0.44488340616226196,-0.15752023458480835,0.22296981193690968,-0.022601280608564697,-0.19173066593887705,-0.9555172370134574,0.3643318775126683,-0.13817184414748543,-2.65760599057568
1783166225659479808,1.7516798973083496,-1.1080020666122437,-0.7206411957740784,0.22914448380470276,-0.13955190777778625,-0.3485431373119354,-0.9268457293510437,0.08803825080394745,-0.3753490447998047,0.008556544780731201,0.2240949973015497,-0.02867454856085461,-0.189089710422152,-0.9556172946716488,0.3560163358390963,-0.14944392703192813,-2.6539757856052244
1783166225669400064,1.7616000175476074,-0.6416748762130737,0.006460616830736399,-0.7201946377754211,-0.1430833339691162,-0.3408263623714447,-0.9291741251945496,-0.02279496192932129,-0.2480408251285553,0.03267449140548706,0.22266242890219878,-0.03160869519827801,-0.18550964350465154,-0.9565608059451788,0.3477957571266026,-0.15278964583847732,-2.6572983542443533
1783166225679318784,1.7715189456939697,-0.6945652961730957,-0.4170132577419281,0.2596997022628784,-0.1440710723400116,-0.335183709859848,-0.9310721755027771,0.3590063452720642,-0.18604126572608948,0.0078696608543396,0.22091787043777553,-0.033087495531086614,-0.182672202002086,-0.95746083188546,0.3418002223709019,-0.1535192038391729,-2.6615180657086377
1783166225689238784,1.7814388275146484,-1.3929388523101807,-0.16391709446907043,-0.14282992482185364,-0.14821690320968628,-0.3263663649559021,-0.9335505962371826,0.17888708412647247,-0.11607745289802551,0.1790035367012024,0.22099015236392022,-0.03614156849621887,-0.17865745278319756,-0.9580911012268611,0.3324568898762776,-0.15745267999690946,-2.6617385061008094
1783166225699158016,1.7913579940795898,-1.0314381122589111,-0.2082529366016388,0.2785775065422058,-0.14846636354923248,-0.31423619389533997,-0.9376637935638428,0.2621138095855713,-0.26376673579216003,0.027370214462280273,0.22056853512128505,-0.03772964133071195,-0.1724661918573438,-0.95926090968115,0.31965200115136994,-0.15703283462807519,-2.664213028183513
1783166225709077760,1.8012778759002686,-1.1846545934677124,-0.06075003370642662,0.5871401429176331,-0.15213356912136078,-0.30399179458618164,-0.940449059009552,0.333591103553772,-0.20134875178337097,-0.0363118052482605,0.2227852410053339,-0.04032230882014407,-0.16777841478678904,-0.9594744888508698,0.3088799529990059,-0.160377621790922,-2.660268458517002
1783166225718996992,1.81119704246521,-2.0903093814849854,-0.19787897169589996,0.3029865026473999,-0.15587922930717468,-0.28794974088668823,-0.9448738694190979,0.22973176836967468,-0.14338567852973938,0.0174599289894104,0.22414627536158638,-0.04378151724784008,-0.16014447199211357,-0.9603100202489989,0.29208522310223856,-0.16350091023925362,-2.6588808595950066
1783166225728916992,1.8211169242858887,-1.4707467555999756,-0.12041082233190536,-0.06738146394491196,-0.15722456574440002,-0.2707783281803131,-0.9497154951095581,0.19045820832252502,-0.1833079755306244,-0.1685401201248169,0.22420001791828983,-0.046402616270012124,-0.15162140015466302,-0.9615570871313084,0.2742014740428703,-0.16406114384222642,-2.660766051653228
1783166225738835712,1.831035852432251,-1.4404815435409546,-0.272782564163208,-0.14314137399196625,-0.15767154097557068,-0.2580864131450653,-0.9531689882278442,0.2583795487880707,-0.0019386112689971924,-0.15361201763153076,0.22257266006834275,-0.04831545983602158,-0.14519341542344283,-0.9628322444907526,0.26104097815757354,-0.1639337467300446,-2.665677886093803
1783166225748755968,1.8409559726715088,-1.1469160318374634,-0.22898420691490173,0.7177928686141968,-0.159819558262825,-0.24492208659648895,-0.9562796950340271,0.3062886893749237,-0.11698587238788605,-0.2589150071144104,0.22404475823123712,-0.050647367631502994,-0.1389064008237491,-0.9632984505169354,0.24743933104269375,-0.16559592962085332,-2.6639172634044033
1783166225758674944,1.850874900817871,-0.8407182097434998,-0.344340056180954,-0.34926745295524597,-0.16330987215042114,-0.23602567613124847,-0.9579257369041443,0.11272698640823364,-0.038220539689064026,-0.2108975052833557,0.224568203779506,-0.05330239362440531,-0.13489245182623738,-0.9636036731199696,0.23827393277788994,-0.16885936841000973,-2.663404933911056
1783166225768594944,1.860795021057129,-0.6276893019676208,-0.1762557029724121,0.30230551958084106,-0.16624058783054352,-0.2293490469455719,-0.9590427875518799,0.3246573209762573,-0.1182919442653656,-0.15034747123718262,0.22386037798546363,-0.05560032043934098,-0.13186055840842734,-0.9640580414766717,0.23140884912124762,-0.17163464471386491,-2.6652705033982373
1783166225778513920,1.8707139492034912,-0.8951457142829895,-0.5765845775604248,1.0246586799621582,-0.17117127776145935,-0.22104722261428833,-0.9601241946220398,0.32423222064971924,-0.14815442264080048,-0.15898585319519043,0.2270863335155005,-0.05853765743462833,-0.12849604075717083,-0.9635839011456255,0.22288813078504233,-0.17642675438788114,-2.65890773927149
1783166225788433664,1.88063383102417,-1.2097209692001343,-0.2873527407646179,0.44399183988571167,-0.1766500025987625,-0.20976462960243225,-0.9616618752479553,0.1602620780467987,-0.04603371024131775,-0.11234325170516968,0.23043296780168732,-0.062095572955440916,-0.12374649818816025,-0.9631883175010223,0.21133422626361142,-0.18166716925301105,-2.6526200564219815
1783166225798352896,1.8905529975891113,-1.2323219776153564,-0.33559751510620117,-0.5718817710876465,-0.17979316413402557,-0.1979028433561325,-0.9635916352272034,0.18485908210277557,0.08335511386394501,-0.11320579051971436,0.22882340528602346,-0.06521153199936977,-0.11811699510031039,-0.9640725179157122,0.19921798985350478,-0.18446529053552196,-2.657028215088781
1783166225808272896,1.90047287940979,-0.44333145022392273,-0.3354448974132538,-0.23983831703662872,-0.18074831366539001,-0.19119800627231598,-0.9647659659385681,0.3279193341732025,-0.10460887849330902,-0.16537624597549438,0.2265465805989317,-0.06672111660084165,-0.11474018109618592,-0.9649143447313027,0.1923825303918585,-0.1852024520756911,-2.6624571355332285
1783166225818192128,1.9103920459747314,-0.9057170748710632,-0.39107462763786316,0.6660484671592712,-0.18429593741893768,-0.18408147990703583,-0.9654786586761475,0.3626559376716614,-0.10582025349140167,-0.08560776710510254,0.22705363966212955,-0.06921748113761171,-0.11166744177181614,-0.9649797503189248,0.18513728898918339,-0.1886165142607443,-2.6618504543335106
1783166225828111872,1.9203119277954102,-0.661549985408783,-0.3992398977279663,0.45053961873054504,-0.1900968998670578,-0.17569178342819214,-0.9659169316291809,0.2427092045545578,-0.20818881690502167,-0.13871252536773682,0.229072911366829,-0.07280281144272857,-0.1083571541805098,-0.9646160093242399,0.17660844213292146,-0.19432117270953841,-2.6580209099975813
1783166225838030848,1.9302308559417725,-0.41390156745910645,-0.23542383313179016,0.5039380192756653,-0.19402416050434113,-0.16989491879940033,-0.9661730527877808,0.24553783237934113,-0.20685984194278717,-0.08561527729034424,0.230879431633156,-0.0752033899719073,-0.10610340209024219,-0.9642516057680498,0.17072303779506198,-0.19818120697503958,-2.6545501419346547
1783166225847950848,1.9401509761810303,-0.5774465799331665,-0.7597011923789978,0.44263654947280884,-0.19934731721878052,-0.16434809565544128,-0.9660488367080688,0.3736332058906555,-0.060322314500808716,-0.06665074825286865,0.23294828341314233,-0.0782435955955735,-0.10418024049096408,-0.9637217126782869,0.16509708538521212,-0.2034969273620378,-2.65036171117169
1783166225857869824,1.9500699043273926,-0.8386719822883606,-0.5853027105331421,0.4613245129585266,-0.20584535598754883,-0.1571895331144333,-0.9658774137496948,0.31522035598754883,-0.05596049129962921,-0.11093533039093018,0.23449733434456488,-0.08211631329175517,-0.1015786046427479,-0.9633014994702978,0.1578441571825789,-0.20997612309257063,-2.647352606875472
1783166225867790080,1.9599900245666504,-1.3829776048660278,-0.5622850060462952,0.3784123361110687,-0.21082594990730286,-0.14576759934425354,-0.9665941596031189,0.20353224873542786,-0.058257654309272766,-0.1013227105140686,0.23586750326811573,-0.08577051578292533,-0.0966765269684064,-0.9631529360369171,0.14628882243951535,-0.21474892188911682,-2.6454675470707745
1783166225877708800,1.9699089527130127,-1.6566853523254395,-0.3222101032733917,-0.08033327758312225,-0.2152271717786789,-0.13029606640338898,-0.9678327441215515,0.1390400379896164,0.16404850780963898,-0.1251848340034485,0.23590415855765523,-0.08975688709851881,-0.08959538311789786,-0.9634654519434425,0.13066758620392888,-0.21881980816165336,-2.6469680130670357
1783166225887628800,1.9798288345336914,-1.2179510593414307,-0.2978528141975403,0.05845310166478157,-0.21775099635124207,-0.11675819009542465,-0.9689953923225403,0.20314833521842957,0.22224220633506775,-0.20361202955245972,0.2345557635532995,-0.09271051754418809,-0.08310881530334918,-0.9640960622814436,0.11702511528357658,-0.22104630095758462,-2.651282492779527
1783166225897548032,1.9897480010986328,-0.8481212258338928,-0.4499110281467438,0.35543856024742126,-0.22130322456359863,-0.1068093553185463,-0.9693382382392883,0.27342724800109863,0.1123025119304657,-0.18250197172164917,0.23522405151382342,-0.0955737731542728,-0.07871802835499517,-0.9640221962661746,0.10701348700977444,-0.22445643864300832,-2.650868155404939
1783166225907467776,1.9996678829193115,-0.8377678990364075,-0.4879412353038788,-0.4258836507797241,-0.2251962572336197,-0.09925010800361633,-0.9692450761795044,0.16863194108009338,0.07842186838388443,-0.07926255464553833,0.23436621495778062,-0.09845139129042546,-0.07539743732173675,-0.9642069739103831,0.09941378171713176,-0.22829149666761922,-2.6533017082410284
1783166225917387008,2.009587049484253,-0.7518165111541748,-0.8954933881759644,-0.13275007903575897,-0.23135490715503693,-0.09211961179971695,-0.9684982895851135,0.38896292448043823,-0.01699598878622055,-0.13954919576644897,0.231992419399067,-0.10251009508439368,-0.07240544155942645,-0.9645873183386067,0.09225039971901153,-0.23448574657585725,-2.658666173859409
1783166225927307008,2.0195069313049316,-0.5426310896873474,-0.5479705929756165,0.2603306174278259,-0.23862574994564056,-0.08603907376527786,-0.9672926068305969,0.38492703437805176,-0.17014074325561523,-0.0696183443069458,0.23184210727991006,-0.10682799036635206,-0.07029554025991874,-0.9643109925037062,0.08614558066149164,-0.2418651638318202,-2.659228487108969
1783166225937225728,2.029425859451294,-0.6521674990653992,-0.5085878968238831,0.14281664788722992,-0.2427978217601776,-0.08036913722753525,-0.9667419791221619,0.1454620063304901,-0.09971509128808975,-0.16152340173721313,0.23231909706644682,-0.10952060173691432,-0.0680753791619851,-0.9640533036537777,0.08045590621951512,-0.24606128093767657,-2.6586927492152244
1783166225947145984,2.0393459796905518,-1.2167197465896606,-0.7243462800979614,0.15123356878757477,-0.24890926480293274,-0.07091758400201797,-0.9659269452095032,0.24953487515449524,-0.18182900547981262,-0.16597002744674683,0.23236768241144007,-0.11364986097342096,-0.06418904966568904,-0.963830213151488,0.07097716051664764,-0.25220267066276414,-2.659444330627831
1783166225957064960,2.049264907836914,-1.2931437492370605,-0.5652602314949036,0.35582438111305237,-0.25454312562942505,-0.057921312749385834,-0.9653252959251404,0.22101956605911255,-0.23625287413597107,-0.22432619333267212,0.23271573975999116,-0.11794284418430687,-0.05853921644883106,-0.9635901450765196,0.057953747157673256,-0.2578178952136368,-2.660135433931348
1783166225966984960,2.059185028076172,-1.574350118637085,-0.7508144378662109,0.36621204018592834,-0.2604449391365051,-0.04343516379594803,-0.9645111560821533,0.25704225897789,-0.10199634730815887,-0.1914183497428894,0.23362007794271894,-0.12252556498910443,-0.05226754989787717,-0.9631600224854782,0.04344883415417448,-0.2637378598439764,-2.659908345461774
1783166225976904960,2.0691049098968506,-1.9130847454071045,-0.667373776435852,0.16710548102855682,-0.2672243118286133,-0.02561650611460209,-0.9632937908172607,0.19849872589111328,0.08236394822597504,-0.13866543769836426,0.23340224129847603,-0.1280147163223332,-0.04433203434889438,-0.9628968175481473,0.025619308604841788,-0.27060247757319145,-2.66248650946697
1783166225986823680,2.079023838043213,-1.5038636922836304,-0.7131689786911011,-0.01483369804918766,-0.274140864610672,-0.009347320534288883,-0.9616441130638123,0.247560054063797,0.0864042118191719,-0.24503618478775024,0.2324789972968481,-0.13342896154526185,-0.03707634291906736,-0.962691808184883,0.00934745695214671,-0.27770869727066255,-2.6663824111008596
1783166225996742912,2.0889430046081543,-1.5507152080535889,-0.8404980301856995,-0.006727368105202913,-0.2807598412036896,0.004761507268995047,-0.9597662687301636,0.24191096425056458,0.09879989922046661,-0.17614376544952393,0.23141260385040835,-0.13844625227834317,-0.030814186512706874,-0.9624610424015181,-0.004761525314868994,-0.2845890080750801,-2.6703558254210598
1783166226006662912,2.098862886428833,-1.7392164468765259,-0.7389777898788452,0.06020665913820267,-0.2884684205055237,0.020324230194091797,-0.9572736620903015,0.24679669737815857,-0.0430903397500515,-0.1850297451019287,0.23048401130392218,-0.14418092896036774,-0.023979639708010852,-0.9620362991896803,-0.020325629535861495,-0.29268912021899013,-2.674294300655742
1783166226016582912,2.108783006668091,-1.7484188079833984,-0.7746503353118896,-0.0929773673415184,-0.2945873737335205,0.03721543028950691,-0.9548996090888977,0.195664644241333,-0.2536461055278778,-0.1911422610282898,0.22905680056592048,-0.1492899479335503,-0.016207949649180212,-0.9617602837622562,-0.03722402700097239,-0.2992373978109861,-2.679587901702554
1783166226026501888,2.118701934814453,-1.5251069068908691,-0.8903191089630127,0.2291913479566574,-0.30212515592575073,0.052942220121622086,-0.9517970085144043,0.38383597135543823,-0.3287448287010193,-0.1505131721496582,0.22803153512761232,-0.15497225023151318,-0.009225421467012484,-0.9611972246172962,-0.052966984242603224,-0.30736635207261953,-2.683937718682458
1783166226036421888,2.128622055053711,-1.3618062734603882,-0.8287152647972107,0.34750765562057495,-0.31046417355537415,0.06738893687725067,-0.9481934309005737,0.26892974972724915,-0.25044864416122437,-0.08339226245880127,0.22830723320733445,-0.16091379373067924,-0.0031694801313283828,-0.9601940505275159,-0.06744004385441016,-0.31642550850801787,-2.6854820041058995
1783166226046340864,2.1385409832000732,-1.6095151901245117,-0.7075477838516235,0.041196178644895554,-0.3171291947364807,0.08143335580825806,-0.9448797106742859,0.1795559823513031,-0.10473353415727615,0.011865854263305664,0.22813911672363935,-0.1659859129038405,0.002969443303903982,-0.9593708774473972,-0.08152362635435663,-0.3238153955127407,-2.6879867784222755
1783166226056260864,2.148460865020752,-2.0459775924682617,-0.7468321919441223,-0.15848173201084137,-0.32380762696266174,0.09824226051568985,-0.9410085678100586,0.11378565430641174,0.29161977767944336,-0.010956764221191406,0.2261269837645198,-0.1714028251302888,0.010807168378381391,-0.9588383663263428,-0.0984009849456468,-0.331415309923162,-2.6948574156699467
1783166226066180096,2.1583800315856934,-1.7228726148605347,-0.73720782995224,-0.22755907475948334,-0.33030107617378235,0.11578068882226944,-0.9367476105690002,0.11629655957221985,0.48004448413848877,-0.15729230642318726,0.2236877946134769,-0.1768046653445426,0.01913942690399778,-0.9582993431785619,-0.11604094140137108,-0.3389928797862269,-2.702842070216725
1783166226076099840,2.168299913406372,-1.2308485507965088,-0.7082746624946594,-0.3805154860019684,-0.3369048535823822,0.1284286379814148,-0.9327385425567627,0.1560882031917572,0.3637741208076477,-0.1710822582244873,0.22090871029564263,-0.18165493629462867,0.025143766313850957,-0.9578979957885694,-0.12878433708815454,-0.34661719397604507,-2.710857606090662
1783166226086018816,2.1782188415527344,-1.3610800504684448,-0.7213078737258911,-0.8039122819900513,-0.345060795545578,0.13719186186790466,-0.9284995794296265,0.1333145797252655,0.15391531586647034,-0.13477861881256104,0.2167169239520105,-0.18678433906177855,0.02935696246733872,-0.9577491622364306,-0.13762591557358392,-0.3558152434929213,-2.7213170367375445
1783166226095938816,2.188138961791992,-1.6854997873306274,-0.8119463920593262,-0.7231987118721008,-0.35280248522758484,0.14912548661231995,-0.9237380623817444,0.23286840319633484,-0.09999218583106995,-0.12869113683700562,0.2118428155045911,-0.19203950018111482,0.03538081450538516,-0.9575968131497434,-0.1496838117853307,-0.36483165330960576,-2.7338203660616816
1783166226105857792,2.1980578899383545,-1.7141047716140747,-0.7139982581138611,-0.405193030834198,-0.36039412021636963,0.16264177858829498,-0.918511688709259,0.35058271884918213,-0.24624468386173248,-0.12164944410324097,0.20748617609031197,-0.1973979119953791,0.04216896857265892,-0.957186110334214,-0.16336749290164618,-0.3739093586863797,-2.745633690516812
1783166226115778048,2.2079780101776123,-1.5237571001052856,-0.7164483666419983,-0.3526119291782379,-0.36747777462005615,0.1758948713541031,-0.9132475256919861,0.28015175461769104,-0.21916881203651428,-0.17806100845336914,0.2042230320324023,-0.20249285928407879,0.04871207769096549,-0.9565128418284295,-0.1768147344580186,-0.3825613490988442,-2.755219586556178
1783166226125697024,2.2178969383239746,-1.1736102104187012,-0.3574862778186798,-0.21533477306365967,-0.3723766505718231,0.18673616647720337,-0.9091013073921204,0.21101495623588562,-0.21357637643814087,-0.17503559589385986,0.20163495019290584,-0.20618938842767373,0.05417812141464439,-0.9559780737243618,-0.18783881874126043,-0.3887629947371742,-2.7629303940792447
1783166226135617024,2.2278170585632324,-1.148119330406189,-0.7097452878952026,-0.12095071375370026,-0.3774082660675049,0.19690756499767303,-0.9048703908920288,0.20925641059875488,-0.20409445464611053,-0.12074911594390869,0.19989875220155967,-0.20992268715991796,0.05913774424657452,-0.9552359589058657,-0.19820272948354123,-0.39514790386423665,-2.768816261669776
1783166226145536000,2.2377359867095947,-0.9030386209487915,-0.49661785364151,-0.1134192943572998,-0.3824305236339569,0.20535722374916077,-0.9008747339248657,0.1260981261730194,-0.31836381554603577,-0.14540517330169678,0.19834946589965657,-0.21346347906105717,0.0632136452259091,-0.9545129593318421,-0.20682869378831895,-0.40145571465209395,-2.774048344822216
1783166226155455744,2.2476558685302734,-0.6332784295082092,-0.4145723283290863,0.13360704481601715,-0.3871440589427948,0.21254314482212067,-0.8971872329711914,0.1816539466381073,-0.34654584527015686,-0.0946493148803711,0.1976640961453967,-0.2167562141870057,0.06650664727714926,-0.9536889553987812,-0.2141768441327554,-0.4073706064098656,-2.7772553870221257
1783166226165374976,2.257575035095215,-0.2822549343109131,-0.37263554334640503,0.11073660850524902,-0.38985133171081543,0.21661394834518433,-0.8950387239456177,0.12521815299987793,-0.3656465411186218,-0.10360324382781982,0.19796852120308184,-0.21869492540387325,0.06821407287739206,-0.9530623717121766,-0.2183447331068307,-0.41078870837525994,-2.777642780551013
1783166226175294976,2.2674949169158936,-0.3267233371734619,-0.22565540671348572,0.21734774112701416,-0.3920281231403351,0.21971362829208374,-0.8933308124542236,0.1721031665802002,-0.36641162633895874,-0.008219480514526367,0.19838175675874545,-0.22024941221399474,0.06946076627669456,-0.9525283246852795,-0.22152091308377925,-0.4135335042440641,-2.7775757064868647
1783166226185213696,2.277413845062256,-0.41114872694015503,-0.25421300530433655,0.3203292489051819,-0.39336591958999634,0.22416403889656067,-0.8916354179382324,0.23287397623062134,-0.28165918588638306,0.010501384735107422,0.19949716415518223,-0.22157835457733313,0.0713114022240157,-0.9518501409408712,-0.226085165266515,-0.41548961512039023,-2.7762464210136097
1783166226195133952,2.2873339653015137,0.03151964023709297,-0.03775770962238312,0.2410304993391037,-0.393947035074234,0.22693884372711182,-0.8906764388084412,0.1688951551914215,-0.13070166110992432,-0.03771406412124634,0.20052156305250454,-0.22230170036928684,0.07241368471129168,-0.9513828404593909,-0.22893336044245383,-0.4164329847085923,-2.7747078903519746
1783166226205052928,2.297252893447876,0.10252084583044052,-0.24649548530578613,0.2657741904258728,-0.39427778124809265,0.22726626694202423,-0.8904465436935425,0.20960068702697754,0.032026320695877075,0.002049386501312256,0.20191695174984906,-0.22262350222399235,0.07221841478261377,-0.9510272055991538,-0.22926957480942464,-0.4168390626559108,-2.7718689450972818
1783166226214972928,2.307173013687134,0.030989602208137512,-0.133113294839859,0.17999401688575745,-0.39538004994392395,0.22743523120880127,-0.8899145126342773,0.14635661244392395,0.05679023265838623,0.07320308685302734,0.2032863677796407,-0.22333339204736072,0.07186756676129129,-0.9505954885708369,-0.22944308380198827,-0.41809528222433,-2.769116739375402
1783166226224891904,2.317091941833496,-0.04664340615272522,-0.14480750262737274,0.2769698202610016,-0.3960249125957489,0.2282036989927292,-0.8894308805465698,0.1331923007965088,-0.11187069118022919,0.1580619215965271,0.20428907661321158,-0.22384706509927066,0.07195170021888528,-0.9502532651576358,-0.23023229641663506,-0.41890226323619395,-2.767218842641838
1783166226234811904,2.327012062072754,-0.20723974704742432,-0.027925018221139908,0.2057913988828659,-0.3959362208843231,0.22988438606262207,-0.8890374898910522,0.11784482002258301,-0.21186377108097076,0.20249885320663452,0.20539466758004904,-0.22409368695153903,0.07254838373531,-0.9499114738651236,-0.23195888038326415,-0.41898342853120385,-2.765228291776211
1783166226244730880,2.336930990219116,-0.7200700044631958,0.1270190328359604,-0.06719620525836945,-0.3948305547237396,0.23465502262115479,-0.8882825374603271,0.046869128942489624,-0.2352806180715561,0.30005621910095215,0.20519166335614084,-0.22408840159269053,0.07512076084253305,-0.9497565768563271,-0.23686366090348998,-0.41826036012979756,-2.7665360331706914
1783166226254650880,2.346850872039795,-0.7309042811393738,0.357965886592865,0.029859371483325958,-0.39267247915267944,0.24057947099208832,-0.8876541256904602,0.14609044790267944,-0.268304705619812,0.2425888180732727,0.20429122663163643,-0.2236123736714943,0.07855215491364458,-0.9497853685040969,-0.2429628081873975,-0.4164916062664217,-2.7694474059107757
1783166226264570112,2.3567700386047363,-1.506529450416565,0.5590401291847229,-0.015884680673480034,-0.3889467418193817,0.24988198280334473,-0.8867239952087402,0.09037801623344421,-0.16234232485294342,0.34378576278686523,0.2029912711631061,-0.2226891308576438,0.08394970083707279,-0.9498192634420103,-0.2525583722334053,-0.413361337195154,-2.7737219870383694
1783166226274489856,2.366689920425415,-1.9660029411315918,0.6584388613700867,-0.03497188910841942,-0.38329166173934937,0.2656545639038086,-0.8845988512039185,0.12039801478385925,-0.20449736714363098,0.24202078580856323,0.200564977949966,-0.22143806686669376,0.09308996776787865,-0.9497753434584947,-0.26888280892725,-0.4088749702644533,-2.7814379833539777
1783166226284408832,2.3766088485717773,-1.4552805423736572,0.7810041904449463,0.24121415615081787,-0.3766810894012451,0.281183123588562,-0.8826366066932678,0.21890521049499512,-0.2937563955783844,0.05176502466201782,0.19906316800813495,-0.21972378063298495,0.10199581966707573,-0.9495747723907771,-0.2850267667409217,-0.4033672329727759,-2.7869678961295685
1783166226294328832,2.386528968811035,-1.5842453241348267,0.5933224558830261,0.052829936146736145,-0.37003350257873535,0.29451724886894226,-0.8810986280441284,0.19528985023498535,-0.15859195590019226,0.21911132335662842,0.19760977872488553,-0.21771130409816697,0.10978373970385127,-0.9494734211291334,-0.29895032488261813,-0.397601059701955,-2.791860976930899
1783166226304247808,2.3964478969573975,-1.284153938293457,0.8475787043571472,0.25815752148628235,-0.36324307322502136,0.3079020380973816,-0.8793467879295349,0.26029202342033386,-0.1355845332145691,0.2506846785545349,0.19629480356758736,-0.2156391445344129,0.11758553861044724,-0.9492848505292713,-0.3129871431850577,-0.39173357566090705,-2.796368306196812
1783166226314168064,2.4063680171966553,-0.5749444961547852,0.8419062495231628,0.3475959599018097,-0.35441797971725464,0.3170110881328583,-0.8797112703323364,0.20471400022506714,-0.10846921801567078,0.17115414142608643,0.1963948707080573,-0.21212281592536797,0.1230783838093575,-0.9493601530764298,-0.3225763668729753,-0.3829865746825033,-2.796670704989511
1783166226324086784,2.4162869453430176,0.19717225432395935,1.0696511268615723,0.39965835213661194,-0.3444872796535492,0.3197444975376129,-0.8826618790626526,0.2394762933254242,-0.07607689499855042,0.1933918595314026,0.19730037711538836,-0.20732937665226614,0.1252341456802557,-0.9499492325964927,-0.32545980810202485,-0.3721010505712322,-2.7938115631369067
1783166226334006784,2.4262068271636963,0.5295361876487732,1.1671147346496582,0.4236263632774353,-0.33251655101776123,0.3176349103450775,-0.8879981637001038,0.29612433910369873,-0.024391502141952515,0.22540056705474854,0.19898338184181094,-0.20096839767105834,0.12495042257341243,-0.9510019141344828,-0.32323419750961147,-0.3582939460032844,-2.7881046824150713
1783166226343926016,2.4361259937286377,0.5051254034042358,1.0605909824371338,0.4047597348690033,-0.3210296034812927,0.31422361731529236,-0.8934223651885986,0.3194884657859802,-0.05902037024497986,0.26201367378234863,0.20068003057859432,-0.1947274374085109,0.12397596512537934,-0.9520707959622531,-0.3196387278568252,-0.3449585085164202,-2.7822578602652897
1783166226353845760,2.4460458755493164,0.5624631643295288,0.6661209464073181,0.32689082622528076,-0.3117715120315552,0.31054526567459106,-0.8979755640029907,0.3478127717971802,-0.08602744340896606,0.22579538822174072,0.20236000864797057,-0.1896400975630389,0.12267372369442883,-0.9529103585448444,-0.3157666073647095,-0.33417264064887364,-2.7767807101065576
1783166226363764992,2.455965042114258,0.9582520127296448,0.6005925536155701,0.3633497655391693,-0.3043641448020935,0.3044387996196747,-0.9025959968566895,0.295468270778656,-0.011149615049362183,0.21610307693481445,0.2043835718267985,-0.185268684216727,0.11990634209890387,-0.9536903672883966,-0.3093492047570123,-0.32523524835852724,-2.7705144864938838
1783166226373684992,2.4658849239349365,0.6934337019920349,0.42750972509384155,0.4960382878780365,-0.2978435158729553,0.29760366678237915,-0.9070398211479187,0.1681133210659027,0.09357064962387085,0.3090021014213562,0.20699279546453986,-0.1813447349847111,0.11659401839512555,-0.954292311827806,-0.30218159386907595,-0.3172757840901064,-2.7631013287175206
1783166226383603712,2.475803852081299,-0.05568450316786766,0.9837963581085205,0.4143564999103546,-0.2895091474056244,0.2959287464618683,-0.9102805256843567,0.0008891522884368896,0.013458460569381714,0.3843100666999817,0.20930371827639788,-0.17710237280885935,0.11616580239785947,-0.954637183860618,-0.3004276813412874,-0.307927525080973,-2.756893170763352
1783166226393523968,2.4857239723205566,-0.39196306467056274,1.1016602516174316,0.15013356506824493,-0.2777940332889557,0.29892560839653015,-0.912947952747345,-0.07753738760948181,-0.14531537890434265,0.32955867052078247,0.20989639545201721,-0.17151214279670088,0.11878389938515321,-0.9552054123905668,-0.303566584631795,-0.2953809957784642,-2.7544938627787725
1783166226403442944,2.495642900466919,-0.08725055307149887,1.1625339984893799,0.06174483150243759,-0.2647196054458618,0.300442636013031,-0.9163284301757812,0.021494507789611816,-0.242489755153656,0.17728424072265625,0.20964315759367705,-0.1649488363458038,0.12094490682880082,-0.9561454348810089,-0.30515669110874655,-0.28123472987779913,-2.753433440866185
1783166226413362944,2.5055630207061768,-0.007701932918280363,0.9203696250915527,0.21033909916877747,-0.24920330941677094,0.29922959208488464,-0.9210642576217651,0.18012677133083344,-0.15326401591300964,0.14349162578582764,0.21000660318577102,-0.1568939117973525,0.12186947493983447,-0.9573032269987636,-0.3038851559533308,-0.2642338727740132,-2.7503797673905956
1783166226423281920,2.515481948852539,0.11551959812641144,0.9261367321014404,0.24852164089679718,-0.23540566861629486,0.2981022000312805,-0.9250509738922119,0.27242347598075867,0.03843039274215698,0.18724274635314941,0.2110412633461799,-0.14984427953394708,0.12256106727440515,-0.9581164775911466,-0.3027038483386402,-0.2491893439286165,-2.746182306205282
1783166226433201664,2.5254018306732178,0.11036238819360733,1.0135271549224854,0.06751896440982819,-0.22377178072929382,0.29637593030929565,-0.9284866452217102,0.16499491035938263,0.16128093004226685,0.21257483959197998,0.2114926229365753,-0.1437702400974709,0.12282826233580456,-0.9589130454353041,-0.30089586089403536,-0.23649690592874498,-2.743449819564647
1783166226443121920,2.5353219509124756,0.38777509331703186,1.1119139194488525,0.03107493929564953,-0.21222637593746185,0.29415640234947205,-0.931896984577179,0.17746685445308685,0.13774362206459045,0.18613892793655396,0.2112937494430861,-0.1376149678030946,0.1229375036484104,-0.9598455437831794,-0.29857274268447664,-0.22391695734159645,-2.742054713831425
1783166226453040896,2.545240879058838,0.6838974952697754,0.7772315144538879,0.10789471864700317,-0.2022344022989273,0.2886531352996826,-0.9358314871788025,0.2406865507364273,0.09666180610656738,0.1562904715538025,0.21144549112610223,-0.13190641173476594,0.12118146694692501,-0.9608363464683287,-0.2928198075021308,-0.21282855887820123,-2.739871111862213
1783166226462960896,2.5551609992980957,0.5900793671607971,0.9534547328948975,0.24552315473556519,-0.19320984184741974,0.28284648060798645,-0.9395040273666382,0.27809447050094604,0.18625447154045105,0.2846425771713257,0.21238731664727664,-0.12676460986597862,0.11907441509286536,-0.9615839447681344,-0.28676048246848806,-0.20282315157187994,-2.736208632005915
1783166226472879872,2.565079927444458,0.37570837140083313,1.0150960683822632,0.030788550153374672,-0.18238762021064758,0.27841272950172424,-0.9429852366447449,0.07615593075752258,0.23393163084983826,0.22476929426193237,0.21283992515277256,-0.12083730707621484,0.11792259546457716,-0.9623885993430416,-0.2821411004231085,-0.19105602427591825,-2.733497303259204
1783166226482800128,2.575000047683716,0.46877118945121765,0.8541396260261536,0.0040048714727163315,-0.17317284643650055,0.27485790848731995,-0.9457612037658691,0.07811060547828674,0.16590744256973267,0.08048111200332642,0.21259018645933717,-0.11575214888318333,0.1171359269513616,-0.9631645899577984,-0.2784419027982433,-0.18109807450688764,-2.732562768238438
1783166226492718848,2.584918975830078,0.7640260457992554,0.8111562728881836,0.17565029859542847,-0.16474632918834686,0.2686523497104645,-0.9490439891815186,0.08886440098285675,0.019845545291900635,-0.02948683500289917,0.2129247660307607,-0.11082804695302143,0.11487008497095506,-0.9639423930941191,-0.27199368525085243,-0.1718790616540727,-2.7303725969436465
1783166226502638848,2.594838857650757,0.45953595638275146,0.610741913318634,0.34027573466300964,-0.15694306790828705,0.2631504535675049,-0.951903760433197,0.09400056302547455,-0.03835797309875488,-0.02441459894180298,0.21406583783102598,-0.10640499869464978,0.11281005281148165,-0.9644313121979419,-0.2662862951245122,-0.1634028220222449,-2.7266866566512533
1783166226512558080,2.6047580242156982,0.27061548829078674,0.4782417118549347,0.21378260850906372,-0.1502837836742401,0.2600262761116028,-0.9538349509239197,0.08097836375236511,-0.13543826341629028,-0.22504383325576782,0.21534619455531867,-0.1028574300525634,0.1118162468350301,-0.9646468348117692,-0.2630494288082025,-0.15627275626966866,-2.723033022404308
1783166226522477824,2.614677906036377,0.14147989451885223,0.04738936945796013,0.3589712083339691,-0.14640916883945465,0.25835344195365906,-0.954891562461853,0.10179246962070465,-0.24295732378959656,-0.334567666053772,0.21674468881359923,-0.1008874977010359,0.11124721750713072,-0.9646074146654479,-0.26131738937050025,-0.1521406187458707,-2.7195703787045233
1783166226532396800,2.6245968341827393,-0.5447349548339844,0.09932519495487213,0.4266067445278168,-0.14381812512874603,0.25989222526550293,-0.9548677206039429,-0.05787254869937897,-0.28731226921081543,-0.20908796787261963,0.21849137368121566,-0.09998358101471154,0.11211342784178796,-0.9642070991364355,-0.2629105920664549,-0.1494920986094317,-2.7157167107451516
1783166226542316800,2.634516954421997,-1.4322320222854614,0.4108348786830902,0.30479827523231506,-0.13927367329597473,0.26965591311454773,-0.9528318643569946,-0.30277344584465027,-0.14955398440361023,-0.14410722255706787,0.21968009633305421,-0.09904361099122476,0.11736455138201639,-0.963408884918724,-0.27303570070768485,-0.14514033598785914,-2.7131841472242293
1783166226552235776,2.6444358825683594,-2.203876256942749,0.47896742820739746,0.17079785466194153,-0.1336343139410019,0.2870631515979767,-0.948544442653656,-0.3440573215484619,0.08036848902702332,-0.1338377594947815,0.21967255788569365,-0.09835847379085977,0.1267019207941385,-0.9622973179623616,-0.2911595373414297,-0.13996241081082267,-2.71327928386008
1783166226562156032,2.654356002807617,-2.4345483779907227,0.2472420334815979,-0.046516627073287964,-0.12828503549098969,0.30929338932037354,-0.9422741532325745,-0.19997729361057281,0.28894269466400146,-0.12561219930648804,0.21860925042239546,-0.09827897184677939,0.1385791246802601,-0.9609095201966334,-0.31444989354111197,-0.1353121556195076,-2.715686108804891
1783166226572075008,2.6642749309539795,-1.6860772371292114,0.3179655075073242,-0.2557772696018219,-0.12401481717824936,0.32695236802101135,-0.93686842918396,-0.06600289791822433,0.44485244154930115,-0.26480698585510254,0.21710078536679536,-0.09810503055975765,0.14812554847117773,-0.95984456052227,-0.333076894427145,-0.1316065192851203,-2.718865393863446
1783166226581995008,2.6741950511932373,-2.015983819961548,0.15264073014259338,-0.24367134273052216,-0.11993233859539032,0.3434748947620392,-0.9314725995063782,0.05300728976726532,0.5184025764465332,-0.11082476377487183,0.2150633427167491,-0.09778635338732754,0.15716718020939244,-0.9588972768610166,-0.3506143882857471,-0.12805111455632417,-2.723042042010409
1783166226591913984,2.6841139793395996,-1.4171193838119507,0.28094515204429626,-0.03933408111333847,-0.11781974881887436,0.3593830466270447,-0.925722599029541,0.27588555216789246,0.2559733986854553,-0.4332404136657715,0.2131169912754113,-0.09837459450004091,0.16571402497003657,-0.9578321530664435,-0.3676066768993626,-0.12659266964269567,-2.727290855864045
1783166226601833728,2.6940338611602783,-1.016742467880249,-0.28731271624565125,0.051085565239191055,-0.11819589138031006,0.3699674904346466,-0.9214954376220703,0.44856393337249756,-0.0837889015674591,-0.5049571990966797,0.21266961790185274,-0.09980453140849228,0.1711471558318696,-0.9568277676245321,-0.37897402237168926,-0.12756876495896893,-2.728670818773598
1783166226611752960,2.7039530277252197,-1.7552427053451538,-0.20994386076927185,0.2424609214067459,-0.11874742060899734,0.38163042068481445,-0.9166554808616638,0.45248764753341675,-0.22855424880981445,-0.2658701539039612,0.2130521469687627,-0.10161847265015572,0.17704784242522156,-0.9554771866783687,-0.39155957401673325,-0.12882677018943278,-2.728394057901672
1783166226621672960,2.7138729095458984,-2.324303388595581,-0.49087750911712646,0.30907854437828064,-0.12068957835435867,0.4018947184085846,-0.9076974391937256,0.4445878863334656,-0.4057094156742096,-0.22131562232971191,0.21358613968863888,-0.10528798612549078,0.18725842649921903,-0.953010842780757,-0.4135851017271127,-0.13218700130300387,-2.728414951465353
1783166226631591680,2.7237918376922607,-1.938289761543274,-0.3132288157939911,0.304190456867218,-0.12280183285474777,0.4203678369522095,-0.8990053534507751,0.36004549264907837,-0.418826699256897,-0.30382972955703735,0.21451034303836672,-0.10895115341950369,0.19653746683337245,-0.9505198769993275,-0.43385067647146913,-0.1357572498149894,-2.7276392541969163
1783166226641511936,2.7337119579315186,-2.3319387435913086,-0.19435834884643555,0.021781936287879944,-0.12411835789680481,0.43989676237106323,-0.8894298672676086,0.2655520737171173,0.010008633136749268,-0.05276983976364136,0.21443920278743694,-0.11220161382083672,0.20662979579240615,-0.948014075974711,-0.45548370874527583,-0.13865282823691805,-2.7288665033980255
1783166226651430912,2.743630886077881,-2.750413656234741,0.006922637112438679,-0.48774561285972595,-0.12522093951702118,0.4611227810382843,-0.8784562945365906,0.14273802936077118,0.3930031955242157,-0.11867505311965942,0.21182706023108655,-0.11504144344403876,0.21803053078559295,-0.9457046913041922,-0.47926011296566234,-0.1415926790678566,-2.7355385297903405
1783166226661351168,2.7535512447357178,-2.453364849090576,0.1364894062280655,0.11024988442659378,-0.12522076070308685,0.4843277633190155,-0.8658789992332458,0.33570048213005066,0.4786238968372345,-0.26192861795425415,0.20908872563434974,-0.11755788672744563,0.23073935372927196,-0.9429854293880093,-0.5055946240528305,-0.14362121133091796,-2.7423522746640296
1783166226671270144,2.76347017288208,-1.565262794494629,-0.1979191154241562,0.1595231294631958,-0.12439515441656113,0.5012108087539673,-0.856337308883667,0.34567809104919434,0.12233960628509521,-0.3303844928741455,0.2089364774508892,-0.11943579997844138,0.23993006408415934,-0.9404861775754807,-0.5249974618728012,-0.14425517059118095,-2.743200967186179
1783166226681190144,2.773390293121338,-1.5138739347457886,-0.3454124331474304,-0.1891869157552719,-0.12667886912822723,0.5139619708061218,-0.8484076857566833,0.21539348363876343,-0.037948787212371826,-0.12250912189483643,0.20828898507010138,-0.12223670665387171,0.24668676368620915,-0.9385198226698861,-0.5397971030009964,-0.1482186670397622,-2.7458790418364623
1783166226691109120,2.7833092212677,-1.2207205295562744,-0.30430153012275696,-0.09864211082458496,-0.13018229603767395,0.5253177881240845,-0.8408886790275574,0.16272929310798645,-0.03575479984283447,-0.13890868425369263,0.20707202080865791,-0.12533696217334075,0.25267826162729096,-0.936784667877362,-0.5530885529495223,-0.15359576414705314,-2.7501700251261822
1783166226701029376,2.793229341506958,-0.9268262982368469,-0.10425391793251038,-0.07637622207403183,-0.13200554251670837,0.5340389013290405,-0.8350909948348999,0.08294853568077087,0.08465921878814697,-0.1624065637588501,0.20661368045048506,-0.1274102896513871,0.25733461957892034,-0.9353375469149582,-0.5633705386908826,-0.1567760404849154,-2.752233485387096
1783166226710948352,2.8031482696533203,-0.9851799011230469,-0.10333934426307678,-0.1464090645313263,-0.133363276720047,0.541914701461792,-0.8297846913337708,0.1169905960559845,0.1305248737335205,0.008846640586853027,0.2054980795807937,-0.1289472176460607,0.26168732710440584,-0.934164253568786,-0.572713674698739,-0.1593575364651659,-2.7555425381199954
1783166226720868352,2.813068389892578,-0.9579432010650635,-0.001835091970860958,-0.20582632720470428,-0.13466235995292664,0.5493482947349548,-0.82467120885849,0.16093797981739044,0.08616501092910767,-0.021276116371154785,0.20422090372064716,-0.13034594189080834,0.26584646323848654,-0.9330753301108247,-0.581584095051681,-0.1618636068967965,-2.759189250926471
1783166226730787328,2.8229873180389404,-1.2389976978302002,0.04672810807824135,-0.20356197655200958,-0.13542677462100983,0.5579186081886292,-0.8187713027000427,0.18095898628234863,0.0016517043113708496,0.18749994039535522,0.2025600122135908,-0.13152295576422499,0.27076937754294456,-0.931855826356755,-0.5918756860879989,-0.16391836209281443,-2.763585847560685
1783166226740707072,2.832907199859619,-1.6859456300735474,0.2131037712097168,-0.10476162284612656,-0.1350361406803131,0.5694645643234253,-0.8108485341072083,0.1748463213443756,-0.016806483268737793,0.22199660539627075,0.2007612225667972,-0.1324936493288801,0.27752687898000555,-0.9301178589554945,-0.605854366709302,-0.16502235230711434,-2.76810844104691
1783166226750626304,2.8428263664245605,-1.950843095779419,0.3592977821826935,0.010114063508808613,-0.13290634751319885,0.5841361880302429,-0.8007001876831055,0.16079942882061005,-0.00161665678024292,0.12095165252685547,0.1989719815735239,-0.13302241740870763,0.2862777366410896,-0.9277716127783894,-0.6238153841017784,-0.1644879469888104,-2.772212025900552
1783166226760546304,2.8527462482452393,-1.807013750076294,0.34891170263290405,-0.13642477989196777,-0.1300124228000641,0.5989078879356384,-0.7901937365531921,0.12578576803207397,0.024810314178466797,-0.02233678102493286,0.19700902491648017,-0.13311301520409946,0.2952694880624848,-0.9253563096422689,-0.6421366793764742,-0.1630713305119293,-2.7763957710436933
1783166226770465024,2.8626651763916016,-1.462222695350647,0.40508973598480225,-0.1025969386100769,-0.12760774791240692,0.6116288304328918,-0.7807857394218445,0.16419833898544312,0.02025282382965088,-0.11977267265319824,0.1947739078201496,-0.13305796502858103,0.3031545871419934,-0.9232853921710147,-0.6581177999367495,-0.16200274577223775,-2.781201411806851
1783166226780385280,2.8725852966308594,-1.0580291748046875,0.298524409532547,-0.10390907526016235,-0.12540608644485474,0.6210944652557373,-0.7736375331878662,0.19941119849681854,0.012664079666137695,-0.2049696445465088,0.19289499847699967,-0.13272057203369483,0.30913829840062407,-0.9217430990090671,-0.6701383916471326,-0.16070146131930652,-2.7850651231796544
1783166226790304256,2.8825042247772217,-0.8946287631988525,0.2923819422721863,-0.19812892377376556,-0.12377548217773438,0.628105640411377,-0.7682206630706787,0.19727705419063568,0.05216169357299805,-0.1424696445465088,0.19114721097671453,-0.13234374972187313,0.31364756904308977,-0.9206373522003705,-0.6791162674845993,-0.15974682081716615,-2.7886942499971217
1783166226800224256,2.8924243450164795,-1.102373719215393,0.3640388250350952,-0.21940357983112335,-0.12269505858421326,0.6353715062141418,-0.7623968720436096,0.18098363280296326,0.12793415784835815,-0.03238767385482788,0.18900715633019446,-0.13215382512610027,0.31833462091428627,-0.9194970491083541,-0.6884895480380975,-0.15956515527253629,-2.7934437912548002
1783166226810143232,2.902343273162842,-1.2583224773406982,0.34894901514053345,-0.2979796826839447,-0.12145812064409256,0.6439688801765442,-0.7553489804267883,0.13009458780288696,0.1767403483390808,-0.00562208890914917,0.18654453072208557,-0.13196089438191022,0.32390095092493515,-0.9180826818410391,-0.6996747308363028,-0.159432619771677,-2.798947288312481
1783166226820063232,2.9122633934020996,-1.2049039602279663,0.3402673900127411,-0.3203582167625427,-0.12072329223155975,0.6528177261352539,-0.7478334307670593,0.07249026745557785,0.1963186264038086,-0.008117437362670898,0.18374811797247545,-0.1319398402827481,0.32965914637433624,-0.9165987616963097,-0.7112981980397192,-0.16004995841969674,-2.8054620135461326
1783166226829983232,2.9221832752227783,-1.0742470026016235,0.43558165431022644,-0.37217089533805847,-0.11968639492988586,0.6610035300254822,-0.7407763004302979,0.042583733797073364,0.17511707544326782,-0.08097052574157715,0.18085100826466036,-0.131599922392769,0.33510195437951523,-0.9152492131726918,-0.7221553684740393,-0.16018461129079356,-2.812025998011526
1783166226839902208,2.9321022033691406,-0.6969777345657349,0.480707049369812,-0.509209394454956,-0.11915034055709839,0.6668838858604431,-0.7355740070343018,-0.007879100739955902,0.040269434452056885,-0.23544955253601074,0.1774451524214107,-0.13096393940411663,0.33920705875337853,-0.9144946182014945,-0.7300191322577627,-0.1605879654609467,-2.8197620854705963
1783166226849822208,2.9420223236083984,-0.5428534150123596,0.3636883497238159,-0.49724769592285156,-0.11951510608196259,0.6706783175468445,-0.7320564985275269,0.06591098010540009,-0.04445761442184448,-0.24952614307403564,0.17399721639457552,-0.1304555148206496,0.3419840642954352,-0.9141953710195349,-0.735122857389916,-0.16183167494536022,-2.8278661741035767
1783166226859741184,2.9519412517547607,-0.49780288338661194,0.34832829236984253,-0.3703267574310303,-0.11999300122261047,0.6738400459289551,-0.7290688157081604,0.15351656079292297,-0.09000825881958008,-0.2298240065574646,0.17111187534908195,-0.13010840173531305,0.34429260975251996,-0.9139229649484446,-0.7393936681063608,-0.16312154249915656,-2.8347538297963157
1783166226869661440,2.9618613719940186,-0.5821237564086914,0.14482583105564117,-0.2165350317955017,-0.11986489593982697,0.6774037480354309,-0.7257800102233887,0.18242591619491577,-0.11664324998855591,-0.20743227005004883,0.16906779701326524,-0.12980342923282284,0.3467867720645361,-0.9134036451716352,-0.7442275139160016,-0.16367576647183316,-2.839545872583729
1783166226879580160,2.971780300140381,-0.6263362169265747,0.11818277090787888,-0.20878416299819946,-0.12014958262443542,0.6815546751022339,-0.7218361496925354,0.06949038058519363,-0.1265314817428589,-0.1623649001121521,0.16759421473977734,-0.13001965232065316,0.34953800824976455,-0.9125954083931973,-0.7498850472033322,-0.16493779667878466,-2.8433863441111664
1783166226889500160,2.9817001819610596,-0.7295107841491699,0.12338446080684662,-0.31253132224082947,-0.12082363665103912,0.6861347556114197,-0.7173706889152527,-0.025264017283916473,-0.10349315404891968,-0.08482956886291504,0.1657140290547587,-0.1303497683118933,0.35259549579835486,-0.9117149942534405,-0.7561624317553103,-0.16685964206479253,-2.8484014774701443
1783166226899419392,2.991619348526001,-0.4985034167766571,0.1568950116634369,-0.40816810727119446,-0.12217337638139725,0.6900638937950134,-0.7133620977401733,-0.03815072029829025,-0.005859792232513428,-0.09723055362701416,0.1634816473487241,-0.13080421776500775,0.35525934967646106,-0.911018586851071,-0.7615773662045447,-0.16961857724217191,-2.854513719378122
1783166226909339136,3.0015392303466797,-0.6463306546211243,0.24429357051849365,-0.4658590853214264,-0.12366999685764313,0.6934359669685364,-0.7098255157470703,-0.008165933191776276,0.17925989627838135,-0.004636704921722412,0.1607735863154099,-0.13106098298615318,0.357645433561927,-0.9105298452465739,-0.7662469269838883,-0.17249447593318024,-2.8617193085473582
1783166226919258368,3.011458396911621,-0.6780816912651062,0.32731789350509644,-0.3944970369338989,-0.12433575093746185,0.6977072954177856,-0.7055104970932007,0.08254194259643555,0.13705521821975708,-0.008966982364654541,0.1579525439117073,-0.13094620209129354,0.3606907840041126,-0.9098385337632868,-0.7721921318487798,-0.17444385973480986,-2.8688706304644804
1783166226929178112,3.0213782787323,-0.49186575412750244,0.27589118480682373,-0.5847042798995972,-0.12524236738681793,0.7013674974441528,-0.7017107605934143,0.08361642062664032,-0.0019199252128601074,-0.05134099721908569,0.15479803207164328,-0.13072596376008447,0.36339421678920614,-0.909336506418319,-0.7773141797986223,-0.17662167648251603,-2.87684263174944
1783166226939097088,3.031297206878662,0.18149855732917786,0.27978816628456116,-0.5463755130767822,-0.12745404243469238,0.7016826868057251,-0.700996994972229,0.09870651364326477,-0.09976929426193237,-0.13478785753250122,0.15159304840459542,-0.13069550488022405,0.3638958356308954,-0.9096801283455064,-0.7777564506044695,-0.179853564891511,-2.885198374788431
1783166226949017344,3.04121732711792,0.24930694699287415,0.2501471936702728,-0.4183419942855835,-0.12859250605106354,0.699252188205719,-0.7032142877578735,0.17432311177253723,-0.015170156955718994,-0.016146063804626465,0.14910464515934185,-0.129972480320314,0.36262931319822,-0.9107002288197408,-0.7743509011890358,-0.1808655695385855,-2.8909390179053895
1783166226958936320,3.0511362552642822,0.3552453815937042,0.16020531952381134,-0.4307251572608948,-0.12977151572704315,0.6969996690750122,-0.7052309513092041,0.17043621838092804,0.004874050617218018,0.018188774585723877,0.1471363312348924,-0.12951341285792187,0.36140114990653366,-0.9115735233800194,-0.7712048334935147,-0.181977056102858,-2.8955741754887647
1783166226968856320,3.06105637550354,0.7462760806083679,0.32544445991516113,-0.5808043479919434,-0.13140791654586792,0.6922723054885864,-0.7095710635185242,0.050460025668144226,-0.0014001131057739258,-0.05140000581741333,0.14467363205417533,-0.1287747237611437,0.35865238713329994,-0.9131567031206876,-0.764633100054545,-0.18311881166504337,-2.9011450210111462
1783166226978775296,3.0709753036499023,0.8882220387458801,0.304309606552124,-0.29494333267211914,-0.13206198811531067,0.6859487295150757,-0.71556556224823,0.08717061579227448,-0.034612059593200684,0.05199134349822998,0.1455274715651012,-0.12859683165986424,0.3545138663027966,-0.9146609519896398,-0.7559067188716505,-0.18250252338395714,-2.8986579098496454
1783166226988695040,3.080895185470581,1.0473576784133911,0.24881866574287415,-0.3992164731025696,-0.13216081261634827,0.6786354780197144,-0.7224869728088379,0.016010895371437073,-0.07782065868377686,0.04965066909790039,0.14718110199829476,-0.1282909494860367,0.34971122155248563,-0.9162866934695297,-0.7459032260734142,-0.18092453223332902,-2.8940110060756123
1783166226998614272,3.0908143520355225,1.0247371196746826,0.3713965117931366,-0.566034197807312,-0.1330135613679886,0.6703030467033386,-0.7300693392753601,-0.06419104337692261,-0.025680243968963623,0.09974402189254761,0.14793516084726274,-0.12791317518735254,0.34438864540925784,-0.9182319700188003,-0.7346170750069627,-0.18021633601410675,-2.8916225977675794
1783166227008534272,3.100734233856201,1.0752201080322266,0.3279995322227478,-0.36970439553260803,-0.1333644837141037,0.6622475981712341,-0.7373208999633789,-0.0261051207780838,-0.06054776906967163,0.0683603286743164,0.14878756866216497,-0.12734458956066444,0.3392976704136159,-0.9200667198538875,-0.7238144229281726,-0.17894241070232444,-2.8888404115115383
1783166227018453248,3.1106531620025635,1.321994662284851,0.3566455543041229,-0.16368305683135986,-0.13274019956588745,0.6529698967933655,-0.7456610202789307,-0.06750090420246124,-0.11003166437149048,-0.019674062728881836,0.15039246294972916,-0.12636901511885612,0.3334671612993124,-0.9220697718859291,-0.7114990671224105,-0.17617132660677112,-2.8838378759075627
1783166227028373248,3.1205732822418213,0.9142730832099915,0.4348096251487732,-0.26165008544921875,-0.13051071763038635,0.6441272497177124,-0.7537022829055786,-0.13480910658836365,-0.030159354209899902,0.04323780536651611,0.15244766162968562,-0.12475088860138973,0.3280031798971597,-0.9239106769156441,-0.6998817530073332,-0.171459318395343,-2.877243621456309
1783166227038292224,3.1304922103881836,1.1052457094192505,0.38250118494033813,-0.3752538859844208,-0.12946881353855133,0.6367133855819702,-0.7601538896560669,-0.16340838372707367,-0.18097913265228271,-0.1005028486251831,0.15359516157193026,-0.12363404604724865,0.3234774894307388,-0.9254650060380204,-0.6902284749161895,-0.16870039074828852,-2.8734336854045694
1783166227048212224,3.1404123306274414,1.388764500617981,0.29794517159461975,-0.32908183336257935,-0.12860582768917084,0.626461386680603,-0.7687696218490601,-0.11814405024051666,-0.23748433589935303,-0.14547598361968994,0.15501300862340175,-0.12234406119852356,0.31724930990648004,-0.9275536744294679,-0.6770049886973996,-0.16575302553466434,-2.868883845177055
1783166227058131200,3.1503312587738037,1.1408857107162476,0.20635797083377838,-0.2883264124393463,-0.1285519003868103,0.6162063479423523,-0.7770226001739502,-0.1064639687538147,-0.13982701301574707,-0.012024641036987305,0.15639811330602776,-0.12147739997321484,0.31101759323625033,-0.9295434052323879,-0.6639167937907887,-0.16395653570349528,-2.864839924886846
1783166227068051456,3.1602513790130615,1.3131552934646606,0.11511705815792084,-0.39266663789749146,-0.12871339917182922,0.6067366600036621,-0.7844128012657166,-0.04676266014575958,-0.1706099510192871,0.04391902685165405,0.1578866007087667,-0.12085966086819921,0.30526470338322764,-0.9312777101389803,-0.6519488078934118,-0.16263949830065694,-2.8607963106315846
1783166227077970176,3.170170307159424,1.3907147645950317,0.3672390580177307,-0.43977129459381104,-0.12917694449424744,0.5951512455940247,-0.7931634783744812,-0.08459869027137756,-0.029691040515899658,0.1363489031791687,0.15879582855594956,-0.1199501843566492,0.2983793032220715,-0.9334696792302088,-0.6374538388914391,-0.16144549314091847,-2.8579683067572774
1783166227087890176,3.1800901889801025,1.590090036392212,0.37433409690856934,-0.5850819945335388,-0.12867525219917297,0.5832727551460266,-0.8020196557044983,-0.04254360496997833,0.07662403583526611,0.15999090671539307,0.1592911897253759,-0.11837752699256815,0.29150801551918987,-0.9357543153731552,-0.6227520125702146,-0.159083288880851,-2.855667204854377
1783166227097809408,3.190009355545044,2.465268611907959,0.13477502763271332,-0.39802658557891846,-0.12921391427516937,0.5663099884986877,-0.8140004873275757,0.028811082243919373,0.004704415798187256,-0.022791504859924316,0.16038068188211957,-0.11693854433108412,0.2816471747976871,-0.938764249034656,-0.6020217784908357,-0.15742584850759278,-2.8521385557478194
1783166227107729152,3.1999292373657227,2.9754457473754883,0.3725387752056122,-0.09334168583154678,-0.12853921949863434,0.5432999730110168,-0.8296401500701904,0.020537525415420532,0.006184220314025879,-0.006480395793914795,0.16299841937392687,-0.11461353268732528,0.26840948662668573,-0.9424709877715941,-0.5743628123051453,-0.1537115469531733,-2.8445646647758203
1783166227117648128,3.209848165512085,3.26050066947937,0.3055488169193268,-0.23261728882789612,-0.1259629726409912,0.5170018672943115,-0.8466654419898987,-0.07191301882266998,-0.0060918331146240234,-0.05621230602264404,0.16599828538748174,-0.11103240488896665,0.25365147412417954,-0.9464551747190156,-0.5433446877085559,-0.14769205113575867,-2.835555696917343
1783166227127568128,3.2197682857513428,3.266439914703369,0.15533924102783203,-0.22726570069789886,-0.12533508241176605,0.48894643783569336,-0.8632627129554749,0.04544004797935486,-0.02677297592163086,-0.051700055599212646,0.16879018141396032,-0.10821874385321745,0.23802802157703296,-0.9503375050279027,-0.5108815615829264,-0.14418019050425118,-2.8277501267653684
1783166227137487104,3.229687213897705,3.4448938369750977,0.14879265427589417,-0.4002116620540619,-0.12523727118968964,0.45966047048568726,-0.8792200088500977,0.011391445994377136,-0.07817548513412476,-0.11196041107177734,0.17123224153528677,-0.10546739851266268,0.22196083062244995,-0.9540909111342314,-0.4776128370053343,-0.1414895347592693,-2.8209305170463663
1783166227147407360,3.239607334136963,3.6914422512054443,0.17539700865745544,-0.34696927666664124,-0.1251794844865799,0.4276062548160553,-0.8952558040618896,0.1158258467912674,-0.1218811571598053,-0.11011528968811035,0.1735928491528722,-0.10243137933978813,0.2046458032894636,-0.9578587361471219,-0.44184305852404265,-0.13892467676643433,-2.814272691932839
1783166227157327104,3.2495272159576416,3.4941043853759766,0.06800957769155502,-0.44438982009887695,-0.125656858086586,0.3948829174041748,-0.9100977182388306,0.0634467601776123,-0.0917975902557373,-0.034467101097106934,0.17565308027308402,-0.0995565154200042,0.18718878545347328,-0.9613505849097478,-0.4059404044039181,-0.13720217973071178,-2.808429173863867
1783166227167246336,3.259446382522583,3.027817487716675,0.20572300255298615,-0.5702754259109497,-0.12625424563884735,0.36486369371414185,-0.9224610328674316,0.04622189700603485,-0.034327805042266846,0.02632761001586914,0.17671535700939087,-0.0968718432605256,0.17142149195935388,-0.9643662284151818,-0.373486385336324,-0.1360216138654358,-2.804862737859767
1783166227177166336,3.2693662643432617,2.9551119804382324,0.02385919913649559,-0.6603842973709106,-0.1276768147945404,0.3365100622177124,-0.9329842329025269,0.013495311141014099,-0.08309212327003479,-0.05053621530532837,0.1770502117798886,-0.09469625800266859,0.15665405714909414,-0.9670291311773476,-0.34320835119025994,-0.13600297667644412,-2.8030360762093633
1783166227187085056,3.279285192489624,2.8513293266296387,-0.18583640456199646,-0.5804137587547302,-0.13047026097774506,0.3089340031147003,-0.9420920014381409,0.010444626212120056,-0.07649686932563782,-0.005661904811859131,0.17771877566723723,-0.09338527358741643,0.14224346621259823,-0.9692584630534467,-0.31407200099435856,-0.13761460699623346,-2.8007338290338355
1783166227197005312,3.289205312728882,2.572402238845825,0.02913769893348217,-0.6423678994178772,-0.13272377848625183,0.28265008330345154,-0.9499964714050293,-0.05152609944343567,-0.04929742217063904,0.0853571891784668,0.17802816747361813,-0.09191099624881971,0.12866283075018786,-0.9712384661227681,-0.286555717866689,-0.13881126177352904,-2.7990746210939386
1783166227206924288,3.299124240875244,2.5352718830108643,0.13925008475780487,-0.5348108410835266,-0.1335410326719284,0.25771066546440125,-0.9569492936134338,0.0844840258359909,0.014094144105911255,0.06525623798370361,0.17809631221562744,-0.08985139757959337,0.11598304093618855,-0.9730140123742329,-0.26065207213640246,-0.1386532898110339,-2.797730800330798
1783166227216844288,3.309044361114502,2.50985050201416,-0.052743054926395416,-0.8006569147109985,-0.13432389497756958,0.2325681895017624,-0.9632596373558044,0.21052628755569458,0.09912736713886261,0.07133764028549194,0.17793664487875577,-0.08776372241899268,0.10328462250133684,-0.9746631358774367,-0.23471745044651837,-0.13855376051426632,-2.796806760190364
1783166227226763264,3.3189632892608643,2.751814126968384,0.20241209864616394,-1.0054293870925903,-0.1357438862323761,0.20673991739749908,-0.9689335227012634,0.2794816792011261,0.17602679133415222,0.0937047004699707,0.17634535019544806,-0.08583265360723576,0.09036583942699176,-0.9764062050286186,-0.20824170476267145,-0.1391902633968992,-2.7988003609645395
1783166227236683008,3.328883171081543,3.1685357093811035,-0.07572312653064728,-0.8828859329223633,-0.1371072381734848,0.17640672624111176,-0.9747216105461121,0.2255776971578598,0.12429822981357574,-0.01671820878982544,0.1745852624193122,-0.08351390024678414,0.07526360011703412,-0.9782028700708727,-0.17733473010616602,-0.1397461103552449,-2.800804447716649
1783166227246602240,3.3388023376464844,3.163769006729126,-0.1508549600839615,-0.7185755372047424,-0.13961361348628998,0.14464856684207916,-0.9795840382575989,0.16610287129878998,0.14815233647823334,0.024826347827911377,0.17400878142197232,-0.08179912928946192,0.05930342407182044,-0.9795474084184725,-0.14515779231419754,-0.14156994434516185,-2.800286864038389
1783166227256522240,3.348722219467163,3.277350664138794,-0.21835145354270935,-0.7732587456703186,-0.1420869678258896,0.11232165992259979,-0.9834607839584351,0.05521869659423828,0.04403514415025711,-0.027327120304107666,0.17313804640679334,-0.08005727859885431,0.04313274921430741,-0.9806903454729543,-0.11255919203060433,-0.14348365044909964,-2.8001974077913254
1783166227266441472,3.3586413860321045,3.2251129150390625,-0.26671725511550903,-0.8437133431434631,-0.14472739398479462,0.07892975211143494,-0.9863184690475464,0.06489340960979462,-0.0059011876583099365,0.020116686820983887,0.17188769908935428,-0.07835450872212692,0.026482971511108545,-0.9816383686366682,-0.079011939107255,-0.14569522755962597,-2.8006707255229917
1783166227276361216,3.368561267852783,3.0226337909698486,-0.3635284900665283,-0.6529796123504639,-0.14841091632843018,0.04733535647392273,-0.9877922534942627,0.13644804060459137,0.0021031200885772705,0.09016352891921997,0.1709922623369573,-0.0774018148298413,0.010621957082302454,-0.9821699062799666,-0.04735305076797472,-0.1491296195303962,-2.800393123060269
1783166227286280192,3.3784801959991455,2.7450380325317383,-0.4283478558063507,-0.5138635635375977,-0.15224753320217133,0.018073448911309242,-0.9881771206855774,0.13064108788967133,-0.05405367165803909,0.12489587068557739,0.17081442966609323,-0.07677373827909954,-0.004150811764745047,-0.9822988054404712,-0.01807443385086357,-0.1528670918414073,-2.798635046939262
1783166227296200192,3.3884003162384033,2.2846839427948,-0.1665082722902298,-0.41179659962654114,-0.1552673727273941,-0.007416259031742811,-0.9878446459770203,0.0916992574930191,-0.0749506875872612,0.20664042234420776,0.1711900923944216,-0.07607539727816613,-0.017035588533155784,-0.9821488561238712,0.007416326989654983,-0.15590242912607333,-2.7958775701818186
1783166227306119168,3.3983192443847656,1.5831187963485718,-0.051008954644203186,-0.4415781795978546,-0.15613339841365814,-0.027075964957475662,-0.9873648285865784,0.04732297360897064,-0.10874252021312714,0.22503572702407837,0.1711921051646458,-0.07481862431983177,-0.0268285466344271,-0.9820263653043101,0.027079274028905462,-0.15683279007623713,-2.7942827344510026
1783166227316039424,3.4082393646240234,1.1215828657150269,-0.1825254261493683,-0.3527926504611969,-0.15671612322330475,-0.04079160466790199,-0.9868009686470032,0.17324139177799225,-0.1572827398777008,0.20196515321731567,0.17145703305572155,-0.07392567022882361,-0.03368267106034677,-0.981836589237647,0.040802926618037284,-0.15749698404668408,-2.7926013059509627
1783166227325958144,3.4181582927703857,0.9901695847511292,-0.17887651920318604,-0.296883761882782,-0.15798994898796082,-0.051766470074653625,-0.9860828518867493,0.2719731032848358,-0.15190784633159637,0.18391305208206177,0.17180066510132078,-0.0736063992846603,-0.03925134147353914,-0.9815935634801295,0.051789619868476335,-0.15886951898110582,-2.7909347401762297
1783166227335878144,3.4280781745910645,0.7112793922424316,-0.15055008232593536,-0.28278473019599915,-0.1589410901069641,-0.06040456146001816,-0.9854384660720825,0.3130701184272766,-0.046971533447504044,0.2320052981376648,0.17209620499753986,-0.07332679745326304,-0.04363411341360629,-0.981377669935306,0.06044135554729206,-0.15991253170857567,-2.7895547072020133
1783166227345797376,3.437997341156006,0.7967445850372314,-0.26645517349243164,-0.07318778336048126,-0.16031956672668457,-0.06791865080595016,-0.9847257137298584,0.28573155403137207,-0.0016766861081123352,0.2078092098236084,0.17306982760629483,-0.07332137067168758,-0.04755133870886967,-0.9810248066929506,0.06797097793972097,-0.16139033392711888,-2.7868524830714763
1783166227355717120,3.4479172229766846,0.8449919819831848,-0.3792048990726471,0.0008118745172396302,-0.1628083735704422,-0.07597589492797852,-0.9837281703948975,0.2874574065208435,0.009691707789897919,0.23688673973083496,0.17453614203604012,-0.07378773468413223,-0.051877628166286,-0.980510756996247,0.07604917542860569,-0.16401467977337922,-2.783018699660119
1783166227365636352,3.457836389541626,1.063830852508545,-0.3824036419391632,0.27176642417907715,-0.1663743555545807,-0.0849762111902237,-0.9823943376541138,0.2880784571170807,-0.030487045645713806,0.16166985034942627,0.1768504090101901,-0.07464616381282167,-0.0568399993359226,-0.9797556613368543,0.08507881508629347,-0.16776416302432506,-2.777271685429127
1783166227375556352,3.4677562713623047,1.1618309020996094,-0.46127527952194214,0.53410404920578,-0.17047210037708282,-0.09534579515457153,-0.9807386994361877,0.20997712016105652,-0.07993190735578537,0.19983971118927002,0.18039528085319279,-0.07554695902220869,-0.06263622410345276,-0.9786862619347779,0.09549085038746816,-0.17210059606963726,-2.7687930916001187
1783166227385475072,3.477675199508667,1.0041993856430054,-0.34209826588630676,0.5355150103569031,-0.1743965446949005,-0.10493343323469162,-0.9790683388710022,0.140811949968338,-0.08198674023151398,0.3629489541053772,0.18437712618438362,-0.07636332042034741,-0.06807694323207526,-0.9775169362739163,0.10512696208008009,-0.17627618106153817,-2.7594392426940932
1783166227395395328,3.487595319747925,1.0739659070968628,-0.20521126687526703,0.6467275619506836,-0.17663627862930298,-0.1142326220870018,-0.9776249527931213,0.14669853448867798,-0.1030983105301857,0.43677717447280884,0.18753884401110354,-0.07638978811573673,-0.0731582324600667,-0.9765457923070326,0.11448253200676721,-0.17875052662166124,-2.7518561330665094
1783166227405315072,3.4975152015686035,1.180909514427185,-0.16990259289741516,0.8867930769920349,-0.1774607002735138,-0.12376249581575394,-0.9763147830963135,0.1976480782032013,-0.020982377231121063,0.5288355350494385,0.1929256187245206,-0.07548171575357977,-0.07839083053624199,-0.9751600082357816,0.12408063848529884,-0.17980285685154654,-2.739757719675013
1783166227415234304,3.507434368133545,1.4936513900756836,-0.07707624137401581,1.017950415611267,-0.1785905659198761,-0.13520748913288116,-0.9745893478393555,0.1626603901386261,0.062499359250068665,0.566889762878418,0.1991652560935525,-0.07440658810608455,-0.08466993806963877,-0.9734618319983547,0.13562287417354293,-0.18123624457281295,-2.725630808627062
1783166227425154304,3.5173542499542236,2.236754894256592,-0.06316548585891724,1.2071021795272827,-0.18031224608421326,-0.15108583867549896,-0.9719365239143372,0.18910130858421326,0.08615969121456146,0.5478489995002747,0.2064660526904977,-0.0729919181348071,-0.09329485724361339,-0.9712568857889112,0.1516666288602714,-0.18343310765732,-2.7087000569746342
1783166227435073024,3.527273178100586,2.533425807952881,-0.014368118718266487,1.461564540863037,-0.18281018733978271,-0.17207148671150208,-0.9679730534553528,0.22274243831634521,0.13795283436775208,0.5948804020881653,0.21519016513089317,-0.07113617698470694,-0.10465713839101402,-0.9683386156473458,0.17293213542477723,-0.1866602368225654,-2.688020341792858
1783166227444993280,3.5371932983398438,2.5306572914123535,0.19853733479976654,1.6169929504394531,-0.18457873165607452,-0.19341926276683807,-0.9635972380638123,0.22916491329669952,0.10354499518871307,0.6310014128684998,0.22500106015230156,-0.06854459472155641,-0.11620244752461364,-0.964973112796415,0.1946460306701953,-0.18925919124026958,-2.6649094849311563
1783166227454912256,3.547112226486206,2.6632683277130127,0.24278976023197174,1.4871987104415894,-0.18511617183685303,-0.21556802093982697,-0.9587817192077637,0.2569698095321655,0.038993313908576965,0.44501829147338867,0.2347565973020988,-0.06502191472688514,-0.12798937689617046,-0.9613948927895672,0.21727348854203965,-0.19072751233230043,-2.6417347821167807
1783166227464832256,3.557032346725464,2.184260606765747,0.3292759954929352,1.303606629371643,-0.1859906166791916,-0.23636075854301453,-0.9536986351013184,0.3581860661506653,0.08685512840747833,0.45403432846069336,0.24370892696554464,-0.06170133043797847,-0.1390813630432772,-0.957838918574538,0.23861876559215875,-0.19260284966284466,-2.6201339973710964
1783166227474751232,3.566951274871826,1.512283205986023,0.46643543243408203,1.2890218496322632,-0.18549086153507233,-0.25134021043777466,-0.9499585628509521,0.36485791206359863,0.15891772508621216,0.43701910972595215,0.25186763607377455,-0.058356314393673475,-0.14702131103760596,-0.9547470911789996,0.25406465995535205,-0.19283572492975953,-2.6010295716343794
1783166227484671232,3.576871395111084,1.2503025531768799,0.40509742498397827,1.3083330392837524,-0.18445244431495667,-0.2615261971950531,-0.9474077224731445,0.33386650681495667,0.2469540536403656,0.35991382598876953,0.26006108395951233,-0.05523418534553425,-0.15246421650586084,-0.9518781904682116,0.2646030984413484,-0.19228629145960688,-2.582526119722769
