time,seconds_elapsed,rotationRateX,rotationRateY,rotationRateZ,gravityX,gravityY,gravityZ,accelerationX,accelerationY,accelerationZ,quaternionW,quaternionX,quaternionY,quaternionZ,pitch,roll,yaw
1784286708550222848,0.17633295059204102,-0.5429935455322266,0.14606456458568573,0.04393365979194641,0.20076967775821686,0.5597093105316162,-0.8040006160736084,0.16313716769218445,-0.012620687484741211,0.08148175477981567,0.9422202795616982,-0.3056051183991265,0.06786158734670406,0.11925283413610295,-0.5940349717690815,0.2447088439270646,0.3270316093769784
1784286708560143104,0.18625307083129883,-0.7792264223098755,0.09775953739881516,0.0019078459590673447,0.20668616890907288,0.5655489563941956,-0.7983953952789307,0.01018698513507843,-0.06374841928482056,0.07016968727111816,0.9406402824302629,-0.30959540077296244,0.07037745272709622,0.11997341675845545,-0.6010987422698031,0.25331583579547023,0.3326128468467874
1784286708570061824,0.19617199897766113,-0.9587410688400269,0.11362132430076599,0.007892767898738384,0.2129479944705963,0.572654128074646,-0.7916567921638489,-0.1883813440799713,-0.176383376121521,-0.10018891096115112,0.9387251588230191,-0.31441074078749826,0.0729211697327123,0.12092798600969304,-0.6097397469141733,0.26277049466437724,0.3393517468794249
1784286708579982080,0.20609211921691895,-0.7345489859580994,0.17510519921779633,-0.05266634747385979,0.2141963392496109,0.5756243467330933,-0.7891619205474854,-0.3602229356765747,-0.01899898052215576,-0.20008063316345215,0.9380146616552195,-0.3163058411130109,0.07327797007454419,0.12128249520442667,-0.6133674896562502,0.26503725931949856,0.3415425990508116
1784286708589901824,0.21601200103759766,-0.3526732921600342,0.21147999167442322,-0.05243784934282303,0.207077294588089,0.5746473073959351,-0.7917698621749878,-0.3785403072834015,0.13671749830245972,-0.2424403429031372,0.9388555792651714,-0.3149904425553989,0.06997208153898292,0.12014640561689195,-0.6121730969126701,0.25580741409406815,0.3357974114000873
1784286708599820800,0.22593092918395996,-0.056209858506917953,0.16527576744556427,-0.017526306211948395,0.19374990463256836,0.5726476311683655,-0.7965774536132812,-0.27672719955444336,0.15092408657073975,-0.15683740377426147,0.9404143624350209,-0.31247005529838395,0.06382581804645272,0.11793844882910517,-0.6097318119717242,0.2385948798045595,0.32492210225411733
1784286708609741056,0.23585104942321777,0.12902630865573883,0.07802741229534149,0.012670212425291538,0.18628495931625366,0.5714211463928223,-0.7992344498634338,-0.18088336288928986,0.07896941900253296,-0.07820689678192139,0.9412870480218766,-0.311016965391077,0.06042532338865821,0.11660105661244187,-0.6082365592060899,0.2289909493579582,0.318646641574688
1784286708619660800,0.24577093124389648,0.3274930715560913,0.003677781205624342,0.000380256911739707,0.17944024503231049,0.5693178772926331,-0.8022956848144531,-0.12896418571472168,0.04077434539794922,-0.051738739013671875,0.9422327262288824,-0.30913863455380014,0.05731883148177416,0.11552241857230228,-0.6056758772344883,0.22003720236454336,0.3129939015393225
1784286708629580032,0.2556900978088379,0.5755763649940491,-0.014088432304561138,-0.04007795453071594,0.17262007296085358,0.5655525922775269,-0.8064444065093994,-0.07781721651554108,0.12042146921157837,-0.002912282943725586,0.9434695565339472,-0.3063085937440539,0.05434011205527633,0.11440029814732275,-0.6011031712649988,0.210868725931543,0.306908198636191
1784286708639499776,0.2656099796295166,0.870419979095459,0.02646789699792862,-0.07525258511304855,0.1665896624326706,0.5600437521934509,-0.8115410208702087,0.0032711774110794067,0.2376856803894043,0.0021996498107910156,0.9449739835358668,-0.30254369664205033,0.05193066954095732,0.11311324114946926,-0.5944386097737278,0.20246317019433469,0.3004715335849119
1784286708649419008,0.275529146194458,0.7101379036903381,0.029704170301556587,-0.07139047235250473,0.16202981770038605,0.5544996857643127,-0.8162575364112854,0.13634052872657776,0.13950049877166748,0.0167122483253479,0.946373934502049,-0.29890214958572076,0.0502865049334383,0.11182614370302442,-0.5877616742262143,0.19595602158513278,0.29471261271109184
1784286708659339008,0.2854490280151367,0.569805383682251,-0.04622548073530197,0.004192871507257223,0.15854565799236298,0.5503066182136536,-0.8197718858718872,0.26140671968460083,-0.06683188676834106,0.2473078966140747,0.947396897821731,-0.2961691310233282,0.0489684576204568,0.11101854663552514,-0.582731416978884,0.1910435226684211,0.2907546334208793
1784286708669259008,0.29536914825439453,-0.01931435614824295,0.023714985698461533,-0.05580388754606247,0.1551719456911087,0.549553632736206,-0.8209217190742493,0.2725624442100525,-0.09197306632995605,0.45995980501174927,0.9477714494278844,-0.29544576414767715,0.04744407792091347,0.11040886099924177,-0.5818298588438553,0.18681747711670127,0.28802429244709277
1784286708679177984,0.30528807640075684,-0.16398212313652039,0.08935502171516418,-0.09988682717084885,0.15116330981254578,0.5564849972724915,-0.8169909119606018,0.22113588452339172,-0.055950939655303955,0.5079088807106018,0.9468974450434732,-0.29907185141601333,0.04539359290286545,0.10899914358262128,-0.5901492305831187,0.18295542349556349,0.28496499149146926
1784286708689097984,0.31520795822143555,-0.12673115730285645,0.11607611179351807,-0.17269019782543182,0.15125253796577454,0.5614023208618164,-0.8136032223701477,0.2710039019584656,-0.0719614028930664,0.2193191647529602,0.9461042386344923,-0.3018838103518937,0.04543752151309906,0.1081132326614997,-0.59607937479171,0.18380623733327392,0.2841647386315637
1784286708699017984,0.32512807846069336,0.34191247820854187,-0.2787756025791168,-0.1049332469701767,0.15093623101711273,0.5629473924636841,-0.8125936985015869,0.2611273527145386,0.21346557140350342,0.00035309791564941406,0.9459189747935349,-0.3027224207799855,0.04541249418225783,0.10739732543458907,-0.5979476441086625,0.18365323319627425,0.2828554440568693
1784286708708936960,0.33504700660705566,1.5782610177993774,0.061863742768764496,-0.5571598410606384,0.15137165784835815,0.5594141483306885,-0.8149493336677551,-0.014286711812019348,0.5061680674552917,-0.5017926096916199,0.9467199438995832,-0.3006284429032433,0.04634507858210959,0.10581174428208555,-0.5936788750108757,0.183650704357762,0.2789275042060728
1784286708718856960,0.3449671268463135,2.5776422023773193,0.06836003065109253,-0.8744597434997559,0.14921456575393677,0.5456892848014832,-0.8245958089828491,-0.12049755454063416,0.6053727269172668,-0.6879163980484009,0.9496849276561508,-0.2923646173039222,0.047170137804589986,0.10196349275468358,-0.5772114329171271,0.179017621359526,0.2671910085524073
1784286708728776960,0.3548870086669922,2.6077072620391846,-0.057979799807071686,-1.1064074039459229,0.1441376805305481,0.5263109803199768,-0.8379863500595093,0.03077380359172821,0.4406995177268982,-0.2713123559951782,0.9537806077055847,-0.28067789565491175,0.04718848841066642,0.096414356584501,-0.554256169100543,0.17033801726459563,0.2500487593887262
1784286708738695936,0.3648059368133545,1.9558032751083374,-0.3025057911872864,-0.9457254409790039,0.13742199540138245,0.5091354250907898,-0.8496447801589966,0.15264756977558136,0.024403393268585205,0.14726752042770386,0.9573405726790373,-0.2702961398253076,0.04601734110006884,0.09122118256508563,-0.5341799561002613,0.16035188653754007,0.23396229805154542
1784286708748615936,0.3747260570526123,1.3418879508972168,-0.46168026328086853,-1.0169345140457153,0.1295948028564453,0.4975801408290863,-0.857682466506958,0.040525421500205994,-0.3927827775478363,0.203507661819458,0.9598700815836815,-0.26313891482507046,0.04377991959770483,0.08654884267262497,-0.520806809187276,0.14996441388525525,0.21987641599280264
1784286708758535936,0.384645938873291,0.9745756387710571,-0.6141548752784729,-0.978305995464325,0.12016021460294724,0.49004408717155457,-0.8633760809898376,-0.10786163061857224,-0.35814711451530457,0.10583829879760742,0.9617350984645886,-0.25822347369001114,0.040405241530625455,0.08218063177293641,-0.5121403422774883,0.13828653239698555,0.20674635408787026
1784286708768454912,0.3945651054382324,1.0699052810668945,-0.5120343565940857,-0.8627716898918152,0.11112236231565475,0.48335471749305725,-0.8683432936668396,-0.34926629066467285,-0.12303367257118225,-0.0132637619972229,0.9633428589888416,-0.25388546088980457,0.03702070054028084,0.07837216583295702,-0.5044827670295399,0.1272787604142224,0.19519628886888596
1784286708778374912,0.40448498725891113,1.5178139209747314,-0.24181967973709106,-1.003944754600525,0.10310787707567215,0.4736946225166321,-0.8746325969696045,-0.5444225668907166,-0.00740128755569458,-0.1559765338897705,0.9653086537802775,-0.2479979591681118,0.03436161628019798,0.07413115192357811,-0.4934812140777266,0.11734548080605854,0.18287763700539497
1784286708788294144,0.41440415382385254,2.0444836616516113,-0.0951058566570282,-0.9833561778068542,0.09621993452310562,0.45960596203804016,-0.882895290851593,-0.385343462228775,0.2862894535064697,-0.011635959148406982,0.96781880584583,-0.23977105340648497,0.032591385772975434,0.06909680191011615,-0.4775514568635055,0.10855385936869955,0.16899540807404836
1784286708798213888,0.42432403564453125,2.6907284259796143,-0.046134479343891144,-0.7442390322685242,0.09058845788240433,0.44023558497428894,-0.8933008313179016,-0.04224861413240433,0.35973694920539856,-0.01925104856491089,0.9708208779806858,-0.22882298758421096,0.03145836875855977,0.06447686730259511,-0.4558610442341754,0.10106319406762146,0.15609646978530115
1784286708808134144,0.43424415588378906,3.3369557857513428,0.13832297921180725,-0.7637139558792114,0.08695614337921143,0.41465631127357483,-0.9058138728141785,-0.020290501415729523,0.07817205786705017,0.015341460704803467,0.9742994693471153,-0.21473823369574468,0.03131377065603108,0.06039484816606802,-0.42756508381723696,0.0957045356752272,0.14461010479705705
1784286708818053120,0.44416308403015137,3.953066110610962,0.33232778310775757,-1.1570099592208862,0.08445850759744644,0.38323989510536194,-0.9197793006896973,-0.25215259194374084,0.12631207704544067,-0.019277095794677734,0.9782047125709109,-0.19768786474633598,0.032091495293842004,0.0548197603870895,-0.3933014792457546,0.09156796936318551,0.13022020058554318
1784286708827972864,0.4540829658508301,3.7565805912017822,0.3820258378982544,-1.5203720331192017,0.08192836493253708,0.348492294549942,-0.9337242245674133,-0.2636300325393677,0.35432755947113037,-0.08621901273727417,0.9821577859431353,-0.1790026539752712,0.033105122782319245,0.04720449002846907,-0.3559620635379401,0.08751950300026277,0.11180327133896821
1784286708837893120,0.4640030860900879,3.055607795715332,0.3697488605976105,-1.5947169065475464,0.07916265726089478,0.3188999891281128,-0.9444766044616699,-0.11938482522964478,0.009896397590637207,0.11380338668823242,0.985271555874926,-0.1631527544413479,0.03380641041509183,0.0384476089653355,-0.3245686480037733,0.08362097559770663,0.09170365550548239
1784286708847811840,0.4739220142364502,2.6206631660461426,0.3149082362651825,-1.7843095064163208,0.07604894042015076,0.2941577136516571,-0.9527264833450317,0.06027306616306305,-0.3556811809539795,0.141523540019989,0.9876714324112612,-0.1499300074647127,0.03402553005031306,0.029469924054522766,-0.2985741193527701,0.07965353674342383,0.071644436441578
1784286708857732096,0.483842134475708,2.0884571075439453,0.5526926517486572,-1.8370219469070435,0.07392846792936325,0.2737045884132385,-0.9589684009552002,-0.15927088260650635,-0.18993380665779114,0.054503679275512695,0.9894938355807629,-0.13899241075220992,0.03459641958448478,0.01965065040296372,-0.2772425957524442,0.07693948560915169,0.050452861633936495
1784286708867651840,0.4937620162963867,1.5372474193572998,0.6364037990570068,-1.51335871219635,0.0741053968667984,0.2583504617214203,-0.9632047414779663,-0.006020672619342804,-0.4741402566432953,0.1582731008529663,0.9907035802979625,-0.130766532630937,0.036024004119970504,0.010427644712697118,-0.2613142971562083,0.07678501843199345,0.031145078284772185
1784286708877570816,0.503680944442749,1.7517749071121216,0.6040205359458923,-1.4317904710769653,0.07444668561220169,0.2441297322511673,-0.966880738735199,0.3398904800415039,-0.2477308064699173,0.07393640279769897,0.9916823013863456,-0.12318506434262727,0.03721652529575013,0.0025682640266948913,-0.24662216984941968,0.07684513858779307,0.014708396470335032
1784286708887491072,0.5136010646820068,2.19113826751709,0.6053560972213745,-1.2867735624313354,0.07533243298530579,0.2261277139186859,-0.9711803793907166,0.09361288696527481,0.2418288290500641,-0.13213688135147095,0.992756383536164,-0.11369511677293745,0.038512887654226155,-0.0049931778685487725,-0.22810057725685298,0.07741289932944431,-0.0011873184822922965
1784286708897410816,0.5235209465026855,2.7655651569366455,0.46471139788627625,-1.3043851852416992,0.07667078077793121,0.20319600403308868,-0.9761316180229187,0.2016495168209076,0.21385718882083893,-0.05693411827087402,0.9939396700524102,-0.1017271926112939,0.039821597937146104,-0.012237392981820947,-0.20462092689985348,0.07838460285305954,-0.01657102796648156
1784286708907330048,0.533440113067627,2.613293409347534,0.31233757734298706,-1.4352734088897705,0.07705926895141602,0.17752240598201752,-0.9810951352119446,0.22860479354858398,0.20611406862735748,-0.13845747709274292,0.9950698250941555,-0.08840459254178186,0.040460608347071915,-0.019586053242708828,-0.17846830153944165,0.07838321069434409,-0.03234445855912609
1784286708917249792,0.5433599948883057,1.6899173259735107,0.22689850628376007,-1.4951220750808716,0.07654847949743271,0.15769264101982117,-0.9845167994499207,0.0865679606795311,0.08531883358955383,0.18590235710144043,0.9957398482280477,-0.07805909902606516,0.040600096551101736,-0.02758029268233318,-0.1583536156994617,0.07759621978595502,-0.04922266651474877
1784286708927170048,0.5532801151275635,0.07428456842899323,0.2665060758590698,-1.415860891342163,0.07628338783979416,0.15012487769126892,-0.9857197403907776,0.08500201255083084,-0.6731504201889038,0.3805866837501526,0.9958073013781772,-0.07393922595069131,0.04090391566946733,-0.035038580098596374,-0.15069457533193473,0.07723457432267088,-0.06450985433061147
1784286708937089024,0.5631990432739258,-1.6681873798370361,0.3434174954891205,-1.399834394454956,0.07639796286821365,0.15881222486495972,-0.9843485355377197,0.07556431740522385,-1.226240873336792,0.4802134037017822,0.9951970147302625,-0.07803419317029825,0.041670136506670286,-0.041917705161316335,-0.1594874933571584,0.07745743687235561,-0.07799729440853707
1784286708947008768,0.5731189250946045,-2.903512954711914,0.43034759163856506,-1.5711984634399414,0.07657094299793243,0.17703934013843536,-0.9812206625938416,0.04081492871046066,-1.069068193435669,0.35220760107040405,0.9940970320467867,-0.08694526811435985,0.0427808042634596,-0.0487985104729191,-0.17797745962494688,0.07787858601188248,-0.09114564330912939
1784286708956929024,0.5830390453338623,-3.536048173904419,0.7327448725700378,-1.8899738788604736,0.07865244895219803,0.20737984776496887,-0.9750935435295105,-0.06974131613969803,-0.509061336517334,0.156963050365448,0.9921264969729426,-0.10190699925941787,0.04547747327592561,-0.056847718575179784,-0.2088958187503997,0.08048718858348423,-0.10603060968192436
1784286708966848000,0.5929579734802246,-3.3988380432128906,1.2020848989486694,-1.8803473711013794,0.0835677906870842,0.24117986857891083,-0.9668757319450378,-0.2134811282157898,-0.17697088420391083,0.05913043022155762,0.9894898981246739,-0.11853052895721414,0.050126260942604584,-0.06593689338486458,-0.24358141804725073,0.08621648116641371,-0.12251874188158227
1784286708976768000,0.6028780937194824,-2.544578790664673,1.608951449394226,-1.6606744527816772,0.09229864180088043,0.2699376344680786,-0.9584438800811768,-0.13873115181922913,0.06812086701393127,-0.15460848808288574,0.9867370827756389,-0.13248670173684424,0.05679207981204219,-0.07464544316195018,-0.2733282491268065,0.09600447774527311,-0.13779729753766623
1784286708986686976,0.6127970218658447,-1.1191049814224243,2.037405490875244,-1.8115286827087402,0.10469070822000504,0.287421852350235,-0.9520654082298279,-0.12710587680339813,0.6617969274520874,-0.3017340302467346,0.9843965183567719,-0.14045657701859607,0.06510951568677759,-0.0836431181680108,-0.29153402342378254,0.10952166257529644,-0.15343621744886274
1784286708996606976,0.6227171421051025,0.576732873916626,2.344374418258667,-2.2241878509521484,0.11884370446205139,0.28948915004730225,-0.9497748017311096,-0.1782614290714264,0.8444677591323853,-0.4689111113548279,0.9827792475695656,-0.14012346011785012,0.07401355015393636,-0.09503854867868378,-0.29369307984864357,0.12448131144921243,-0.17437270647316272
1784286709006526976,0.6326370239257812,1.9879871606826782,2.556023120880127,-1.9951248168945312,0.1350947916507721,0.27841922640800476,-0.9509112238883972,-0.08101765811443329,0.6391527652740479,-0.4196179509162903,0.9817627362684973,-0.13265232913636774,0.08335317374843672,-0.10769238278467828,-0.28214786935286734,0.14112436636490103,-0.19843740559851145
1784286709016445952,0.6425559520721436,2.49682879447937,2.62042236328125,-1.7812711000442505,0.1542196422815323,0.259247750043869,-0.9534185528755188,0.0012674182653427124,0.4764242470264435,-0.2152521014213562,0.9810584303276384,-0.12078207304481284,0.09328675987818948,-0.11930527720665386,-0.262243239567279,0.1603654036684864,-0.22083571983744105
1784286709026365952,0.6524760723114014,2.203538656234741,2.603212833404541,-2.31443452835083,0.1736283004283905,0.239711195230484,-0.955191969871521,-0.1904282420873642,0.2581525444984436,0.04470008611679077,0.9798999844173997,-0.10842679910523477,0.10318736727150239,-0.13187836279517495,-0.24206836666636658,0.1798099534937228,-0.24563098740887293
1784286709036285952,0.6623959541320801,1.2421642541885376,2.6769776344299316,-2.4262025356292725,0.19272597134113312,0.2279340624809265,-0.9544122815132141,-0.18668347597122192,-0.2192670851945877,0.3070734143257141,0.977710902324936,-0.09963834791350777,0.1134286953203901,-0.1459025373105134,-0.2299553683716858,0.19925214911824735,-0.2731846493881261
1784286709046204928,0.6723151206970215,0.27196136116981506,2.6631131172180176,-2.136289358139038,0.2123154103755951,0.22528520226478577,-0.9508779048919678,0.09597316384315491,-0.5910841226577759,0.2778890132904053,0.9748061174358095,-0.0952959636956457,0.12441760107609147,-0.15871958513939025,-0.2272357481264937,0.21968011829163656,-0.2976430736954391
1784286709056124928,0.6822350025177002,-0.6246269345283508,2.798208713531494,-2.288543939590454,0.23216351866722107,0.23149262368679047,-0.9447281360626221,0.11363115906715393,-0.6215988397598267,0.23360753059387207,0.9712601704149852,-0.09527881727116477,0.13622728753228378,-0.17034613095130294,-0.23361170351929436,0.24097126591205698,-0.3188304746111661
1784286709066044928,0.692155122756958,-1.1063337326049805,3.1130919456481934,-2.5094501972198486,0.2528587281703949,0.24302099645137787,-0.9364845156669617,-0.1839958131313324,-0.5055942535400391,0.03105849027633667,0.9668629901320472,-0.09746716162912314,0.14919076908048906,-0.18280692205167123,-0.24547900054617908,0.26371969553582886,-0.3410134181067477
1784286709075963904,0.7020740509033203,-1.3112221956253052,3.375988721847534,-2.4725821018218994,0.2754002511501312,0.2578674852848053,-0.9260988235473633,-0.2797795236110687,-0.2728210985660553,-0.12208843231201172,0.9617533469448956,-0.10085829933589849,0.16364039935355104,-0.19514093566770804,-0.2608144006658849,0.28904838177721,-0.36219665070477586
1784286709085883904,0.711993932723999,-1.3707166910171509,3.972975730895996,-3.1290271282196045,0.30013883113861084,0.2756146192550659,-0.913210391998291,-0.2905258238315582,-0.1974438726902008,-0.02229064702987671,0.9554877395498577,-0.10487131710525585,0.17999112047534724,-0.20892174055613452,-0.2792290406148083,0.3175417271998167,-0.3855382275032594
1784286709095803136,0.7219130992889404,-0.958545446395874,4.467310905456543,-4.059410095214844,0.3269893527030945,0.29459649324417114,-0.897936999797821,-0.04924887418746948,-0.07042965292930603,-0.15520936250686646,0.9472823317712061,-0.10789121732235857,0.19847163883063443,-0.22721032572441152,-0.29903325219763915,0.3492300870064219,-0.4176784205223277
1784286709105722880,0.7318329811096191,0.31311604380607605,4.872696399688721,-3.5581247806549072,0.35511544346809387,0.30929073691368103,-0.8821747303009033,0.37513968348503113,0.07185855507850647,-0.2739837169647217,0.9379730190876422,-0.10742269128303046,0.217653396085583,-0.24757609715925638,-0.3144471002249239,0.3826988235898452,-0.4547227868021486
1784286709115643136,0.741753101348877,1.3265430927276611,5.39108419418335,-3.1286635398864746,0.3886075019836426,0.3137681484222412,-0.8663334846496582,0.5266757011413574,-0.0021989643573760986,-0.612304151058197,0.9287461824416694,-0.1008166154901526,0.23805306154408915,-0.26570139242750684,-0.31915901147339354,0.4216605414694221,-0.48842481664976334
1784286709125561856,0.7516720294952393,3.368124485015869,4.311000823974609,-3.869945764541626,0.4197635054588318,0.3076915740966797,-0.8538878560066223,0.1630001962184906,-0.21980097889900208,-0.5959259867668152,0.9190228035949736,-0.08755872022708565,0.25571380068559024,-0.28695100790688083,-0.3127659642605514,0.4568977341975242,-0.5320002437721973
1784286709135482112,0.7615921497344971,6.0573577880859375,3.439875364303589,-3.37865948677063,0.4416310787200928,0.2833860516548157,-0.8512663245201111,0.6867716312408447,-0.10914593935012817,-0.9005189538002014,0.9103207308093955,-0.06507051954171958,0.264825730738344,-0.3113669743900477,-0.2873230773168211,0.4785687986625036,-0.5885818954966889
1784286709145401856,0.7715120315551758,8.089662551879883,1.838280439376831,-2.5162699222564697,0.45681846141815186,0.23606419563293457,-0.8576657772064209,1.3273001909255981,-0.027323946356773376,-1.851867914199829,0.9038196701750881,-0.03257728838736899,0.2647750555950509,-0.33457872482225676,-0.23831356314452182,0.4894095403454363,-0.6493073705208737
1784286709155320832,0.7814309597015381,9.001749038696289,0.2715206742286682,-2.2346954345703125,0.4608648121356964,0.17226482927799225,-0.87059086561203,1.412182092666626,-0.25112226605415344,-2.352492570877075,0.8991303738803954,0.004950090305662777,0.2543227458761007,-0.35617417220346453,-0.17312841455397096,0.48686670676672983,-0.7112356548504526
1784286709165241088,0.7913510799407959,7.211745262145996,-0.8199662566184998,-3.0545647144317627,0.4547240138053894,0.11195655167102814,-0.8835676312446594,1.2066376209259033,-0.2768430709838867,-1.9480363130569458,0.8938597877614991,0.038098287361422345,0.23825343400548749,-0.37788670278801667,-0.11219176650631144,0.4752951453696168,-0.7727382617683631
1784286709175160832,0.8012709617614746,4.69834566116333,-1.7661805152893066,-3.0895068645477295,0.4404318034648895,0.0744931772351265,-0.894690215587616,1.237424612045288,-0.4840543270111084,-1.5167629718780518,0.8878351089074135,0.057811849332342305,0.22206458196191706,-0.39886585147157644,-0.07456224732582081,0.4574468956854368,-0.8271057476847082
1784286709185080064,0.811190128326416,3.051154136657715,-2.043393611907959,-2.6706814765930176,0.42130807042121887,0.052466947585344315,-0.9053986668586731,1.435152530670166,-0.5036540627479553,-1.1760070323944092,0.867401422847234,0.0750775507744835,0.2041177082325303,-0.4475645375842238,-0.052491048196643,0.43552799687458915,-0.9410870265468522
1784286709194999808,0.8211100101470947,0.5644420981407166,-1.6625875234603882,-2.817966938018799,0.40333613753318787,0.04447232559323311,-0.9139705300331116,1.2488092184066772,0.007209181785583496,-0.5954135656356812,0.8543220195295977,0.08057819185999199,0.19110699353902597,-0.4765701352105032,-0.04448699683256607,0.4155963588973168,-1.008295018170201
1784286709204920064,0.8310301303863525,-1.3565332889556885,-1.1881014108657837,-2.5042402744293213,0.38908904790878296,0.05999218299984932,-0.919244647026062,0.934732973575592,-0.4448798596858978,-0.05254185199737549,0.8428206442984634,0.07487313992529596,0.18647171513308752,-0.4992752859340191,-0.06002822605448853,0.4004047479755148,-1.0574202024278814
1784286709214839040,0.8409490585327148,-1.4511873722076416,-0.9665077924728394,-1.6592289209365845,0.3779504597187042,0.08338497579097748,-0.9220631122589111,0.7594702243804932,-1.5594897270202637,-0.27042651176452637,0.8332779423837755,0.06539567161703469,0.18625746735644405,-0.5164102093121259,-0.08348190767219421,0.3890086372131171,-1.0931516987321408
1784286709224758784,0.8508689403533936,-0.26801785826683044,-1.2737482786178589,-1.406936526298523,0.36711496114730835,0.0943973958492279,-0.9253733158111572,0.7015343308448792,-1.8832768201828003,-0.5431172847747803,0.825542091819016,0.06062944819524482,0.18340507015846505,-0.5302517531181008,-0.0945381559479291,0.3776763970674258,-1.1238160671226507
1784286709234678016,0.860788106918335,0.882720410823822,-1.6691049337387085,-0.8938219547271729,0.3532111942768097,0.09630246460437775,-0.9305738806724548,0.8669731616973877,-1.5454144477844238,-0.6538377404212952,0.8181846132701163,0.05870240692074344,0.17682504681786204,-0.543931084986984,-0.0964519457669393,0.36276489467409656,-1.1557194575931773
1784286709244598016,0.8707079887390137,1.1983805894851685,-2.5297183990478516,-0.5204347968101501,0.3332691192626953,0.08765562623739243,-0.9387481808662415,1.0832653045654297,-1.8383880853652954,-0.44989311695098877,0.8176854609544969,0.05730335144051797,0.16535483398582537,-0.5484201933359661,-0.08776826573197133,0.3411349736179546,-1.1664503793740943
1784286709254518016,0.8806281089782715,0.2974565327167511,-3.183696746826172,0.704451858997345,0.3063989579677582,0.0805819109082222,-0.9484862685203552,1.1496862173080444,-1.451812982559204,0.0072174072265625,0.8198205921213909,0.052530858339885654,0.1516488259899036,-0.5496701616099126,-0.08066937544529768,0.31245807057422165,-1.1685573999579846
1784286709264436992,0.8905470371246338,-0.2936384677886963,-3.9589900970458984,1.889838695526123,0.2742743492126465,0.07680452615022659,-0.9585794806480408,1.251833438873291,-1.250419020652771,-0.08791404962539673,0.8185804917313751,0.04577068211325426,0.1364378824494854,-0.5560717464818309,-0.07688024019641548,0.2786800920067847,-1.1826249014301107
1784286709274356992,0.9004671573638916,-0.5406854152679443,-4.84786319732666,2.793621301651001,0.23366646468639374,0.07505418360233307,-0.9694157242774963,1.4363927841186523,-1.2123069763183594,-0.31659501791000366,0.821280423142273,0.03478328696899242,0.11866868658339294,-0.5569618030211125,-0.07512483023479669,0.23652663947911648,-1.1829083451066287
1784286709284276992,0.9103870391845703,0.07241902500391006,-5.256846904754639,3.568378448486328,0.18710818886756897,0.07104116678237915,-0.9797671437263489,1.4282482862472534,-1.0787467956542969,-0.4319607615470886,0.8261099161091828,0.022758343337275513,0.09797183333528402,-0.5544601588883629,-0.07110106212749538,0.188700013042873,-1.1754964878628988
1784286709294195968,0.9203059673309326,1.3172224760055542,-5.645882606506348,4.115065574645996,0.1365274041891098,0.05824502184987068,-0.9889225363731384,1.399025559425354,-1.0367454290390015,-0.6026301980018616,0.8323071954213203,0.013331942442594011,0.07321878377886007,-0.5492959622514031,-0.058278004246705886,0.137189514710409,-1.1626962501505038
1784286709304115968,0.9302260875701904,2.8092916011810303,-6.232902526855469,5.177486419677734,0.08018425852060318,0.03279383108019829,-0.9962404370307922,1.5792396068572998,-1.1006497144699097,-0.708013653755188,0.8400832383513176,0.00791881457049874,0.04262702729155478,-0.5407221641695933,-0.03279971090865267,0.08031372398720091,-1.1424830434799795
1784286709314035968,0.9401459693908691,3.3923187255859375,-6.048529624938965,5.907719135284424,0.019932109862565994,-0.0018740345258265734,-0.9997996091842651,1.7759815454483032,-1.3596066236495972,-0.6976643800735474,0.8496372607604243,0.00605155838879171,0.007974265860404752,-0.5272726437332796,0.0018740355984124667,0.019933464229748447,-1.1108560132180694
1784286709323954944,0.9500651359558105,2.8978500366210938,-5.681958198547363,5.947722911834717,-0.03919427841901779,-0.03306006267666817,-0.9986845850944519,1.7233220338821411,-1.664327621459961,-0.4907105565071106,0.8598476719107918,0.004223381353870715,-0.025295955938655173,-0.509906297876713,0.033066088965457804,-0.039225775176082375,-1.06989318946457
1784286709333874432,0.959984540939331,2.209423303604126,-5.126005172729492,6.0055694580078125,-0.09520809352397919,-0.054406728595495224,-0.9939695000648499,1.7978142499923706,-1.853735327720642,-0.36183494329452515,0.8691697235430376,0.0002498064675742893,-0.05491081445771917,-0.49145584455828106,0.05443360713311529,-0.0954943953239386,-1.0266253956824927
1784286709343794688,0.9699046611785889,1.171496868133545,-4.69505500793457,6.442667484283447,-0.14676304161548615,-0.06416717171669006,-0.9870882630348206,2.0879557132720947,-1.8917044401168823,-0.21225255727767944,0.8782438278887361,-0.006457620297751006,-0.08008857784369776,-0.471414926707998,0.0642112874879076,-0.1476014767816622,-0.980509231527999
1784286709353713408,0.9798235893249512,-0.1270468831062317,-4.713151931762695,6.992288112640381,-0.19651935994625092,-0.058088913559913635,-0.9787777066230774,2.4339308738708496,-1.928346037864685,0.22528350353240967,0.887679735412361,-0.018512358503157376,-0.10133327545027263,-0.4487913882075471,0.058121629876661036,-0.19814581438560802,-0.9304214963410274
1784286709363633664,0.989743709564209,-1.1653717756271362,-5.023473739624023,7.637645244598389,-0.24676541984081268,-0.03567219898104668,-0.9684184789657593,2.6987764835357666,-2.070071220397949,0.7742503881454468,0.8971750489858246,-0.03682228851531251,-0.12014527877183198,-0.4234218594976161,0.035679767537781744,-0.24950319932359322,-0.8774390319817648
1784286709373552640,0.9996626377105713,-1.8662312030792236,-5.127455234527588,8.006627082824707,-0.2967235743999481,-0.0001424636720912531,-0.9549633860588074,2.845780611038208,-2.0018563270568848,1.1149060726165771,0.9061929706765979,-0.059938968843560946,-0.13757041165077502,-0.39534303501143975,0.0001424636687858893,-0.3012598884734456,-0.8227303381012949
1784286709383472384,1.00958251953125,-1.7657253742218018,-5.234641075134277,8.445113182067871,-0.3436112403869629,0.04312567040324211,-0.9381212592124939,2.9258408546447754,-1.7872815132141113,1.0100817680358887,0.9142132197422694,-0.08506568982395969,-0.15395843028329229,-0.36506829980143674,-0.043139050489924266,-0.35110032143210873,-0.7675019033556293
1784286709393392640,1.0195026397705078,-1.5695326328277588,-5.067048072814941,8.871352195739746,-0.38553038239479065,0.08954175561666489,-0.9183401465415955,2.9744129180908203,-1.6628297567367554,0.9169973731040955,0.9216363667288205,-0.1095995966334675,-0.1697582438964022,-0.33129523617947654,-0.08966184037445689,-0.3974683400514713,-0.7082311384449259
1784286709403311616,1.0294215679168701,-1.5300467014312744,-4.610086441040039,8.868722915649414,-0.4189217984676361,0.13843286037445068,-0.8974078893661499,2.875464677810669,-1.5518392324447632,1.025612235069275,0.9280435569282653,-0.13299583281819607,-0.1833253284200909,-0.29570104902182165,-0.13887887133227528,-0.4367474423637156,-0.6477826806856147
1784286709413231616,1.039341688156128,-2.1896867752075195,-4.13955545425415,8.739241600036621,-0.4429161846637726,0.1918150931596756,-0.8758037686347961,2.7687981128692627,-1.8105742931365967,1.2984721660614014,0.9328026656607754,-0.15685969771795635,-0.19363146985695703,-0.2603481746589507,-0.19301124424745034,-0.4682173936386365,-0.5905186345117195
1784286709423151616,1.0492615699768066,-3.133472442626953,-3.672245502471924,8.829209327697754,-0.45704135298728943,0.25320714712142944,-0.8526425361633301,2.7865090370178223,-2.176180839538574,1.7931485176086426,0.9356572895009833,-0.18351872524640983,-0.1999990037811347,-0.22553638595440528,-0.2559940205504638,-0.49205387700079484,-0.5376819997081279
1784286709433070592,1.059180736541748,-3.961899518966675,-3.37900447845459,9.03908634185791,-0.4607865512371063,0.3229706585407257,-0.8266593813896179,2.8541276454925537,-2.2040131092071533,2.1003105640411377,0.9364807724123865,-0.21366209469750644,-0.2025310399408217,-0.1906133455311939,-0.3288666767753591,-0.5085129330250541,-0.48778982424034045
1784286709442990592,1.0691006183624268,-4.6942458152771,-3.2257633209228516,9.321019172668457,-0.4545283019542694,0.39915069937705994,-0.7962931394577026,2.905028820037842,-1.9627798795700073,2.275602340698242,0.9349403407953024,-0.24697853431494746,-0.20212631096591288,-0.15502607285783085,-0.41059036406072763,-0.5186761161659672,-0.4390169646111868
1784286709452910592,1.0790207386016846,-5.047402858734131,-3.0636985301971436,9.540505409240723,-0.4378342032432556,0.4780369997024536,-0.7614341378211975,2.856459140777588,-1.8840428590774536,2.2928977012634277,0.930950266879444,-0.28211332568276537,-0.1992360674702551,-0.1185276434723217,-0.4984184382013974,-0.5218437308790053,-0.38897408855567317
1784286709462829568,1.0889396667480469,-5.1034746170043945,-2.884864330291748,9.567380905151367,-0.4108956456184387,0.5549908876419067,-0.7232910394668579,2.799750566482544,-2.014448404312134,2.183358669281006,0.9246831337280559,-0.3171774130130696,-0.19430123296660778,-0.08128177712202621,-0.5883520380092316,-0.5166270083227841,-0.33511068065273036
1784286709472749568,1.0988595485687256,-4.931391716003418,-2.793010950088501,9.600417137145996,-0.3749706745147705,0.6261730790138245,-0.6835965514183044,2.852921724319458,-2.115446090698242,2.025210380554199,0.9164571358653423,-0.35057385668751906,-0.18788215649783208,-0.043641014602195785,-0.676635195680625,-0.5017110751653054,-0.27500341641639303
1784286709482668544,1.108778715133667,-4.48799467086792,-2.7280211448669434,9.79354190826416,-0.3309372067451477,0.6889135241508484,-0.6448866128921509,2.9783828258514404,-2.1475164890289307,1.9707380533218384,0.9068712349898279,-0.3808792211512688,-0.1802435215684699,-0.005279740369400535,-0.7599890958383085,-0.4741289559662758,-0.20404721581285395
1784286709492588544,1.1186985969543457,-4.052474498748779,-2.603928804397583,10.079408645629883,-0.29886680841445923,0.7092365026473999,-0.6384842991828918,3.0453877449035645,-2.179283618927002,2.0907089710235596,0.9047136118575185,-0.38666938303608867,-0.17676156479845803,0.027116663964618645,-0.788414560798118,-0.437793667885019,-0.12462675169996469
1784286709502508544,1.1286187171936035,-3.894493341445923,-2.4639604091644287,10.335289001464844,-0.24109192192554474,0.7593182325363159,-0.6044092178344727,3.057513475418091,-2.2300519943237305,2.1926050186157227,0.8930794216275398,-0.4124605157430888,-0.1663481902386491,0.06792453185365815,-0.8622647772232847,-0.3795478702606132,-0.024437105900974792
1784286709512427520,1.1385376453399658,-4.26461935043335,-2.268474817276001,10.5104341506958,-0.17452195286750793,0.8037070035934448,-0.5688559412956238,3.052100658416748,-2.271831512451172,2.328240156173706,0.8788860520134398,-0.43806389489949915,-0.1538572302413051,0.10948631252969564,-0.9334992776662026,-0.2976786753810406,0.09704459942368711
1784286709522347520,1.1484575271606445,-5.227367877960205,-2.083927869796753,10.354146957397461,-0.10136021673679352,0.8432831764221191,-0.5278252959251404,3.0292015075683594,-2.3616089820861816,2.48659610748291,0.8610020039210151,-0.46525922801734876,-0.14007571814619402,0.15029334717942627,-1.003362800524719,-0.18972400195807856,0.241350251367121
1784286709532267520,1.1583776473999023,-6.216172218322754,-1.8335386514663696,10.138778686523438,-0.02409796416759491,0.8780510425567627,-0.47795984148979187,3.006901264190674,-2.15312123298645,2.6299068927764893,0.8386405966996912,-0.49515454467095765,-0.12586521079432086,0.18884345139752948,-1.0717743830917361,-0.05037573029252127,0.41304792032284915
1784286709542186496,1.1682965755462646,-6.862971782684326,-1.5691202878952026,9.939352035522461,0.056963905692100525,0.905502438545227,-0.4205003082752228,2.996975898742676,-1.8445284366607666,2.5768723487854004,0.8106918523714635,-0.5260125836104101,-0.11428302655588632,0.23028017954361238,-1.1325623320477343,0.13464732396941764,0.6392049471426581
1784286709552106496,1.1782166957855225,-7.511836528778076,-1.2220122814178467,9.613917350769043,0.1402416080236435,0.9235829710960388,-0.35682880878448486,2.848512649536133,-1.746901512145996,2.4854602813720703,0.7785736933868082,-0.5577491862893433,-0.1024765722020364,0.2687702067336108,-1.1773230574860205,0.37447650855675274,0.9164341188658467
1784286709562026496,1.1881365776062012,-7.998391628265381,-0.8412523865699768,9.415288925170898,0.22363810241222382,0.9312703013420105,-0.2876138687133789,2.6028695106506348,-1.6872059106826782,2.3382883071899414,0.7426342410809885,-0.5898794359643343,-0.09074863959529088,0.3038114056064863,-1.1978840742961219,0.6609097710306607,1.2366635725092883
1784286709571945728,1.1980557441711426,-7.571927070617676,-2.1774678230285645,8.329683303833008,0.3095629811286926,0.925853431224823,-0.21671704947948456,2.970496892929077,-1.1595112085342407,2.4515039920806885,0.7022404241655409,-0.6207265124098889,-0.07962455395859358,0.3394362359450698,-1.1832877974336624,0.960020569181106,1.57353983296283
1784286709581865472,1.2079756259918213,-7.08024263381958,-1.243937373161316,8.337654113769531,0.3802625238895416,0.911527156829834,-0.1565854251384735,1.5903033018112183,-0.9133123159408569,2.090362310409546,0.6650555356666423,-0.6453883416753966,-0.07198040992728459,0.3687736691323764,-1.1469824089028,1.1801741370186853,1.8290815306712258
1784286709591785472,1.2178955078125,-5.734830379486084,-0.9439824819564819,7.686535835266113,0.4526861310005188,0.8859145641326904,-0.10114753991365433,1.4077417850494385,-0.6241804361343384,2.407452344894409,0.6273820715231408,-0.6676271382845458,-0.06082953879738686,0.3961888571906478,-1.088462002933037,1.3509685747884748,2.029493801548016
1784286709601704704,1.2278146743774414,-0.18352186679840088,-11.046361923217773,9.442549705505371,0.5526649951934814,0.8203029632568359,-0.14718882739543915,5.00997257232666,1.797800064086914,0.6570612788200378,0.6027664895193673,-0.6519196591214096,-0.037501244146367685,0.45854882688999044,-0.9619405192129067,1.3105124007146098,2.0635087236022445
1784286709611624448,1.2377345561981201,-2.8387093544006348,-1.1922885179519653,0.12148614227771759,0.5761712789535522,0.801149845123291,-0.16181904077529907,6.106705188751221,7.278562068939209,5.434844493865967,0.582133500783685,-0.6453953973032756,-0.05054957529594629,0.4919654628849528,-0.9292140980152516,1.2969974424650057,2.1292880646863903
1784286709621543680,1.2476537227630615,-6.407443523406982,2.0902340412139893,3.4899113178253174,0.6110382676124573,0.7787286043167114,-0.14217643439769745,-3.9088134765625,1.8700599670410156,1.5784556865692139,0.5592431824489543,-0.6531995721968049,-0.04735086354254742,0.5082669852615008,-0.8926366382523969,1.342184009635037,2.2015925699506558
1784286709631463424,1.2575736045837402,-7.550825119018555,8.214909553527832,-1.6558594703674316,0.6194015741348267,0.7836559414863586,-0.047174207866191864,-4.047471523284912,2.6298420429229736,4.315972805023193,0.5343164003324278,-0.6884773656390392,-0.04911022281977059,0.48794803134849224,-0.9005295422502849,1.4947821311603675,2.3224648353950874
1784286709641383680,1.267493724822998,-8.070055961608887,6.571498394012451,0.9634100198745728,0.6217930912971497,0.7809645533561707,0.05888558551669121,1.1931941509246826,-0.7892807722091675,0.7038707733154297,0.5096500822613338,-0.7262791996395126,-0.044286762873846405,0.4591447550999019,-0.8962087029067088,1.6652175897925805,2.438836913586041
1784286709651302656,1.2774126529693604,-4.724012851715088,2.8348734378814697,-2.1606509685516357,0.6144639849662781,0.7762642502784729,0.14088283479213715,3.8635175228118896,0.1323966383934021,1.3634659051895142,0.48644567315561976,-0.753687287663647,-0.04895806530475068,0.43923710155891377,-0.8887180546244836,1.7961785280678235,2.546242558089465
1784286709661222400,1.287332534790039,-2.0680501461029053,0.11079392582178116,-0.5186486840248108,0.5994380712509155,0.7810196280479431,0.17516431212425232,4.993472576141357,2.195176601409912,0.6248081922531128,0.47841969878698776,-0.7643443358352235,-0.057964547830661704,0.42840692654524504,-0.8962968059245341,1.855094959374425,2.6011715498966743
1784286709671142656,1.2972526550292969,1.3383691310882568,-2.2666850090026855,3.097508430480957,0.6126227974891663,0.7721462845802307,0.16877007484436035,5.6173577308654785,3.5340213775634766,1.1615827083587646,0.47355213566078297,-0.7622968799247689,-0.057345479158418325,0.4374509152760272,-0.8822118822732474,1.8396159398506744,2.6012659042489212
1784286709681061632,1.3071715831756592,2.634871244430542,-2.536651372909546,1.9663221836090088,0.638597309589386,0.7572524547576904,0.13697558641433716,2.784162759780884,2.447810411453247,0.39718878269195557,0.47452712850544043,-0.7524871769030936,-0.047443068842311635,0.4542425364669507,-0.8590960437889211,1.7820892398908592,2.5583429065840018
1784286709690981632,1.317091703414917,3.7725813388824463,-2.699317693710327,0.8743451237678528,0.6489036679267883,0.7546445727348328,0.09713684767484665,-0.2592552900314331,1.6426331996917725,0.33404600620269775,0.4832802555641176,-0.7394164703188443,-0.04279844684648532,0.46676737235080895,-0.8551122907388677,1.7193867837709154,2.5091207235046293
1784286709700901632,1.3270115852355957,2.694455862045288,-1.1202267408370972,-2.049306869506836,0.6436693072319031,0.7630084753036499,0.05922587960958481,-2.067283868789673,0.6661449074745178,0.4535151720046997,0.4976822766037144,-0.7265188097131853,-0.04222983997670513,0.4719102721478737,-0.8679546775074737,1.6625508695526412,2.457773104483974
1784286709710820352,1.336930513381958,0.8370838165283203,-1.021423101425171,-2.052628993988037,0.6302326321601868,0.7753388285636902,0.04070204496383667,-1.664381742477417,1.5480101108551025,0.7290123701095581,0.5068663156512819,-0.7197247906526962,-0.048448400849638806,0.4719486987342414,-0.8872514202936685,1.6352893324238584,2.4377816027718446
1784286709720740608,1.3468506336212158,0.7116659283638,-0.7346736192703247,-2.139014959335327,0.6108040809631348,0.7911444306373596,0.03176548704504967,-0.047770023345947266,1.7866449356079102,-0.06200838088989258,0.5144886788798408,-0.7158890863871769,-0.058185566364802245,0.4684215105539993,-0.9126778112079146,1.6227555369689182,2.4315807702848486
1784286709730659584,1.3567695617675781,-1.138053059577942,-0.16530762612819672,-1.63469398021698,0.5935808420181274,0.8043686747550964,0.025551309809088707,0.8504651784896851,0.7238143086433411,-0.13735246658325195,0.5204933236608299,-0.7129554541874651,-0.06685937003932625,0.46509254180325893,-0.9346121357440377,1.6138158195763423,2.4281579325183356
1784286709740579584,1.366689682006836,-0.40944889187812805,-0.5390271544456482,-1.717637062072754,0.5802181959152222,0.8137509226799011,0.0340040847659111,0.31597620248794556,0.4132082462310791,0.6187058687210083,0.5197084628990057,-0.7149439155881415,-0.07653260642319124,0.46141206341683483,-0.9505769002894036,1.62933505184631,2.4511413107310323
1784286709750499584,1.3766095638275146,-0.5823465585708618,0.020893026143312454,-1.4123408794403076,0.5646283030509949,0.8246027827262878,0.03499997779726982,0.07083922624588013,0.5264865756034851,-0.4305688142776489,0.522934118711219,-0.714368924281059,-0.08471734629417285,0.4572087617971219,-0.9694997052158345,1.6327047592286925,2.458347753757848
1784286709760418560,1.386528730392456,1.535373330116272,-0.8318058848381042,-1.4732279777526855,0.5544500350952148,0.8316600322723389,0.03044329397380352,0.47985172271728516,0.6564228534698486,0.19257915019989014,0.526969535747675,-0.7122519392830566,-0.08898776126338574,0.45506207344011335,-0.9820905851789864,1.6256484406413056,2.453028718608346
1784286709770338560,1.3964486122131348,2.4600021839141846,-0.20920830965042114,-0.7443692088127136,0.5436035990715027,0.8392581939697266,0.011870215646922588,0.028784096240997314,1.2564449310302734,-0.34405410289764404,0.5367276651218879,-0.705547634219644,-0.09020888881457521,0.4538593681264835,-0.9959174499447339,1.592629018055424,2.4182238012830966
1784286709780258560,1.4063687324523926,4.065845966339111,-0.5230636596679688,-0.847375750541687,0.538284957408905,0.8425767421722412,-0.017716940492391586,0.15933161973953247,0.9873335957527161,-0.09243625402450562,0.5496811012864801,-0.6955580477252293,-0.08567690636482561,0.4546528411622889,-1.002049794917132,1.53789452079776,2.3566918000269608
1784286709790177536,1.4162876605987549,2.70702862739563,-0.37032797932624817,-0.7899593114852905,0.5299137234687805,0.8467591404914856,-0.04680006951093674,-0.2426975965499878,0.7488370537757874,0.10717910528182983,0.5626969172351102,-0.6853575389529983,-0.0829759498748704,0.4547220532796738,-1.0098633112786002,1.4827084816920981,2.296303415904644
1784286709800097536,1.4262075424194336,3.1671059131622314,-0.7203347086906433,-0.5871942043304443,0.5231027603149414,0.8488688468933105,-0.07606066763401031,-0.22940164804458618,0.46218156814575195,0.14066636562347412,0.5746984333641194,-0.6749367606122352,-0.08018750889027307,0.45579830207901584,-1.0138417355763236,1.4264053188294759,2.236767332853752
1784286709810017536,1.4361276626586914,3.1806607246398926,-0.4215911030769348,-0.8535991311073303,0.5152493715286255,0.8504961729049683,-0.10570787638425827,-0.038610637187957764,0.3272228240966797,-0.01990245282649994,0.5866522139962512,-0.6641235307767409,-0.07801280981296788,0.45682929059664373,-1.016927865002745,1.368445471941204,2.1766011710917184
1784286709819936512,1.4460465908050537,2.981658935546875,-0.38393136858940125,-0.7558193206787109,0.5083284378051758,0.8505616188049316,-0.1347113698720932,-0.06791400909423828,0.3155454993247986,-0.0786217451095581,0.6008163902883082,-0.6538734213740534,-0.07137129797508505,0.4542855604755836,-1.0170523784594567,1.3117426132368113,2.1052190023764563
1784286709829856512,1.4559667110443115,4.433844566345215,-0.25006988644599915,-0.07524489611387253,0.5046619772911072,0.8466894030570984,-0.16862133145332336,0.030738353729248047,0.5972649455070496,-0.11619918048381805,0.6136492039233671,-0.6414316285458819,-0.06522883899894516,0.45579075728792445,-1.0097322720804431,1.2483313921416166,2.0352906484056223
1784286709839775488,1.4658856391906738,3.4080402851104736,-0.5548105835914612,-0.9328621029853821,0.4961310029029846,0.8445603251457214,-0.2014242261648178,0.07141965627670288,0.7852155566215515,-0.1271279901266098,0.6268914698322988,-0.6288915132962369,-0.06150893895901957,0.45576211808645456,-1.0057435446899783,1.1851368357447953,1.9666013993350524
1784286709849695488,1.4758055210113525,3.6093995571136475,-0.48578372597694397,-1.1697229146957397,0.4825999438762665,0.8434454202651978,-0.23600199818611145,0.26537057757377625,0.4647819399833679,-0.17627520859241486,0.6415499459280568,-0.6151863032538942,-0.05953833258844866,0.45432867766507157,-1.0036647879594598,1.1159695994508305,1.8922629588991817
1784286709859615488,1.4857256412506104,3.8383028507232666,-0.9251706600189209,-1.929419994354248,0.4657993018627167,0.8428299427032471,-0.2695714235305786,0.8164272308349609,0.15776515007019043,-0.1639460027217865,0.6577889041526974,-0.6016254302844859,-0.05710634244825731,0.44955474536913653,-1.002520085716075,1.0461643568476269,1.8111377059795994
1784286709869534464,1.4956445693969727,3.927436590194702,-0.6291863918304443,-1.2338032722473145,0.44656237959861755,0.840736448764801,-0.30617693066596985,1.1090863943099976,-0.348487913608551,-0.35066813230514526,0.6755956888835383,-0.5864684329395942,-0.05446384552945103,0.4434624530238454,-0.9986419120922646,0.9697793434100104,1.7213489934147301
1784286709879454720,1.5055646896362305,4.13529109954834,-0.6338197588920593,-0.5120669603347778,0.43343496322631836,0.8321742415428162,-0.3458617031574249,1.4706025123596191,-0.11836808919906616,-0.3254639506340027,0.692400506153221,-0.5697955477844163,-0.04901199382922446,0.4399006057638284,-0.9830172482793754,0.8973034010222343,1.6364125081906606
1784286709889374464,1.5154845714569092,4.582874298095703,-1.751053810119629,-1.4057517051696777,0.41249537467956543,0.8242613077163696,-0.3878670632839203,1.326045274734497,0.1595337986946106,-0.2180594801902771,0.709337071241928,-0.5510958200435824,-0.04857845945334345,0.436777391716242,-0.9688963805358544,0.8161599210905256,1.5513008725820117
1784286709899293696,1.5254037380218506,3.9085240364074707,-1.4185676574707031,-1.755490779876709,0.3896195888519287,0.8158531785011292,-0.42729413509368896,0.6036665439605713,0.14558792114257812,-0.13230669498443604,0.7264189008202444,-0.5329442930960135,-0.04820069835660404,0.43123398302143023,-0.9542030802450298,0.7393126524688413,1.466823010801816
1784286709909213440,1.5353236198425293,4.525263786315918,-1.586289882659912,-0.8361304402351379,0.37029197812080383,0.802087664604187,-0.4685501456260681,0.596306562423706,-0.11167323589324951,0.19427341222763062,0.7420156653537534,-0.5133392137408405,-0.04698707181663271,0.4285882059213999,-0.930782810757226,0.6687940654034298,1.3930553729269441
1784286709919133696,1.545243740081787,4.411214828491211,-1.3727158308029175,-0.7755120992660522,0.35735780000686646,0.7833543419837952,-0.5085777044296265,0.519915759563446,0.25712716579437256,0.21246570348739624,0.7561048873554185,-0.49384320127192644,-0.04277901782260132,0.4273103628686338,-0.9000441475089797,0.6125097353877337,1.3319565181286894
1784286709929052672,1.5551626682281494,5.132208347320557,-1.8448963165283203,-1.71728515625,0.33705422282218933,0.7634653449058533,-0.5509220957756042,0.4970216751098633,0.42240196466445923,0.13203781843185425,0.7718322625085067,-0.47208190083161095,-0.0409588912318174,0.42395294024374863,-0.8686618339469916,0.5490509457809023,1.2643981310481536
1784286709938972416,1.5650825500488281,5.049393653869629,-1.4657464027404785,-0.99930739402771,0.3178544342517853,0.7382482290267944,-0.5949438810348511,0.31514114141464233,0.29521429538726807,0.052448153495788574,0.7879234447149065,-0.4484646326546906,-0.03751719223513016,0.4202960046488006,-0.8304696548573974,0.49067814305120855,1.1999354728470777
1784286709948891648,1.5750017166137695,4.108640193939209,-1.188904881477356,-1.1856958866119385,0.3021773099899292,0.713933527469635,-0.6316549181938171,0.4002305567264557,0.13244104385375977,0.30467426776885986,0.8013840045897386,-0.4278122993348309,-0.03389958320125065,0.416666922832286,-0.795099867898419,0.446210518665451,1.1489011496892545
1784286709958811648,1.5849215984344482,2.767617702484131,-1.243821382522583,-1.093519926071167,0.28457215428352356,0.6957836747169495,-0.6594722867012024,0.15481993556022644,0.09787172079086304,0.3503597378730774,0.812577124090749,-0.41128837664366524,-0.033252418835535355,0.41164847263193655,-0.76951040172244,0.40737590136011814,1.1047141671515348
1784286709968731648,1.594841718673706,1.667173147201538,-0.8270637392997742,-0.988431453704834,0.2712160348892212,0.685036838054657,-0.6761408448219299,0.3396848440170288,0.13643532991409302,0.45041757822036743,0.8201220521016196,-0.40100396360840856,-0.03354690166378614,0.40678043554752247,-0.7546542579550052,0.3814745881700944,1.0736324081508384
1784286709978650624,1.6047606468200684,0.8387198448181152,-0.9734838008880615,-0.7223779559135437,0.2594318389892578,0.6773413419723511,-0.688406765460968,0.5712108612060547,0.041607022285461426,0.2684391140937805,0.8262687536346219,-0.3932219602343394,-0.034250719278022784,0.40184995006222685,-0.7441426552789313,0.3603989347117041,1.0472732874987345
1784286709988570368,1.614680528640747,0.9499675035476685,-0.7728390693664551,-1.0037750005722046,0.2473120391368866,0.6749576330184937,-0.6951754689216614,0.709444522857666,-0.17948949337005615,0.40634191036224365,0.8307202007502219,-0.38866021890532954,-0.036817006019502975,0.39685216363405207,-0.74090724662258,0.3417923890585817,1.0251859573672781
1784286709998490624,1.6246006488800049,0.5483100414276123,-0.3630691170692444,-0.9015482664108276,0.23717324435710907,0.6717701554298401,-0.701764702796936,0.32457906007766724,-0.4033985733985901,0.11613237857818604,0.8352199789440137,-0.3842684881658422,-0.03814941870731033,0.39152255493944715,-0.7365958515040678,0.3259149596629939,1.0034270161279029
1784286710008409600,1.6345195770263672,0.890036940574646,-0.5246106386184692,-0.0604187473654747,0.23003600537776947,0.6687597632408142,-0.7069963812828064,0.34476256370544434,-0.1431402564048767,0.2333177924156189,0.8388149184458046,-0.3808003728329863,-0.03863803280015622,0.38715339952473055,-0.7325393733504033,0.3145672778911166,0.9863476267089453
1784286710018329600,1.644439697265625,1.7004083395004272,-0.783681333065033,-0.8084673881530762,0.22392240166664124,0.6606758236885071,-0.7164957523345947,0.6518100500106812,0.13888466358184814,-0.063701331615448,0.8434037334289401,-0.3746270074054905,-0.037506210691104734,0.38329878177985266,-0.7217186695713665,0.3029070738160475,0.968191491981714
1784286710028248576,1.6543586254119873,1.8631274700164795,-0.32608091831207275,-0.2110864222049713,0.21657811105251312,0.6496771574020386,-0.7287067174911499,0.28349819779396057,0.13904964923858643,-0.1463543176651001,0.8486356150150192,-0.36650149335411397,-0.036377171364055855,0.3796983580049514,-0.7071596677617383,0.2888941682801034,0.9486891115793814
1784286710038168576,1.6642787456512451,3.1243202686309814,-0.8753240704536438,-0.2950904965400696,0.2093750387430191,0.6309577226638794,-0.7470303773880005,0.3258574903011322,-0.02030104398727417,-0.30712300539016724,0.8540215696707123,-0.35394263559896993,-0.03477655730933815,0.37968708667503676,-0.6827870458431841,0.27326504494410647,0.9343107730095287
1784286710048088576,1.6741986274719238,2.8291854858398438,-0.9594171047210693,-0.34346437454223633,0.2003912478685379,0.6093302369117737,-0.767176628112793,0.4236474633216858,0.11651510000228882,-0.27731800079345703,0.8595067870579948,-0.339517376498915,-0.03375860409399836,0.38057367432274497,-0.6552156511358962,0.25549750603661975,0.9209215161749588
1784286710058007552,1.6841175556182861,2.900479316711426,-0.8084081411361694,-0.49926331639289856,0.1912754625082016,0.5887060761451721,-0.7853909134864807,0.3798762559890747,-0.05741029977798462,-0.04575532674789429,0.8647585855712862,-0.32592077710654516,-0.032866224757400406,0.38064182901894733,-0.6294572326656863,0.23889111440186414,0.9074038070693992
1784286710067927552,1.694037675857544,3.2479000091552734,-0.9059543013572693,-0.10491064190864563,0.18270745873451233,0.5655195713043213,-0.8042422533035278,0.25386175513267517,-0.042326271533966064,-0.10325896739959717,0.8700207666552697,-0.31128362385919023,-0.03132702017541047,0.38103155790526605,-0.6010631391769615,0.22338806998013272,0.8950812407327222
1784286710077847552,1.7039575576782227,3.017615556716919,-0.9711788296699524,-0.28000950813293457,0.17418164014816284,0.5402380228042603,-0.8232882618904114,0.32127124071121216,-0.09666508436203003,-0.07731592655181885,0.8748691816345245,-0.2957562276728481,-0.029734059318757743,0.38242384256294454,-0.57071996038462,0.20849370911973059,0.885553159205253
1784286710087766528,1.713876724243164,3.0545904636383057,-0.8982473015785217,0.07243963330984116,0.16614539921283722,0.5159203410148621,-0.8403701186180115,0.13072960078716278,-0.18427050113677979,0.025108277797698975,0.8792802181539174,-0.2811123515376833,-0.028120994402034086,0.38347277740363517,-0.5420816564538645,0.19518788972712225,0.8769032713741826
1784286710097686528,1.7237966060638428,2.463778495788574,-0.9802154302597046,-0.3607328236103058,0.15709176659584045,0.4924883544445038,-0.8560241460800171,0.29313406348228455,-0.3978228271007538,-0.06536257266998291,0.8846041082603403,-0.267009722893523,-0.026338566901687725,0.38142839056463684,-0.514946571617071,0.1814938239144934,0.8621091050567494
1784286710107606528,1.7337167263031006,2.5707035064697266,-0.7876779437065125,0.46055489778518677,0.14995381236076355,0.47044435143470764,-0.8695952892303467,0.32142072916030884,-0.24037232995033264,0.00806879997253418,0.8876098382530849,-0.2540944351718821,-0.0252662528554942,0.3833357454707878,-0.48979427099862854,0.17076155740453602,0.8581303457702402
1784286710117525504,1.743635654449463,1.4538074731826782,-0.900385856628418,-0.35340672731399536,0.14227771759033203,0.4533641040325165,-0.8798965811729431,0.21915723383426666,-0.3874156177043915,0.13532871007919312,0.8899143526835043,-0.2437318680139061,-0.0254259088926216,0.38470856677686543,-0.47053600464429823,0.16031065155272284,0.8545776950143166
1784286710127445504,1.7535555362701416,1.151443362236023,-0.675247311592102,0.2927144765853882,0.13582582771778107,0.4407069683074951,-0.8873154520988464,0.15465575456619263,-0.4831111431121826,0.22755593061447144,0.891438331824098,-0.23593924592667476,-0.02597983438743043,0.3859990872686788,-0.4563860882677079,0.1518959346893563,0.8526064389371755
1784286710137365504,1.7634756565093994,0.6325111985206604,-0.5782379508018494,0.11404220759868622,0.13156647980213165,0.4330965578556061,-0.8916937112808228,0.15081267058849335,-0.4116579592227936,0.23449766635894775,0.8919187028662636,-0.23116747759186462,-0.02673487706667297,0.38772140321938253,-0.447925433022547,0.14648979808684318,0.8535486494466389
1784286710147284480,1.7733945846557617,0.3030419945716858,-0.48431941866874695,0.40225163102149963,0.12843205034732819,0.4284275770187378,-0.894402027130127,0.17387506365776062,-0.3565129041671753,0.15825700759887695,0.8918624199882488,-0.2281113638841705,-0.027643836512370228,0.3895927246643157,-0.4427518402358568,0.14262051319525768,0.8558473694689005
1784286710157204736,1.7833147048950195,-0.12633894383907318,-0.6651834845542908,0.13401485979557037,0.12392120808362961,0.42772117257118225,-0.8953759670257568,0.3070480227470398,-0.24229636788368225,0.002523183822631836,0.8914281812714518,-0.2267421678120819,-0.02999994663549187,0.3912082248473286,-0.4419701881849438,0.13752763710927443,0.8580378540778868
1784286710167123456,1.7932336330413818,-0.22509336471557617,-0.6009666919708252,0.4181728661060333,0.11997099220752716,0.4287356734275818,-0.8954287767410278,0.20342376828193665,-0.1420230269432068,-0.13164031505584717,0.8905587197607079,-0.22632813303398336,-0.0325757407633202,0.39321715549787156,-0.4430928283764236,0.13318842880635276,0.8616346010304339
1784286710177043456,1.8031535148620605,-0.21656857430934906,-0.690505862236023,0.19535230100154877,0.11582691222429276,0.430934876203537,-0.8949185609817505,0.21336621046066284,0.039356231689453125,-0.208612322807312,0.8895322842772848,-0.2264511876794433,-0.035504603952198434,0.395210763060787,-0.4455285419428892,0.1287117991225671,0.8653860600450922
1784286710186963456,1.8130736351013184,-0.02063848078250885,-0.6660715937614441,0.2531397044658661,0.11045157164335251,0.4315532445907593,-0.8953000903129578,0.2620764970779419,0.03133738040924072,-0.25530415773391724,0.888830296828499,-0.2255209716828598,-0.03860375729708969,0.3970272615300828,-0.44621388949707197,0.12274798864134227,0.868070385402418
1784286710196882432,1.8229925632476807,0.34998324513435364,-0.8435968160629272,0.03481350094079971,0.1041279137134552,0.43010881543159485,-0.8967517614364624,0.2068156898021698,0.08801859617233276,-0.24480396509170532,0.8886575189500976,-0.22337995868694677,-0.04153915563188481,0.39832598172560935,-0.4446133011668976,0.11559907564276098,0.868925575826693
1784286710206802688,1.8329126834869385,0.5341873168945312,-0.7881628274917603,0.11853189766407013,0.0974808856844902,0.4260126054286957,-0.8994502425193787,0.2049483209848404,0.010526090860366821,-0.28814131021499634,0.8887890832189163,-0.21985350724321762,-0.04403768856371946,0.3997237051843702,-0.4400808472648348,0.10795692922416521,0.8694429384403923
1784286710216722432,1.8428325653076172,0.4911106824874878,-0.9140595197677612,0.05362214148044586,0.09011057019233704,0.4215407073497772,-0.9023211598396301,0.30663320422172546,-0.0035719871520996094,-0.3114238977432251,0.8889753273593668,-0.21599028820017124,-0.04677183684352581,0.40110273556819503,-0.4351436817922906,0.09953528162786694,0.8697189553960265
1784286710226641664,1.8527517318725586,0.34977027773857117,-1.036375641822815,-0.0018443481530994177,0.0820193886756897,0.4174644351005554,-0.9049841165542603,0.3101772665977478,-0.01966780424118042,-0.26463258266448975,0.8891153960585197,-0.2121711804616021,-0.04991317167934062,0.4024498705429416,-0.4306531729024306,0.09038381962687729,0.8698769829816265
1784286710236561664,1.8626716136932373,0.6731014847755432,-1.0442440509796143,0.183763325214386,0.07284868508577347,0.41316136717796326,-0.9077393412590027,0.22298870980739594,0.15896692872047424,-0.24416184425354004,0.889334253592494,-0.2080188777359545,-0.05346458464499734,0.403676007451682,-0.42592285958224385,0.08008123985993687,0.8695239332841477
1784286710246480384,1.8725905418395996,0.8131296634674072,-1.0347836017608643,0.09258201718330383,0.06423695385456085,0.406118243932724,-0.9115599989891052,0.29526010155677795,0.1116887629032135,-0.3146668076515198,0.8894378209334098,-0.20260142457051206,-0.056326459816610074,0.40580840673245966,-0.4182021970641738,0.07035295559662767,0.8710180522257778
1784286710256400640,1.8825106620788574,0.9998142719268799,-1.093970775604248,0.20000329613685608,0.05518616735935211,0.39817875623703003,-0.9156463146209717,0.1863452047109604,0.15386900305747986,-0.24911808967590332,0.8897642316554792,-0.19668528896268062,-0.05909097543506364,0.4076060828863156,-0.409530561314762,0.06019736151227471,0.8716534455992805
1784286710266320384,1.8924305438995361,0.9568459391593933,-1.078750729560852,0.26521241664886475,0.04637210816144943,0.3886783719062805,-0.92020583152771,0.25564509630203247,0.03208273649215698,-0.25777268409729004,0.889939081494709,-0.1900386278332234,-0.06150129250376764,0.41001379081233374,-0.39919673420522583,0.05035059971115623,0.8736551846821043
1784286710276239616,1.9023497104644775,0.756795346736908,-1.0611711740493774,0.15389227867126465,0.03769548982381821,0.38161250948905945,-0.9235534071922302,0.2648710310459137,-0.023809194564819336,-0.1583251953125,0.8898408747398396,-0.18461396562635285,-0.06435035649598579,0.41226199675737757,-0.3915402104908896,0.04079306755112729,0.8758063957870593
1784286710286159616,1.9122695922851562,0.9416953921318054,-1.0426901578903198,0.293369859457016,0.028841720893979073,0.37321633100509644,-0.9272959232330322,0.2826359272003174,-0.08755654096603394,-0.19967246055603027,0.8898073929066429,-0.17851347506749018,-0.06696993776155659,0.4145973097183382,-0.3824734432912499,0.03109301513335985,0.8780816788849818
1784286710296079616,1.922189712524414,1.060455560684204,-1.0649467706680298,0.22298462688922882,0.020304007455706596,0.3641231954097748,-0.9311294555664062,0.26724785566329956,0.04182162880897522,-0.12129974365234375,0.8898571170936634,-0.17216879073439773,-0.06923280301805143,0.4167962511687874,-0.37269119386396693,0.02180232921343088,0.8801861863814613
1784286710305998592,1.9321086406707764,0.7248191237449646,-1.1170662641525269,0.1312561184167862,0.010675142519176006,0.3556479215621948,-0.9345590472221375,0.3317320644855499,0.013950437307357788,-0.16309720277786255,0.8898747481998486,-0.16590496506674351,-0.07208343947176579,0.4188108769370101,-0.3636072362947552,0.01142215526503255,0.8818702149498119
1784286710315918336,1.942028522491455,0.7813780307769775,-1.0633825063705444,0.2874441146850586,0.0015446578618139029,0.3483670949935913,-0.9373568892478943,0.23220473527908325,-0.018929868936538696,-0.13501548767089844,0.8896428062099854,-0.16030734207865432,-0.07498733959033711,0.4209680935731112,-0.3558285172154042,0.0016478851331028625,0.8842336770965875
1784286710325836800,1.9519469738006592,0.7300711274147034,-0.9874359965324402,0.24424952268600464,-0.007102301809936762,0.34126943349838257,-0.9399386644363403,0.23787623643875122,0.07611948251724243,-0.12454497814178467,0.8893004203836901,-0.15489419758182016,-0.07770745323397198,0.42321869303548293,-0.34826708850765137,-0.007555989486273542,0.8870366890158594
1784286710335755776,1.9618659019470215,0.4460716247558594,-1.0691170692443848,0.10995588451623917,-0.01614650897681713,0.3358871042728424,-0.9417638182640076,0.3099087178707123,-0.007975757122039795,-0.09986209869384766,0.8889366117960102,-0.1502341133323272,-0.080918408351517,0.42505712839362425,-0.34254688954448065,-0.017143287231453627,0.8890874012814519
1784286710345676032,1.9717860221862793,0.4562950134277344,-1.145607829093933,0.12949004769325256,-0.02636948972940445,0.33133989572525024,-0.9431428909301758,0.27455371618270874,-0.03519734740257263,-0.15057659149169922,0.8885853762318237,-0.14573019594145808,-0.08480132835556935,0.4265998203649415,-0.3377233473849452,-0.027951885210568413,0.890418427290953
1784286710355594752,1.9817049503326416,0.5155449509620667,-1.1110810041427612,0.13692212104797363,-0.03633953258395195,0.3272038698196411,-0.9442547559738159,0.25455549359321594,-0.013940930366516113,-0.15654480457305908,0.8881110738154758,-0.14145859023326826,-0.088668424492916,0.42823587561726245,-0.33334305332002334,-0.0384658990922282,0.8921202446135735
1784286710365515008,1.9916250705718994,0.6601684093475342,-1.1648129224777222,0.19859491288661957,-0.04663730785250664,0.3215407729148865,-0.9457465410232544,0.29646944999694824,-0.08272546529769897,-0.1782311201095581,0.8877035048842644,-0.1363904433833425,-0.09232759396578585,0.42994856195850534,-0.327356231338674,-0.04927277878060197,0.8939401485396088
1784286710375434752,2.001544952392578,0.7279841899871826,-1.1785590648651123,0.18899421393871307,-0.05672115460038185,0.31524690985679626,-0.9473130702972412,0.31013911962509155,-0.05964696407318115,-0.1606428027153015,0.8870902253519152,-0.13102265246762965,-0.09579414152817475,0.4321197071711459,-0.3207168102065639,-0.059804424337115566,0.8969057734148854
1784286710385353984,2.0114641189575195,0.9143139719963074,-1.1890064477920532,0.13002121448516846,-0.06722772866487503,0.30764180421829224,-0.9491243362426758,0.22611749172210693,-0.044061481952667236,-0.15277385711669922,0.8867314936690582,-0.12499229467708314,-0.09906951582421289,0.43390031461018486,-0.31271363573504096,-0.07071321938321368,0.8989912106892907
1784286710395273984,2.0213840007781982,0.7504706978797913,-1.094515085220337,0.10253552347421646,-0.07771753519773483,0.299621045589447,-0.9508876204490662,0.26181483268737793,-0.03414863348007202,-0.13443952798843384,0.8864414394484762,-0.11879208842206757,-0.10219901206174724,0.4355060355607003,-0.30429541332645316,-0.08155030464722132,0.9008110408246733
1784286710405193728,2.031303882598877,0.35998955368995667,-1.0025395154953003,0.022223137319087982,-0.08743319660425186,0.29413774609565735,-0.9517554640769958,0.29951509833335876,-0.12885454297065735,0.01695626974105835,0.8860351979625252,-0.11396052662103122,-0.10552382173208166,0.4368286557177607,-0.2985532176830398,-0.09160806600430116,0.9023011262165731
1784286710415112960,2.0412230491638184,-0.007229997776448727,-0.9004518389701843,0.049619078636169434,-0.09615021198987961,0.29273176193237305,-0.9513481259346008,0.2551773190498352,-0.23427534103393555,0.12503892183303833,0.8855295455195346,-0.11127967724796735,-0.10928300406094857,0.4376201029865839,-0.2970825045155375,-0.10072529878079209,0.9028926339551085
1784286710425032960,2.051142930984497,-0.5456616282463074,-0.656277596950531,0.17633451521396637,-0.10314878076314926,0.29525455832481384,-0.9498342275619507,0.25306639075279236,-0.31419071555137634,0.16034448146820068,0.8846886145002902,-0.11076954592302649,-0.11319450191541532,0.4384553036361738,-0.2997219580667402,-0.10817271191496614,0.9039004119969394
1784286710434952960,2.061063051223755,-0.996545135974884,-0.5633410215377808,0.13364297151565552,-0.10848946869373322,0.30263829231262207,-0.9469107985496521,0.2141108214855194,-0.29134681820869446,0.2687644958496094,0.8836055545586835,-0.11289116669168711,-0.11747415360738969,0.43897215642538645,-0.3074595396585085,-0.1140745985027783,0.9044681444412092
1784286710444871936,2.070981979370117,-1.4575345516204834,-0.5064750909805298,0.223435178399086,-0.11237755417823792,0.3143024444580078,-0.9426479935646057,0.23333397507667542,-0.3282642364501953,0.3162899613380432,0.882157552282785,-0.11730342093486087,-0.12213070430846583,0.439456466546087,-0.3197217807902225,-0.1186547589612902,0.9051971599715486
1784286710454791936,2.080902099609375,-1.8906394243240356,-0.2883091866970062,0.07135961949825287,-0.11558414995670319,0.3302876353263855,-0.9367765784263611,0.20863224565982819,-0.2840840220451355,0.3715452551841736,0.8805850637764344,-0.12395526929922328,-0.12746290854108605,0.4392702231667012,-0.336608298818648,-0.1227644932475054,0.9045523441539526
1784286710464710912,2.0908210277557373,-2.0222525596618652,-0.1330919712781906,0.3120478391647339,-0.1167638972401619,0.34885138273239136,-0.9298757314682007,0.2155187726020813,-0.27664679288864136,0.3882497549057007,0.8788215179723918,-0.13230560481150105,-0.13250414535399774,0.4388744114744124,-0.356345210792894,-0.12491555133486665,0.9037951929926561
1784286710474630912,2.100740909576416,-1.738395094871521,-0.06265588849782944,0.17413844168186188,-0.11656306684017181,0.3663645386695862,-0.9231414198875427,0.3314068019390106,-0.14917093515396118,0.3357238173484802,0.8768809594999778,-0.1404453177002159,-0.13676402037943497,0.4389198081326354,-0.37509886835459694,-0.12560312594760628,0.9043025284716513
1784286710484550912,2.110661029815674,-1.44847571849823,0.08929486572742462,0.11318666487932205,-0.11614280939102173,0.3811781406402588,-0.9171772599220276,0.24749046564102173,-0.010191202163696289,0.3484821915626526,0.8754717196247169,-0.14750912826147686,-0.14018714981006622,0.43833545018096853,-0.39107030850400903,-0.12596029830380243,0.9034106132692357
1784286710494469888,2.120579957962036,-0.9793177247047424,0.1966112107038498,0.22184789180755615,-0.11379118263721466,0.3925441801548004,-0.9126667976379395,0.16005581617355347,-0.022442251443862915,0.39664506912231445,0.8742683013841529,-0.15336157468641676,-0.14193955459460353,0.4381649155862748,-0.4033961944290761,-0.12403978605031521,0.9037862065976943
1784286710504389888,2.130500078201294,-0.49240314960479736,0.3210684657096863,0.18737158179283142,-0.11053340137004852,0.3991743326187134,-0.9101880192756653,0.08093134313821793,0.05614793300628662,0.4070752263069153,0.8733801404870142,-0.1571362010940598,-0.14217668649627624,0.4385214532005023,-0.4106161421929902,-0.12084842205191082,0.9054522815272745
1784286710514309888,2.1404199600219727,-0.4712081253528595,0.579149603843689,0.3064729571342468,-0.10512124001979828,0.40408435463905334,-0.9086613059043884,0.014422982931137085,0.15884289145469666,0.5291141867637634,0.8728335867033703,-0.16062437652849007,-0.1409579900668208,0.43873944488635935,-0.4159776073134161,-0.11517602286216522,0.9072159234581134
1784286710524228864,2.150338888168335,-0.0885995551943779,0.8273910880088806,0.24247342348098755,-0.09703652560710907,0.4066149890422821,-0.9084317088127136,0.019704975187778473,0.027222901582717896,0.5540005564689636,0.8724478472057748,-0.1635452115994078,-0.13797501202046122,0.43937537308083985,-0.41874584796670555,-0.10641413030716293,0.9104344551347657
1784286710534148864,2.1602590084075928,-0.2408258318901062,0.9860869646072388,0.11770778149366379,-0.08749016374349594,0.40814828872680664,-0.9087136387825012,-0.02008429914712906,-0.0010437965393066406,0.5496590733528137,0.872526308251254,-0.1664360072608786,-0.1339486559727365,0.4393799525073191,-0.42042480187501646,-0.09598328755581845,0.9125081279864066
1784286710544068864,2.1701788902282715,-0.1899821013212204,1.1992558240890503,0.034524478018283844,-0.07544652372598648,0.41033604741096497,-0.9088081121444702,0.014121443033218384,0.04237699508666992,0.5453895330429077,0.872837053945769,-0.17028913180505137,-0.12883149425106877,0.4388162579249288,-0.422822519418018,-0.08282707338673997,0.9138999278484037
1784286710553988096,2.180098056793213,0.019132500514388084,1.246936321258545,0.05050717294216156,-0.06175088509917259,0.41135430335998535,-0.9093813896179199,0.08575296401977539,-0.09624505043029785,0.4600710868835449,0.873316876814143,-0.1739747676207483,-0.12264622787626851,0.43818755390266473,-0.4239394002662905,-0.06780019772643464,0.915498651834917
1784286710563907840,2.1900179386138916,-0.03236544504761696,1.2867608070373535,-0.17897601425647736,-0.04981251060962677,0.4109419286251068,-0.9102996587753296,0.12480945885181427,-0.0429304838180542,0.3733123540878296,0.8742200241835335,-0.17666868363807925,-0.11678335266356499,0.4369087243599355,-0.4234870266678581,-0.05466648504083404,0.9151726206332012
1784286710573827072,2.199937105178833,-0.2465302050113678,1.3636524677276611,0.05231526121497154,-0.03755021467804909,0.41237157583236694,-0.9102415442466736,0.1593611240386963,0.07333096861839294,0.3836149573326111,0.8749636902428054,-0.1803234521353743,-0.11118756843398087,0.4353841759149995,-0.4250557394981172,-0.04122964455518992,0.9145576932197774
1784286710583746816,2.2098569869995117,-0.03832906112074852,1.3354970216751099,0.1208646297454834,-0.024728525429964066,0.4137624502182007,-0.9100489616394043,0.23168347775936127,0.1213022768497467,0.2968287467956543,0.8753030427264199,-0.1839851778184238,-0.10547492866253769,0.4345907858734603,-0.42658299709620906,-0.02716605678499908,0.9158084959536514
1784286710593667072,2.2197771072387695,-0.01744428649544716,1.2945791482925415,0.18628305196762085,-0.011953252367675304,0.41399911046028137,-0.9101988077163696,0.14729870855808258,0.02592700719833374,0.24175703525543213,0.8756239926050722,-0.18705877963313167,-0.09954702824912356,0.4340300953420022,-0.42684299818615623,-0.013131818655583128,0.9175268311897882
1784286710603586048,2.229696035385132,0.12287554144859314,1.1499953269958496,0.08313828706741333,-0.0003621489158831537,0.41391828656196594,-0.9103139638900757,0.16443990170955658,-0.0005271732807159424,0.23293054103851318,0.8759446645394519,-0.18971357890162688,-0.09408383138899636,0.4334489715770739,-0.42675418210003097,-0.00039782855074377966,0.9189296617234514
1784286710613505792,2.2396159172058105,0.1262955665588379,1.083619475364685,0.19146661460399628,0.010489271953701973,0.4124567210674286,-0.910916805267334,0.23604698479175568,-0.0459710955619812,0.14277410507202148,0.8762081068460464,-0.19150102767997304,-0.08870710658116944,0.4332641082540119,-0.42514921379818943,0.011514562498519674,0.9209230244327049
1784286710623426048,2.2495360374450684,0.7488396167755127,1.0167262554168701,0.1366107314825058,0.020914684981107712,0.4089133143424988,-0.9123335480690002,0.16870629787445068,-0.02124851942062378,0.09800249338150024,0.8767073484762218,-0.1922022900221057,-0.08301514347506676,0.43307147422680203,-0.421262936867815,0.022920370928093903,0.9225324994438001
1784286710633344768,2.2594549655914307,0.6877874732017517,0.8681833744049072,0.023047419264912605,0.02997930534183979,0.4021385908126831,-0.915087878704071,0.08578913658857346,-0.013939738273620605,-0.10387879610061646,0.87753272536874,-0.1910463397667195,-0.07718398689015127,0.4329898555409302,-0.4138514382613167,0.03274940931167897,0.9236109064010618
1784286710643265024,2.2693750858306885,1.1626538038253784,0.7859868407249451,0.10400991141796112,0.037624094635248184,0.3934507668018341,-0.9185754656791687,0.08516338467597961,-0.028704702854156494,-0.07419180870056152,0.8786663857747797,-0.18867754671617393,-0.07150556541244885,0.4327042861845764,-0.4043820929977282,0.04093629212119088,0.9235806166994649
1784286710653184768,2.279294967651367,0.8819843530654907,0.795711100101471,-0.03271012008190155,0.04505331814289093,0.3845258951187134,-0.9220141172409058,0.10828224569559097,-0.09439527988433838,-0.15849125385284424,0.8796738530149296,-0.1861325571090931,-0.06593639034112239,0.4326442319257455,-0.39469416404202434,0.048825185486937636,0.9239344876684163
1784286710663103744,2.2892138957977295,1.2480219602584839,0.5905073881149292,0.04987500607967377,0.05151461437344551,0.3746272325515747,-0.9257432818412781,0.06240750104188919,-0.049935489892959595,-0.17159247398376465,0.880921367570691,-0.18293449518773347,-0.06052533376860154,0.4322605596942872,-0.3839947043028347,0.055589427773581265,0.9231549156324147
1784286710673024000,2.2991340160369873,1.354481816291809,0.550399661064148,0.06204191967844963,0.0567561611533165,0.36299189925193787,-0.9300621747970581,0.1603001058101654,0.009978681802749634,-0.3002845048904419,0.8821427851269231,-0.17861834688662617,-0.05535706818008774,0.43226756949616696,-0.37147680479705925,0.06094846986001409,0.9227194403355917
1784286710682942976,2.3090529441833496,1.4919415712356567,0.3999537527561188,0.004319205414503813,0.062009312212467194,0.3493673801422119,-0.9349316954612732,0.0953088030219078,-0.006548166275024414,-0.3429003357887268,0.88341177242978,-0.17336725432243288,-0.049778963672202296,0.4324921589171324,-0.35689584271595903,0.06622796518217246,0.9224876803235509
1784286710692862976,2.3189730644226074,1.2184218168258667,0.24839217960834503,-0.07741187512874603,0.0650704875588417,0.3370233178138733,-0.9392449855804443,0.03620210289955139,-0.06344848871231079,-0.31449341773986816,0.8847838135723181,-0.16826909375748733,-0.04542056857131225,0.4321805309015149,-0.3437534443215037,0.06916904579559482,0.920755953940667
1784286710702782976,2.328892946243286,1.092606544494629,0.1672399789094925,0.2052222490310669,0.06808403879404068,0.3263857364654541,-0.9427814483642578,0.09417791664600372,-0.234726220369339,-0.2970866560935974,0.8855897799228744,-0.16393782063992685,-0.04163715249240371,0.4325753308171412,-0.3324773684094556,0.07209099304909405,0.9208473773061295
1784286710712701952,2.3388121128082275,0.6175817251205444,0.025631170719861984,0.05601891875267029,0.07010570168495178,0.3178960978984833,-0.945530116558075,-0.0032264292240142822,-0.10570737719535828,-0.3452870845794678,0.88798953574608,-0.1605629185339544,-0.03813759401048262,0.42923133492883425,-0.32350963232898744,0.07400891376552979,0.9125997190018903
1784286710722621952,2.3487319946289062,0.9557157754898071,-0.195612832903862,0.2662726640701294,0.07115896046161652,0.31089112162590027,-0.9477779865264893,-0.06784780323505402,0.014670401811599731,-0.35489535331726074,0.8901020528787414,-0.1576409166799763,-0.035501376811843156,0.42615413560899146,-0.3161304746201194,0.07493917850544005,0.9049899875719674
1784286710732541952,2.358652114868164,0.8436267971992493,-0.2960646152496338,0.13992194831371307,0.07094775885343552,0.3019387722015381,-0.9506836533546448,0.06093394756317139,0.026109933853149414,-0.5696868300437927,0.89214338334032,-0.15349740394419745,-0.03311679562220328,0.42358247617306,-0.30672569394416305,0.07449006607412664,0.8980768159156857
1784286710742460928,2.3685710430145264,0.9373204708099365,-0.5686230659484863,0.32267776131629944,0.06852027028799057,0.29305538535118103,-0.9536370038986206,0.09308556467294693,-0.02469906210899353,-0.5027838945388794,0.893899846758861,-0.1488769313432165,-0.03189289854650703,0.4216179782540087,-0.2974209552757338,0.07172825273804814,0.8921921980903403
1784286710752380928,2.378490924835205,0.6696507334709167,-0.9245529174804688,0.25058066844940186,0.06220803037285805,0.285901814699173,-0.9562376141548157,0.041719578206539154,-0.07458284497261047,-0.5373231768608093,0.895547897313972,-0.14422830744156906,-0.03285424325450221,0.419658002919541,-0.2899473854597844,0.06496345155130256,0.8859228080034051
1784286710762300928,2.388411045074463,0.8014261722564697,-0.9278096556663513,0.5045909881591797,0.05458759889006615,0.278272807598114,-0.9589496850967407,0.09032511711120605,-0.08474558591842651,-0.5716899633407593,0.8968647268395527,-0.13906214011481627,-0.03445126368837793,0.41845985251137,-0.2819954113667296,0.05686299685291242,0.8811866381472129
1784286710772219904,2.398329973220825,0.49766358733177185,-0.9995943903923035,0.29695844650268555,0.046921197324991226,0.2717021703720093,-0.9612368941307068,-0.14656110107898712,-0.07106435298919678,-0.5314541459083557,0.8978368362270591,-0.13437697594117362,-0.03639211455904313,0.4177410544690497,-0.27516128534340634,0.04877464039115401,0.8777220795721331
1784286710782139904,2.408250093460083,0.7922384142875671,-1.0806431770324707,0.4588119089603424,0.0376664400100708,0.2655720114707947,-0.9633549451828003,-0.1783524751663208,0.09528309106826782,-0.4806300401687622,0.898912801132437,-0.12958504935565265,-0.03911835513287523,0.4166932120971958,-0.26879720530715606,0.0390793283175203,0.8734183066615302
1784286710792058880,2.4181690216064453,0.6582457423210144,-1.2260011434555054,0.4054269790649414,0.028677724301815033,0.2590821087360382,-0.9654294848442078,0.034112196415662766,0.1348998248577118,-0.46361714601516724,0.8997067993961843,-0.12467214824722876,-0.041738783910831294,0.416223919608354,-0.26207175232063856,0.029695898043199623,0.8705147875445589
1784286710801978880,2.428088903427124,0.40422412753105164,-1.134825348854065,0.3866935074329376,0.01806643418967724,0.2540644109249115,-0.9670185446739197,0.028686491772532463,0.076700359582901,-0.3351207375526428,0.9005506263688754,-0.12013195567402098,-0.045376597590753714,0.4153527697941377,-0.2568802461301242,0.01868044068734452,0.8667046258393681
1784286710811898880,2.438009023666382,0.05770053341984749,-1.2170108556747437,0.24061726033687592,0.007523651234805584,0.2507854700088501,-0.9680134654045105,0.12931716442108154,-0.04323539137840271,-0.2717021107673645,0.9011490914659545,-0.11641932447442722,-0.04939447297332685,0.41465289627827234,-0.25349155930554673,0.0077721024895902905,0.8634955676460324
1784286710821817856,2.447927951812744,0.026070700958371162,-1.0851658582687378,0.42114347219467163,-0.0023913830518722534,0.2513361871242523,-0.9678968787193298,0.03988222777843475,0.03015795350074768,-0.14575058221817017,0.9015951239178474,-0.11464745614643919,-0.05392135966119697,0.4136118234212656,-0.25406052155775,-0.002470695237799076,0.8599068835916569
1784286710831738112,2.457848072052002,-0.32097911834716797,-1.1904081106185913,0.1802547127008438,-0.012898780405521393,0.25226640701293945,-0.9675718545913696,0.12154135853052139,0.07913923263549805,-0.23184525966644287,0.9019222180118984,-0.1129317483393189,-0.058825972456726154,0.4127011393075083,-0.25502169042155537,-0.013330293419477088,0.8565692482323269
1784286710841657856,2.4677679538726807,-0.19438190758228302,-1.1491183042526245,0.18662066757678986,-0.023456087335944176,0.25476720929145813,-0.9667178988456726,0.14322231709957123,0.00953027606010437,-0.1425197720527649,0.9023582879868922,-0.11198632131781996,-0.0640321666334418,0.4112280109345766,-0.25760696339509354,-0.02425887322018577,0.8520685211204992
1784286710851577088,2.477687120437622,-0.3116896450519562,-1.068627953529358,0.12857015430927277,-0.033448390662670135,0.2578270137310028,-0.9656119346618652,0.26527518033981323,0.008118420839309692,-0.23021936416625977,0.9029246667208723,-0.11147046749660229,-0.0690533168497757,0.40930793875463545,-0.2607724996132018,-0.034625734554614776,0.8466710780456937
1784286710861496832,2.487607002258301,-0.38769590854644775,-1.1666362285614014,0.10387042909860611,-0.044108375906944275,0.2608088254928589,-0.9643822908401489,0.40526866912841797,0.0017644166946411133,-0.2964514493942261,0.9032328074886604,-0.11076277446348713,-0.07443429257854849,0.40787445803135264,-0.2638599422289945,-0.04570558693118156,0.8422542661496134
1784286710871416832,2.4975268840789795,-0.12306984513998032,-1.2203340530395508,0.050587233155965805,-0.055143799632787704,0.26354771852493286,-0.9630689024925232,0.5382523536682129,-0.04670509696006775,-0.3019915223121643,0.9037932839345721,-0.10993707690084276,-0.07987099959077965,0.4058228126231438,-0.2666981182391239,-0.05719596165930673,0.8364055559167726
1784286710881336064,2.507446050643921,-0.07528860867023468,-1.2309980392456055,0.20406700670719147,-0.06638042628765106,0.2646077871322632,-0.9620687961578369,0.6363572478294373,-0.07210290431976318,-0.3867471218109131,0.9041883956052498,-0.10826130021633144,-0.08511812840031088,0.40432372740405353,-0.267797183248021,-0.06888840509576756,0.8317087203972863
1784286710891255808,2.5173659324645996,0.040141310542821884,-1.3643220663070679,0.11359675973653793,-0.07815554738044739,0.26506859064102173,-0.9610568881034851,0.6657868027687073,-0.08416038751602173,-0.3213375210762024,0.904491471519098,-0.10619489363171279,-0.0905218307854937,0.4030179710132192,-0.26827506689053987,-0.08114393475841135,0.8273782940572387
1784286710901176064,2.5272860527038574,0.27452778816223145,-1.4664015769958496,0.11754799634218216,-0.09143638610839844,0.26336565613746643,-0.9603530168533325,0.6010494232177734,-0.04403582215309143,-0.31438148021698,0.9047816444446306,-0.10280672969474568,-0.09619909990448712,0.4019288239122834,-0.2665093857090497,-0.09492507377566277,0.8233522576948582
1784286710911094784,2.5372049808502197,0.31911444664001465,-1.3466616868972778,0.0227154903113842,-0.10484220832586288,0.26052916049957275,-0.9597565531730652,0.333830863237381,0.008681625127792358,-0.22073960304260254,0.9053122066888507,-0.09893351398016446,-0.10165567730616826,0.4003599994585048,-0.26357025995912503,-0.10880690412408174,0.8183175706252799
1784286710921015040,2.5471251010894775,0.1299624741077423,-1.3679559230804443,0.06995763629674911,-0.11738741397857666,0.2586285471916199,-0.958817720413208,0.20971834659576416,-0.01493045687675476,-0.15240353345870972,0.9056325009911199,-0.09565940926917327,-0.1069598393969226,0.39904700636461976,-0.26160217542448394,-0.12182307598164314,0.8140200273667844
1784286710930934016,2.55704402923584,-0.1906411051750183,-1.317910075187683,-0.017880605533719063,-0.1300022304058075,0.25880464911460876,-0.9571413397789001,0.2065555900335312,-0.08210790157318115,-0.09824800491333008,0.9049479918701745,-0.09312686389834209,-0.11294561106336355,0.39954948642062316,-0.26178449396587655,-0.13499733631766722,0.813755115033433
1784286710940853760,2.5669639110565186,-0.47666704654693604,-1.1982718706130981,0.036745455116033554,-0.14194226264953613,0.26190027594566345,-0.9545997381210327,0.19402050971984863,-0.18720850348472595,-0.08809435367584229,0.9051276872025998,-0.09240992931429098,-0.11899806632131706,0.39754724894724125,-0.2649906857048485,-0.14761142774368727,0.8079927881007183
1784286710950774016,2.5768840312957764,-0.6536644697189331,-1.2070472240447998,0.09908978641033173,-0.15305864810943604,0.26750051975250244,-0.9513235688209534,0.22349323332309723,-0.16268789768218994,-0.06817716360092163,0.9050167909785266,-0.09302496709659158,-0.12523808215899468,0.3957350617535452,-0.2707980766998832,-0.15952313650405506,0.8026540209855332
1784286710960692992,2.5868029594421387,-0.7141596674919128,-1.1044553518295288,0.09847346693277359,-0.16359925270080566,0.2742285430431366,-0.9476465582847595,0.22452761232852936,-0.0761999785900116,-0.04045158624649048,0.9048296101265606,-0.09431837185009968,-0.13145633744118887,0.39383588046840734,-0.27778741402045787,-0.17095237370745944,0.7971017834261692
1784286710970612992,2.5967230796813965,-0.8616899847984314,-1.0440261363983154,0.11159725487232208,-0.173409566283226,0.28144165873527527,-0.943779468536377,0.2307673543691635,-0.02947327494621277,-0.03211164474487305,0.9045202652691485,-0.09598715430884348,-0.13746534162932758,0.39208791847454955,-0.28529615950340464,-0.18171270033653478,0.791887335668649
1784286710980532992,2.606642961502075,-0.6896060705184937,-0.9740700721740723,0.12811404466629028,-0.18229717016220093,0.2890523374080658,-0.939795970916748,0.20135539770126343,0.030741333961486816,0.004478037357330322,0.9042066286131812,-0.09806106294650764,-0.14312943685965115,0.390267022971081,-0.2932367573513985,-0.191595888579153,0.7865370317033802
1784286710990451712,2.6165618896484375,-0.3924356698989868,-1.0389084815979004,0.05078836902976036,-0.19145889580249786,0.2944341003894806,-0.9362969994544983,0.23549576103687286,0.1302027404308319,-0.03698486089706421,0.903925123919691,-0.09901952548457119,-0.1484811105417131,0.38867445878513196,-0.2988633201516045,-0.2017045241474797,0.7817027422852444
1784286711000371968,2.6264820098876953,-0.10420721024274826,-0.9980132579803467,-0.04841191694140434,-0.20095311105251312,0.29646962881088257,-0.9336614012718201,0.19886265695095062,0.10535532236099243,-0.05419260263442993,0.9039527230973484,-0.09838513119492723,-0.1532633935200954,0.38691113751722683,-0.30099397631753266,-0.2119971908587813,0.7765879626447941
1784286711010291712,2.636401891708374,0.14683674275875092,-0.9755403995513916,-0.11517389863729477,-0.21006673574447632,0.2962167263031006,-0.9317336678504944,0.09802143275737762,0.044695138931274414,-0.037840306758880615,0.9042974264796549,-0.09681605538186484,-0.15735252185086482,0.3848546837391329,-0.30072916870950256,-0.22175025545922963,0.7709986847743654
1784286711020210944,2.6463210582733154,0.1706087738275528,-0.9709405899047852,-0.20795078575611115,-0.21945244073867798,0.2942245602607727,-0.9302002787590027,0.19079643487930298,0.016917407512664795,-0.058889687061309814,0.9047105891437566,-0.09437549148840635,-0.1612238606721725,0.3828823748338549,-0.2986440661596738,-0.23168322256298943,0.7656986865903915
1784286711030130944,2.656240940093994,0.10942664742469788,-0.9504119157791138,-0.240707129240036,-0.22879724204540253,0.292319118976593,-0.9285479784011841,0.11376124620437622,-0.008780300617218018,-0.005946040153503418,0.9052837360799039,-0.09208374383395031,-0.1650654272446005,0.3804409552267772,-0.29665099523024274,-0.2415906312528251,0.759400628855445
1784286711040049920,2.6661601066589355,0.004735118709504604,-0.8303735852241516,-0.23751679062843323,-0.23772478103637695,0.2911464273929596,-0.9266718626022339,0.10649919509887695,-0.004082828760147095,0.03874766826629639,0.9058907260623866,-0.09028280539932378,-0.16885820100612217,0.3777540016317955,-0.29542496841222754,-0.2511207564739951,0.7525867611137362
1784286711049969920,2.6760799884796143,-0.13824041187763214,-0.6886638402938843,-0.2949036657810211,-0.2454862892627716,0.2908744215965271,-0.9247316122055054,0.12024213373661041,-0.019588440656661987,0.07538163661956787,0.9065251566941578,-0.08917762815055962,-0.1722833228102016,0.374937357953002,-0.2951406635294923,-0.2594825988210263,0.7455624845764021
1784286711059889920,2.686000108718872,-0.3744427561759949,-0.5384148955345154,-0.3176543414592743,-0.25191548466682434,0.29254990816116333,-0.9224712252616882,0.12258195877075195,0.01702040433883667,0.12452811002731323,0.907241624837803,-0.08935414193170522,-0.17544295245550193,0.37168297997868854,-0.2968923286508771,-0.2665874208845279,0.7375549081424794
1784286711069808896,2.6959190368652344,-0.5108490586280823,-0.49013736844062805,-0.33103859424591064,-0.25735020637512207,0.2957870066165924,-0.9199352860450745,0.13669896125793457,0.03682407736778259,0.14707762002944946,0.9079671686043707,-0.09052980424450709,-0.17842847094401046,0.3681890626013934,-0.30027928154647254,-0.27277517715666744,0.7289765655275503
1784286711079728896,2.705838918685913,-0.5634450912475586,-0.38989919424057007,-0.374996155500412,-0.2624243199825287,0.299938827753067,-0.9171532988548279,0.1887243688106537,0.10539564490318298,0.13681882619857788,0.9086581287607872,-0.09225540215436472,-0.1814174497172197,0.36457792644903736,-0.3046285388968784,-0.2786831912344825,0.720075773553927
1784286711089648896,2.715759038925171,-0.34911924600601196,-0.23623453080654144,-0.3585039973258972,-0.26622122526168823,0.30313608050346375,-0.9150053262710571,0.21496698260307312,0.20995596051216125,0.08231794834136963,0.9095545549186126,-0.09381318231902439,-0.18356585112181276,0.36085052860260775,-0.30798186982023756,-0.28313394370912043,0.7111372802034126
1784286711099567872,2.725677967071533,-0.38579386472702026,0.057147204875946045,-0.33796143531799316,-0.2682265639305115,0.3052789568901062,-0.913706362247467,0.1529158651828766,0.2225378155708313,0.03727203607559204,0.9107127303189442,-0.09524036605736047,-0.18459713336820505,0.35700917708117996,-0.3102313692372626,-0.28553702309469015,0.7022521497497829
1784286711109488128,2.735598087310791,-0.54107666015625,0.014310793951153755,-0.4429240822792053,-0.26865267753601074,0.3084145784378052,-0.912527322769165,0.17858007550239563,0.14896759390830994,0.13951712846755981,0.9118018889431846,-0.09739740734101408,-0.18506774274260399,0.3533849489619457,-0.3135259246502273,-0.2863159605387431,0.6939273375294398
1784286711119407872,2.7455179691314697,-0.7020033597946167,0.20785251259803772,-0.65804123878479,-0.2697022259235382,0.31265512108802795,-0.9107730388641357,0.06003120541572571,0.17654165625572205,0.18283724784851074,0.9133121469501108,-0.10029433141630435,-0.18588849997020898,0.34820620453379686,-0.31798700707038996,-0.28789753494194664,0.6820124975450043
1784286711129326848,2.755436897277832,-0.6637411713600159,0.23398345708847046,-0.4603572189807892,-0.2690792977809906,0.3172489106655121,-0.9093676209449768,0.1208554208278656,0.10432091355323792,0.2566424012184143,0.9147216853714527,-0.10358155012717792,-0.18597596095090033,0.343464670443295,-0.3228271433190284,-0.2876884735996397,0.6712309248934537
1784286711139246848,2.76535701751709,-0.6558589339256287,0.42448359727859497,-0.4617096185684204,-0.26743942499160767,0.3223447799682617,-0.9080583453178406,0.09796008467674255,0.1142701804637909,0.43465447425842285,0.9161129702637727,-0.10728358167124993,-0.18563687509043847,0.33877165689231353,-0.32820544746167973,-0.2864197683769445,0.66064808451243
1784286711149166848,2.7752768993377686,-0.06981141865253448,0.4857504069805145,-0.428566575050354,-0.2648886740207672,0.32482144236564636,-0.9079234600067139,0.08092871308326721,0.12487033009529114,0.49087023735046387,0.917710833266808,-0.10982358565657453,-0.18432862052984791,0.334318257636966,-0.3308229193180299,-0.28387294682744274,0.6510062080849869
1784286711159086080,2.78519606590271,0.6073594689369202,0.6488653421401978,-0.19712157547473907,-0.2605525553226471,0.32128432393074036,-0.9104332327842712,0.0882655680179596,0.12523362040519714,0.4340996742248535,0.9195413537722202,-0.10947899766880827,-0.18110140316167983,0.33114984706751877,-0.32708541525222234,-0.27873500593954686,0.6450446774424092
1784286711169005824,2.7951159477233887,1.0996372699737549,0.6654035449028015,-0.13745585083961487,-0.25497812032699585,0.313272625207901,-0.914793074131012,0.08420178294181824,0.2265070080757141,0.47125065326690674,0.9214392862696399,-0.10692184437889535,-0.17655359636111864,0.3291596528946517,-0.3186371642554729,-0.2718284599535537,0.6422492421797228
1784286711178925056,2.80503511428833,1.484225869178772,0.6324652433395386,-0.4727797210216522,-0.24978812038898468,0.30057990550994873,-0.9204660058021545,0.038453876972198486,0.26187431812286377,0.42675262689590454,0.9237444126228599,-0.10204716796607001,-0.17132828321621185,0.3270005707106004,-0.305300607564654,-0.26498959052723303,0.6394558434424575
1784286711188844800,2.814954996109009,1.9052749872207642,0.6524301171302795,-0.6053670644760132,-0.24533377587795258,0.2837555706501007,-0.9269812107086182,-0.019375711679458618,0.3228423297405243,0.37131714820861816,0.9265755039891442,-0.0951972134561303,-0.16567104679137096,0.32395747527659907,-0.28770839544270144,-0.2587269326662848,0.6350043333999826
1784286711198765056,2.8248751163482666,2.0467865467071533,0.6070178747177124,-0.6863499879837036,-0.24148674309253693,0.2639017701148987,-0.9338308572769165,0.05204886198043823,0.3428029417991638,0.3400503396987915,0.929639975423108,-0.08684856452357836,-0.15981837330205628,0.3204448965883862,-0.2670651396115075,-0.2530543387091861,0.6297144951460302
1784286711208684032,2.834794044494629,2.394896984100342,0.7013211846351624,-0.5354089140892029,-0.2367560863494873,0.24170780181884766,-0.9410228133201599,0.1436622142791748,0.23328304290771484,0.4258250594139099,0.9326004385581428,-0.07741334066943226,-0.1532833283283425,0.317439534384326,-0.2441254594016888,-0.2464787351044404,0.6257722705059058
1784286711218603776,2.8447139263153076,1.9956417083740234,0.7766098380088806,-0.8191492557525635,-0.2314377874135971,0.21920998394489288,-0.9478309750556946,0.1281358003616333,0.10102622210979462,0.4610450863838196,0.9356255694308795,-0.06800123209522997,-0.14649352168029714,0.3138794318567386,-0.2210046925930916,-0.23949000409311927,0.6206558918566712
1784286711228524032,2.8546340465545654,1.887252926826477,0.975027859210968,-0.8558561205863953,-0.2248353809118271,0.19945964217185974,-0.9537635445594788,0.10172748565673828,0.13005392253398895,0.5469794869422913,0.9387171861970908,-0.060235266216768384,-0.1396063828960815,0.30934071285408204,-0.20080644432204897,-0.23150831376893688,0.6132310350225351
1784286711238443008,2.8645529747009277,1.8378076553344727,1.1563074588775635,-0.7136502265930176,-0.21543081104755402,0.18005269765853882,-0.9597763419151306,0.16165883839130402,0.05592446029186249,0.5120682120323181,0.9417725381764159,-0.053010036970799784,-0.1315362015434798,0.3048814867554335,-0.1810400260745549,-0.22079982048932184,0.6060457392513641
1784286711248363008,2.8744730949401855,1.5960794687271118,0.8898877501487732,-0.8766748309135437,-0.20665882527828217,0.1620575189590454,-0.9648987054824829,0.31600332260131836,0.02490842342376709,0.4728027582168579,0.9445388743103666,-0.04629768876770156,-0.12412565864730662,0.30049220384178954,-0.16277537872528056,-0.21098911599497322,0.5987493982129323
1784286711258283008,2.8843929767608643,1.5415678024291992,0.8616834282875061,-0.7617820501327515,-0.19901421666145325,0.14542318880558014,-0.969146728515625,0.23810724914073944,0.030281752347946167,0.5053406357765198,0.947271675354788,-0.04010383848278113,-0.11755128446656486,0.29538056236196275,-0.14594069566659346,-0.2025343883206291,0.5896790549897132
1784286711268201728,2.8943119049072266,1.247135877609253,0.620883584022522,-0.7724123597145081,-0.19134396314620972,0.13125140964984894,-0.9727078676223755,0.24557369947433472,0.23741619288921356,0.514013409614563,0.9495834941585096,-0.034959478287489285,-0.11146259422614617,0.2909384822457332,-0.1316311978591754,-0.19423268258043155,0.5817669577544771
1784286711278121984,2.9042320251464844,0.9060224890708923,0.7606649994850159,-0.7319753170013428,-0.1837850958108902,0.11953327059745789,-0.9756714701652527,0.091438889503479,0.3379252254962921,0.5051972270011902,0.9518111883162705,-0.030966690852499305,-0.10585520484810901,0.28616629692848256,-0.11981976814259011,-0.18618614564233701,0.5729142109465021
1784286711288040960,2.9141509532928467,-0.10991216450929642,0.9744566679000854,-0.7384198904037476,-0.17603427171707153,0.1141248568892479,-0.9777461290359497,0.09116488695144653,0.218562513589859,0.5622493028640747,0.9539706121976875,-0.030060723821445135,-0.10111032803809263,0.2807367131038987,-0.11437405607293567,-0.17813253066107723,0.5621810828004455
1784286711297960960,2.9240710735321045,-1.1376680135726929,1.0332632064819336,-0.9683526158332825,-0.16704289615154266,0.11906924098730087,-0.978733479976654,0.16859929263591766,-0.07306399196386337,0.598514974117279,0.9560261480763834,-0.03435063119763194,-0.09722810132197401,0.2745556024981707,-0.11935240380069895,-0.16904370629696258,0.5491923243601002
1784286711307880960,2.933990955352783,-2.1928725242614746,0.9691656231880188,-1.1030359268188477,-0.15843738615512848,0.13304021954536438,-0.978364884853363,0.19365468621253967,-0.33149605989456177,0.4852771759033203,0.9581192694273004,-0.043063329120708344,-0.09467361934956245,0.26681464155742174,-0.13343584779609707,-0.16054723027079235,0.5324424036498522
1784286711317799680,2.9439098834991455,-3.9334168434143066,1.011231780052185,-1.0380390882492065,-0.149773508310318,0.1611730307340622,-0.9754953384399414,0.287468820810318,-0.4617711901664734,0.4349374771118164,0.9596983069911525,-0.05871372549091911,-0.09383512678055828,0.25831536717731474,-0.16187911350182047,-0.15234618917493292,0.5134816326852172
1784286711327721728,2.953831911087036,-5.18691349029541,1.0129166841506958,-1.1462101936340332,-0.1417696475982666,0.20378756523132324,-0.9686960577964783,0.3105623722076416,-0.36673617362976074,0.43012183904647827,0.9604407040643683,-0.08150240042704984,-0.09491755669111893,0.24880076554826303,-0.20522512641682203,-0.1453193651327236,0.4919631012206296
1784286711337641984,2.963752031326294,-5.792537212371826,1.041740894317627,-1.0833466053009033,-0.13432259857654572,0.2553700804710388,-0.957467257976532,0.307097852230072,-0.15138143301010132,0.23516196012496948,0.9600652375303078,-0.10886541724078541,-0.0970293091288622,0.2387642496499192,-0.2582304404853308,-0.1393798546068277,0.4693761261968043
1784286711347560960,2.9736709594726562,-5.639707088470459,0.8708517551422119,-1.132773756980896,-0.12810654938220978,0.30803409218788147,-0.942710816860199,0.2866300940513611,0.21808898448944092,-0.021308958530426025,0.9587287467633938,-0.13694968622748213,-0.09944527103650991,0.22846173690446428,-0.3131259421372759,-0.13506433751122673,0.44651519192951633
1784286711357480960,2.983591079711914,-5.111166000366211,0.7441791296005249,-1.0855190753936768,-0.12437096983194351,0.35709166526794434,-0.9257523417472839,0.2871822416782379,0.6254827976226807,-0.20742636919021606,0.956673581299903,-0.16329761378749355,-0.10226294411390549,0.2182932755326968,-0.36515240137008065,-0.13354621423428872,0.4239849454608452
1784286711367400960,2.9935109615325928,-3.938687324523926,0.6359813213348389,-1.0211553573608398,-0.12212284654378891,0.39714956283569336,-0.90959233045578,0.1696997433900833,0.8951172828674316,-0.4753563404083252,0.9545583504306722,-0.18516941578038465,-0.10448018788504297,0.20884125159391193,-0.4084088754453949,-0.13346295679479678,0.4031003653693308
1784286711377319936,3.003429889678955,-2.702038288116455,0.7318809628486633,-1.2071003913879395,-0.1203598603606224,0.42564475536346436,-0.8968501091003418,-0.040666140615940094,0.9554892778396606,-0.5772404670715332,0.953148030950524,-0.20120212712609575,-0.10532169462260589,0.19983503917278822,-0.4396742863688796,-0.13340578941477924,0.383477786070967
1784286711387239936,3.013350009918213,-1.1719261407852173,0.6642673015594482,-1.34700608253479,-0.11928640305995941,0.441365122795105,-0.8893635869026184,-0.1981421858072281,0.893962025642395,-0.5639140009880066,0.9530928828214359,-0.21061916465967082,-0.10467940800136219,0.19051445870989325,-0.45711943939414823,-0.13332985905347314,0.3635216993815192
1784286711397159936,3.0232698917388916,0.13513773679733276,0.6335964202880859,-1.2955832481384277,-0.118688203394413,0.444869726896286,-0.8876959085464478,-0.0376838818192482,0.7186129093170166,-0.49096620082855225,0.9543313228880611,-0.21346641640164696,-0.10287916907125497,0.18193359692535122,-0.46102879888416476,-0.13291537950098034,0.34552211093456425
1784286711407078912,3.033189058303833,1.2205008268356323,0.6055280566215515,-1.3633311986923218,-0.11681172251701355,0.43836113810539246,-0.8911759257316589,0.07518573105335236,0.5978326797485352,-0.43969565629959106,0.9566744574981073,-0.21098763283879282,-0.09947987354819537,0.17424713760964788,-0.4537744550652517,-0.1303329180052418,0.3301975731663695
1784286711416998912,3.0431089401245117,1.5511277914047241,0.5537734627723694,-1.8268418312072754,-0.1182023286819458,0.4243175983428955,-0.8977654576301575,0.0813370943069458,0.586348295211792,-0.27594059705734253,0.9599490022428862,-0.20432673105100196,-0.09678773552710192,0.16547088349719224,-0.4382081329358938,-0.13090984155843582,0.31220392289785165
1784286711426918912,3.0530290603637695,0.616981565952301,0.6971162557601929,-2.025747537612915,-0.12026087939739227,0.41196751594543457,-0.9032275676727295,0.051169104874134064,0.27711936831474304,-0.07646292448043823,0.9631589869649401,-0.19870635880512397,-0.09435036643296281,0.15472058052661908,-0.42461227408688906,-0.13236718446734988,0.28998368658840784
1784286711436837888,3.062947988510132,-0.6560643315315247,1.1350524425506592,-1.987951636314392,-0.1203717440366745,0.4098298251628876,-0.9041848182678223,0.1328381597995758,-0.02018141746520996,0.28531885147094727,0.9652713491220271,-0.19873501945047992,-0.09171689950682341,0.1426312536871549,-0.4222675013277333,-0.13234915638364786,0.26499695920226213
1784286711446758144,3.0728681087493896,-2.9622085094451904,1.8576775789260864,-1.7494022846221924,-0.11453981697559357,0.4240803122520447,-0.8983521461486816,0.18837708234786987,-0.1515735685825348,0.5275025367736816,0.9655891215932134,-0.2078830294667911,-0.08722720756200515,0.1296677974770212,-0.43794610539450995,-0.12681568428903023,0.2387226402155084
1784286711456676864,3.082787036895752,-4.3662190437316895,2.4921605587005615,-1.494667410850525,-0.10196003317832947,0.45517000555992126,-0.8845475912094116,0.25123676657676697,-0.5335086584091187,0.6522783041000366,0.9636672949919215,-0.22643825069822707,-0.08032393652298514,0.1167008351536723,-0.47256314500541863,-0.11476152770435197,0.213367023151604
1784286711466596864,3.0927069187164307,-5.077549457550049,2.692650318145752,-1.1983377933502197,-0.0847909152507782,0.4966059625148773,-0.8638246655464172,0.3397500216960907,-0.6985102891921997,0.45287495851516724,0.9597400668954041,-0.25098727373760277,-0.07136571374101555,0.10397769395965895,-0.519684101707296,-0.09784411713428874,0.18980564577154843
1784286711476516864,3.1026270389556885,-4.597797870635986,2.7023766040802,-1.1193655729293823,-0.06751424819231033,0.5375921726226807,-0.8404977321624756,0.6150148510932922,-0.16913819313049316,0.18833708763122559,0.9548631697755573,-0.27552760176439595,-0.06193273565428257,0.0921147750297154,-0.5675789186177974,-0.08015440999336065,0.16895353312316266
1784286711486435840,3.112545967102051,-3.296818256378174,2.976749897003174,-0.7987737059593201,-0.04925629124045372,0.5697635412216187,-0.8203312158584595,0.6409463286399841,0.40682947635650635,-0.017681479454040527,0.950576206357422,-0.2953369325847331,-0.051092851813778935,0.08105828113491305,-0.6062180702837592,-0.05997238791497885,0.15137278124087294
1784286711496356096,3.1224660873413086,-2.11413836479187,3.0279369354248047,-0.7776408791542053,-0.029099930077791214,0.5913853049278259,-0.8058639168739319,0.7634596824645996,0.6344600319862366,0.05508577823638916,0.9475576689862345,-0.309159657860334,-0.03857899986117594,0.07117960455645171,-0.6327756478161085,-0.03609454448441318,0.13813845564839494
1784286711506275840,3.1323859691619873,-1.8216561079025269,3.24690842628479,-0.5618675947189331,-0.007727931719273329,0.6069848537445068,-0.7946758270263672,0.7470315098762512,0.47937989234924316,0.26908689737319946,0.9452803616497628,-0.31944239187867945,-0.02487250221224447,0.06150568182151776,-0.6522610466564003,-0.009724327355888952,0.12666010994070376
1784286711516194816,3.1423048973083496,-1.7342891693115234,3.362149238586426,-0.4008084237575531,0.01545486319810152,0.6212673783302307,-0.7834462523460388,0.764604926109314,0.19137001037597656,0.5780782103538513,0.9428379527807627,-0.32889649948867183,-0.01019619928674955,0.0527241714137137,-0.670359048284058,0.019724210875635563,0.11859566076866436
1784286711526114816,3.1522250175476074,-1.3843146562576294,3.489108085632324,-0.2595924437046051,0.04045288264751434,0.6337823271751404,-0.7724529504776001,0.6683788895606995,0.02564150094985962,0.6293712854385376,0.9403502344420868,-0.3372568436529621,0.005598902497274881,0.04436236490371613,-0.6864333087783243,0.05232158201705429,0.11298433260814508
1784286711536034816,3.162144899368286,-1.4465314149856567,3.8727383613586426,-0.1967230886220932,0.06715022027492523,0.6449076533317566,-0.7613047361373901,0.6227148771286011,-0.003535032272338867,0.7111033797264099,0.937741070319883,-0.34472851364219,0.022580382587892214,0.03597195072472247,-0.7009024411552246,0.08797644327592262,0.10885971440632715
1784286711545954048,3.1720640659332275,-1.4140981435775757,4.182030200958252,0.022940825670957565,0.09683993458747864,0.6556885838508606,-0.7487953901290894,0.6003494262695312,-0.0638917088508606,0.8730477094650269,0.934683147623821,-0.3519792104206508,0.041387807084476064,0.027659250024515636,-0.715094223321557,0.1286137555172736,0.1072747696285984
1784286711555873792,3.1819839477539062,-1.5448150634765625,4.267567157745361,0.12058053910732269,0.12844465672969818,0.6666867136955261,-0.7341871857643127,0.7940559387207031,-0.19670075178146362,1.0071516036987305,0.930969592605876,-0.3593609470876179,0.061368647115944364,0.019729425700580148,-0.729754524279511,0.17319531315070774,0.10867730456402974
1784286711565794048,3.191904067993164,-1.3603508472442627,4.379874229431152,0.29956546425819397,0.16106194257736206,0.6771908402442932,-0.7179635167121887,0.8773291707038879,-0.06258207559585571,1.030829668045044,0.926732280712131,-0.366445957809423,0.08207070409548364,0.012207537432956755,-0.743938093999046,0.22067821442936042,0.11273436947518596
1784286711575713024,3.2018229961395264,-0.9803415536880493,4.597081661224365,0.620122492313385,0.19587372243404388,0.6845349073410034,-0.7021719217300415,0.9559512138366699,-0.1161450743675232,0.9190298318862915,0.922519788928507,-0.37175165538956656,0.10351200894679723,0.006576923525564235,-0.7539655425363505,0.27203854512329523,0.12252670608929189
1784286711585633024,3.211743116378784,-0.8472029566764832,4.570873737335205,0.8081555366516113,0.23238742351531982,0.6892803311347961,-0.6862133741378784,1.0802041292190552,-0.31110644340515137,0.9003857374191284,0.9182081113845934,-0.37544977422377934,0.12621719923724364,0.0007991988506697384,-0.760495215900391,0.3265295612458334,0.1332369079984354
1784286711595552000,3.2216620445251465,-0.8769068717956543,4.44594144821167,1.1562813520431519,0.26942896842956543,0.6927037835121155,-0.66900634765625,1.198664903640747,-0.525116503238678,0.8566741943359375,0.9135034184709824,-0.37852024272099766,0.1490612097563599,-0.0038398130694684996,-0.7652312583471066,0.38285763691019037,0.14726878479896827
1784286711605471744,3.231581926345825,-0.8292730450630188,4.257067680358887,1.4739676713943481,0.30720311403274536,0.6946961283683777,-0.6504026055335999,1.2797415256500244,-0.60257887840271,0.7757077813148499,0.9083821172182349,-0.38113766835251045,0.17185106265880137,-0.006572106740200312,-0.7679973659735922,0.4412656655096847,0.16628353024390038
1784286711615392000,3.241502046585083,-0.3841552436351776,3.9003348350524902,1.732418417930603,0.3444046676158905,0.6934146285057068,-0.6328993439674377,1.295182704925537,-0.6003665328025818,0.7255201935768127,0.9035428382751396,-0.3820579014061127,0.1938610229094394,-0.007745961370635219,-0.766217323940897,0.4983559910716422,0.18725117665767574
1784286711625310976,3.2514209747314453,0.045972973108291626,3.533665657043457,1.8736923933029175,0.3798235058784485,0.6882021427154541,-0.6181520819664001,1.2319929599761963,-0.4922029972076416,0.7488893270492554,0.8994541722329602,-0.38074740340495056,0.21437207528087168,-0.007632627620062342,-0.7590080780544065,0.5509767766127082,0.20756426091210867
1784286711635230976,3.261341094970703,0.6533975005149841,3.4733972549438477,2.0030972957611084,0.41425788402557373,0.6784727573394775,-0.6066837906837463,1.0509825944900513,-0.37106919288635254,0.6450138688087463,0.8962650011973582,-0.3766340487012243,0.23410446638219826,-0.007144053000974764,-0.7456816718814192,0.5991047954027396,0.2244943073470161
1784286711645150976,3.271260976791382,1.0340183973312378,3.5148253440856934,2.216649293899536,0.4491387903690338,0.6644086241722107,-0.5973571538925171,0.9971197843551636,-0.3995465636253357,0.3425201177597046,0.8936640289659141,-0.36986478298180137,0.2540107640464531,-0.006572375953479241,-0.7267022477506755,0.6447009692916457,0.23793505872104928
1784286711655069952,3.281179904937744,1.6019961833953857,3.4012765884399414,2.292982578277588,0.4843267798423767,0.6464800238609314,-0.5894838571548462,1.041048526763916,-0.6221727728843689,0.2653719186782837,0.8914648769349373,-0.3608429001010721,0.27395338725889334,-0.005698963738026178,-0.7029616374779234,0.6877805187427849,0.24837060475812503
1784286711664989952,3.291100025177002,2.49070143699646,3.392871856689453,2.198267936706543,0.5184291005134583,0.6231540441513062,-0.5855854153633118,1.010425329208374,-0.9003300070762634,0.09792983531951904,0.8903701062182823,-0.34802801872127936,0.29340040279706914,-0.005805286627404168,-0.6727690371638045,0.7246438289215937,0.25051600965261633
1784286711674909952,3.3010199069976807,3.2190170288085938,3.2881550788879395,2.3011648654937744,0.5512452125549316,0.5949158668518066,-0.5849819183349609,1.1087584495544434,-1.1229004859924316,0.03764915466308594,0.89018948107101,-0.331581524018459,0.3123503344685213,-0.007323658243637617,-0.6371609700282207,0.7557149873831992,0.24389273920317509
1784286711684828928,3.310939073562622,4.105853080749512,2.913914203643799,2.605619430541992,0.58343905210495,0.5597702860832214,-0.588435173034668,1.2773396968841553,-1.2912461757659912,0.15590959787368774,0.891147804337315,-0.3109040332095537,0.3303348114127984,-0.008547979606943716,-0.5941085556328262,0.7811348411611065,0.23155792996296928
1784286711694748928,3.320858955383301,4.741243839263916,2.50931715965271,2.8463149070739746,0.6140543818473816,0.5174077153205872,-0.5960087180137634,1.3399555683135986,-1.640607237815857,0.21737712621688843,0.8932630570422854,-0.2860316138424446,0.34667212658979857,-0.009237490065241504,-0.5438188648648414,0.8003100604598437,0.2140977905474676
1784286711704668928,3.3307790756225586,5.113602638244629,2.366931200027466,3.0310840606689453,0.6430157423019409,0.469793438911438,-0.6048346757888794,1.1910449266433716,-1.9488736391067505,0.2318335771560669,0.8957279920697541,-0.25843737868447325,0.36165286701854993,-0.009420987310112055,-0.4890567774683209,0.8159860964870586,0.19384480373149737
1784286711714587904,3.340698003768921,5.9122538566589355,2.7981672286987305,3.50437331199646,0.6729000210762024,0.4152598977088928,-0.6121804714202881,1.0176365375518799,-1.8073344230651855,0.11115813255310059,0.8977734718966714,-0.22721738990165521,0.3772029040405753,-0.009650514459678503,-0.42822847564309846,0.8326126494410039,0.17020132725408166
1784286711724507904,3.3506178855895996,6.664310932159424,3.1511051654815674,3.7678987979888916,0.7052080035209656,0.3515031635761261,-0.6157330274581909,1.0241162776947021,-1.7955949306488037,-0.09717285633087158,0.898760036778706,-0.1912278972290687,0.3944177572003706,-0.009846403322352842,-0.35917625821390253,0.8530306339583438,0.1427079299397755
1784286711734426880,3.360537052154541,6.903198719024658,2.831268787384033,3.6164069175720215,0.735054075717926,0.2835063636302948,-0.6158893704414368,1.1631240844726562,-2.370359420776367,-0.34813034534454346,0.8987909368293521,-0.15271660005295298,0.4107711553334274,-0.01093770128188596,-0.2874485403901198,0.8733789169168142,0.11055353448465463
1784286711744346880,3.3704569339752197,6.547736167907715,2.5583407878875732,3.614786386489868,0.7603374719619751,0.21601220965385437,-0.6125567555427551,1.256859302520752,-2.5860531330108643,-0.7747722864151001,0.8978481797550775,-0.1145524192262337,0.42496983158889406,-0.012131263095919047,-0.21772839032777958,0.892626998298578,0.07748359387222149
1784286711754266880,3.3803770542144775,6.046882629394531,2.102902889251709,3.7751686573028564,0.7813343405723572,0.14852778613567352,-0.6061815023422241,1.347663402557373,-2.3275439739227295,-1.1614117622375488,0.8960792432892064,-0.07726072345095311,0.43696683595230934,-0.011516125372546425,-0.14907938414580924,0.9109687881476178,0.04742563914255423
1784286711764185856,3.39029598236084,5.349323749542236,1.278656005859375,3.8272268772125244,0.795920193195343,0.08543472737073898,-0.5993428230285645,1.5302363634109497,-2.030136823654175,-1.251655101776123,0.8941947278635276,-0.04312385175741767,0.4454985140444929,-0.009329420002923217,-0.085539002801254,0.9253660337200222,0.021820091801248043
1784286711774106112,3.4002161026000977,4.813904285430908,0.5069782733917236,4.062601566314697,0.8031328320503235,0.023687301203608513,-0.5953289270401001,1.7037642002105713,-1.672292709350586,-1.1902698278427124,0.8931097839493202,-0.011049669255885316,0.4496814972552248,-0.00439218191492662,-0.023689516993643654,0.9329133899985775,0.002092851094973209
1784286711784025856,3.4101359844207764,4.079927444458008,0.2542576193809509,3.980154514312744,0.8061212301254272,-0.03571207821369171,-0.5906718373298645,1.3745427131652832,-1.1073390245437622,-0.9386860728263855,0.8918134148761062,0.018917745547436252,0.45200244646522986,0.002179057637873031,0.03571967255754098,0.9384378513305298,-0.013223929314581318
1784286711793944832,3.4200549125671387,3.869412422180176,-0.0814504325389862,3.4790964126586914,0.8046177625656128,-0.08886796981096268,-0.5871053338050842,0.8248835206031799,-0.5466911196708679,-0.5470651984214783,0.8907762912910976,0.0456313651643781,0.45206760620555336,0.008376281876560027,0.08898535821631753,0.9404339883979869,-0.02644182569538213
1784286711803864832,3.4299750328063965,3.7457664012908936,0.48135244846343994,2.724102258682251,0.8022376298904419,-0.13629193603992462,-0.5812394022941589,0.5672539472579956,0.12042279541492462,-0.4372541904449463,0.88907986052711,0.0702826111569683,0.4521511249718507,0.012515971756055034,0.13671744445135767,0.943801002189196,-0.0417024373359938
1784286711813784832,3.439894914627075,2.7709107398986816,0.827667772769928,1.8202972412109375,0.8020767569541931,-0.17381642758846283,-0.5713674426078796,0.2682967782020569,0.586200475692749,-0.12934666872024536,0.8862774525197623,0.09088875968827105,0.4539333826216595,0.014001071989313421,0.1747037703241593,0.9518231116236434,-0.05862262520052474
1784286711823704064,3.4498140811920166,2.299457311630249,1.7584081888198853,0.6717592477798462,0.8072395920753479,-0.1970304250717163,-0.5563660264015198,-0.20126736164093018,0.7417081594467163,0.24392712116241455,0.8820525798751584,0.10497902426811004,0.4591256796422727,0.012890133517122706,0.19832803922725972,0.9673416607876253,-0.07520119242233757
1784286711833623808,3.4597339630126953,1.6067628860473633,2.04115891456604,-0.49100565910339355,0.8181192278862,-0.2082173377275467,-0.5360284447669983,-0.23529452085494995,0.790416419506073,0.2227502465248108,0.8763199992301421,0.11409967174167453,0.4679391417769907,0.008806367677804093,0.2097519948891028,0.9907770594440112,-0.09353232691369
1784286711843544064,3.469654083251953,0.5736361742019653,2.2259573936462402,-1.4985873699188232,0.8314091563224792,-0.20614081621170044,-0.5160086750984192,0.1152004599571228,1.4048559665679932,0.5866263508796692,0.870632455519271,0.1173370279222521,0.4777318070028126,0.0019110761811531776,0.20762941742976584,1.0153359123000845,-0.11140154753764953
1784286711853463040,3.4795730113983154,-0.37070024013519287,3.6695621013641357,-1.3195523023605347,0.8490899205207825,-0.1940627545118332,-0.4913104176521301,0.30642759799957275,1.8077712059020996,0.7504962086677551,0.8635009879509716,0.11499269334377739,0.491041207902211,-0.004612492532711031,0.19530195748332443,1.0462369508859646,-0.12355512915320717
1784286711863382784,3.489492893218994,-0.08121035248041153,5.136809825897217,-3.7853074073791504,0.874494731426239,-0.17341142892837524,-0.4529762268066406,-0.2938215136528015,1.60523521900177,0.7965431213378906,0.8522490103585922,0.10932171012337606,0.5114300120199693,-0.01263830275715449,0.17429252418107455,1.0928634990421795,-0.13583167131654714
1784286711873303040,3.499413013458252,-0.29226040840148926,5.043548583984375,-5.39398717880249,0.9045872688293457,-0.13170844316482544,-0.4054315686225891,-0.1751408576965332,1.2702734470367432,0.6390131115913391,0.8377379735794874,0.09793273502989379,0.536370582472905,-0.030180159819414024,0.1320922393453857,1.149444391078571,-0.15764234930358337
1784286711883221760,3.5093319416046143,-1.3215434551239014,4.889078617095947,-6.8162055015563965,0.9307441115379333,-0.07174224406480789,-0.35856467485427856,0.8864861726760864,1.040370225906372,0.6286604404449463,0.8224420505243367,0.0801431215716779,0.5606199651004,-0.05358701341085063,0.07180393257711544,1.2030739910056931,-0.1794251272226846
