time,seconds_elapsed,rotationRateX,rotationRateY,rotationRateZ,gravityX,gravityY,gravityZ,accelerationX,accelerationY,accelerationZ,quaternionW,quaternionX,quaternionY,quaternionZ,pitch,roll,yaw
1784890223427235328,0.31120848655700684,0.27275142073631287,0.48144206404685974,0.3835746943950653,-0.05704105272889137,0.7739177346229553,-0.63071209192276,-0.053768280893564224,0.32405900955200195,-0.07160419225692749,0.8859325619692814,-0.41434683281805107,-0.11384488657032134,0.17458409197317679,-0.8850043068093411,-0.09019375935125944,0.3463789940666823
1784890223437154304,0.32112741470336914,0.21385052800178528,0.48694363236427307,0.2322823703289032,-0.051846712827682495,0.7745170593261719,-0.6304247379302979,-0.1712367832660675,0.1551094651222229,-0.12429022789001465,0.8857691984069082,-0.41521087292679937,-0.11129948805890644,0.1750009606215101,-0.8859512267444148,-0.08205626306735367,0.351168774947099
1784890223447074304,0.33104753494262695,-0.02744557335972786,0.6570174694061279,0.017426861450076103,-0.04813152551651001,0.776451826095581,-0.6283358335494995,-0.303888738155365,0.026725053787231445,-0.146947979927063,0.8853488988318792,-0.41702028310507777,-0.10920701664958107,0.1741415278347976,-0.8890157149117507,-0.07645229136028898,0.35199873850260577
1784890223456993280,0.34096646308898926,-0.05267449468374252,0.809962272644043,-0.21850576996803284,-0.04631531983613968,0.7789463996887207,-0.625377893447876,-0.3426922559738159,0.04486042261123657,-0.18953299522399902,0.8850198491780169,-0.4192486839756493,-0.10743177561342246,0.17154876375074588,-0.8929839044826159,-0.07392477458167515,0.3475207108632293
1784890223466913280,0.35088634490966797,0.23629824817180634,0.6993481516838074,-0.3310209810733795,-0.04798632860183716,0.7804830074310303,-0.6233327388763428,-0.19893142580986023,0.19186806678771973,-0.23700356483459473,0.8851789337868269,-0.4206281457931888,-0.10679694249904616,0.16770451620350757,-0.8954380364881734,-0.07683194441763179,0.33756617197701405
1784890223476832512,0.3608055114746094,0.708616316318512,0.4870324432849884,-0.35732367634773254,-0.05650651827454567,0.7804535627365112,-0.6226550936698914,0.023623783141374588,0.2659943103790283,-0.28257256746292114,0.8858688276755875,-0.4204033256811025,-0.10924049105925591,0.16298512164063914,-0.8953909242004322,-0.09050299838896571,0.32041346910150514
1784890223486752256,0.3707253932952881,0.8287496566772461,0.30489790439605713,-0.34880128502845764,-0.06014694273471832,0.7762545347213745,-0.6275439262390137,0.15691816806793213,0.24547404050827026,-0.14493227005004883,0.8877455068923799,-0.41748663516072143,-0.10923806848584341,0.16024975890047724,-0.8887026361463032,-0.09555311789220995,0.3116596872823527
1784890223496671232,0.3806443214416504,0.7224226593971252,0.20137761533260345,-0.23600706458091736,-0.06195763126015663,0.7715467810630798,-0.6331484317779541,0.23718954622745514,0.08669906854629517,0.0057680606842041016,0.8896197970743808,-0.4142656554436638,-0.10867271900610237,0.15859047541329555,-0.8812689530072565,-0.09754583756234106,0.30680237590472526
1784890223506590464,0.3905634880065918,0.08193398267030716,0.17590101063251495,-0.04945772886276245,-0.062405992299318314,0.7693077325820923,-0.6358231902122498,0.2977117598056793,-0.17441326379776,0.06840986013412476,0.8905337824320226,-0.41279192287620153,-0.10812596144502949,0.15767465619187046,-0.8777569079574925,-0.09783655133831773,0.30452633704153
1784890223516510208,0.4004833698272705,-0.6553864479064941,0.16721031069755554,0.14206643402576447,-0.06076032295823097,0.7717326879501343,-0.6330378651618958,0.3286741375923157,-0.4418987035751343,0.18992257118225098,0.88979820543914,-0.4146394522251056,-0.10749513387982608,0.15741101120543383,-0.8815612893985589,-0.09568900609735317,0.3050231539951096
1784890223526429440,0.4104025363922119,-1.3989802598953247,0.2649163603782654,0.29224127531051636,-0.05541982129216194,0.7791826128959656,-0.624342143535614,0.28332507610321045,-0.6403428912162781,0.10572648048400879,0.8872697163758457,-0.4202291094221225,-0.10600193967811261,0.15787197901560932,-0.8933606635419079,-0.08853310110818999,0.30974873195678665
1784890223536349184,0.4203224182128906,-1.7404714822769165,0.32775044441223145,0.42346400022506714,-0.049906183034181595,0.7890211939811707,-0.6123356223106384,0.1600593775510788,-0.6690108776092529,-0.009505808353424072,0.8838179008828277,-0.4276125114477631,-0.10478421526326327,0.15822052119251634,-0.9092141938860233,-0.08132161245436818,0.314523232201216
1784890223546268160,0.43024134635925293,-1.7437145709991455,0.5320316553115845,0.34142038226127625,-0.04364098981022835,0.7994857430458069,-0.5990976691246033,-0.052947159856557846,-0.4985365867614746,-0.16660362482070923,0.8800535788800568,-0.43567223190317306,-0.10315454813609706,0.15828650174950756,-0.9264386386125443,-0.07271609606673801,0.3195837051203223
1784890223556188416,0.44016146659851074,-1.5371257066726685,0.6524605751037598,0.13633859157562256,-0.037783313542604446,0.8088894486427307,-0.5867455005645752,-0.20512135326862335,-0.1434689164161682,-0.12353581190109253,0.8767166505872055,-0.4431862800760721,-0.10106018022096601,0.15729161644313108,-0.942260786536631,-0.06430593108531783,0.32227743452969654
1784890223566107392,0.45008039474487305,-0.8497950434684753,0.6433032155036926,0.054258376359939575,-0.033108897507190704,0.815605103969574,-0.5776609182357788,-0.1494320034980774,0.18865209817886353,-0.04592001438140869,0.8744139300873369,-0.4487799831021655,-0.09882344372521329,0.15566234919867908,-0.9537742377337636,-0.057252818530573506,0.32276083861592714
1784890223576027392,0.46000051498413086,0.3160337507724762,0.48238489031791687,0.2071043848991394,-0.028687085956335068,0.8167022466659546,-0.5763458609580994,-0.001601608470082283,0.2938171625137329,-0.05919802188873291,0.8741853613964548,-0.45009631242813025,-0.09612694875544281,0.15483181397854018,-0.9556729108205039,-0.04973303997811573,0.3248363853320627
1784890223585946368,0.46991944313049316,0.995840311050415,0.24823160469532013,0.44159162044525146,-0.02377973310649395,0.8122864365577698,-0.582773745059967,0.0981663316488266,0.2579650282859802,0.047617554664611816,0.8758376700248586,-0.4471419418478502,-0.09315148630057223,0.15586932807836248,-0.9480615817599443,-0.04078177514636158,0.3313190337544823
1784890223595865344,0.47983837127685547,1.113071322441101,0.20280419290065765,0.543978750705719,-0.018095649778842926,0.8055890202522278,-0.5921984314918518,0.04093804955482483,0.13123959302902222,0.14217090606689453,0.87811032098759,-0.4424910546365087,-0.09001367687211255,0.15818198667708688,-0.9366689468967458,-0.03054722874370592,0.3410014541513729
1784890223605785344,0.4897584915161133,0.636568546295166,0.3494875133037567,0.483450323343277,-0.012066923081874847,0.8000311255455017,-0.599837064743042,-0.13504305481910706,-0.059018611907958984,0.1777026653289795,0.8798826728555472,-0.4387935295858445,-0.08684295764041321,0.1603901319643013,-0.9273471433985622,-0.020114287987162187,0.3505541996348804
1784890223615704320,0.4996774196624756,0.1030774787068367,0.6651480197906494,0.2893410325050354,-0.005950146354734898,0.7978030443191528,-0.602888822555542,-0.27079853415489197,-0.14762604236602783,0.11454653739929199,0.8805971431331345,-0.4376995253063885,-0.08351466839138542,0.16122408442427918,-0.9236425295675939,-0.00986907148066698,0.35724692465377594
1784890223625624320,0.5095975399017334,-0.29679375886917114,0.8040565848350525,-0.00044671082287095487,-0.0003230182046536356,0.7982484698295593,-0.6023281812667847,-0.26618698239326477,-0.0734713077545166,0.04159820079803467,0.8806145712756139,-0.4386726438529438,-0.08001396762156705,0.16025607632981703,-0.9243816952837789,-0.0005362826881937848,0.3597571173314965
1784890223635543296,0.5195164680480957,-0.3426499366760254,0.8527529835700989,-0.21858622133731842,0.003461423795670271,0.8002657890319824,-0.5996354818344116,-0.14954906702041626,0.19901704788208008,0.12554490566253662,0.8803152510596094,-0.4407454113999548,-0.07697889193364692,0.15767924687724721,-0.927738286207278,0.005772482892593542,0.3573624596087794
1784890223645463296,0.5294363498687744,0.23969997465610504,0.7544951438903809,-0.12721574306488037,0.006527976598590612,0.8006132245063782,-0.5991459488868713,0.012530257925391197,0.3337251543998718,-0.029210984706878662,0.880655219420639,-0.4415331616926387,-0.07399663488191546,0.15498158915333343,-0.9283179136438012,0.01089503915962579,0.35385582349649086
1784890223655382272,0.5393555164337158,0.7838200330734253,0.5842421650886536,0.05603743717074394,0.009910058230161667,0.7975472211837769,-0.6031751036643982,0.11165671050548553,0.31254494190216064,-0.1896257996559143,0.882056816515961,-0.439754331503752,-0.07091242417886236,0.1535034709660763,-0.9232183172436186,0.01642834147835026,0.35277922492719527
1784890223665302272,0.5492753982543945,1.0467816591262817,0.4099056124687195,0.11925225704908371,0.013214893639087677,0.7918909788131714,-0.610519528388977,0.10130232572555542,0.10080921649932861,-0.21424853801727295,0.8842073436007633,-0.4360201271344284,-0.06801983821395867,0.15309175663899607,-0.9138993644606876,0.02164194627346232,0.3535216243826077
1784890223675221248,0.5591943264007568,0.7722920775413513,0.39761751890182495,0.01829235441982746,0.01581513322889805,0.7860640287399292,-0.617942750453949,0.0353781059384346,-0.17221826314926147,-0.14577490091323853,0.8863479554814325,-0.4321187357817827,-0.06558990905400713,0.15283541905372203,-0.9044155890215209,0.025587615576223334,0.35393774505139414
1784890223685140480,0.5691134929656982,0.29118701815605164,0.531449019908905,-0.11968452483415604,0.01798613928258419,0.7825384736061096,-0.6223423480987549,-0.03226837143301964,-0.2524329423904419,-0.028002440929412842,0.8877731540558679,-0.4299007276528516,-0.06335754155564512,0.15175641667621467,-0.8987326394405252,0.028892671561209508,0.3525431806810381
1784890223695060224,0.579033374786377,0.13240082561969757,0.6695413589477539,-0.13512073457241058,0.020467057824134827,0.7811347842216492,-0.624026894569397,0.010721895843744278,-0.18358534574508667,0.023730933666229248,0.888563690240584,-0.429276041044492,-0.06089846081220755,0.14989350351866207,-0.8964812483588313,0.03278660355792696,0.3500048193267414
1784890223704979456,0.5889525413513184,0.4686703085899353,0.627763569355011,0.08256571739912033,0.024147892370820045,0.7792062163352966,-0.6263022422790527,0.1742468923330307,-0.10591214895248413,0.07544469833374023,0.8894560191008497,-0.42836623798447687,-0.057889914540145936,0.14838816185135034,-0.8933983418123583,0.03853720180525672,0.3490763332782663
1784890223714899200,0.5988724231719971,1.0184780359268188,0.44660094380378723,0.39016056060791016,0.02946111187338829,0.7741746306419373,-0.632286012172699,0.3428686261177063,-0.17531299591064453,0.13227081298828125,0.8911193052319377,-0.4253278793875213,-0.0543433115910741,0.14848998324428056,-0.8854101150690431,0.046560920891591355,0.35230913628440824
1784890223724818176,0.6087913513183594,1.1018515825271606,0.3047007620334625,0.676999568939209,0.03607950732111931,0.7669750452041626,-0.6406618356704712,0.4013289213180542,-0.3638684153556824,0.2540956735610962,0.893141308670084,-0.42083293445523223,-0.05068261133391489,0.15043140045187678,-0.8741136730284437,0.05625657190506802,0.3600148429232157
1784890223734738432,0.6187114715576172,0.9324055910110474,0.3209841251373291,1.0067335367202759,0.044622331857681274,0.7599330544471741,-0.6484679579734802,0.32876020669937134,-0.5920405387878418,0.4833526611328125,0.8947336416426044,-0.41663230797133666,-0.046728277741399565,0.1539019579196339,-0.8632100800176236,0.06870362543685532,0.37233589844361886
1784890223744657152,0.6286303997039795,0.4545931816101074,0.868655264377594,0.9833595752716064,0.056283146142959595,0.754741370677948,-0.6536036133766174,0.06677897274494171,-0.6302449107170105,0.5932551622390747,0.8955489261111937,-0.4141078065314102,-0.0413872506325408,0.15746112317292524,-0.8552597886741484,0.08590013687258452,0.3872633231575375
1784890223754577408,0.6385505199432373,0.40509992837905884,1.3964409828186035,0.8587026000022888,0.07083475589752197,0.751720666885376,-0.6556664705276489,-0.19711650907993317,-0.380596399307251,0.5857049226760864,0.895796504116656,-0.41353368252851747,-0.03400951047812109,0.15931707959408817,-0.8506673022295684,0.10761734508733797,0.40080507451355246
1784890223764496384,0.6484694480895996,0.959056556224823,1.7081345319747925,0.6357405185699463,0.08685899525880814,0.7466261982917786,-0.6595490574836731,-0.19869068264961243,-0.13165122270584106,0.4367707371711731,0.896829797524429,-0.41183410567114065,-0.024862697649234124,0.1595960734563718,-0.8429759761431449,0.13094100471516842,0.4110000380322666
1784890223774413568,0.6583867073059082,-0.5941852331161499,0.053043607622385025,0.05498046427965164,0.0980367511510849,0.7426686882972717,-0.6624440550804138,-0.01092434674501419,0.08565467596054077,0.3259114623069763,0.883981634529244,-0.40806356242216457,-0.04756150135803986,0.22315609252234567,-0.837046714791165,0.14692604575187973,0.5600032574491877
1784890223784333568,0.6683065891265869,-0.07234866172075272,0.23844078183174133,0.29511570930480957,0.09519527852535248,0.7499896883964539,-0.6545634865760803,0.07947207242250443,-0.19485968351364136,0.16283375024795532,0.8812987774193811,-0.4124213940508955,-0.051252753285777775,0.22493165570097848,-0.8480464677187658,0.1444206934786504,0.5650679622752126
1784890223794252288,0.6782255172729492,-0.9970522522926331,0.20030830800533295,0.7082334756851196,0.09950980544090271,0.7549541592597961,-0.6481835842132568,0.016914762556552887,-0.5371502637863159,-3.981302499771118,0.8791779254164217,-0.4163625728883187,-0.05050173307207086,0.22613682740262123,-0.8555842294214712,0.15233170048074976,0.5730756689423032
1784890223804172544,0.688145637512207,2.4266176223754883,0.07735005021095276,-0.6710089445114136,0.10326927900314331,0.7483198046684265,-0.6552502512931824,-0.1647774577140808,1.8712022304534912,-1.4397814273834229,0.8809575727471589,-0.4124345695871082,-0.047671882288455474,0.22702157326995148,-0.8455255097160029,0.156317038299543,0.5748623331205316
1784890223814091520,0.6980645656585693,2.6427714824676514,-0.45200806856155396,-1.0154180526733398,0.09781044721603394,0.7254179120063782,-0.681323766708374,-0.27140969038009644,2.6197969913482666,0.4660069942474365,0.8891610069120817,-0.39664953419443666,-0.04480262252663729,0.22372891014041912,-0.8116413147835065,0.14258522496225973,0.554351375518145
1784890223824011520,0.7079846858978271,2.6980884075164795,-0.6894643902778625,-1.076357126235962,0.08691292256116867,0.7078161835670471,-0.7010295391082764,0.34974783658981323,0.8692254424095154,0.41984057426452637,0.8953991393662385,-0.38386914752731854,-0.04614864234687985,0.2208510838160255,-0.7864018861030386,0.12334955004037154,0.5348677486634315
1784890223833930496,0.7179036140441895,2.068981170654297,-1.1277878284454346,-0.7278004288673401,0.0738503709435463,0.6916011571884155,-0.7184942364692688,0.2759726047515869,-0.7427485585212708,0.06686770915985107,0.9006973402789678,-0.3718963053351103,-0.04945715688441865,0.21906943969110748,-0.7637034790835368,0.10242522723984847,0.5183387990752067
1784890223843850496,0.7278237342834473,0.92153400182724,-0.6443790793418884,-0.21719859540462494,0.06401143968105316,0.6809418201446533,-0.7295346260070801,0.05311504006385803,-1.2379028797149658,0.21004915237426758,0.9037087283370691,-0.3639179451217457,-0.052881285775145906,0.21926645786543358,-0.7490479287338906,0.08751870416356804,0.5104798180281043
1784890223853769472,0.7377426624298096,0.15267406404018402,0.11303006112575531,0.10216448456048965,0.06245524436235428,0.6769599914550781,-0.7333652377128601,-0.4202128052711487,-0.9109382033348083,0.2427493929862976,0.9046319667388716,-0.3612215767006595,-0.053257487038284805,0.21982642147789197,-0.7436243917148951,0.08495754275477287,0.5099071657424135
1784890223863688448,0.7476615905761719,0.26845604181289673,0.5782052278518677,0.17127351462841034,0.06638749688863754,0.6746432185173035,-0.7351524829864502,-0.5020869374275208,-0.39302700757980347,0.1923820972442627,0.9050657955318858,-0.360317966269965,-0.05093829782459807,0.2200730088246509,-0.740481251329273,0.09006010650731701,0.5120316286427342
1784890223873608704,0.7575817108154297,0.8948837518692017,0.6180514693260193,-0.016833806410431862,0.07117091119289398,0.670153796672821,-0.7388021349906921,-0.21551907062530518,0.38969123363494873,-0.08770537376403809,0.9062251244108754,-0.3582514804423828,-0.04748474669791133,0.2194473175222953,-0.7344159640162539,0.09603650137447631,0.512129108829063
1784890223883527424,0.767500638961792,1.8222930431365967,0.6244690418243408,-0.16048355400562286,0.07499688118696213,0.6597190499305725,-0.7477608323097229,-0.005981385707855225,0.8837074041366577,-0.0720786452293396,0.9089735953247586,-0.3524725621465538,-0.043389946652459356,0.21828296598485517,-0.7204448887725889,0.09996100177901428,0.5090369050177319
1784890223893447424,0.7774205207824707,2.4743123054504395,0.5385724902153015,-0.3538149297237396,0.07684063911437988,0.6428626179695129,-0.7621175646781921,0.04149127006530762,0.6250969171524048,-0.09753209352493286,0.9133506456248347,-0.34265076028708025,-0.039136658777718464,0.2164472452603632,-0.6982296371815394,0.1004855971904986,0.5019840174682856
1784890223903366656,0.7873396873474121,2.5258750915527344,0.41881370544433594,-0.3868196904659271,0.07783562690019608,0.6238782405853271,-0.7776358723640442,0.08360236138105392,0.22080254554748535,-0.08231896162033081,0.918077097035915,-0.33159408960908254,-0.0350344920541326,0.2143650320089238,-0.6736953276281455,0.09976037026416854,0.4937285599671878
1784890223913286400,0.7972595691680908,2.4450156688690186,0.5045416355133057,-0.4107479155063629,0.07878848165273666,0.6049714088439941,-0.792339563369751,0.00971248745918274,-0.07297372817993164,-0.011951148509979248,0.9225644913007383,-0.3207243558609497,-0.031082202406169778,0.21223700198338316,-0.649729937555424,0.09911195722418031,0.48563878938603283
1784890223923205632,0.8071787357330322,2.398000955581665,0.7358664274215698,-0.48026058077812195,0.08093763142824173,0.5861466526985168,-0.8061521053314209,-0.13222241401672363,-0.20974284410476685,0.0408780574798584,0.9269127883125176,-0.31019913700298296,-0.026465948038555002,0.20954423523233012,-0.6262946154437244,0.10006462707538172,0.4770845689834333
1784890223933125376,0.8170986175537109,2.688204050064087,0.875484824180603,-0.5475637316703796,0.08446117490530014,0.5660572052001953,-0.8200278282165527,-0.12588880956172943,-0.09315681457519531,0.054906368255615234,0.9313847029717794,-0.2992462580836699,-0.02092280658106092,0.20624407868667022,-0.6017151109026578,0.10263601649528853,0.4677141112814055
1784890223943044352,0.8270175457000732,2.85772705078125,0.8086845874786377,-0.6411027908325195,0.08782067149877548,0.5437093377113342,-0.8346661925315857,-0.04131188243627548,0.17957252264022827,0.015223443508148193,0.9361411048433483,-0.2871176863430724,-0.015176550749042799,0.2024177892245287,-0.5748505221267697,0.10483080503940255,0.45690993239574096
1784890223952963584,0.8369367122650146,3.154933452606201,0.6616631746292114,-0.6800581812858582,0.09037629514932632,0.5189873576164246,-0.849990725517273,0.06274566799402237,0.25950080156326294,0.02294909954071045,0.9410491064237572,-0.27369693910516296,-0.009727684367670646,0.19854944289533305,-0.5456658623169625,0.10592822525889113,0.44554064869441745
1784890223962883584,0.8468565940856934,3.3239505290985107,0.5417605042457581,-0.7010383605957031,0.09176580607891083,0.4922410249710083,-0.8656083345413208,0.058624833822250366,0.1812514066696167,-0.0184401273727417,0.9460309344529463,-0.25917743144818267,-0.004784843276274847,0.19449807470553598,-0.5146624123882532,0.10561858258304903,0.4333559506816186
1784890223972802304,0.8567755222320557,2.499126434326172,0.620978057384491,-0.7289544343948364,0.09321268647909164,0.46688124537467957,-0.8793936967849731,-0.005337335169315338,0.05252790451049805,-0.09367448091506958,0.9504810440981527,-0.245566914070048,-0.0001781154712487181,0.19048021595679349,-0.48576075878067426,0.10560222319097987,0.42175612878975566
1784890223982722560,0.8666956424713135,1.6846915483474731,1.0936881303787231,-0.8358967304229736,0.09714789688587189,0.4495983123779297,-0.8879322409629822,-0.11455817520618439,-0.4410533905029297,0.06780284643173218,0.9536344462727375,-0.23666594484063896,0.004807883835149765,0.1858695161584056,-0.4663155907557142,0.10897568768814941,0.4108897222748344
1784890223992641536,0.8766145706176758,0.8733674883842468,1.4775135517120361,-1.2599806785583496,0.1039358451962471,0.43921995162963867,-0.892346978187561,-0.1882864534854889,-0.8999285697937012,0.10648888349533081,0.9560402249066685,-0.23174985444882698,0.010885884287831512,0.17933379629314106,-0.4547302056093076,0.11595223294269834,0.3977058637612285
1784890224002561536,0.8865346908569336,-0.008105097338557243,1.5707768201828003,-1.7015390396118164,0.11040634661912918,0.436068594455719,-0.8931151032447815,-0.12783190608024597,-0.6842223405838013,0.15831291675567627,0.9578527867810035,-0.23058055031619865,0.016584526709171248,0.17051585464523766,-0.4512253786237578,0.12299539705817356,0.38061032410328827
1784890224012480512,0.8964536190032959,-0.7730488181114197,1.4031544923782349,-2.1343834400177,0.1148875504732132,0.44100508093833923,-0.8901209831237793,-0.00684008002281189,-0.40929731726646423,0.1178431510925293,0.9589458562738665,-0.2334454046128702,0.02104146055646001,0.15963541917792756,-0.45671822856235855,0.12835994845166565,0.35978542696615906
1784890224022400512,0.9063737392425537,-1.035772681236267,1.129833698272705,-2.271393060684204,0.11602330952882767,0.45141783356666565,-0.8847375512123108,0.10197900980710983,-0.26118651032447815,0.1684899926185608,0.9594578015192382,-0.23889306311965233,0.023692392889148255,0.14768032033562,-0.4683536355556526,0.13039459242746074,0.3365918147759824
1784890224032319488,0.916292667388916,-1.0376681089401245,1.0289148092269897,-2.135953187942505,0.11523086577653885,0.46270737051963806,-0.8789901733398438,0.14520615339279175,-0.12907394766807556,0.09590911865234375,0.9596867607534381,-0.24466637543134911,0.025362921348170333,0.13600142090272543,-0.48104674052218777,0.13035126599724128,0.3135680054954695
1784890224042238464,0.9262115955352783,-1.0647610425949097,1.1782373189926147,-2.1057395935058594,0.11486949026584625,0.4740195870399475,-0.8729893565177917,0.04614124447107315,0.0472816526889801,0.04903000593185425,0.9596463940202193,-0.25052261416051,0.02727157052692206,0.12479385376009303,-0.49385025492823115,0.13083017976167272,0.29165399740744535
1784890224052158720,0.9361317157745361,-0.7946192622184753,1.4961128234863281,-2.1294400691986084,0.11627905070781708,0.4843290448188782,-0.8671243190765381,-0.08824865520000458,0.09431475400924683,-0.053896188735961914,0.9595543233422632,-0.2559575554715506,0.030390396347661087,0.11321521416665517,-0.5055961018140697,0.133302105326674,0.2693715122290976
1784890224062077440,0.9460506439208984,-0.42421630024909973,1.674910068511963,-2.0684189796447754,0.11972211301326752,0.49162766337394714,-0.8625363111495972,-0.08009504526853561,0.09818556904792786,-0.11721527576446533,0.9597000345580325,-0.2598244541451303,0.03497280622166428,0.10121315655243228,-0.5139579106878933,0.13792117379968566,0.24644762171333254
1784890224071997440,0.9559705257415771,0.19950294494628906,1.9050277471542358,-1.8753873109817505,0.12547485530376434,0.4946064054965973,-0.8600119352340698,-0.021913468837738037,0.17900806665420532,-0.1526375412940979,0.9601973912102282,-0.2613754548897918,0.040949839100592154,0.08959332721844067,-0.5173818942797287,0.14487675703901606,0.22447545253796455
1784890224081916672,0.9658896923065186,1.10844087600708,2.0863547325134277,-2.1665565967559814,0.13314907252788544,0.4908061623573303,-0.861034631729126,-0.03994840383529663,0.3177723288536072,-0.23126578330993652,0.9615267293037443,-0.2591155010084865,0.048392521324498346,0.07735483287887361,-0.5130147943525608,0.15342323097322072,0.20086855266707054
1784890224091836416,0.9758095741271973,1.9400049448013306,2.2134292125701904,-2.548387050628662,0.1398521065711975,0.48015260696411133,-0.8659647107124329,-0.016789987683296204,0.41175413131713867,-0.22290247678756714,0.9638493268255817,-0.2527455087815683,0.056012045352305036,0.06306296490650005,-0.5008286762023284,0.1601161324732094,0.17170724107797608
1784890224101755648,0.9857287406921387,2.1338374614715576,2.1742022037506104,-2.8632941246032715,0.14585942029953003,0.46551382541656494,-0.8729386329650879,0.09725885093212128,0.43113836646080017,-0.25277847051620483,0.9665865239546702,-0.24387842504062643,0.06367092403539078,0.04668822525378659,-0.48421509867097723,0.1655606482096347,0.1375026955935425
1784890224111675392,0.9956486225128174,1.454811930656433,2.218838930130005,-3.1035616397857666,0.15095290541648865,0.4541742503643036,-0.878031313419342,-0.08190688490867615,0.12048700451850891,0.010752260684967041,0.9685911145375565,-0.23657866708953604,0.0708158445739438,0.02910175538797569,-0.47144514659463105,0.17025758445403893,0.10105995951845678
1784890224121594368,1.0055675506591797,0.8027195930480957,2.8243913650512695,-2.6547563076019287,0.15999560058116913,0.44861289858818054,-0.8792883157730103,-0.3449473977088928,-0.39648887515068054,0.054077744483947754,0.9692825262636446,-0.23237302802752638,0.07974103119332449,0.011645973886252853,-0.46521270022672917,0.17999110655913145,0.06677677456941228
1784890224131513600,1.015486717224121,-0.1325298547744751,2.88655948638916,-2.200780153274536,0.17389926314353943,0.449598491191864,-0.8761394023895264,-0.23662813007831573,-0.7156659960746765,0.07355761528015137,0.9685342390278735,-0.23179242922721638,0.0905680975153044,-0.0033162120979794343,-0.46631578971245186,0.19593701808211633,0.039823607060207454
1784890224141433600,1.0254065990447998,-0.6029666662216187,2.899170398712158,-2.168534755706787,0.18917442858219147,0.4556879699230194,-0.8698054552078247,-0.15644434094429016,-0.8231043815612793,0.08695328235626221,0.9667576956188092,-0.2339069277364722,0.10190593085194186,-0.01680637720070901,-0.47314495579481897,0.21415540649024617,0.017051654640614918
1784890224151352320,1.035325527191162,-0.8427404165267944,2.925494909286499,-2.596752405166626,0.20320279896259308,0.4661637246608734,-0.8610458970069885,-0.09190520644187927,-0.5899583101272583,0.15647131204605103,0.9641338220301474,-0.23810188032361546,0.11306876378882251,-0.031129628203410316,-0.48494955222681857,0.23175497065258596,-0.006988295718920562
1784890224161272576,1.04524564743042,-0.7154373526573181,2.991473913192749,-3.050065279006958,0.21481825411319733,0.47841429710388184,-0.851453423500061,-0.02827957272529602,-0.14967894554138184,0.14901506900787354,0.9609660272919168,-0.24278344732573182,0.12381230661841548,-0.04765683798265673,-0.4988480571876767,0.24713839633211096,-0.03584963138416978
1784890224171191552,1.0551645755767822,-0.3199017345905304,3.014366865158081,-3.3065130710601807,0.224863201379776,0.4898465573787689,-0.8423104882240295,0.07054692506790161,0.2643495798110962,-0.06004852056503296,0.9574814936775355,-0.24650004155651917,0.134471183483621,-0.06621526724597934,-0.5119137270124502,0.26087623776294183,-0.06945808287464439
1784890224181111552,1.06508469581604,0.9168205261230469,3.7021026611328125,-3.4727327823638916,0.23599688708782196,0.49470290541648865,-0.8364056944847107,0.21229109168052673,0.36569443345069885,-0.2071886658668518,0.9543078100050375,-0.24594873452756558,0.14596701743873672,-0.08659943109076491,-0.5174929560392378,0.27500684218846516,-0.10777762142209438
1784890224191030528,1.0750036239624023,0.5824728608131409,3.3078253269195557,-3.413510322570801,0.24860145151615143,0.4957717955112457,-0.8321103453636169,0.4264778792858124,0.20002898573875427,-0.2758455276489258,0.9509910946024156,-0.24268038804497283,0.15827521658883023,-0.10803342299514448,-0.5187233162676013,0.2903189714472115,-0.14869244770082796
1784890224200950528,1.0849237442016602,0.9271657466888428,2.778216600418091,-2.794966697692871,0.25920113921165466,0.4965786337852478,-0.828386664390564,0.5762327909469604,-0.1771511435508728,-0.17101824283599854,0.9476928139311981,-0.23941545326757216,0.1687806828226505,-0.126774059577906,-0.51965260738219,0.30324809815898845,-0.18477057068670955
1784890224210869504,1.0948426723480225,2.1324286460876465,2.8663785457611084,-2.466256618499756,0.2696247100830078,0.4900094270706177,-0.8289712071418762,0.3920269012451172,-0.4863625764846802,-0.5341269373893738,0.9454684516268774,-0.23215972380622196,0.17780959498659094,-0.14344006969579412,-0.5121005713066227,0.31445998579679857,-0.21816797478423178
1784890224220789504,1.1047625541687012,3.741712808609009,3.353732109069824,-3.0045535564422607,0.2824266254901886,0.47283658385276794,-0.8346620798110962,0.0948164165019989,-0.16341885924339294,-0.6564878225326538,0.9439985184881093,-0.21837489097849605,0.18703306668503603,-0.16185758236185763,-0.49250719489316214,0.3262788394289572,-0.25691673435077017
1784890224230708480,1.1146817207336426,6.486178398132324,3.119588851928711,-3.505080461502075,0.29607564210891724,0.4402046501636505,-0.8476786613464355,0.01697370409965515,0.09777450561523438,-0.512230396270752,0.9430399527466506,-0.19490671282086605,0.19537667844715262,-0.18578219380928837,-0.4558265824337724,0.33603160319721087,-0.3103838744875997
1784890224240627456,1.1246006488800049,8.990560531616211,1.3196707963943481,-3.3683621883392334,0.3009267747402191,0.3827548921108246,-0.873465359210968,0.606009840965271,-0.3211704194545746,-1.1561671495437622,0.9444706202146129,-0.15899516897617644,0.19490470036893903,-0.2114427412687019,-0.3927764389189266,0.3317850359687074,-0.37388845054671666
1784890224250547456,1.1345205307006836,8.775674819946289,-0.09104794263839722,-3.1871893405914307,0.29495668411254883,0.3129999339580536,-0.9027910232543945,1.1358904838562012,-0.7264978289604187,-1.6718549728393555,0.9464521672375311,-0.11912750706446269,0.18550775489277918,-0.2358471382682818,-0.3183500274074086,0.3157835781978886,-0.43732571039603674
1784890224260466688,1.144439697265625,4.864695072174072,-1.3003220558166504,-2.670581102371216,0.2798602879047394,0.257485955953598,-0.9248671531677246,1.260697603225708,-0.6110931634902954,-0.9757981300354004,0.9471901462474028,-0.08956072746747405,0.1718874898313034,-0.2554690726569012,-0.26041952328242557,0.29383593463485436,-0.4881354071743942
1784890224270386432,1.1543595790863037,0.529569685459137,-1.173608660697937,-2.4578375816345215,0.26141366362571716,0.2410890758037567,-0.9346330761909485,1.1199034452438354,-0.7294771671295166,-0.5884382128715515,0.9460309083704606,-0.08154864469919097,0.16134835646955897,-0.2689646402951882,-0.24348787811432898,0.2727273119737514,-0.5204258216945175
1784890224280305664,1.1642787456512451,0.6450334191322327,0.07232809066772461,-1.8378989696502686,0.2510155737400055,0.2434859722852707,-0.9368595480918884,0.8947669267654419,-0.9848189949989319,-0.9856105446815491,0.9436443928556761,-0.08244016820327725,0.1573971315279255,-0.2792222786206377,-0.24595838299684455,0.26178427535960513,-0.542837639160466
1784890224290225408,1.1741986274719238,1.9694881439208984,-0.3565761148929596,-1.2991063594818115,0.24921204149723053,0.23463751375675201,-0.9395949244499207,0.9139349460601807,-0.24917913973331451,-1.2234909534454346,0.9419545014539465,-0.07704122138264378,0.15577930138691093,-0.28726174160218515,-0.23684565863622375,0.259263884916329,-0.5609899526527438
1784890224300144384,1.1841175556182861,2.744365930557251,-1.204586148262024,-1.50872004032135,0.23784300684928894,0.21722915768623352,-0.9467006921768188,1.0366625785827637,0.7277476787567139,-1.0418704748153687,0.9413416182178628,-0.06895873453157772,0.14796738152673605,-0.2953411414107499,-0.2189749492685986,0.24613934367078893,-0.5808441503187476
1784890224310064640,1.194037675857544,3.3332931995391846,-2.049004077911377,-0.901958703994751,0.21967975795269012,0.19035249948501587,-0.9568211436271667,1.144318699836731,0.6558389067649841,-0.8223994374275208,0.941612552851352,-0.057586830054045836,0.1351783127379025,-0.30294626965653065,-0.19152119445050667,0.2256821205638394,-0.6007760096471416
1784890224319983360,1.2039566040039062,4.487481594085693,-2.4342594146728516,0.028302911669015884,0.1977711021900177,0.15505865216255188,-0.9679067134857178,1.2729778289794922,0.16246148943901062,-0.9248392581939697,0.943370963373802,-0.043518761372775994,0.11896537557718581,-0.30660175169755655,-0.1556868279599213,0.20155427009730145,-0.6127011437603933
1784890224329902336,1.2138755321502686,5.3060102462768555,-3.7941646575927734,0.3266129195690155,0.16744960844516754,0.10637522488832474,-0.9801249504089355,1.0501712560653687,-0.13994455337524414,-0.9192280173301697,0.9461533136718109,-0.0247837019024784,0.09655716706747368,-0.30798780806026305,-0.10657687047416317,0.16921146811608256,-0.6203495844226079
1784890224339822592,1.2237956523895264,6.161884307861328,-3.348325490951538,0.5579440593719482,0.13152548670768738,0.04908248782157898,-0.990096926689148,0.6689047813415527,-0.08211776614189148,-0.4344940781593323,0.9488441650895861,-0.0030589371552418084,0.07030057779751203,-0.3078038476598991,-0.04910221477300412,0.13206778020217663,-0.6241281713134873
1784890224349741568,1.2337145805358887,7.079014301300049,-2.6167616844177246,0.4757266640663147,0.10198790580034256,-0.015371580608189106,-0.9946668744087219,-0.00782591849565506,-0.22501538693904877,-0.08499926328659058,0.9502210549171883,0.023033407564646745,0.04621717676488285,-0.3072675449550849,0.01537218620153739,0.10217765839970376,-0.6262894915429936
1784890224359661568,1.2436347007751465,8.140538215637207,-1.805550217628479,0.4375661313533783,0.08067010343074799,-0.09303659945726395,-0.9923893213272095,-0.4569671154022217,-0.6960106492042542,-0.407619833946228,0.9496627704094036,0.056781294741436165,0.024108787861928806,-0.30714043957752796,0.0931713392646225,0.08111042264547269,-0.6293887008116176
1784890224369580544,1.2535536289215088,4.559656143188477,-1.478599190711975,1.9359627962112427,0.06370683759450912,-0.1582791805267334,-0.9853370785713196,-0.3752302825450897,-1.0992281436920166,0.06686478853225708,0.9491166811167033,0.08539229453228003,0.006294635133104111,-0.303061024858851,0.15894762493717138,0.06456500307662764,-0.6232948937559659
1784890224379500544,1.2634737491607666,1.4248050451278687,-0.7346878051757812,2.2791473865509033,0.0504632331430912,-0.18698640167713165,-0.9810655117034912,0.4441351592540741,-1.9698739051818848,0.3713243007659912,0.9510712538368155,0.09723847963976898,-0.0034526001258750228,-0.29325103620099524,0.18809354155650906,0.05139187667687096,-0.6030251971515911
1784890224389419520,1.273392677307129,-0.9840371608734131,-2.0941197872161865,2.469470977783203,0.03266673535108566,-0.1905147135257721,-0.981140673160553,1.1556267738342285,-2.8903872966766357,-0.24525398015975952,0.9542222603265197,0.09642660015328608,-0.011470444018459309,-0.28289621431734474,0.19168643005538535,0.03328235413397638,-0.5796262928919543
1784890224399339520,1.2833125591278076,-2.850191354751587,-3.4261112213134766,3.391524314880371,0.0005845138221047819,-0.17150449752807617,-0.9851831793785095,1.4363051652908325,-2.417393207550049,0.07168525457382202,0.9588503072938567,0.0829169193863015,-0.023091171601154793,-0.27055074011249775,0.17235658802629683,0.0005933046736777671,-0.5500753346226462
1784890224409258496,1.293231725692749,-3.4129788875579834,-4.165008068084717,4.255544185638428,-0.04282524064183235,-0.13946697115898132,-0.9893002510070801,1.2516722679138184,-1.7325727939605713,0.14210176467895508,0.9644246354460432,0.062145538851822044,-0.038572169265852135,-0.2540380204282383,0.1399231057863231,-0.04326140808041436,-0.5120848578918106
1784890224419177472,1.3031506538391113,-3.2744975090026855,-4.423095703125,4.642527103424072,-0.09038762003183365,-0.10360332578420639,-0.9905031323432922,0.9665320515632629,-1.4752693176269531,0.036645710468292236,0.9696709262370038,0.03982174155116374,-0.05623761367316947,-0.23449922339222068,0.10378956475243367,-0.09100221011559126,-0.46982637810837574
1784890224429097472,1.31307053565979,-2.3986804485321045,-4.550632476806641,5.046387195587158,-0.13859502971172333,-0.0697752833366394,-0.9878880381584167,0.901549756526947,-1.3767273426055908,-0.21204781532287598,0.973999787783572,0.01935376147952529,-0.07537506068451202,-0.21276376305112768,0.06983202452716487,-0.13938453620210509,-0.4252534123375767
1784890224439016704,1.3229897022247314,-1.113316535949707,-4.499844551086426,5.285061359405518,-0.1855621039867401,-0.04448100924491882,-0.9816252589225769,1.0135345458984375,-1.2535536289215088,-0.5085633397102356,0.9773314431989011,0.004260754947212955,-0.09575602429571639,-0.18877489999307237,0.04449568851593191,-0.18683096403374103,-0.37743806106486094
1784890224448936448,1.3329095840454102,-0.029348667711019516,-4.44165563583374,5.698465347290039,-0.23083116114139557,-0.027858689427375793,-0.9725949168205261,1.2220573425292969,-1.0968513488769531,-0.6884310841560364,0.9797445400084861,-0.005175864071234878,-0.11694337269610192,-0.1624749549521181,0.027862294105335507,-0.23302393972190627,-0.3254155467239426
1784890224458855424,1.3428285121917725,0.7813359498977661,-4.309103488922119,6.240636825561523,-0.27403271198272705,-0.0167462769895792,-0.9615745544433594,1.495987057685852,-1.0525591373443604,-0.6394081115722656,0.9813714190117244,-0.010206476046994149,-0.13823367103020814,-0.13303185984873986,0.016747059752651634,-0.2776237399269697,-0.2671318486115045
1784890224468775424,1.3527486324310303,1.4234493970870972,-4.15762186050415,6.644344329833984,-0.3150519132614136,-0.008422103710472584,-0.9490370750427246,1.625339388847351,-1.2103278636932373,-0.2644486427307129,0.9820441096979854,-0.012007863285831056,-0.15917687985616988,-0.10053786298344491,0.008422203423461623,-0.3205231385029927,-0.202679925972954
1784890224478694400,1.3626675605773926,1.8735827207565308,-3.8671000003814697,6.893169403076172,-0.3528440594673157,-0.0017607200425118208,-0.9356805086135864,1.6412198543548584,-1.53769850730896,0.07720577716827393,0.9815752832383848,-0.011129961988049828,-0.17898569509116413,-0.06595641973003961,0.0017607209902528117,-0.3606095028633086,-0.133866257256616
1784890224488614656,1.3725876808166504,1.710963487625122,-3.416034698486328,7.191662311553955,-0.3863556981086731,0.006905602291226387,-0.922324001789093,1.7105134725570679,-1.8963708877563477,0.2886265516281128,0.9799341551220213,-0.00951965745864466,-0.19684352268550848,-0.029850290359010465,-0.006905657248820604,-0.39668720437240523,-0.06229216598864793
1784890224498533376,1.3825066089630127,1.0011327266693115,-2.85810923576355,7.656312942504883,-0.4138079583644867,0.023724736645817757,-0.9100549817085266,1.799550175666809,-2.1988041400909424,0.5969141721725464,0.9772248861237595,-0.010475019620374131,-0.21180834558148437,0.007676366435634644,-0.023726962854782846,-0.42676098145437386,0.010568851009015147
1784890224508453632,1.3924267292022705,0.05685592442750931,-2.325028657913208,8.129796981811523,-0.4339897930622101,0.05194302275776863,-0.8994191288948059,1.8214561939239502,-2.342348337173462,0.9941609501838684,0.9734131289283924,-0.015960616000438757,-0.223686606161367,0.04665115596258002,-0.05196640994707211,-0.4495679522710776,0.08389283349445567
1784890224518372608,1.4023456573486328,-1.0852417945861816,-1.8628181219100952,8.274892807006836,-0.4468294680118561,0.09215950965881348,-0.8898595571517944,1.8041139841079712,-2.1830103397369385,1.3108190298080444,0.9682738617080541,-0.026913025581664845,-0.23312209212700036,0.08588021870549584,-0.09229046963568589,-0.4653540013040691,0.1550406619760091
1784890224528291584,1.4122645854949951,-2.240553617477417,-1.341977596282959,8.275287628173828,-0.45112600922584534,0.1435050070285797,-0.8808470964431763,1.816299319267273,-1.8914450407028198,1.4915801286697388,0.961828189017507,-0.04370774945121675,-0.24013762045398754,0.12373386001579254,-0.14400217117782324,-0.4733204403186001,0.22109645443865517
1784890224538211584,1.422184705734253,-2.9419894218444824,-1.252104640007019,8.332239151000977,-0.4480442702770233,0.2031177282333374,-0.8706316351890564,1.9279179573059082,-1.670570731163025,1.6177935600280762,0.9537316188935909,-0.06515257368361059,-0.24584408190526927,0.1603487668749859,-0.20454098000106521,-0.47527491586063864,0.28343393217383206
1784890224548130560,1.4321036338806152,-3.1918492317199707,-1.2772501707077026,8.334665298461914,-0.43950822949409485,0.26596951484680176,-0.8579584360122681,2.0863893032073975,-1.5083248615264893,1.5638759136199951,0.9436596626796242,-0.08867969292694013,-0.2513099406491312,0.19617731006158198,-0.2692095228104339,-0.4734170596120476,0.3446271503861029
1784890224558050304,1.442023515701294,-3.1671621799468994,-1.399297833442688,8.392909049987793,-0.42615175247192383,0.3284086585044861,-0.8429368138313293,2.1716809272766113,-1.3907713890075684,1.622126817703247,0.931554262680571,-0.1124292759694116,-0.2566929162150281,0.231678971579945,-0.3346182785317013,-0.4680825246061261,0.4070267004051455
1784890224567969536,1.4519426822662354,-3.042409658432007,-1.40550696849823,8.417354583740234,-0.40813276171684265,0.3883979618549347,-0.8261807560920715,2.159475564956665,-1.3493201732635498,1.6575101613998413,0.9174750967524042,-0.1354426576523699,-0.2618489991830731,0.2670764911339568,-0.3988924197398467,-0.4588355815361125,0.4722043727000535
1784890224577889536,1.461862564086914,-3.2230794429779053,-1.1200141906738281,8.350780487060547,-0.3839862048625946,0.445824533700943,-0.8085759878158569,2.0647265911102295,-1.3769463300704956,1.641950011253357,0.9018128306672509,-0.158247373608255,-0.2658378822103404,0.3016979877245233,-0.46209519081335854,-0.44336014810570856,0.5397399473008145
1784890224587808512,1.4717817306518555,-3.8581221103668213,-0.7898570895195007,8.333880424499512,-0.3528823256492615,0.5028966069221497,-0.7890304327011108,1.9616775512695312,-1.4159672260284424,1.7234787940979004,0.8846041723709431,-0.18265330718042935,-0.2685563968250456,0.3346500672741449,-0.5269467089876875,-0.4205524853287018,0.6083131549422592
1784890224597728512,1.4817016124725342,-4.493591785430908,-0.5411083698272705,8.384769439697266,-0.3188031017780304,0.5533668994903564,-0.7695125937461853,1.9219067096710205,-1.439185380935669,1.849010944366455,0.8669099088013734,-0.20534292761496536,-0.270329424708729,0.3649977828354798,-0.5864010575785673,-0.39276623711297626,0.6770307369423928
1784890224607647488,1.4916205406188965,-4.522979259490967,-0.44013941287994385,8.539939880371094,-0.2743960916996002,0.611009418964386,-0.7425458431243896,1.9312258958816528,-1.4911210536956787,2.009071111679077,0.8456307011166959,-0.23428218110295856,-0.27173322275198986,0.39519824928132213,-0.6573350631788478,-0.35397016569351347,0.7525199214895051
1784890224617566464,1.501539707183838,-3.958116292953491,-0.3143322169780731,8.699553489685059,-0.22301094233989716,0.6625580191612244,-0.7150406241416931,1.9838141202926636,-1.5354676246643066,2.1029648780822754,0.8224525041329979,-0.2623962690204687,-0.2713446053113179,0.4255494204466427,-0.7242288178349244,-0.3023251232921365,0.8396862095666737
1784890224627486464,1.5114595890045166,-3.496589183807373,-0.14851823449134827,8.776638984680176,-0.165592759847641,0.7047887444496155,-0.6898201107978821,2.044682264328003,-1.5541387796401978,2.1087045669555664,0.7980829838885176,-0.28817437997623274,-0.26841287934148794,0.4560411342146687,-0.7821253446623898,-0.23559423726372153,0.9407708116217259
1784890224637405440,1.521378517150879,-3.663393259048462,0.025651324540376663,8.799269676208496,-0.10315266996622086,0.7401254773139954,-0.664510190486908,2.116443157196045,-1.6071299314498901,2.1425833702087402,0.7722674781333431,-0.31329248885007477,-0.2638043393526158,0.48565216781130793,-0.8332569636597067,-0.15400200813744894,1.0544882293374955
1784890224647325440,1.5312986373901367,-4.143875598907471,0.22454257309436798,8.769102096557617,-0.03663521260023117,0.7710508108139038,-0.6357189416885376,2.2048022747039795,-1.8972257375717163,1.9699323177337646,0.7444291151234466,-0.3394106231180043,-0.25872953197274795,0.5135024607115765,-0.8804897045983561,-0.05756433765529949,1.180563135758276
1784890224657244416,1.541217565536499,-5.21831750869751,0.3501620292663574,8.750687599182129,0.03326493501663208,0.7995837330818176,-0.599632740020752,2.2535088062286377,-2.2992632389068604,1.756309986114502,0.7138738387415415,-0.3680355353545446,-0.2544277191552968,0.5387027639349725,-0.9266017250592411,0.05541870880533492,1.3205923213148878
1784890224667164672,1.5511376857757568,-6.164798736572266,0.11411567777395248,8.944281578063965,0.10588732361793518,0.8262410163879395,-0.553275465965271,2.2526330947875977,-2.323296070098877,1.9976266622543335,0.6791806913446641,-0.3995615104915676,-0.25241405416343976,0.5615616299733683,-0.9724017148200715,0.18909607118481736,1.4819224753452425
1784890224677083392,1.5610566139221191,-6.282541751861572,-0.14772339165210724,9.104402542114258,0.18065717816352844,0.8460872173309326,-0.5014972686767578,2.193824052810669,-1.9003169536590576,2.227998733520508,0.6406381828478784,-0.43118784114933734,-0.25165139009052506,0.5833793335828731,-1.0086015394122823,0.34576415310586445,1.6694636619020657
1784890224687003648,1.570976734161377,-6.300351619720459,-0.2820338010787964,9.018335342407227,0.2562004029750824,0.855901300907135,-0.44921520352363586,2.099558115005493,-1.5203911066055298,2.200329065322876,0.59977299291457,-0.461011667324867,-0.25072025798961556,0.6040529264988556,-1.027291203385986,0.5183167545769294,1.8748437025513531
1784890224696922624,1.5808956623077393,-6.818802833557129,-0.21353048086166382,8.65898609161377,0.3303609788417816,0.8575640916824341,-0.39426565170288086,1.9781564474105835,-1.5292255878448486,2.229745388031006,0.5571363613042647,-0.49002448784548663,-0.25048589269798416,0.6218776786360415,-1.0305151632793124,0.6974359648262811,2.086607592732685
1784890224706842368,1.590815544128418,-6.776333332061768,0.269758939743042,8.138787269592285,0.40164655447006226,0.851826548576355,-0.33626097440719604,1.850398063659668,-1.8804216384887695,2.253253221511841,0.5134914249876356,-0.5184919892428619,-0.25106886124592875,0.6359692809407648,-1.019462418739707,0.8737767820820656,2.2937977570583867
1784890224716761600,1.6007347106933594,1.6337674856185913,-1.489188551902771,18.06816291809082,0.5209925770759583,0.7942283749580383,-0.31267857551574707,2.3956637382507324,-1.6084222793579102,1.8767807483673096,0.46604467410577693,-0.5449895475138715,-0.21597940649841824,0.6626775651639515,-0.9177365944572459,1.0302596588082034,2.4611798911435385
1784890224726681344,1.610654592514038,-6.567083835601807,-12.024374961853027,-0.8025630712509155,0.5409238338470459,0.7740889191627502,-0.3289192318916321,7.8091888427734375,8.318455696105957,4.406189918518066,0.42017231822867673,-0.5290696651840621,-0.23585094630139547,0.6985090651736144,-0.8852746698902437,1.0244645501270626,2.579459559972255
1784890224736600320,1.6205735206604004,1.9816750288009644,-6.528035640716553,3.825385808944702,0.5279568433761597,0.769822895526886,-0.3586563467979431,1.4661227464675903,1.6353895664215088,2.680403232574463,0.40041818243298716,-0.5068224003821133,-0.2525923136049303,0.7204120959910599,-0.8785636700448222,0.9740787168873133,2.6147988747970925
1784890224746519552,1.6304926872253418,-2.8515918254852295,0.5333597660064697,6.519688129425049,0.5564647912979126,0.742443859577179,-0.37299349904060364,0.0525134801864624,1.7291901111602783,0.20798492431640625,0.3763260817811423,-0.5026674866282201,-0.24663465019503716,0.7381568391179543,-0.8367111013139874,0.9802885682901855,2.6644933115567313
1784890224756439552,1.6404125690460205,-2.491530656814575,2.822218656539917,2.8697917461395264,0.6007604002952576,0.7222044467926025,-0.34279394149780273,-1.9880895614624023,2.487436056137085,2.2953848838806152,0.35399681884839107,-0.5210067088716497,-0.2390711908643203,0.7389744647124238,-0.8069841294992228,1.0522749865505998,2.7341704670323312
1784890224766358528,1.650331735610962,-5.109199047088623,7.0970611572265625,-0.6802800297737122,0.6175544857978821,0.7339388728141785,-0.28277209401130676,-1.1545265913009644,0.9133236408233643,1.1338311433792114,0.3488459615058939,-0.546648053894938,-0.24451964398959783,0.7208969876710649,-0.824103088736833,1.1414003826197474,2.7873102536846237
1784890224776278528,1.6602516174316406,-7.535654544830322,7.815923690795898,0.24513645470142365,0.6347590088844299,0.7494267821311951,-0.18825675547122955,1.5279148817062378,1.0027093887329102,1.5818877220153809,0.34228712695938807,-0.5848078147110811,-0.2527279965258251,0.6906286948697555,-0.8471958864959411,1.282480202372317,2.8706640414518145
1784890224786197504,1.670170545578003,-7.950935363769531,5.159911632537842,-0.408207505941391,0.6414552330970764,0.7621693015098572,-0.08736957609653473,1.9514861106872559,1.1870648860931396,0.801007866859436,0.3279519455249761,-0.6194525286438373,-0.269432324059261,0.6604032483884438,-0.8666574216333955,1.4354241000821872,2.987502990412566
1784890224796117504,1.6800906658172607,-5.002408981323242,-0.20529089868068695,-0.9166938662528992,0.637814462184906,0.7698821425437927,-0.021778976544737816,3.165499687194824,1.7769012451171875,0.25360578298568726,0.3133783871460918,-0.6371233223189617,-0.288417031193661,0.6424045016272625,-0.878656477572373,1.5366633311311164,3.0865386865675792
1784890224806036480,1.690009593963623,-1.548577904701233,-4.1371002197265625,-0.4841139614582062,0.6316580176353455,0.775177538394928,-0.010391649790108204,3.2549996376037598,2.950927257537842,-0.04032856225967407,0.30153496751529335,-0.6337181187191346,-0.305295792590731,0.6436400365865088,-0.8869960703099866,1.5543464237618039,3.1396662306286522
1784890224815956480,1.6999297142028809,2.121107816696167,-4.748486042022705,-1.8002958297729492,0.6220563054084778,0.7817556858062744,-0.04363534227013588,2.755232572555542,3.415036916732788,-0.21701526641845703,0.2988317022732258,-0.6158426902636301,-0.3145156733612594,0.6576604947905236,-0.8974763737090716,1.5007641070599713,3.132491516405918
1784890224825875456,1.7098486423492432,6.575335502624512,-8.395386695861816,1.5668284893035889,0.6188206076622009,0.7766275405883789,-0.11794394254684448,0.2503352761268616,3.356734275817871,-0.903250515460968,0.2989045861722701,-0.5869808025296381,-0.3106148205116648,0.6852941197994606,-0.8892945377610145,1.3824604392271724,3.0700585029454586
1784890224835795456,1.7197685241699219,8.959183692932129,-2.9303274154663086,-3.727806806564331,0.6022120714187622,0.768805742263794,-0.21512340009212494,-2.8284847736358643,2.687035083770752,0.3020069897174835,0.31727575973028016,-0.5535890368761462,-0.29321916009358034,0.7119674622521022,-0.8769715500756772,1.2277022068159842,2.9414510583713587
1784890224845714688,1.7296876907348633,5.212625503540039,0.7578448057174683,-3.839817762374878,0.5674736499786377,0.7756903767585754,-0.2761850357055664,-1.6276237964630127,1.4991357326507568,1.1030282974243164,0.3495588810266922,-0.5318543183354659,-0.28113781791328185,0.7182625894912393,-0.8878082287410026,1.117851509145064,2.813947609862186
1784890224855633408,1.7396066188812256,1.465160608291626,3.3853440284729004,-3.0180563926696777,0.5476068258285522,0.7853073477745056,-0.2888239622116089,-0.13085877895355225,0.10852199792861938,0.3103541135787964,0.37250950716451764,-0.5291118267266423,-0.27500671867008714,0.7110898078692401,-0.9031923657319474,1.0854467194274657,2.7456831277472125
1784890224865553664,1.7495267391204834,-0.7347102761268616,2.285541534423828,-3.3437435626983643,0.5316758751869202,0.800715446472168,-0.27599939703941345,0.5287489295005798,-0.3778638243675232,-0.5409713983535767,0.3886533191669789,-0.5346499607913038,-0.27595238929067323,0.6978168532679513,-0.9284885336215782,1.0919761837029855,2.7159639556091877
1784890224875472640,1.7594456672668457,-2.3088340759277344,0.1672513335943222,-1.956682801246643,0.5125908255577087,0.819502592086792,-0.25625401735305786,1.063779354095459,-0.018248379230499268,-0.6722585558891296,0.39593905909850496,-0.5384225137803509,-0.28631134530919755,0.6865561177940969,-0.960542563006499,1.1072133417448558,2.718383041449985
1784890224885392384,1.7693655490875244,-2.104017496109009,-1.4394361972808838,-0.3320657014846802,0.500603973865509,0.8305693864822388,-0.2440292090177536,1.4311892986297607,0.4785889983177185,-0.1512497365474701,0.3921626406163147,-0.5371784237244683,-0.29903969498746635,0.6842683365753186,-0.9801293377313981,1.117223222728208,2.7444361419154677
1784890224895311616,1.7792847156524658,-1.0250288248062134,-0.40799465775489807,0.3750016987323761,0.4990740120410919,0.8341763019561768,-0.23468057811260223,0.8880109786987305,0.984076201915741,-0.15589863061904907,0.38604487713462565,-0.537435836455328,-0.306304471910177,0.6843315066377961,-0.9866375330153612,1.1312454065697477,2.7721814106959486
1784890224905231360,1.7892045974731445,1.2908775806427002,-1.647970199584961,-1.034082293510437,0.494037002325058,0.8355189561843872,-0.24049049615859985,0.19002977013587952,1.2842472791671753,-0.37979453802108765,0.3862883499035158,-0.5335111733436102,-0.3084162425780456,0.6863138373315004,-0.9890766172187008,1.1177753556987715,2.7668073162474376
1784890224915150336,1.7991235256195068,3.0039379596710205,-2.086446523666382,-1.3088762760162354,0.4787549376487732,0.8361080288887024,-0.26780030131340027,-0.2498883605003357,1.3974277973175049,-0.7609014511108398,0.39363668555894477,-0.5209425242327528,-0.3077640791496604,0.6920623383057827,-0.9901495644324648,1.0607890586627615,2.720585291701702
1784890224925070592,1.8090436458587646,3.90667462348938,-2.145524501800537,-1.4679572582244873,0.46068817377090454,0.8326725959777832,-0.30728277564048767,-0.13624057173728943,1.1389307975769043,-0.36222705245018005,0.4043284399492374,-0.5042578215435302,-0.303451238645789,0.7001141862361703,-0.9839165296302814,0.9825573163113999,2.6526147933097803
1784890224934989568,1.818962574005127,3.875319719314575,-2.3952207565307617,-1.4630783796310425,0.4410054683685303,0.8268327116966248,-0.3490871787071228,-0.22909140586853027,0.6126051545143127,0.0701259970664978,0.4159066348814162,-0.4864110353987388,-0.29809513403299187,0.7082127193235699,-0.9734528465314384,0.9012161290512302,2.5808734865934406
1784890224944909568,1.8288826942443848,3.7905972003936768,-2.434217929840088,-0.8615584969520569,0.422976553440094,0.8175742030143738,-0.3907215893268585,-0.409579336643219,0.17092067003250122,-0.12295025587081909,0.426002703605187,-0.4684632991863769,-0.2918584304489419,0.7168560522911744,-0.9571856297069423,0.825017371462916,2.5157303464928478
1784890224954828544,1.838801622390747,2.739755153656006,-2.1874523162841797,-0.7794718146324158,0.40667563676834106,0.807855486869812,-0.42659658193588257,-0.32635337114334106,0.26558512449264526,-0.06260019540786743,0.4335973796454522,-0.45214621184347376,-0.28681965262940384,0.7247701270192097,-0.940504350348577,0.7614958292682459,2.4647539710553508
1784890224964748544,1.8487217426300049,3.110522747039795,-2.570295810699463,-0.15984505414962769,0.38972893357276917,0.7980790138244629,-0.45954465866088867,-0.6140788793563843,0.4069991111755371,-0.15440797805786133,0.4387691617299358,-0.4356388860855927,-0.28363078913311707,0.7329761362223678,-0.92410037987874,0.7033761738781126,2.424284223693329
1784890224974667520,1.8586406707763672,2.5440049171447754,-1.1267938613891602,-0.42794591188430786,0.37693288922309875,0.7865585088729858,-0.4891291558742523,-0.5373637676239014,0.32055819034576416,-0.2414463758468628,0.44401344441570934,-0.4218077168127109,-0.27841276963101386,0.7398761282713108,-0.9052159382475209,0.6565680623484254,2.388858384272805
1784890224984586496,1.8685595989227295,2.0379676818847656,-0.8129534125328064,-1.0828582048416138,0.3644605875015259,0.7791153788566589,-0.5100467801094055,-0.8034864664077759,0.5231306552886963,0.1862553358078003,0.4509805223851898,-0.41194730145716446,-0.27436475521194303,0.7427247445024932,-0.8932534691346977,0.6204330867492001,2.3548635958779505
1784890224994506496,1.8784797191619873,2.2073400020599365,-1.5402700901031494,-1.143011212348938,0.34689339995384216,0.773216724395752,-0.5308493375778198,-0.602951169013977,0.26601362228393555,0.021037936210632324,0.45842238829418586,-0.40040075610277875,-0.2724969363499684,0.7451669318371726,-0.8838981915134847,0.5788098178946003,2.318499420663338
1784890225004425472,1.8883986473083496,2.741800308227539,-1.2663029432296753,-0.6912716627120972,0.3294101059436798,0.7642828226089478,-0.5544012188911438,-0.01169160008430481,0.29887330532073975,-0.0619470477104187,0.4644775330657618,-0.38717261239051354,-0.2699939881757182,0.7493071241187856,-0.8699284494363709,0.5361237501103019,2.2856573630705954
1784890225014345472,1.8983185291290283,3.392296075820923,-0.4217587113380432,-1.0115381479263306,0.31584012508392334,0.7495485544204712,-0.5817404389381409,0.26725924015045166,0.3056119680404663,0.021483540534973145,0.4733124156958052,-0.374627827415693,-0.2622665900462757,0.7528914795153727,-0.8473798387241406,0.4973933957270066,2.247215136882714
1784890225024264448,1.9082376956939697,3.3039512634277344,-0.46242356300354004,-0.8499889969825745,0.2963010370731354,0.7379565834999084,-0.6063215136528015,0.038400501012802124,0.28596919775009155,0.06205582618713379,0.4840922074790064,-0.36151469932387587,-0.25718933879800276,0.754198569768311,-0.8300373254329214,0.4545557568189737,2.2034276180849157
1784890225034184448,1.9181575775146484,3.6573331356048584,0.34670522809028625,-0.7252647280693054,0.2811548709869385,0.7221323847770691,-0.6320417523384094,0.4469945430755615,-0.2037150263786316,-0.23603075742721558,0.4953405993654428,-0.3493117379486777,-0.24891853733315042,0.7554194760316041,-0.8068799651227153,0.4185511776445467,2.161647420179743
1784890225044103680,1.9280767440795898,3.535139799118042,0.45242419838905334,-0.3351803123950958,0.27208468317985535,0.7037153244018555,-0.6563191413879395,0.7263894081115723,-0.34875011444091797,-0.18285322189331055,0.5054162254487627,-0.3390511628100016,-0.2385052107457364,0.7567788350202549,-0.780613326419315,0.39299606915224233,2.1273800293205425
1784890225054023424,1.9379966259002686,2.3920562267303467,0.3031257092952728,-0.4879131317138672,0.2665543258190155,0.6863595843315125,-0.6766530275344849,0.8919386863708496,-0.14014071226119995,-0.37748515605926514,0.5136485552446008,-0.3307679213411523,-0.22861771935659,0.7579523407931453,-0.7564715316087541,0.37526318399605024,2.1010241012147355
1784890225063942400,1.9479155540466309,2.916006088256836,1.0575002431869507,-0.7074236869812012,0.26659971475601196,0.6714906096458435,-0.6913934350013733,1.0446947813034058,0.03134441375732422,-0.11881768703460693,0.5214797602830815,-0.32642267191662666,-0.2185212070632987,0.7574665264911604,-0.7362185734118127,0.36802928078538516,2.079048233166764
1784890225073862656,1.9578356742858887,3.7750792503356934,-0.8945116400718689,-0.05422455444931984,0.265829473733902,0.6500571966171265,-0.7118710279464722,1.2166533470153809,-0.052599310874938965,-0.46383386850357056,0.5286393629334848,-0.31864520509639777,-0.20622731940197986,0.7592601669598856,-0.7076596750931676,0.3573879234066853,2.058411161767369
1784890225083781376,1.967754602432251,4.01893949508667,-1.246515154838562,1.3763878345489502,0.2609001696109772,0.6171489953994751,-0.742332935333252,1.1831305027008057,0.026146233081817627,-0.7656473517417908,0.5316152388855607,-0.30318023467132404,-0.19213346306360513,0.7671712638263258,-0.6651142184572264,0.3379746951934314,2.047347406990475
1784890225093700352,1.9776735305786133,1.8366870880126953,-1.6700485944747925,0.44359561800956726,0.25487765669822693,0.5944726467132568,-0.762653112411499,0.6449025869369507,-0.24057555198669434,0.08879446983337402,0.5305746470340372,-0.2909303868376835,-0.1844802647686184,0.7744786781618053,-0.6366096609766888,0.32252917144629256,2.047422288628801
1784890225103620608,1.987593650817871,-0.07668529450893402,-1.7194225788116455,-1.2695136070251465,0.23824387788772583,0.5898849964141846,-0.7715409398078918,-0.24056319892406464,-0.05395054817199707,-0.11192762851715088,0.5323990935679445,-0.2816496583274852,-0.1868234084909792,0.7760937906012265,-0.6309164411938731,0.2995010707261022,2.03746047596806
1784890225113539584,1.9975125789642334,0.40652984380722046,-1.5045366287231445,-0.7622150182723999,0.2197849601507187,0.5911177396774292,-0.7760633826255798,-0.028302431106567383,0.1252976655960083,0.050248563289642334,0.5350078296172258,-0.274062428329918,-0.1919845912619544,0.7757566159700499,-0.6324438858220689,0.2759781335785413,2.024903855447224
1784890225123459584,2.007432699203491,1.944024920463562,-1.3983864784240723,0.3679221570491791,0.2091439813375473,0.5820226669311523,-0.7858170866966248,0.1135946661233902,0.058297157287597656,-0.04740440845489502,0.5362146135395184,-0.2658817983779515,-0.19078348864979422,0.7780633542725826,-0.6212138932438307,0.2601185006341613,2.0186795701740916
1784890225133378560,2.0173516273498535,1.7866398096084595,-0.5422223210334778,0.26146337389945984,0.2035302370786667,0.5658633708953857,-0.7989832162857056,0.12990480661392212,0.020654022693634033,-0.11730706691741943,0.5363177714267295,-0.2571931772140212,-0.18536467271996146,0.7822116115615982,-0.6014799887762831,0.2494316181172229,2.017267484051252
1784890225143298560,2.0272717475891113,0.8814481496810913,-1.4100768566131592,-0.9866109490394592,0.19414988160133362,0.5563433170318604,-0.8079529404640198,-0.3144349157810211,0.05840277671813965,0.21958929300308228,0.539800285222999,-0.2501569563184257,-0.18287980206276486,0.7826826462028053,-0.5899786564636443,0.23582720018758987,2.006020880990624
1784890225153217536,2.0371906757354736,1.2773404121398926,-0.3155355453491211,-0.05887952819466591,0.18082009255886078,0.5490710139274597,-0.8159810304641724,0.06737935543060303,-0.193617582321167,-0.09956151247024536,0.5411168191999975,-0.24170699758758427,-0.18326812343956556,0.7843360528941897,-0.5812523329895575,0.21807440498504452,1.9992175681137199
1784890225163137536,2.0471105575561523,0.5799545645713806,-0.7511551976203918,-1.3334087133407593,0.17388327419757843,0.5416150689125061,-0.8224461674690247,0.33518046140670776,-0.1182599663734436,0.03902941942214966,0.5451046231621418,-0.23676855535615718,-0.1808799719343579,0.7836350883691295,-0.5723571728751645,0.20835381550287463,1.9875577205680062
1784890225173056512,2.0570297241210938,1.5028483867645264,-1.0284343957901,0.10528989881277084,0.16325236856937408,0.5355883240699768,-0.8285492062568665,0.5329756736755371,0.08504760265350342,-0.014331042766571045,0.5478291843214903,-0.23042801488153122,-0.18063316635817456,0.7836820809198014,-0.5652042762893238,0.19454203226724806,1.9780763499790797
1784890225182976512,2.0669496059417725,1.2354153394699097,-1.511168360710144,-0.11856263130903244,0.15247194468975067,0.5221453309059143,-0.8391165733337402,0.8605285286903381,0.03356450796127319,-0.46915674209594727,0.547501365597883,-0.22071057991219162,-0.17812514514564748,0.7872741391469287,-0.5493644816270506,0.17974425063216537,1.9770544920388988
1784890225192895488,2.0768685340881348,1.3093606233596802,-1.4276522397994995,1.011695146560669,0.1397857815027237,0.5127662420272827,-0.8470718264579773,0.2505950927734375,0.14529955387115479,0.020533740520477295,0.5462961964346031,-0.21149212387429886,-0.17814364216747577,0.7906303285692505,-0.5384037484117251,0.16354837574033887,1.9775385953695905
1784890225202815488,2.0867886543273926,3.0124666690826416,-1.2813888788223267,0.21541504561901093,0.13210295140743256,0.4920762777328491,-0.8604706525802612,0.49774932861328125,0.07881605625152588,-0.29523003101348877,0.5438163999717627,-0.200393578122163,-0.17206710845683915,0.796554441234474,-0.5144731503987643,0.15233467901061,1.9836826377530714
1784890225212734464,2.096707582473755,1.733864188194275,-1.0098108053207397,-0.776738166809082,0.11965412646532059,0.4712086319923401,-0.8738679885864258,-0.011988110840320587,0.14597883820533752,0.11053186655044556,0.5458210340013427,-0.18829773696093402,-0.1661624493063288,0.7993830723388112,-0.49066057156253273,0.13607850793132378,1.977530852842489
1784890225222653696,2.1066267490386963,1.8682055473327637,-0.6489219069480896,-0.5388859510421753,0.10731125622987747,0.4592137336730957,-0.8818203210830688,0.02615736424922943,0.2148432731628418,0.39668238162994385,0.549385852720385,-0.17965220397040374,-0.16375266251506093,0.7994281252411364,-0.47710987748491485,0.12109744421295912,1.966876479124432
1784890225232573440,2.116546630859375,3.4328243732452393,-1.069520115852356,0.18907712399959564,0.1011718288064003,0.43480825424194336,-0.89482182264328,0.4297271966934204,-0.07015371322631836,-0.14384394884109497,0.5520290393766004,-0.1694793679449877,-0.15448574272444568,0.8016700379108712,-0.4498253315918448,0.11258554592458891,1.9613099700502716
1784890225242492416,2.1264655590057373,3.0272586345672607,-1.7948716878890991,1.0285025835037231,0.08871466666460037,0.4042913615703583,-0.9103176593780518,0.2875975966453552,-0.17617246508598328,-0.14884066581726074,0.5510754811908017,-0.15411058109246137,-0.1452277611682274,0.8071398521133875,-0.4162039067102289,0.09714785045780423,1.964011106083444
1784890225252412672,2.136385679244995,3.0443081855773926,-0.5972673892974854,-0.22225041687488556,0.0807996466755867,0.3768792748451233,-0.9227315187454224,0.3355974555015564,-0.015398532152175903,0.10641682147979736,0.5499176113810498,-0.141903632273233,-0.13600590881346375,0.8117612432661636,-0.3864248073058225,0.0873429336614609,1.9678471714632573
1784890225262331392,2.1463046073913574,2.02960205078125,-1.6801345348358154,-0.6776145100593567,0.0677369087934494,0.35309672355651855,-0.9331315159797668,0.001766890287399292,-0.17450785636901855,0.17769938707351685,0.5542817308442659,-0.12969483920119723,-0.12889335604399327,0.8119959702513204,-0.3608789796078586,0.07246385369024934,1.9568901767638454
1784890225272251648,2.1562247276306152,2.2262213230133057,-1.4213414192199707,0.8815257549285889,0.05397988483309746,0.3340836465358734,-0.9409964084625244,0.44815632700920105,-0.2467423379421234,0.22522187232971191,0.5537324883601987,-0.11796781107241702,-0.12484141787271642,0.8147874483534625,-0.34063286290902917,0.05730180255605887,1.9576391186713407
1784890225282170624,2.1661436557769775,1.7835134267807007,-0.9068852663040161,-0.36928749084472656,0.0449676439166069,0.3136940896511078,-0.948458731174469,0.2692108154296875,-0.08476647734642029,0.034533560276031494,0.5533856180003333,-0.10795520030092015,-0.11881211806719441,0.8173088445363098,-0.31908102083590384,0.04737580764806652,1.9588591675002125
1784890225292090368,2.1760635375976562,1.0748690366744995,-1.052181601524353,0.0631585344672203,0.035518351942300797,0.30140721797943115,-0.9528337717056274,0.042927082628011703,0.029098153114318848,0.37074148654937744,0.5542815870045659,-0.10042834530223771,-0.11617776559896045,0.8180396811969696,-0.3061681536779506,0.03725929410669861,1.9563118588320527
1784890225302009600,2.1859827041625977,1.34352707862854,-0.9374821186065674,0.25251248478889465,0.02651076763868332,0.2907440662384033,-0.9564335346221924,0.17519515752792358,-0.04179692268371582,0.12595868110656738,0.5537054151293491,-0.09339080110013057,-0.11428648624535664,0.8195285775057914,-0.2950044078764045,0.02771126417388087,1.9573333485557423
1784890225311929344,2.1959025859832764,1.2492038011550903,-0.8143190741539001,-0.053721748292446136,0.01976126804947853,0.2779592275619507,-0.9603896141052246,0.12710458040237427,-0.11807763576507568,0.1492171287536621,0.5535726652360411,-0.08676395220468242,-0.11080262267843456,0.8208240357091323,-0.28166894994918434,0.020573401180076275,1.9578198246668068
1784890225321848320,2.2058215141296387,0.9239556789398193,-0.5757024884223938,0.054542407393455505,0.012997722253203392,0.2676941752433777,-0.9634162783622742,0.12071503698825836,-0.16822212934494019,0.16850966215133667,0.5535720317066114,-0.08091448717312753,-0.10837303124009298,0.8217458053749886,-0.27099905317824335,0.013490465823119677,1.9577836616681206
1784890225331768576,2.2157416343688965,0.6637153029441833,-0.2631356418132782,0.1811462789773941,0.008982296101748943,0.26045000553131104,-0.9654455780982971,0.12869775295257568,-0.25037920475006104,0.07794862985610962,0.5531373911078716,-0.07705833725092381,-0.10648584931913262,0.8226553454474055,-0.2634882611228981,0.009303514994835314,1.9589297172388045
1784890225341687552,2.225660562515259,-0.2697104215621948,-0.301401823759079,0.4065873920917511,0.007186772767454386,0.2591518461704254,-0.9658098220825195,0.15361034870147705,-0.2303127646446228,0.1072130799293518,0.551781025075004,-0.07575231629428178,-0.10656763515086391,0.8236762708892236,-0.2621439446676533,0.007441050858093461,1.9620976296999233
1784890225351607552,2.2355806827545166,-0.17758414149284363,-0.3811919093132019,0.3564029633998871,0.004437532275915146,0.26110026240348816,-0.9653014540672302,0.14717379212379456,-0.26496073603630066,-0.02227783203125,0.5496756607196795,-0.07488984137294213,-0.1083548329969463,0.824928713929682,-0.26416183774552116,0.0045970104026717565,1.966662852094536
1784890225361526528,2.245499610900879,-0.6817349195480347,-0.32436832785606384,0.3523768186569214,0.0012277575442567468,0.26534727215766907,-0.9641520977020264,0.1454702466726303,-0.09902650117874146,-0.05659979581832886,0.5483110884560067,-0.07459012988112979,-0.11117667367459817,0.8254883299829927,-0.2685641004315585,0.0012734058269744555,1.969142178204657
1784890225371446528,2.2554197311401367,-0.12860135734081268,-0.5410828590393066,0.3760342001914978,-0.0026053166948258877,0.26960691809654236,-0.9629669189453125,0.23200595378875732,0.054031968116760254,-0.13401788473129272,0.5462471765692384,-0.07392825777402731,-0.1142416009946745,0.826497139883703,-0.27298480984523943,-0.0027055034864932807,1.973196137238393
1784890225381365504,2.265338659286499,0.24567824602127075,-0.5300514698028564,-0.16906744241714478,-0.00884426198899746,0.2681107223033905,-0.9633474946022034,0.1387881189584732,0.0782637894153595,-0.21441739797592163,0.5458249558169894,-0.07081185753789139,-0.11537732583836467,0.8268910698234887,-0.2714314147298531,-0.00918050210242848,1.9734634869279557
1784890225391284480,2.2752575874328613,0.6537451148033142,-0.3485504984855652,0.13140186667442322,-0.012909752316772938,0.26464030146598816,-0.9642607569694519,0.16439901292324066,0.20612382888793945,-0.04680180549621582,0.5461170538617297,-0.06814194462290957,-0.11500559452396153,0.8269743473275998,-0.2678309141366396,-0.013387437931543579,1.9725141966482873
1784890225401204480,2.285177707672119,1.180205225944519,-0.7193983197212219,0.5269606709480286,-0.016570432111620903,0.2551949918270111,-0.9667475819587708,0.30688416957855225,0.037376999855041504,-0.20985758304595947,0.5446649061483015,-0.06369101320862716,-0.11211445809203859,0.8286819806807955,-0.2580493566980069,-0.017138712373938592,1.976435752484222
1784890225411123456,2.2950966358184814,0.9860893487930298,-0.7792393565177917,0.0447479672729969,-0.02367505058646202,0.24476641416549683,-0.9692929983139038,0.23493297398090363,-0.006057918071746826,-0.09985983371734619,0.5435462121705246,-0.05757762534936157,-0.10971928445236444,0.8301831756403992,-0.24727876524015238,-0.024420216650421312,1.9791708331931361
1784890225421043456,2.30501651763916,0.49501603841781616,-0.3607664704322815,0.16519048810005188,-0.028548944741487503,0.23752276599407196,-0.9709623456001282,0.1767575591802597,-0.10147541761398315,0.0029753446578979492,0.5432005293821586,-0.05342609735438776,-0.10800219306139167,0.830911824190326,-0.23981483775971996,-0.029394262177576555,1.9800507143862751
1784890225430962688,2.3149356842041016,0.5641107559204102,-0.6772684454917908,0.5396520495414734,-0.032643843442201614,0.23303760588169098,-0.9719196557998657,0.18892435729503632,-0.18889394402503967,-0.05772817134857178,0.5413140614866463,-0.05019110386453549,-0.1073359912989419,0.8324295951746972,-0.2352001320492123,-0.03357435427970033,1.984478728353666
1784890225440882432,2.3248555660247803,0.42713451385498047,-0.6579850316047668,0.4559746980667114,-0.03849860653281212,0.22851167619228363,-0.9727796912193298,0.10626289248466492,-0.19550690054893494,-0.18902450799942017,0.5386783310328046,-0.04611321610028257,-0.10716220277936976,0.83439535935742,-0.2305486281279789,-0.03955523201629034,1.9904728430111114
1784890225450801664,2.3347747325897217,0.6399435997009277,-0.39925533533096313,0.4244474768638611,-0.04244611784815788,0.22415190935134888,-0.9736294150352478,0.14837263524532318,-0.05538970232009888,-0.0636478066444397,0.5366638287978216,-0.04297237013893957,-0.10648316645646658,0.8359465733931286,-0.2260727147985194,-0.04356817418322445,1.9952080479437253
1784890225460721408,2.3446946144104004,0.8534049987792969,-0.6025280356407166,0.01676037162542343,-0.047299619764089584,0.2167373150587082,-0.9750834107398987,0.14933514595031738,-0.010499522089958191,-0.16294759511947632,0.5355849988123156,-0.03872648502164015,-0.10468307982295744,0.8370725242662477,-0.21847108937460072,-0.04847028758781126,1.9978891149603228
1784890225470640384,2.3546135425567627,0.9882287383079529,-0.5934949517250061,0.12437944114208221,-0.053484607487916946,0.2075652927160263,-0.9767579436302185,0.17553965747356415,0.047714248299598694,-0.1098509430885315,0.5351818630188784,-0.03352669459653286,-0.10245485357112165,0.8378301796854658,-0.20908538854634245,-0.05470264924738394,1.9989695574796513
1784890225480560640,2.3645336627960205,0.9774341583251953,-0.6770606637001038,0.8934636116027832,-0.058866776525974274,0.1976228803396225,-0.9785090088844299,0.2734663784503937,-0.11282978951931,-0.04729360342025757,0.5330744707167172,-0.028262504539061664,-0.09973324443823288,0.8396941196337443,-0.19893237793835777,-0.06008724618531959,2.004301333704344
1784890225490479360,2.374452590942383,0.8949880003929138,-0.3654198944568634,0.4455451965332031,-0.0621233694255352,0.18898017704486847,-0.9800138473510742,0.2721300721168518,-0.2570343613624573,-0.01812458038330078,0.5294049197860347,-0.02409611209285062,-0.09701775005551591,0.8424590983332773,-0.19012350202505,-0.06330559396719954,2.0134672785394967
1784890225500399616,2.3843727111816406,-0.19373834133148193,-0.37357744574546814,0.3445909023284912,-0.06513477861881256,0.18569661676883698,-0.980445921421051,-0.04791758954524994,-0.18409444391727448,0.054817259311676025,0.5280207461414789,-0.021769522929144254,-0.09645267893299776,0.843455535821532,-0.18678075690455767,-0.06633635685414396,2.0167111740271415
1784890225510318592,2.394291639328003,0.04255854710936546,-0.24106889963150024,0.5981317758560181,-0.06765665858983994,0.18745800852775574,-0.9799398183822632,0.22383037209510803,-0.06663893163204193,0.02637237310409546,0.5255916162118582,-0.02089384276604381,-0.09794657422394949,0.8448215118647725,-0.1885736310804437,-0.06893225917591334,2.022000919720336
1784890225520238336,2.4042115211486816,0.2751758098602295,-0.6192244291305542,0.3324796259403229,-0.07054325938224792,0.18605674803256989,-0.9800033569335938,0.13617131114006042,-0.09599937498569489,-0.20856475830078125,0.5233544348326102,-0.019029227700027497,-0.09816424902064287,0.8462280605123138,-0.18714727832083983,-0.07185872931499826,2.0270874334684295
1784890225530157568,2.414130687713623,0.19661130011081696,-0.9171918034553528,0.36541444063186646,-0.07813168317079544,0.18398869037628174,-0.9798181653022766,0.09136105328798294,-0.0035382509231567383,-0.2026769518852234,0.5218275750148634,-0.015063905284313913,-0.09931769784678017,0.8471157184008745,-0.18504288670138563,-0.07957263363309261,2.0299957501108334
1784890225540077568,2.4240505695343018,0.6974941492080688,-0.49419158697128296,0.31237226724624634,-0.08396586775779724,0.18025045096874237,-0.980030357837677,0.18948039412498474,-0.03324727714061737,-0.1897236704826355,0.5199463241614853,-0.011358119665252792,-0.09927643709561751,0.8483343360231256,-0.18124106156437544,-0.08546808707749871,2.034116197491701
1784890225549996544,2.433969736099243,0.4879254102706909,-0.5303313136100769,0.3555409014225006,-0.08831361681222916,0.17414367198944092,-0.9807521104812622,0.06620363891124725,-0.16979490220546722,-0.2564305067062378,0.5184844514371125,-0.007711004531546308,-0.09779821146462107,0.8494408570359006,-0.17503607860013015,-0.08980462952600171,2.0376690674629048
1784890225559915520,2.4438886642456055,-0.4740866422653198,-0.526893138885498,0.3990977108478546,-0.09315591305494308,0.17424702644348145,-0.98028564453125,0.142243430018425,-0.24558186531066895,-0.1404876708984375,0.5166545649539421,-0.005455802833898803,-0.09913329546393303,0.850418098786607,-0.17514104659747246,-0.09474483784239049,2.041392547342698
1784890225569835520,2.453808546066284,-0.883389949798584,-0.27949443459510803,0.49112460017204285,-0.09541603922843933,0.18157976865768433,-0.9787362217903137,0.17468544840812683,-0.3332368731498718,-0.11872166395187378,0.5146016965512569,-0.0061769044254028176,-0.10292589831197875,0.8512069632383789,-0.18259269317761592,-0.09718192224572497,2.0451641668222784
1784890225579754496,2.4637277126312256,-1.6189409494400024,-0.35960152745246887,0.882602334022522,-0.09758314490318298,0.194209024310112,-0.9760944843292236,0.19833692908287048,-0.3842877745628357,-0.24137377738952637,0.5114116277772076,-0.008170392214594736,-0.10902300317828782,0.8523529221872901,-0.19545105108581234,-0.099641976893729,2.050977292677913
1784890225589674496,2.4736475944519043,-1.9840762615203857,-0.8916807770729065,0.674377977848053,-0.10176737606525421,0.21227097511291504,-0.9718973636627197,0.23543435335159302,-0.16983628273010254,-0.20373129844665527,0.5079592019024377,-0.010648878900314221,-0.1180590147787139,0.8531859477288325,-0.2138983130247933,-0.104329819139519,2.0563694027542403
1784890225599593472,2.4835665225982666,-1.5626616477966309,-0.725238025188446,0.3858148455619812,-0.10803212225437164,0.22969084978103638,-0.9672492742538452,0.19216907024383545,-0.01913483440876007,-0.3373313546180725,0.5052262701285778,-0.01212158999886156,-0.12739082427851706,0.8534466829199697,-0.23176002242145688,-0.11122906230550325,2.0596242285110398
1784890225609513472,2.4934866428375244,-1.3475055694580078,-1.0416810512542725,0.4314756989479065,-0.11509720236063004,0.24442337453365326,-0.9628134965896606,0.18690505623817444,0.08440352976322174,-0.37466514110565186,0.502984843697822,-0.012588616067413433,-0.13577471209858805,0.8534711601855332,-0.24692497907826347,-0.11897796709503447,2.061722046928659
1784890225619432448,2.5034055709838867,-0.8693724870681763,-1.0463621616363525,0.34814777970314026,-0.12453019618988037,0.2549230456352234,-0.9589089751243591,0.19661271572113037,0.047582417726516724,-0.4776906967163086,0.5003336237871261,-0.01082848367410398,-0.14292740416303526,0.8538857631566755,-0.2577681336412625,-0.12914376159381835,2.064784692330511
1784890225629352448,2.5133256912231445,-0.3683598041534424,-0.728725790977478,-0.16804449260234833,-0.13299334049224854,0.2610980272293091,-0.9561070203781128,0.13117755949497223,0.08355224132537842,-0.4005671739578247,0.4992822748979332,-0.008602687100226757,-0.14789353617696216,0.8536806374395142,-0.264159520053943,-0.13821196898942012,2.0647788078013556
1784890225639271424,2.523244619369507,0.08020678907632828,-1.113710641860962,0.1040075272321701,-0.14130647480487823,0.2620391547679901,-0.9546559453010559,0.18819673359394073,0.1517486870288849,-0.4181773066520691,0.4992128430914714,-0.00523724930740879,-0.15048122906891384,0.8532962820221481,-0.26513458296835823,-0.14695121570436492,2.0632677110542565
1784890225649191680,2.5331647396087646,0.009027883410453796,-1.3152310848236084,0.4579063057899475,-0.15270677208900452,0.26161545515060425,-0.9530152082443237,0.3495146632194519,0.15275222063064575,-0.35910332202911377,0.4968994257872484,0.00022543162426998253,-0.15327212767943607,0.854165399003945,-0.2646955799404182,-0.15888478118224866,2.0666322976442673
1784890225659110656,2.543083667755127,0.03793995827436447,-1.1411833763122559,0.05023174732923508,-0.16339582204818726,0.2620844542980194,-0.9511117339134216,0.25922101736068726,0.1706242859363556,-0.15888887643814087,0.4944968484274374,0.005178510730264106,-0.15626040016887857,0.8550021799390582,-0.26518152380223087,-0.17013379616364807,2.0701398255430927
1784890225669030400,2.5530035495758057,0.0968545451760292,-1.524184226989746,0.04847598820924759,-0.17563162744045258,0.26168155670166016,-0.94903963804245,0.19642935693264008,0.15283867716789246,-0.11768704652786255,0.4935505308673058,0.010775548312502653,-0.15926096219505112,0.8549431147169695,-0.2647640745330499,-0.18299216996237302,2.0700503936328962
1784890225678949632,2.562922716140747,0.30614304542541504,-1.4587863683700562,0.10200552642345428,-0.18930412828922272,0.25980573892593384,-0.9469239115715027,0.2982213497161865,-0.013650953769683838,-0.14807730913162231,0.49167915443613,0.017561127549082345,-0.16195567255276522,0.8554026506658756,-0.2628210321219882,-0.19731365323236208,2.072073066399911
1784890225688869376,2.572842597961426,0.32837751507759094,-1.2350361347198486,-0.1531027853488922,-0.20147325098514557,0.2569968104362488,-0.9451778531074524,0.11451341211795807,-0.16054600477218628,-0.05733984708786011,0.4910075145312756,0.023714172864912383,-0.16385577122557415,0.8552780533747516,-0.25991335279940425,-0.21001592533822294,2.071743510936604
1784890225698788352,2.582761526107788,0.517964780330658,-1.1710669994354248,0.11881819367408752,-0.2133524864912033,0.2527332603931427,-0.9437195658683777,0.1239665150642395,-0.2666340172290802,-0.08173209428787231,0.4898945219872369,0.030204091894146225,-0.16500888431427796,0.8554899737647064,-0.2555041809000086,-0.2223385084494095,2.0727869817355313
1784890225708708608,2.592681646347046,0.254569947719574,-1.2225757837295532,0.45175331830978394,-0.22410821914672852,0.249858558177948,-0.9419905543327332,0.13269281387329102,-0.287456214427948,-0.041209518909454346,0.4875973601130696,0.03608295374157213,-0.1664414168280217,0.8562966867471546,-0.25253418089912905,-0.2335671161121297,2.076539729860373
1784890225718627328,2.602600574493408,-0.10770971328020096,-1.3346501588821411,0.31129392981529236,-0.23483693599700928,0.24973520636558533,-0.939406156539917,0.17615164816379547,-0.20018993318080902,-0.04002493619918823,0.48469921044143,0.041380062717480265,-0.16906982632257195,0.8571871551131607,-0.2524067799385357,-0.24496403257023225,2.081098411819247
1784890225728547584,2.612520694732666,-0.41288721561431885,-0.8255816698074341,-0.0848211795091629,-0.2443193942308426,0.2534933090209961,-0.9359750151634216,0.1453966647386551,0.042252540588378906,0.003357827663421631,0.48369805301216984,0.04478718456823013,-0.17322416550283803,0.8567518571277977,-0.25628981286565133,-0.255334435401929,2.080591716271566
1784890225738466560,2.6224396228790283,0.5509475469589233,-1.3142025470733643,0.14432837069034576,-0.2536526024341583,0.25241726636886597,-0.9337804317474365,0.23290064930915833,0.14954504370689392,-0.09391427040100098,0.48267077468733804,0.049368278173944645,-0.1751358396043682,0.8566907453914766,-0.25517759395609313,-0.2652402519035156,2.0812028557922355
1784890225748386560,2.632359743118286,0.42090171575546265,-1.005176067352295,-0.07512058317661285,-0.2641447186470032,0.24743802845478058,-0.9322027564048767,0.14927655458450317,0.14805452525615692,-0.1744104027748108,0.48124533931676633,0.055533589231133364,-0.1755410030557687,0.8570322236154982,-0.2500351644594645,-0.27611749180917244,2.0833758979255173
1784890225758305536,2.6422786712646484,0.3560827672481537,-1.1174362897872925,-0.13939890265464783,-0.27454066276550293,0.24382035434246063,-0.930150032043457,0.11462855339050293,0.18605025112628937,0.013661384582519531,0.48065521766522634,0.06114716766322672,-0.1765956110216745,0.8567646709024597,-0.24630314775504206,-0.28700814791193785,2.083308713376658
1784890225768225536,2.652198553085327,0.3921586275100708,-0.968233048915863,-0.3399069011211395,-0.2844092547893524,0.2397182732820511,-0.928249180316925,0.15910404920578003,0.038678333163261414,-0.04588717222213745,0.48071743443720155,0.06652007591517578,-0.1773428599789974,0.856174856302162,-0.2420756543829655,-0.29731175196178516,2.0819502014323787
1784890225778146816,2.6621198654174805,0.5602256655693054,-0.8884261250495911,-0.3764324188232422,-0.2940796911716461,0.23440764844417572,-0.926590621471405,0.18032541871070862,-0.06701876223087311,-0.029509782791137695,0.48115367979105117,0.07203551578662022,-0.1775262349299192,0.8554452756611212,-0.23660919745082093,-0.30732288778745587,2.0800604187142904
1784890225788065792,2.6720387935638428,0.7772427201271057,-0.7466282844543457,-0.4862707257270813,-0.303109347820282,0.22719448804855347,-0.9254768490791321,0.08893698453903198,-0.07349270582199097,-0.00991743803024292,0.482008708828602,0.07766337360155798,-0.17672006938642235,0.8546378938002042,-0.22919586524155228,-0.3165067060802034,2.077815009785425
1784890225797985792,2.6819589138031006,1.1731923818588257,-0.7856050133705139,-0.15994349122047424,-0.3104064166545868,0.21707570552825928,-0.9254868626594543,0.07212516665458679,-0.006718039512634277,0.03379380702972412,0.48252584223444595,0.08332997694139203,-0.17410534103805017,0.8543489756237787,-0.21881773856754946,-0.32360756459079654,2.077484139748337
1784890225807904768,2.691877841949463,1.2920992374420166,-0.4154473841190338,-0.38313668966293335,-0.3166937232017517,0.20484934747219086,-0.9261435270309448,0.10426086187362671,0.07997120916843414,0.08230197429656982,0.4823767595956782,0.08921448788960969,-0.17020284960121077,0.8546253544136657,-0.2063097909815078,-0.32948438490012844,2.0794654207045165
1784890225817824768,2.7017979621887207,1.4939897060394287,-0.5313074588775635,-0.27570292353630066,-0.32172396779060364,0.19098669290542603,-0.9273714423179626,0.04193881154060364,0.17420190572738647,0.23228782415390015,0.48303043747868674,0.09479119561729396,-0.16531458130502286,0.8546153345761903,-0.19216723837774177,-0.33392857218414185,2.0802294076528467
1784890225827743744,2.711716890335083,1.5711430311203003,-0.35749009251594543,-0.22654862701892853,-0.32655268907546997,0.17603015899658203,-0.9286423921585083,0.15745478868484497,0.07407665252685547,0.2305222749710083,0.48278096652969626,0.1007238659535711,-0.15979205811547606,0.8551278945582222,-0.17695217356727694,-0.33813978157696656,2.0833866740435463
1784890225837663744,2.7216367721557617,1.2100114822387695,-0.40355241298675537,-0.3510836064815521,-0.33043181896209717,0.16184666752815247,-0.9298496842384338,0.07615938782691956,-0.016857653856277466,0.31971174478530884,0.4831639502423878,0.10591921138665758,-0.15445476933007174,0.855264486268322,-0.16256170759249713,-0.34144229871889925,2.085041133071816
1784890225847582720,2.731555938720703,1.0867674350738525,-0.18880082666873932,-0.15972252190113068,-0.3339199125766754,0.15085949003696442,-0.9304509162902832,0.10545006394386292,0.026020392775535583,0.3580021858215332,0.4834096573448432,0.11016869046811965,-0.15045730539471786,0.8553014558871818,-0.1514376526253476,-0.34456342669838175,2.0863282174492093
1784890225857502720,2.741475820541382,1.3415632247924805,0.09711933881044388,-0.10669977962970734,-0.33441948890686035,0.13920442759990692,-0.9320867657661438,0.04137444496154785,0.01974637806415558,0.3275182843208313,0.4832139316848028,0.11332864896512987,-0.14530394954043785,0.8558900007262014,-0.13965797804429478,-0.3444802776213682,2.089330509270011
1784890225867421952,2.7513949871063232,1.1253160238265991,0.2530473470687866,-0.27776336669921875,-0.33286252617836,0.12693534791469574,-0.9343928098678589,0.002158820629119873,0.07876837253570557,0.35007280111312866,0.4833206703631693,0.11566797710059465,-0.13937182294380634,0.8565030832301087,-0.12727871522515738,-0.3422176908816409,2.092065798474065
1784890225877341696,2.761314868927002,1.254230260848999,0.4879895746707916,-0.5415143370628357,-0.3300391137599945,0.11508989334106445,-0.9369249939918518,0.1113196611404419,0.15476179122924805,0.5027972459793091,0.60706298798932,0.09590818303044696,-0.14946274673853874,0.7745559244250784,-0.11534549614642868,-0.3386847679956437,1.792334695035882
1784890225887260672,2.7712337970733643,1.3771761655807495,0.7787672281265259,-0.5084436535835266,-0.32489708065986633,0.10061302036046982,-0.9403823018074036,0.18108299374580383,0.03259620815515518,0.43301230669021606,0.6087008256216692,0.09810060911736657,-0.14207431357006903,0.7743865057731184,-0.10078354751685659,-0.33265553824688837,1.792314831670308
1784890225897180672,2.781153917312622,1.052511215209961,0.4650801718235016,-0.4754481017589569,-0.31846511363983154,0.08747414499521255,-0.9438899755477905,0.08607375621795654,0.09842368960380554,0.4579280614852905,0.6107250256374683,0.09930884252827879,-0.13488060143189062,0.7739249924520669,-0.08758608666744165,-0.32540287992280315,1.791054712556912
1784890225907099648,2.7910728454589844,0.6176294684410095,0.34068602323532104,-0.3451574742794037,-0.3152647614479065,0.07832258194684982,-0.9457662105560303,0.21885976195335388,0.04519731551408768,0.4587666988372803,0.6120415841733868,0.10068926129659464,-0.13030186416270267,0.7734909021830598,-0.07840288217298358,-0.3217594766057463,1.790070488562839
1784890225917019904,2.800992965698242,0.14990144968032837,0.8896607160568237,-0.8503168225288391,-0.30973371863365173,0.07241219282150269,-0.948062002658844,0.22921308875083923,-0.012628257274627686,0.4760770797729492,0.6144978216666253,0.09994826623823054,-0.12640948323396822,0.772284534143523,-0.07247562629918153,-0.3157704925139852,1.7858361167094632
1784890225926938880,2.8109118938446045,-0.31006789207458496,0.8739537000656128,-0.6164107322692871,-0.3015994727611542,0.07133263349533081,-0.9507625102996826,0.18480873107910156,0.07811194658279419,0.5373409390449524,0.6180810980408493,0.09649136153208539,-0.12372609753744891,0.7702966798867038,-0.07139326402380289,-0.3071777878941459,1.7781383045167236
1784890225936858624,2.820831775665283,-0.23465994000434875,0.7933792471885681,-0.2641424834728241,-0.29401135444641113,0.07259905338287354,-0.9530407786369324,0.25218701362609863,0.047655463218688965,0.4123761057853699,0.6202996418668143,0.09274546819782216,-0.12197498402461328,0.7692520645719477,-0.07266298059784734,-0.29923496182931325,1.7734117426885339
1784890225946777856,2.8307509422302246,-0.43551820516586304,0.6980836391448975,-0.33875250816345215,-0.28714215755462646,0.07496532797813416,-0.9549500346183777,0.21249616146087646,0.10281482338905334,0.4055878520011902,0.6218879756875769,0.08904294217924692,-0.12081528393668048,0.7685898367558451,-0.07503572179029501,-0.29208798943141207,1.7699856662646096
1784890225956697600,2.8406708240509033,-0.1679626703262329,0.9433807730674744,-0.6021950840950012,-0.2791418135166168,0.07707596570253372,-0.9571515917778015,0.11166134476661682,0.2626304626464844,0.363142192363739,0.7004262259290702,0.07204850761498692,-0.12740966174188198,0.6985549350827339,-0.07715248642645327,-0.28376773341967765,1.5570951123176657
1784890225966616832,2.8505899906158447,0.832160234451294,0.6592630743980408,-0.8530341386795044,-0.2714828848838806,0.07232771813869476,-0.9597216844558716,0.039549320936203,0.38798415660858154,0.20505255460739136,0.7036056819387113,0.0704879462554383,-0.12316899479150702,0.6962756908070544,-0.07239092510657937,-0.2756742589518252,1.5502779268085813
1784890225976536832,2.8605098724365234,1.971766471862793,0.5715050101280212,-0.5842673778533936,-0.26582589745521545,0.05619886890053749,-0.9623815417289734,0.029802948236465454,0.2694236934185028,0.058161020278930664,0.7059991634398,0.07390060772783591,-0.11553317771361366,0.6948064951207924,-0.05622849448070044,-0.26949705039884536,1.5471915664595728
1784890225986455552,2.8704288005828857,1.9477243423461914,0.9531273245811462,-0.7232404351234436,-0.2587015628814697,0.0354808010160923,-0.9653054475784302,0.025455713272094727,0.2457234114408493,0.22356045246124268,0.758111054540505,0.07038641327679256,-0.11132397204871235,0.6386865063400998,-0.03548825017890465,-0.2618465122641551,1.3955401770681863
1784890225996375808,2.8803489208221436,1.9325454235076904,1.165540337562561,-0.9153611660003662,-0.24812428653240204,0.015314274467527866,-0.9686071276664734,0.03563040494918823,0.2601831555366516,0.35544800758361816,0.7967113057408265,0.06832131799229565,-0.10501724920647562,0.5912314807853335,-0.015314873242552516,-0.25077355126047196,1.2749084442221954
1784890226006294784,2.890267848968506,1.948947548866272,1.2531874179840088,-0.7888784408569336,-0.23688161373138428,-0.006147811189293861,-0.9715190529823303,0.14534415304660797,0.08660740405321121,0.2075573205947876,0.7988407079469827,0.07333101296664658,-0.09414364477377186,0.5895872504948467,0.00614785000537169,-0.2391594542261288,1.272361669762603
1784890226016214784,2.9001879692077637,1.7015577554702759,1.2382550239562988,-0.460330069065094,-0.2255893498659134,-0.024252871051430702,-0.9739205241203308,0.2130466252565384,0.09596917778253555,0.2652261257171631,0.8005722605104864,0.0770650613600809,-0.08426565157271595,0.5882552791659135,0.02425525020553161,-0.22761606482489993,1.27016788669387
1784890226026133760,2.910106897354126,1.5197358131408691,0.8759335279464722,-0.5889000296592712,-0.2143370360136032,-0.04185182601213455,-0.9758627414703369,0.2556883692741394,0.04806216061115265,0.18561005592346191,0.8018943125769957,0.08069205480176433,-0.07454817445339852,0.5872791170458044,0.04186405490320676,-0.2162054742517631,1.2687812330008943
1784890226036053760,2.9200267791748047,0.9114950299263,0.06277833878993988,-0.6833919286727905,-0.21129712462425232,-0.05456821620464325,-0.9758974313735962,0.2551661431789398,0.14609043300151825,-0.027230560779571533,0.803163571148828,0.08479878758456262,-0.06971686088631224,0.5855569070654729,0.054595332827297616,-0.2132244382838515,1.2657765666377683
1784890226045972736,2.929945945739746,0.5734381675720215,0.593876838684082,-0.8288252949714661,-0.2069690078496933,-0.0629923939704895,-0.9763174653053284,0.2349536269903183,0.370868980884552,-0.05345243215560913,0.8052248423645751,0.08670932468827355,-0.06574771469608236,0.5828994077905146,0.0630341306645134,-0.20889686309669886,1.2597790057341924
1784890226055892736,2.939865827560425,0.21047385036945343,0.25150513648986816,-1.1080111265182495,-0.2016555219888687,-0.06913150101900101,-0.9770137667655945,0.12429346144199371,0.4205719232559204,-0.04779702425003052,0.8079404190262895,0.08735366555577186,-0.062148667865583575,0.5794300941480777,0.06918668124891922,-0.20354165271252458,1.2513810732034685
1784890226065811968,2.949784994125366,-0.3060320019721985,-0.14031079411506653,-1.3096030950546265,-0.20042899250984192,-0.07087673991918564,-0.9771410822868347,0.07730582356452942,0.23062101006507874,-0.04351931810379028,0.8375509042149795,0.08434008414983814,-0.0656978369563161,0.5357975794864609,0.07093621969855902,-0.2023116050170723,1.145431426366938
1784890226075731712,2.959704875946045,0.44058308005332947,0.013322446495294571,-0.658094584941864,-0.20005036890506744,-0.0733998715877533,-0.9770324230194092,0.15709687769412994,-0.0819803848862648,-0.02496647834777832,0.85910036437791,0.0825356128641871,-0.06834963075716288,0.5004626975573182,0.0734659367643667,-0.20196160688808779,1.0624161866214823
1784890226085650688,2.9696238040924072,-0.4552900493144989,0.49839136004447937,-0.7209148406982422,-0.19730408489704132,-0.07617490738630295,-0.9773783683776855,-0.00995604693889618,-0.20184022188186646,-0.16092729568481445,0.860828483352796,0.08281849166995646,-0.06672265112232206,0.4976580106055552,0.07624877151449394,-0.19919369341716336,1.0559675259459775
1784890226095569920,2.9795429706573486,-2.4843149185180664,0.4925428032875061,-1.2775546312332153,-0.1914617121219635,-0.06357652693986893,-0.979438841342926,-0.1948603093624115,0.03516466170549393,0.08753210306167603,0.878560033683859,0.07336410187318286,-0.069987783025234,0.4667458212648751,0.06361943229786021,-0.19304664560724993,0.9828490222020013
1784890226105489664,2.9894628524780273,-3.5776681900024414,0.8561221361160278,-1.9057625532150269,-0.18387076258659363,-0.03617961332201958,-0.9822843670845032,-0.13232186436653137,0.06968791782855988,0.16664111614227295,0.8949346588422947,0.056790620919113015,-0.0750509291728773,0.4361583382671412,0.036187510432095754,-0.1850454620551632,0.9103326155554856
1784890226115408640,2.9993817806243896,-3.6083621978759766,0.45045509934425354,-1.4057683944702148,-0.1765737533569336,-0.004372861236333847,-0.9842777252197266,0.00033473968505859375,-0.09941742569208145,-0.15204429626464844,0.9085982115811752,0.03832232993655903,-0.07995341696023611,0.408152285258053,0.004372875131308455,-0.1775061333074158,0.8447843906705735
1784890226125328896,3.0093019008636475,-4.413632392883301,-0.4184150695800781,-0.9074659943580627,-0.17657975852489471,0.0328897088766098,-0.9837366938591003,0.2548573613166809,-0.1591104120016098,-0.35059863328933716,0.9184759538513573,0.01904749129544317,-0.08814109221139767,0.3850589581739558,-0.032895641341577825,-0.1776076298154794,0.7910290580111058
1784890226135247616,3.0192208290100098,-4.7914018630981445,0.3255768120288849,-0.14683815836906433,-0.177422896027565,0.0774042084813118,-0.9810859560966492,0.2789701223373413,-0.0978662520647049,-0.13924479484558105,0.9254467367816205,-0.0033637683404280213,-0.09718896142870452,0.3661847516280474,-0.07748171082117138,-0.1789097182147958,0.7466076980465722
1784890226145167872,3.0291409492492676,-4.940305233001709,0.3758608102798462,-0.29714205861091614,-0.1731950044631958,0.12420187890529633,-0.9770247340202332,0.1293870359659195,-0.06341087073087692,0.02725672721862793,0.9304016631331166,-0.02774328230741905,-0.10352744180301196,0.35052102134673585,-0.12452344377943893,-0.17544519984692553,0.709627590486395
1784890226155086848,3.03905987739563,-5.068108081817627,0.6306502223014832,-0.6642318964004517,-0.16914767026901245,0.1720447838306427,-0.970458447933197,-0.21100978553295135,0.1883525550365448,0.1131129264831543,0.9344841186370368,-0.05286761855542733,-0.10943389595541425,0.3346169814771431,-0.17290502518639517,-0.17256314372397036,0.6727109496645317
1784890226165006848,3.0489799976348877,-4.246720790863037,0.23956331610679626,-1.025560975074768,-0.16638334095478058,0.21617192029953003,-0.9620739221572876,-0.14042511582374573,0.36396723985671997,0.07643860578536987,0.9379696063368976,-0.07635792373918676,-0.11459710114818047,0.3181978089642252,-0.21789196766220623,-0.17124848343751575,0.6353396620616134
1784890226174925824,3.05889892578125,-2.874234914779663,0.611796498298645,-0.837248682975769,-0.16438430547714233,0.24799592792987823,-0.954712450504303,0.06094500422477722,0.5182393789291382,-0.14753669500350952,0.9411218112529868,-0.09394231461127464,-0.11755266935407259,0.30273072486903524,-0.2506110140812946,-0.17051011923645923,0.6009045282252921
1784890226184845568,3.0688188076019287,-2.247633218765259,0.25937071442604065,-0.7862741351127625,-0.1621178835630417,0.2709885835647583,-0.9488324522972107,0.05927366018295288,0.5197981595993042,-0.1486406922340393,0.9439116470954088,-0.10722215825059586,-0.1186894970987035,0.2888717897795036,-0.2744198942533919,-0.16922626723914624,0.5705507109684357
1784890226194764800,3.07873797416687,-1.780455231666565,0.3317743241786957,-0.7363883256912231,-0.16145625710487366,0.28844162821769714,-0.9437866806983948,0.17348016798496246,0.34215834736824036,-0.22225946187973022,0.9463166599004089,-0.11746974291667624,-0.11961403783784551,0.2763659045239832,-0.29259889626636804,-0.1694326590585375,0.5432583847146312
1784890226204684800,3.088657855987549,-1.6622908115386963,0.7208889722824097,-0.7619385123252869,-0.1590583473443985,0.30329379439353943,-0.939528226852417,0.2362372875213623,0.08083096146583557,-0.06648373603820801,0.9485497571863828,-0.12662928640270663,-0.11916752626388834,0.2646082524889265,-0.30814735667412024,-0.16770582424132402,0.517984507450757
1784890226214603776,3.098576784133911,-2.364415407180786,1.1591386795043945,-0.705295205116272,-0.15211035311222076,0.3202855587005615,-0.9350292086601257,0.27408909797668457,-0.13130545616149902,-0.06111031770706177,0.9505208817704708,-0.1374395027390454,-0.11660094927477963,0.2530310522892542,-0.3260309077151341,-0.1612670597073377,0.4937575849408935
1784890226224523776,3.108496904373169,-2.903244972229004,1.3470823764801025,-0.5820914506912231,-0.14212699234485626,0.3448174297809601,-0.9278474450111389,0.26744741201400757,-0.06243827939033508,0.18222671747207642,0.9516665645691228,-0.1524225701215266,-0.11332978735616898,0.24135974800517795,-0.3520442743616591,-0.1519977977914543,0.46967656408120995
1784890226234442752,3.1184158325195312,-2.3974859714508057,1.4577678442001343,-0.5055795907974243,-0.13084717094898224,0.3686477243900299,-0.9203140139579773,0.34559935331344604,-0.1897994577884674,-0.048832714557647705,0.9522887929339829,-0.16708189436366835,-0.1092091076665951,0.23087494150850335,-0.37755386586462003,-0.14123011748737305,0.44868020465790237
1784890226244362752,3.128335952758789,-2.0989737510681152,1.3950175046920776,-0.9126015305519104,-0.1198313981294632,0.3878214955329895,-0.9139118790626526,0.383381187915802,-0.0799601674079895,-0.10371202230453491,0.9531715682340701,-0.17936672561383377,-0.10426715725812662,0.2200452288610272,-0.3982669431621031,-0.1303754473727346,0.4274155426353604
1784890226254281728,3.1382548809051514,-2.18479323387146,1.5515950918197632,-0.6429983377456665,-0.10967009514570236,0.40652716159820557,-0.9070326089859009,0.42017120122909546,0.16068780422210693,-0.08582627773284912,0.9538983749231734,-0.1913377560334378,-0.09936579827394004,0.20879217724576746,-0.41864971544694113,-0.12032676062002003,0.4053780014823851
1784890226264201728,3.14817476272583,-2.011239767074585,1.426324725151062,-0.480996310710907,-0.09853265434503555,0.4249390661716461,-0.8998433947563171,0.5517491698265076,0.2978239953517914,-0.13485509157180786,0.9540965791289174,-0.20307977334658528,-0.09400483011562331,0.19905162777896085,-0.43889456734082144,-0.10906526129703724,0.3870076030109026
1784890226274120704,3.1580939292907715,-1.7716487646102905,1.0970696210861206,-0.5540471076965332,-0.08884548395872116,0.44126367568969727,-0.8929685354232788,0.48084378242492676,0.22730013728141785,-0.09512954950332642,0.9541347629391953,-0.21349631186675766,-0.08907888959142901,0.19002915285914154,-0.45700637627645063,-0.09916815926190672,0.3701019155293992
1784890226284040704,3.16801381111145,-1.5318821668624878,1.0059140920639038,-0.24804243445396423,-0.08159572631120682,0.4558412432670593,-0.8863130807876587,0.3844521641731262,0.13735944032669067,0.07292807102203369,0.9539149162612739,-0.22263839737763488,-0.08529714507718408,0.18221634334970796,-0.47331713886486515,-0.09180319746974937,0.35533586024504665
1784890226293959936,3.1779329776763916,-1.5912392139434814,1.2152553796768188,-0.21621446311473846,-0.07252878695726395,0.4692573547363281,-0.8800778985023499,0.32358163595199585,0.060802459716796875,0.16071754693984985,0.9535016300019138,-0.23121051071906953,-0.08063967586887315,0.17570856680023714,-0.4884496081676962,-0.08222596997065379,0.3439639871819279
1784890226303879680,3.1878528594970703,-1.768580436706543,1.938521146774292,-0.3308772146701813,-0.05997883901000023,0.4839923083782196,-0.8730143308639526,0.10844074934720993,0.1704724133014679,0.33807170391082764,0.9530062316923614,-0.24087382603373306,-0.07397732056815201,0.16818526713568763,-0.5052112445512575,-0.06859536416053524,0.3316477962682894
1784890226313798656,3.1977717876434326,-1.9685965776443481,2.7434017658233643,-0.4534068703651428,-0.04144272208213806,0.500150740146637,-0.8649460673332214,0.031112518161535263,0.28337281942367554,0.3970353603363037,0.9524234610571266,-0.25188678365907424,-0.06387489404218766,0.15925641850897004,-0.5237728419302081,-0.04787703145297026,0.3185226645373784
1784890226323718912,3.2076919078826904,-1.8496310710906982,3.372048854827881,-0.42954403162002563,-0.017603028565645218,0.5165878534317017,-0.8560532331466675,0.15291796624660492,0.41480863094329834,0.5161484479904175,0.9516861502223464,-0.2634620711422633,-0.05060758062561821,0.14939918548208306,-0.5428610962577107,-0.020560110795375782,0.3057036666342358
1784890226333637632,3.2176108360290527,-1.5508934259414673,3.7012550830841064,-0.3706657886505127,0.01091626938432455,0.5310648083686829,-0.8472608923912048,0.4448942542076111,0.45594996213912964,0.5765852332115173,0.9509377556148516,-0.27420486523692134,-0.034369142016107634,0.13909690948208722,-0.5598567239766442,0.012883475459131261,0.2941905534604715
1784890226343557888,3.2275309562683105,-1.2154804468154907,3.733550548553467,-0.4143825173377991,0.04001404345035553,0.542902946472168,-0.8388416171073914,0.6962988376617432,0.38641834259033203,0.6245014071464539,0.9501603776916392,-0.28333208670671445,-0.017381719559770928,0.12890330690345697,-0.5738900177505354,0.04766541684918362,0.2837510814734351
1784890226353476864,3.237449884414673,-0.8189525008201599,3.5005712509155273,-0.31537604331970215,0.06796691566705704,0.5516914129257202,-0.8312743902206421,0.8527026176452637,0.2788444757461548,0.6994384527206421,0.9494611853626151,-0.29045212550927624,-0.0006107013573018836,0.11899824788444822,-0.584390801253801,0.08158084166821022,0.27391684724218784
1784890226363396608,3.2473697662353516,-0.6810599565505981,3.269768238067627,-0.32986828684806824,0.09413930028676987,0.557920515537262,-0.8245377540588379,0.9053571224212646,0.23341554403305054,0.7027116417884827,0.9488155348723437,-0.2957920560465328,0.015432842799156186,0.10962677085358624,-0.5918779310930365,0.11367996243767073,0.2647552292081261
1784890226373315840,3.257288932800293,-0.9303640127182007,3.358099937438965,-0.2303456813097,0.11944283545017242,0.5648286938667297,-0.8165181875228882,0.8226958513259888,0.21297281980514526,0.8047689199447632,0.9476863553836034,-0.3012982659453555,0.030987943168925267,0.10074590943263258,-0.6002256476279423,0.14525289836507735,0.2568404569401937
1784890226383235584,3.2672088146209717,-0.9127723574638367,3.694540500640869,-0.03620633855462074,0.14699529111385345,0.5727505683898926,-0.8064423203468323,0.6634905338287354,0.10905790328979492,0.8744812607765198,0.9456272098314606,-0.30754469522409394,0.0468518974483721,0.09492349654917855,-0.6098573997144867,0.18029688814029324,0.2569791825036861
1784890226393154816,3.277127981185913,-0.7528157234191895,4.117547035217285,0.12219581753015518,0.1784965842962265,0.5791701674461365,-0.7954249382019043,0.6132056713104248,-0.17656701803207397,0.8394007682800293,0.9432495700637883,-0.3131626015490097,0.06493614982604082,0.08940179311535111,-0.6177103742356795,0.2207471408837315,0.2596874676107562
1784890226403074816,3.287047863006592,-0.5659877061843872,4.427445888519287,0.19305257499217987,0.21304495632648468,0.5843273997306824,-0.7830538153648376,0.682844340801239,-0.5413129329681396,0.8685793876647949,0.9407124693175664,-0.31797962054007234,0.08580237647894697,0.08115963961426559,-0.6240510031665052,0.2656395824581379,0.25826253540027116
1784890226412993792,3.296966791152954,-0.4974738657474518,4.5717453956604,0.382283478975296,0.24959245324134827,0.5877359509468079,-0.7695907950401306,0.8308823704719543,-0.7456187009811401,0.7733597755432129,0.9377981249031111,-0.3217691694576653,0.10802404558886247,0.07300723641750334,-0.6282576200886686,0.313615278672228,0.2580282669453923
1784890226422913792,3.306886911392212,-0.5117015242576599,4.423024654388428,0.6506989598274231,0.2868160009384155,0.5903602838516235,-0.7544609904289246,0.921359658241272,-0.7135597467422485,0.7809349298477173,0.9342552237109379,-0.3252095031226933,0.13041586591742935,0.06631506431645437,-0.6315051355944654,0.36328693756851155,0.2615841411955668
1784890226432832768,3.316805839538574,-0.22665806114673615,3.6583704948425293,0.7605413198471069,0.32112759351730347,0.5908400416374207,-0.7401250600814819,0.9662258625030518,-0.5228163599967957,0.6907323598861694,0.9307782569605416,-0.3272825684397771,0.1510747550285093,0.06094643153594941,-0.6320996868383651,0.4093704079492253,0.266333420612777
1784890226442752768,3.326725959777832,-0.18932081758975983,2.971691370010376,0.8185895681381226,0.34976062178611755,0.5898910164833069,-0.7278022170066833,1.0071271657943726,-0.30807650089263916,0.6945991516113281,0.9277085740401485,-0.3282844964153471,0.16830976750157758,0.05707820625266827,-0.6309239022833117,0.44798391168153845,0.27132349883269974
1784890226452671744,3.3366448879241943,0.15802009403705597,2.6924588680267334,0.9547511339187622,0.3750089108943939,0.5868330597877502,-0.7176316976547241,0.8774477243423462,-0.20325767993927002,0.6272844076156616,0.9251282334606846,-0.3279378921158168,0.18341453413742675,0.054347157433554505,-0.6271420940556625,0.48153589858387186,0.27625730478096827
1784890226462591744,3.346564769744873,0.7503664493560791,2.6756839752197266,0.9468504190444946,0.3997352719306946,0.5802556872367859,-0.7095879912376404,0.6684562563896179,-0.11304676532745361,0.6171502470970154,0.923101287352776,-0.3254123668067683,0.19827455975055402,0.05175015043778494,-0.6190425824666982,0.5130230395599934,0.2793736516422176
1784890226472510720,3.3564839363098145,1.209797739982605,2.7173545360565186,0.8904209733009338,0.42393818497657776,0.5692828893661499,-0.7044100165367126,0.6166196465492249,0.005149483680725098,0.6286348700523376,0.9218800440654766,-0.31995126235012666,0.21313417603180046,0.04839783918874544,-0.6056333581015707,0.5417672339881454,0.2779953050323362
1784890226482430720,3.366403818130493,1.686913251876831,2.854813575744629,1.0815702676773071,0.4485781192779541,0.5555702447891235,-0.7000853419303894,0.7103421688079834,-0.13798290491104126,0.5943419337272644,0.9208869120631339,-0.31276595847266797,0.22833044098383148,0.04483400987035484,-0.5890486031650302,0.5698435147439983,0.27452397545075785
1784890226492349952,3.3763229846954346,3.0667567253112793,3.231727123260498,1.2786731719970703,0.47629252076148987,0.5339983701705933,-0.6985636949539185,0.943766713142395,-0.6486528515815735,0.5157939195632935,0.9206638753982374,-0.3008649802757654,0.24535364824284667,0.040742594978578045,-0.5633225979602181,0.598418002487518,0.2664913020993338
1784890226502269696,3.3862428665161133,4.183042049407959,2.9427778720855713,1.4174803495407104,0.5048405528068542,0.5019744634628296,-0.7022519111633301,1.0114710330963135,-1.23110032081604,0.4291348457336426,0.9218647732568898,-0.282504667555423,0.2628025267320209,0.035935267527116586,-0.5258801720646112,0.6232904001766141,0.2509135360127284
1784890226512188672,3.3961617946624756,4.215442180633545,2.94008207321167,1.5680185556411743,0.5323569178581238,0.4644117057323456,-0.7077555060386658,1.097876787185669,-1.5734052658081055,0.511023998260498,0.9235158446455893,-0.260982339387933,0.2793035411234602,0.031562326270744484,-0.48297022839503,0.6448924836466692,0.23253106064462303
1784890226522108672,3.4060819149017334,4.216568946838379,3.0470592975616455,1.6806960105895996,0.5606451034545898,0.4259931743144989,-0.7100752592086792,1.1038751602172852,-1.5935957431793213,0.5867384672164917,0.9242725184101108,-0.23926899083766623,0.2961633536492185,0.02752927524666101,-0.4400593712105821,0.6683409406643309,0.21454009977298624
1784890226532027648,3.4160008430480957,4.35766077041626,3.0522921085357666,1.9674263000488281,0.5893133282661438,0.3854168951511383,-0.710044801235199,1.161525845527649,-1.539637565612793,0.5535964369773865,0.9243523972659637,-0.21674032146113692,0.31305150047625907,0.02439212412502389,-0.3956595737207525,0.692747950293229,0.19720867637809839
1784890226541947904,3.4259209632873535,4.8413591384887695,3.329245090484619,2.342829942703247,0.6193903088569641,0.3403572738170624,-0.7074691653251648,1.2868444919586182,-1.6415352821350098,0.5011550784111023,0.9237122175756959,-0.19216066315033145,0.3306655401277545,0.022144799581007332,-0.3472968158942931,0.7191139696107798,0.17962366077627587
1784890226551866880,3.435839891433716,5.40873384475708,3.3298861980438232,2.6872670650482178,0.6505773067474365,0.2883278429508209,-0.7025782465934753,1.3541529178619385,-1.912107229232788,0.27493542432785034,0.9224259713964622,-0.1640359133502628,0.3490030176745637,0.020478504987539337,-0.2924800681288661,0.74698769814723,0.15970975756043457
1784890226561786624,3.4457597732543945,5.752983570098877,3.0792996883392334,2.883882761001587,0.6797458529472351,0.23135967552661896,-0.6960016489028931,1.4989955425262451,-2.2118589878082275,0.11943304538726807,0.920659931541023,-0.13346774837778064,0.3663134292810986,0.019651405131242042,-0.23347503905683528,0.7735827280327644,0.13814163237879803
1784890226571705856,3.455678939819336,6.06497859954834,3.3982977867126465,2.8460588455200195,0.7075843811035156,0.17115755379199982,-0.6855868697166443,1.5320701599121094,-2.540191411972046,-0.23998069763183594,0.9178269471896376,-0.10145683018154932,0.38329240062154557,0.019674370187715402,-0.1720044388515533,0.8011863614515924,0.11585538016817498
1784890226581625600,3.4655988216400146,6.421134948730469,3.6589112281799316,2.9436585903167725,0.7356167435646057,0.10798599570989609,-0.6687353849411011,1.324869155883789,-2.5326991081237793,-0.6142998933792114,0.9132327515940278,-0.06761717947023388,0.40132309038968694,0.019329122574167468,-0.10819697865906604,0.8329865542470405,0.09022590193722822
1784890226591544832,3.475517988204956,6.455917835235596,3.680398941040039,2.916862964630127,0.761730432510376,0.04396688938140869,-0.646400511264801,1.089526891708374,-2.0754153728485107,-1.0701980590820312,0.9071159673464988,-0.03276561766218519,0.4191970566811367,0.01846093562671655,-0.04398106780965102,0.8671186341385404,0.061059863409454684
1784890226601464832,3.4854378700256348,5.589801788330078,3.4929206371307373,3.199244499206543,0.7854998111724854,-0.016859376803040504,-0.6186321377754211,1.2176587581634521,-1.2662674188613892,-1.1532337665557861,0.8994486143082177,0.0008495558483578706,0.4366728974581139,0.017554459213256424,0.016860175580169813,0.9036838764574342,0.03084598672641592
1784890226611383552,3.495356798171997,5.489372730255127,1.909858226776123,3.7271292209625244,0.8000598549842834,-0.07844080775976181,-0.5947700142860413,1.6002545356750488,-1.19048011302948,-0.9933647513389587,0.8927156472302957,0.03333951416845592,0.4488913905763384,0.021069011940759094,0.07852147215087488,0.9315282043306048,0.0077094622453952886
1784890226621303808,3.505276918411255,4.556153297424316,0.7350975275039673,2.7485790252685547,0.8047346472740173,-0.13288336992263794,-0.5785707235336304,1.7012009620666504,-1.4757134914398193,-0.9311796426773071,0.8881192316397859,0.06303038618547485,0.45468868952340646,0.02301175187367833,0.13327757896114031,0.947459607326139,-0.01659194576910154
1784890226631222784,3.515195846557617,4.0959649085998535,0.22607126832008362,2.5519590377807617,0.8060241937637329,-0.17981268465518951,-0.5639082193374634,1.293707251548767,-1.0279052257537842,-0.6667283773422241,0.8839244215568551,0.08867560827211181,0.4584566752457564,0.025136090819204673,0.18079603308218029,0.9603274527754351,-0.03749074537602034
1784890226641142784,3.525115966796875,3.2740514278411865,0.12005585432052612,2.6902942657470703,0.8010542392730713,-0.22144027054309845,-0.5561263561248779,1.0475633144378662,-0.32677751779556274,-0.6303513050079346,0.8816236282840928,0.11086883052736356,0.45787000200255806,0.028338954393400336,0.22329116558428758,0.9639445389708513,-0.05289568198561856
1784890226651061760,3.5350348949432373,3.5545363426208496,0.9661093950271606,2.054354190826416,0.7983385324478149,-0.25873270630836487,-0.5437949299812317,0.7224439382553101,0.4500168561935425,-0.47379839420318604,0.8780137967244102,0.13088618454078443,0.4593161515025495,0.03145213557045311,0.2617099972084331,0.972828007498397,-0.06734789243877144
1784890226660981760,3.544954776763916,2.867443084716797,1.0794703960418701,1.0753729343414307,0.7998817563056946,-0.288553386926651,-0.5262376070022583,0.09954750537872314,0.8895512819290161,-0.4437941312789917,0.8730205143661025,0.14886788083118166,0.4633783980333151,0.03088616073190389,0.2927156131115306,0.9888915443232847,-0.08788226319438425
1784890226670900736,3.5548739433288574,1.6366349458694458,1.3563272953033447,-0.331290602684021,0.8052241802215576,-0.3032265305519104,-0.5095760822296143,-0.24190020561218262,0.9659768342971802,0.09649014472961426,0.8683135153306953,0.1591445703040797,0.468918924907051,0.028631573113921054,0.3080767895561633,1.006580853925543,-0.10463779997321634
1784890226680820736,3.564793825149536,-0.05767631158232689,2.3472824096679688,-1.7975172996520996,0.8185728788375854,-0.2974642515182495,-0.4913792312145233,-0.31060779094696045,0.540948748588562,0.2274174690246582,0.8632341585645251,0.1597025437879063,0.47833615502052335,0.02272759968991421,0.302035569944156,1.0301653148030365,-0.11921019054382442
1784890226690739968,3.5747129917144775,-0.8168385624885559,2.632082939147949,-2.025409698486328,0.8361421227455139,-0.28059515357017517,-0.47130972146987915,0.054162442684173584,0.43103155493736267,0.34148794412612915,0.85752419125351,0.15357765067994236,0.4906720285225898,0.017529073064204117,0.2844141164169885,1.0575171643693564,-0.12603250410107605
1784890226700659712,3.5846328735351562,-2.3181960582733154,3.7138748168945312,-3.6753618717193604,0.8586642146110535,-0.24922576546669006,-0.44786426424980164,-0.15025967359542847,0.560947597026825,0.22992300987243652,0.8507764600005525,0.14018103193202056,0.5063764887649083,0.01056558212360042,0.25188071521374766,1.0900321370058312,-0.12838320309038803
1784890226710578688,3.5945518016815186,-4.197239875793457,4.272696495056152,-4.176407337188721,0.8846805095672607,-0.20087434351444244,-0.42070162296295166,-0.0028598904609680176,0.6233291625976562,0.47081151604652405,0.8428135973537124,0.11667593136281414,0.5253912016540249,0.003999140834285731,0.20225038161536232,1.126906878815649,-0.11854814195528848
1784890226720498688,3.6044719219207764,-5.144317150115967,5.604980945587158,-4.7165727615356445,0.9126774668693542,-0.14178042113780975,-0.38329893350601196,0.638622522354126,0.872401773929596,0.27036866545677185,0.8316545603832833,0.08506900557155107,0.5487383726487869,0.0002591175184851657,0.14225978158050756,1.1731921840047626,-0.09401705721235054
1784890226730417664,3.6143908500671387,-2.583731174468994,5.134406566619873,-4.48258113861084,0.9372841715812683,-0.08396247029304504,-0.33830246329307556,0.5462667346000671,1.3413934707641602,-0.04614272713661194,0.8179899635033961,0.055939799848504106,0.572467906761881,-0.006597680938368633,0.08406143440678984,1.2244096658941546,-0.07517715254221992
1784890226740337920,3.6243109703063965,-1.0602995157241821,5.729170799255371,-4.722232818603516,0.9570177793502808,-0.03698356822133064,-0.28766196966171265,0.9526197910308838,0.9049340486526489,-0.34254130721092224,0.802173033581931,0.03693495339067022,0.5956549511232211,-0.0186961246138516,0.036992004945098064,1.2788059942144823,-0.07411451969431856
1784890226750256896,3.634229898452759,-0.7268109917640686,5.533148288726807,-5.23005485534668,0.9720405340194702,0.01353526208549738,-0.23442260921001434,0.9381309747695923,0.9064476490020752,-0.15061765909194946,0.7847846679583635,0.02005132688673757,0.6183741884715076,-0.036391565819410235,-0.01353567545394259,1.3341496472090943,-0.08201695735519006
1784890226760176640,3.6441497802734375,1.2054753303527832,6.257018089294434,-4.03788423538208,0.9822333455085754,0.05912580341100693,-0.17810668051242828,1.4188745021820068,1.0359364748001099,-0.1022278219461441,0.7655804500379181,0.006784776701442215,0.6410153088216799,-0.054222095545945995,-0.05916030540678192,1.3914170948086775,-0.09201156290642183
