time,seconds_elapsed,rotationRateX,rotationRateY,rotationRateZ,gravityX,gravityY,gravityZ,accelerationX,accelerationY,accelerationZ,quaternionW,quaternionX,quaternionY,quaternionZ,pitch,roll,yaw
1784373901250213632,0.050688743591308594,-0.0897078663110733,-0.20204533636569977,-0.11216463893651962,0.1077452227473259,0.6836745738983154,-0.721789538860321,-0.04051501303911209,-0.05519556999206543,0.06724846363067627,0.38072694819698644,-0.09822714108889324,0.35980086302042574,-0.8461334737390248,-0.752785931858399,0.1481809504806973,-2.2372929538776694
1784373901260133632,0.060608863830566406,-0.2077639400959015,-0.15982916951179504,-0.21387475728988647,0.10539081692695618,0.6848673820495605,-0.7210057973861694,-0.06831195205450058,-0.07463794946670532,0.07336181402206421,0.38018074262659135,-0.09947510963636372,0.3600024945270202,-0.8461474174123437,-0.7544217129884264,0.14514403587903313,-2.239447355576061
1784373901270052608,0.07052779197692871,-0.29919886589050293,-0.17737391591072083,-0.30105072259902954,0.1024310514330864,0.6869748830795288,-0.7194257378578186,-0.05624270439147949,-0.11119979619979858,0.0905500054359436,0.37912008682983706,-0.10106472769222026,0.360656432980674,-0.8461564445257858,-0.7573178723176609,0.14142836289880192,-2.2427833589794823
1784373901279972608,0.08044767379760742,-0.3037587106227875,-0.18012230098247528,-0.3130679726600647,0.09904654324054718,0.6894381046295166,-0.7175408601760864,-0.031038127839565277,-0.0834505558013916,0.07186520099639893,0.3778185539398066,-0.10286283445252434,0.36145374288214477,-0.8461817886398846,-0.7607130635469876,0.13716928334682715,-2.246800647601633
1784373901289891840,0.09036684036254883,-0.27851808071136475,-0.16026532649993896,-0.3717127740383148,0.09554275125265121,0.6918309926986694,-0.715710461139679,-0.04621109366416931,-0.07296502590179443,0.06286317110061646,0.3764018826043559,-0.10465127653027113,0.3622055658363369,-0.8462723549751993,-0.7640217698897397,0.13270897036893023,-2.2512088425967534
1784373901299811584,0.10028672218322754,-0.19351741671562195,-0.13787107169628143,-0.43831202387809753,0.0916997417807579,0.6939166188240051,-0.7141924500465393,-0.05709280073642731,-0.06726866960525513,0.06128412485122681,0.3746880955460946,-0.10638872101874097,0.3627467680689946,-0.8465843364460662,-0.7669142546820872,0.12769773661146322,-2.256671121999597
1784373901309731840,0.11020684242248535,-0.0008929804898798466,-0.13532614707946777,-0.48532047867774963,0.08755721896886826,0.6950469613075256,-0.7136129140853882,-0.03895796835422516,-0.02567446231842041,0.04915374517440796,0.372771193027434,-0.10790643945720281,0.3626978787852405,-0.8472590997977549,-0.7684852439818642,0.12208548126148022,-2.2632084330842526
1784373901319650560,0.12012577056884766,0.24658551812171936,-0.153932586312294,-0.49867063760757446,0.08312510699033737,0.694585919380188,-0.7145912647247314,-0.023997314274311066,-0.008108258247375488,0.039893388748168945,0.37082902344845303,-0.10909264173371022,0.36166718440662626,-0.8483994458941528,-0.7678441484664524,0.11580491139219107,-2.2706308980930867
1784373901329570560,0.13004565238952637,0.4239065647125244,-0.13931414484977722,-0.5260746479034424,0.07861132174730301,0.6925593614578247,-0.7170646786689758,-0.030027329921722412,-0.04177206754684448,0.049034953117370605,0.36900887993125275,-0.10992434419465169,0.3597002987483046,-0.849920418366493,-0.7650310193670063,0.10919327414385839,-2.278402055921351
1784373901339490560,0.13996577262878418,0.4869571924209595,-0.0923842042684555,-0.6210176944732666,0.07381485402584076,0.6896664500236511,-0.7203551530838013,-0.04930923134088516,-0.06442230939865112,0.08623039722442627,0.36693403244459266,-0.11055144535149675,0.35721255555910636,-0.8517845817857754,-0.7610283554403848,0.10211368053911772,-2.287199601330334
1784373901349409536,0.14988470077514648,0.4337778389453888,-0.03356163203716278,-0.7464283108711243,0.06872082501649857,0.686823308467865,-0.7235684394836426,-0.08840467035770416,-0.06701129674911499,0.11300325393676758,0.36423720113567654,-0.11109919064965847,0.354785507899901,-0.8538826292557761,-0.7571092929914812,0.09469084826568169,-2.297514462262226
1784373901359329792,0.1598048210144043,0.34970584511756897,-0.010068021714687347,-0.8210423588752747,0.06324532628059387,0.6844968795776367,-0.7262672185897827,-0.08468393236398697,-0.08858013153076172,0.11664807796478271,0.36097424267618095,-0.11176960791594381,0.3526668960791173,-0.8560556316592213,-0.7539133173208212,0.0868635898408371,-2.309090212679389
1784373901369248512,0.1697237491607666,0.2870808243751526,0.01096151489764452,-0.8551914095878601,0.057540182024240494,0.6827149391174316,-0.7284157276153564,-0.0581810437142849,-0.08927011489868164,0.10707783699035645,0.3574560311458303,-0.11262456990651992,0.35086728778553467,-0.8581567659692002,-0.7514718225088265,0.07882991161856018,-2.321117274458993
1784373901379168512,0.1796436309814453,0.29710495471954346,-0.008543741889297962,-0.8042648434638977,0.05194736644625664,0.681070864200592,-0.7303724884986877,-0.03333165869116783,-0.06344085931777954,0.07845604419708252,0.35386411655627054,-0.1134557566998594,0.34920128758511715,-0.8602130478530756,-0.7492241171187828,0.07100491203614732,-2.333129580742938
1784373901389088512,0.18956375122070312,0.3524879217147827,-0.07307647168636322,-0.732927680015564,0.046502187848091125,0.679117739200592,-0.7325549125671387,-0.004250623285770416,-0.04320770502090454,0.07101011276245117,0.3506864522686618,-0.11431998285523517,0.3473520853347977,-0.8621465338847261,-0.7465600123666805,0.06339439225643205,-2.3441177629343923
1784373901399007488,0.19948267936706543,0.5012773871421814,-0.08100657165050507,-0.619063675403595,0.04136029630899429,0.6763309240341187,-0.7354357838630676,-0.008325017988681793,-0.05293309688568115,0.09581786394119263,0.34803438662305336,-0.11504250342987171,0.345032362796833,-0.8640543833009545,-0.7427700883717406,0.056179986045965205,-2.3538857854650086
1784373901408927744,0.20940279960632324,0.7561885118484497,-0.11428744345903397,-0.5008508563041687,0.036925964057445526,0.6719998717308044,-0.7396301031112671,-0.04389924556016922,-0.026354730129241943,0.10707700252532959,0.34600479410963053,-0.11527409868531126,0.3419017787595546,-0.8660806999320019,-0.7369059718373719,0.04988349030288649,-2.3621684555329123
1784373901418847488,0.21932268142700195,1.1926803588867188,-0.14329218864440918,-0.42950958013534546,0.032933104783296585,0.6650818586349487,-0.7460439801216125,-0.08151710778474808,0.02597343921661377,0.11983853578567505,0.3446635379953141,-0.114904456918101,0.33730547094873087,-0.8684636567560519,-0.7276034029443547,0.04411501038366434,-2.3691904944206597
1784373901428766720,0.22924184799194336,1.860178828239441,-0.1497071385383606,-0.39307472109794617,0.02910439670085907,0.6539459228515625,-0.7559812664985657,-0.12923258543014526,0.093170166015625,0.15510547161102295,0.34385662059437583,-0.11360889928666565,0.330306478678467,-0.8716383259568121,-0.7127884874176079,0.03847982913371139,-2.3757627817626785
1784373901438686720,0.23916172981262207,2.805832624435425,0.03816608712077141,-0.3766382336616516,0.02609197050333023,0.636489987373352,-0.770843505859375,-0.21140997111797333,0.18830859661102295,0.20556640625,0.3434250429576135,-0.11052837924826807,0.31994019079849706,-0.8760599719441554,-0.6899388455841877,0.033835677228152866,-2.3822326923417863
1784373901448605440,0.24908065795898438,3.8230741024017334,0.49262863397598267,-0.3910674750804901,0.025693703442811966,0.6108062267303467,-0.7913631200790405,-0.26041966676712036,0.22653508186340332,0.22045552730560303,0.34296482237410114,-0.1042899936414516,0.3056828905388892,-0.8820752936098218,-0.6570784655311425,0.032456250769636895,-2.38887215863156
1784373901458525696,0.2590007781982422,4.533895492553711,0.8752473592758179,-0.555872917175293,0.028565211221575737,0.5774776339530945,-0.8159066438674927,-0.2522438168525696,0.21675759553909302,0.19537746906280518,0.34176712492190153,-0.09469380495725775,0.2882356220799144,-0.8894653066403325,-0.6156357028665811,0.03499609887630529,-2.396773997521442
1784373901468445440,0.2689206600189209,5.042695045471191,0.9110814332962036,-0.6886278390884399,0.03259788081049919,0.5381894707679749,-0.8421932458877563,-0.07501732558012009,0.16701072454452515,0.18919336795806885,0.3396367639832305,-0.08333979869354277,0.26824960512989093,-0.8976322062077937,-0.5682874834740822,0.038686627473520994,-2.406849979662832
1784373901478364672,0.2788398265838623,5.106197834014893,0.4924849569797516,-0.657014012336731,0.03519102558493614,0.4950793981552124,-0.8681347370147705,0.31136658787727356,-0.03626289963722229,0.21995669603347778,0.3373873219689249,-0.07235135981736265,0.24636944305418298,-0.9056694220725935,-0.5179262207254548,0.040514180787569715,-2.417654999958726
1784373901488284672,0.288759708404541,5.124493598937988,0.20242083072662354,-0.29035723209381104,0.03586169332265854,0.45075342059135437,-0.8919278383255005,0.43960219621658325,-0.06458398699760437,0.1738187074661255,0.33633474073920094,-0.06283356869551227,0.22380352723806554,-0.9126022341722385,-0.4676091892511455,0.0401852979933959,-2.4258223277686706
1784373901498204672,0.29867982864379883,5.404597759246826,0.06836956739425659,-0.14022953808307648,0.0360100157558918,0.4038451313972473,-0.9141183495521545,0.2630317211151123,0.0640656054019928,0.09006750583648682,0.3365741551849533,-0.053730216963916014,0.20013465913612977,-0.9185733447972579,-0.41571608854553865,0.03937280894722495,-2.430851246337854
1784373901508123648,0.30859875679016113,5.692896366119385,0.043451130390167236,-0.1890517920255661,0.03608502820134163,0.35283979773521423,-0.9349876642227173,0.10449419915676117,0.17363420128822327,0.13355028629302979,0.3370256244641912,-0.04422298256961044,0.174786991658245,-0.9240711334567422,-0.3606043558446249,0.038574975481053514,-2.4351077773223357
1784373901518043392,0.31851863861083984,6.025432586669922,-0.015846548601984978,-0.5711536407470703,0.03510980308055878,0.29812726378440857,-0.9538801908493042,-0.057830147445201874,0.19277849793434143,0.2267988920211792,0.33617514926224856,-0.03459231216653605,0.1478623315609769,-0.9294764787338956,-0.30273010389315547,0.036790740662163306,-2.4418923237163077
1784373901527963648,0.32843875885009766,6.557712554931641,-0.02872791513800621,-0.8881644010543823,0.03289485722780228,0.23852962255477905,-0.9705779552459717,-0.07992245256900787,0.21744877099990845,0.23121333122253418,0.3333250382743433,-0.02473991358183166,0.1187390489276962,-0.9349778105485871,-0.2408514823195038,0.03387906057427828,-2.4525748744276075
1784373901537882624,0.33835768699645996,7.067258358001709,0.3092280328273773,-0.427870512008667,0.03038359433412552,0.1719617396593094,-0.9846349358558655,0.09396027028560638,0.2754869759082794,0.028595566749572754,0.33027414232294733,-0.014229223534459047,0.0864872889410424,-0.9398066150253298,-0.1728207308863126,0.030847935185598224,-2.463027795499828
1784373901547802624,0.3482778072357178,7.324051856994629,0.5400965809822083,-0.794550895690918,0.03813077136874199,0.10136386752128601,-0.9941183924674988,0.3365640640258789,0.200149804353714,0.16988444328308105,0.3272058374960565,0.0014069155410862018,0.05421085187159042,-0.9433957161094912,-0.10153825583191635,0.03833757354168334,-2.4719334236532142
1784373901557721600,0.3581967353820801,7.228196144104004,-0.3937741816043854,-0.7983363270759583,0.03470197692513466,0.028985794633626938,-0.9989773035049438,0.31640276312828064,0.003072921186685562,0.41885340213775635,0.32298842668589084,0.011741303735033622,0.019326255500973312,-0.9461327149332737,-0.028989855130304325,0.03472354137272759,-2.48314374271261
1784373901567641856,0.3681168556213379,6.8729777336120605,0.0287996344268322,-0.4616948366165161,0.034413695335388184,-0.04041670635342598,-0.9985901117324829,0.024119019508361816,-0.3156471252441406,0.4618164300918579,0.3187948959330604,0.0227610239479409,-0.013670621886108925,-0.9474517914042382,0.04042771852631923,0.03444865192769184,-2.4931364089125734
1784373901577561600,0.3780367374420166,6.146900653839111,-0.8150261044502258,-0.2842444181442261,0.03076261468231678,-0.10506840795278549,-0.9939890503883362,0.33730989694595337,-0.2848394215106964,0.31865036487579346,0.31586887071396286,0.031257310030011136,-0.04503821339970232,-0.9472176752208367,0.10526268755203139,0.030938768309871557,-2.499475129590682
1784373901587480576,0.3879556655883789,5.800201892852783,-1.250112771987915,-0.43314749002456665,0.020962238311767578,-0.16286885738372803,-0.9864250421524048,0.4078402519226074,-0.21232950687408447,0.3441826105117798,0.31235132935760906,0.035596966561616455,-0.07429903255027502,-0.94638739461944,0.16359763902757427,0.021247517735373856,-2.505756594145887
1784373901597400576,0.3978757858276367,6.05558967590332,-1.3578802347183228,-0.08518019318580627,0.008258145302534103,-0.2207871526479721,-0.9752870798110962,0.3684966266155243,-0.1672285944223404,0.1673799753189087,0.30897688287801967,0.038484714020521664,-0.10428517966386033,-0.9445511854597644,0.2226214678659041,0.008467197026428485,-2.51025178968361
1784373901607320576,0.40779566764831543,5.908259391784668,-1.2729631662368774,0.012743938714265823,-0.004177740775048733,-0.2782421410083771,-0.9605019092559814,0.1531950831413269,-0.031068772077560425,0.31221699714660645,0.30656987880174097,0.04150347936813238,-0.13426287284001637,-0.941417030666889,0.2819634963058444,-0.0043495118676226555,-2.511341033970566
1784373901617239808,0.41771483421325684,5.905117034912109,-1.2808293104171753,-0.3602842390537262,-0.01583665795624256,-0.33414164185523987,-0.9423897862434387,0.09499925374984741,-0.14438924193382263,0.110679030418396,0.3032796460949771,0.04452704285934332,-0.16377556159461237,-0.9376653588169932,0.3406943708554089,-0.016803202566126232,-2.513059355841035
1784373901627159552,0.42763471603393555,5.280272960662842,-1.1509491205215454,-0.8635673522949219,-0.02476375177502632,-0.386404812335968,-0.9219967722892761,0.032805152237415314,-0.3151180148124695,0.3704221248626709,0.2974573061720194,0.047766693954179096,-0.1916244826166156,-0.9340865441180913,0.39673044394794205,-0.026852371230276003,-2.519607246855332
1784373901637079808,0.43755483627319336,4.470574855804443,-1.0182980298995972,-0.77582848072052,-0.030884046107530594,-0.43067115545272827,-0.9019803404808044,0.205581933259964,-0.41587120294570923,0.5053433775901794,0.2909080994091807,0.050757245591973865,-0.2154844084676166,-0.9307860578826697,0.44523629855629754,-0.034226893786943345,-2.528000955170827
1784373901646998528,0.44747376441955566,4.007264614105225,-1.3060755729675293,-0.8481825590133667,-0.03757337108254433,-0.4681546092033386,-0.8828473687171936,0.26537182927131653,-0.4165804982185364,0.4464765191078186,0.28436624399896365,0.052193247688308686,-0.23633063714256808,-0.927663479871335,0.4872012262537712,-0.04253363750088645,-2.536127564545613
1784373901656918528,0.4573936462402344,4.233613014221191,-1.3233892917633057,-0.838592529296875,-0.045007094740867615,-0.5039461255073547,-0.8625617027282715,0.2186979055404663,-0.17737406492233276,0.3529181480407715,0.277333900495607,0.052701823137012355,-0.25679109890628765,-0.924319631922099,0.5281613789722245,-0.052131129921086164,-2.544504629857429
1784373901666837760,0.4673128128051758,4.591305732727051,-1.309385061264038,-0.8369682431221008,-0.05164973437786102,-0.541534960269928,-0.83909010887146,0.09797541797161102,0.014587938785552979,0.35508131980895996,0.27018223440521877,0.05371746364881149,-0.2785128185315155,-0.920079698533088,0.5722619314491098,-0.06147689214651458,-2.5522571218054186
1784373901676757504,0.4772326946258545,5.667913913726807,-1.3534494638442993,-0.887310802936554,-0.05770537257194519,-0.5838168859481812,-0.8098320364952087,0.028530582785606384,0.030731558799743652,0.20884937047958374,0.2625572184041586,0.0555433791354057,-0.3033132114322612,-0.9143193549237452,0.6234220796761002,-0.07113574260191903,-2.5593890067589977
1784373901686677760,0.4871528148651123,6.435617446899414,-1.3346765041351318,-0.9711657166481018,-0.06269781291484833,-0.6320430636405945,-0.772392749786377,0.0024866387248039246,0.07834738492965698,0.28408098220825195,0.25406659432756934,0.058535987913304305,-0.33223056941860674,-0.906447232507571,0.6841867919632879,-0.08099589487265632,-2.5661846236562527
1784373901696596736,0.4970717430114746,6.943299293518066,-1.2991260290145874,-0.9257861375808716,-0.06512748450040817,-0.6825266480445862,-0.7279531955718994,-0.04967964440584183,-0.05029195547103882,0.3621084690093994,0.24523625883484057,0.06307404851530746,-0.36338007725279897,-0.8965688966352698,0.751214149720313,-0.08922901622147128,-2.572393988759842
1784373901706516736,0.5069918632507324,7.63945198059082,-1.2689998149871826,-1.0402289628982544,-0.06709279119968414,-0.7343291640281677,-0.6754696369171143,-0.016708485782146454,-0.06379705667495728,0.21660733222961426,0.23612738900221994,0.06807964176899806,-0.39702688300512223,-0.8842955812631641,0.824677887817835,-0.09900288355626818,-2.5763883516744137
1784373901716436736,0.5169117450714111,7.7693190574646,-1.108108401298523,-1.0084567070007324,-0.06658710539340973,-0.7843624353408813,-0.6167184710502625,-0.044115424156188965,0.11111420392990112,0.3256418704986572,0.2261051293815605,0.07385624841405093,-0.43149278228607774,-0.8701928665618319,0.9016676301233948,-0.10755337033412628,-2.581065352640831
1784373901726355456,0.5268306732177734,7.741175174713135,-0.8761125802993774,-1.3917951583862305,-0.06294924765825272,-0.8307896852493286,-0.5530152916908264,-0.15165036916732788,-0.11365306377410889,0.30335092544555664,0.2161285313772584,0.08099147773666014,-0.46576038607696174,-0.8542810377383113,0.9805249592558744,-0.11334128666755672,-2.5854628498217034
1784373901736275712,0.5367507934570312,7.366588592529297,-0.9615877866744995,-1.6751182079315186,-0.05398700386285782,-0.8704694509506226,-0.4892529845237732,-0.2638993263244629,-0.34704458713531494,0.2919873595237732,0.20383120729638174,0.08874301803686435,-0.4974918982495805,-0.8384983323350266,1.056155247263987,-0.10990116400753125,-2.600510015676353
1784373901746195456,0.54667067527771,7.115061283111572,-1.091193437576294,-1.7122063636779785,-0.04369308799505234,-0.9041141271591187,-0.4250514507293701,-0.05776258558034897,-0.14775049686431885,0.15898394584655762,0.19066231665630187,0.09575214616614132,-0.5275469684095684,-0.8222978344876162,1.1293018851195764,-0.10243503449936062,-2.6209931691836097
1784373901756114688,0.5565898418426514,7.037032604217529,-1.0598350763320923,-1.8760451078414917,-0.031396955251693726,-0.9322697520256042,-0.3603987395763397,-0.15581312775611877,0.08958792686462402,0.0894637405872345,0.1767942643827113,0.1025636879339768,-0.5561306690233094,-0.8055700386682328,1.2006370936405841,-0.0868978860799575,-2.650002452864304
1784373901766034688,0.5665097236633301,7.12084436416626,-0.9880017638206482,-2.052565336227417,-0.01629425771534443,-0.9557470083236694,-0.2937384843826294,-0.2604391276836395,0.16320550441741943,0.013144612312316895,0.1621926303920008,0.10989791692698071,-0.5839976071024807,-0.7877581450895975,1.2721885997395788,-0.055415194295701305,-2.6945566704639603
1784373901775953408,0.5764286518096924,7.07681131362915,-0.987111508846283,-2.260976791381836,0.0019077225588262081,-0.9742215871810913,-0.2255849540233612,-0.28762856125831604,0.16877120733261108,0.012267127633094788,0.14670558421832794,0.1178136913871783,-0.6110052819512186,-0.7689407492143879,1.3432443508337253,0.008456579192814472,-2.771267607474221
1784373901785873664,0.5863487720489502,6.906607627868652,-1.031044363975525,-2.358846426010132,0.022617867216467857,-0.9872376322746277,-0.1576405167579651,-0.20187810063362122,0.14107662439346313,0.050905272364616394,0.13036346769718576,0.12581878074989938,-0.6366705409393276,-0.7495503676181967,1.4108612274062002,0.14250495775839464,-2.9186088883071046
1784373901795793408,0.5962684154510498,6.65535831451416,-1.0125133991241455,-2.3218297958374023,0.044393401592969894,-0.9948486089706421,-0.09113477170467377,-0.202565997838974,0.10980832576751709,0.03746962547302246,0.11395669587647776,0.13359224072056303,-0.6607463403045376,-0.7297816811738318,1.4692501000884337,0.45328910559944313,3.0406625658093063
1784373901805712128,0.6061873435974121,6.283434867858887,-1.0496554374694824,-2.3435442447662354,0.06682369858026505,-0.9973775148391724,-0.027800042182207108,-0.23164913058280945,0.11497700214385986,0.02795267105102539,0.0976298299487946,0.1409138276421661,-0.6828200876763398,-0.7101890635703595,1.4983581644448718,1.1765557500407693,2.3042352989736945
1784373901815632384,0.6161074638366699,6.007470607757568,-1.0864616632461548,-2.3427672386169434,0.09002310782670975,-0.9954174160957336,0.03224758058786392,-0.24111565947532654,0.10196959972381592,-0.004171375185251236,0.0812378795406112,0.14782527072078708,-0.7030444366902716,-0.6908520582659436,1.47502483891311,1.9147703522937913,1.5525756834062487
1784373901825552128,0.6260273456573486,5.625997066497803,-1.073702096939087,-2.3023948669433594,0.11361268907785416,-0.9895830154418945,0.08841733634471893,-0.27364686131477356,0.09912586212158203,-0.0060503482818603516,0.06504870834774112,0.15436536748818636,-0.7213736918327832,-0.6719821547738549,1.4263310732539651,2.2321241390228943,1.2218469170700124
1784373901835471360,0.63594651222229,5.1231207847595215,-1.0905723571777344,-2.260408639907837,0.13711731135845184,-0.9806459546089172,0.1397586166858673,-0.29869264364242554,0.12705403566360474,-0.019168376922607422,0.04928008927516962,0.16041838895532876,-0.7376620161252858,-0.6539818116296323,1.3737338712164107,2.3657338592583312,1.0749768568592784
1784373901845391360,0.6458663940429688,4.793972969055176,-1.2121226787567139,-2.2602384090423584,0.1608223021030426,-0.9693034887313843,0.18597470223903656,-0.3264412581920624,0.1194654107093811,-0.09996095299720764,0.03368345478142815,0.16597407660991062,-0.7519574153419356,-0.6370854845553066,1.3223818534431562,2.4285954343240315,0.9985156009993184
1784373901855311360,0.6557865142822266,4.500172138214111,-1.3001092672348022,-2.3391292095184326,0.18527285754680634,-0.9558244943618774,0.22819654643535614,-0.34216371178627014,0.13955557346343994,-0.14738595485687256,0.017785821081967502,0.1710879325692002,-0.7647399529315045,-0.6209552777617724,1.27245211605136,2.4596374253964393,0.9528909941581595
1784373901865230336,0.6657054424285889,3.9844589233398438,-1.3355093002319336,-2.4575464725494385,0.2111138105392456,-0.9406542778015137,0.2657080888748169,-0.33881455659866333,0.13573777675628662,-0.1111060082912445,0.0016303945529533694,0.17629560982349538,-0.7757408735423588,-0.6059235898825059,1.2245530480208753,2.470194231326906,0.9275422697422788
1784373901875150336,0.6756255626678467,3.4317712783813477,-1.3850127458572388,-2.428300380706787,0.23760151863098145,-0.9248530268669128,0.2969723045825958,-0.29152607917785645,0.002855956554412842,-0.03888511657714844,-0.014429637465124311,0.18133509765647282,-0.7846041934987237,-0.5927104445725447,1.1806489036803427,2.466803117381075,0.9159772617504497
1784373901885069312,0.685544490814209,2.8952796459198,-1.3181514739990234,-2.282358407974243,0.26324403285980225,-0.9092905521392822,0.3223254680633545,-0.31722959876060486,-0.11671054363250732,0.06262341141700745,-0.029635924163047514,0.1860586888589056,-0.7915458897870021,-0.5813425301777667,1.1415761006687428,2.4567498471648244,0.9117388595023938
1784373901894989312,0.6954643726348877,2.5419981479644775,-1.23769211769104,-2.180751085281372,0.2874356508255005,-0.8942803144454956,0.3429921567440033,-0.3716793954372406,-0.0696936845779419,0.06725573539733887,-0.043719759130691746,0.1905103205901538,-0.796995541142449,-0.5714827697167362,1.1068203851100482,2.4440925204596997,0.911214205686906
1784373901904909312,0.7053844928741455,2.506969451904297,-1.1764777898788452,-2.03066349029541,0.31003814935684204,-0.8793198466300964,0.3614869713783264,-0.33233126997947693,0.1261919140815735,-0.005346804857254028,-0.05688595136351287,0.19462278058436216,-0.8017889084042799,-0.5621569863691109,1.0744321600032831,2.4326599647333955,0.9102183947321494
1784373901914828288,0.7153034210205078,2.567000150680542,-1.1543525457382202,-1.9459550380706787,0.33154165744781494,-0.8636245131492615,0.37978023290634155,-0.29862841963768005,0.2699660658836365,-0.07916676998138428,-0.06971493498602985,0.1982640255073732,-0.8065863233466696,-0.5524941463936687,1.0424155633682604,2.423906230098025,0.9062961986297684
1784373901924748544,0.7252235412597656,2.7790472507476807,-1.2196911573410034,-1.8181406259536743,0.352159708738327,-0.8469502925872803,0.39831963181495667,-0.2839834690093994,0.2526510953903198,-0.16626399755477905,-0.08246082047339763,0.20130310584657232,-0.8115644603381726,-0.5422548517549404,1.0102227464879652,2.4176243426204334,0.8990851665863185
1784373901934668288,0.7351434230804443,2.9568679332733154,-1.283077359199524,-1.6972804069519043,0.37161263823509216,-0.8290659785270691,0.41779622435569763,-0.22935494780540466,0.15911364555358887,-0.20887279510498047,-0.09516519274056186,0.20346423085434143,-0.8170069869429539,-0.5310795665595311,0.9774352330323679,2.4146318765781545,0.8872872910613145
1784373901944587264,0.7450623512268066,2.864901304244995,-1.3074159622192383,-1.6869417428970337,0.3909626007080078,-0.8102372884750366,0.4366506040096283,-0.2350788116455078,0.008052289485931396,-0.21989956498146057,-0.10801305851002073,0.20526671391598544,-0.8223082631141604,-0.5196228027065934,0.9445568420143776,2.4113430645808545,0.874942401600693
1784373901954507264,0.7549824714660645,2.607985258102417,-1.362367868423462,-1.4807100296020508,0.409437894821167,-0.79181969165802,0.4531911015510559,-0.17358282208442688,-0.1401260495185852,-0.21735122799873352,-0.1204996414157171,0.20649035492273354,-0.8270170970785534,-0.5088067126927158,0.9137826538094962,2.406871833128549,0.8632889718957886
1784373901964427264,0.7649023532867432,2.4227747917175293,-1.265979528427124,-1.2058128118515015,0.42596715688705444,-0.7748088836669922,0.467143714427948,-0.15204137563705444,-0.1983051300048828,-0.18053781986236572,-0.13209792529899797,0.2068048652190249,-0.831145959980689,-0.4989772579592936,0.8864127224990466,2.402266503930293,0.8515391670615289
1784373901974346496,0.7748215198516846,2.2039308547973633,-1.223768949508667,-1.039824366569519,0.4402351379394531,-0.7591070532798767,0.47953087091445923,-0.17866888642311096,-0.14099377393722534,-0.15193980932235718,-0.14256570571328975,0.20636581073003374,-0.8349722077595326,-0.48980579430851223,0.8619403246389029,2.3988921371395433,0.8389446276905148
1784373901984266240,0.7847414016723633,1.943673849105835,-1.2613033056259155,-0.8305822014808655,0.45352253317832947,-0.7450220584869385,0.48914140462875366,-0.19392481446266174,-0.006015479564666748,-0.06064409017562866,-0.15250549306020916,0.20535248246980908,-0.8380937102276149,-0.4818415921943693,0.8405679004440876,2.393961881751499,0.8276630503187277
1784373901994185472,0.7946605682373047,1.9248121976852417,-1.216381311416626,-0.8100745677947998,0.46554967761039734,-0.7318312525749207,0.49768075346946716,-0.1718791425228119,-0.056742846965789795,-0.1299898326396942,-0.161851731323237,0.2037819550044916,-0.8410191981259132,-0.47430318983065595,0.8210052342131986,2.3895397347272214,0.8157876500384721
1784373902004105216,0.8045804500579834,1.610985279083252,-1.3054256439208984,-0.8930844664573669,0.4781031310558319,-0.7190127968788147,0.5044187903404236,-0.17704716324806213,-0.10294771194458008,-0.07756942510604858,-0.17115152656554972,0.20263717853563248,-0.8432956534136348,-0.46743756547490817,0.8023808488041897,2.3829718521733256,0.8066545904008563
1784373902014025472,0.8145005702972412,1.038586974143982,-1.4447818994522095,-0.8605896830558777,0.49111366271972656,-0.7080148458480835,0.5074665546417236,-0.023935317993164062,-0.0856558084487915,-0.026906371116638184,-0.18040348311423635,0.2016380937692114,-0.8444378985704631,-0.4622999821663612,0.7866831529985057,2.3725691971919765,0.8015207311445036
1784373902023944448,0.8244194984436035,1.4267020225524902,-1.4030442237854004,-0.6564781069755554,0.5036476850509644,-0.6985887885093689,0.5082446932792664,0.06423860788345337,-0.0854077935218811,-0.1727345585823059,-0.18946982476717666,0.20015491439920458,-0.8450209275404278,-0.45823444633429616,0.7734232751255432,2.3607374603240507,0.7972523240884518
1784373902033864192,0.8343393802642822,1.1125435829162598,-1.4017046689987183,-0.7785401344299316,0.516883909702301,-0.6879745125770569,0.5094336271286011,-0.0014571547508239746,0.0029157400131225586,-0.05815482139587402,-0.1992506876935323,0.19830540332237476,-0.8458083639066983,-0.45341208678602246,0.7586943756250744,2.348935376381231,0.7912024711944289
1784373902043784448,0.84425950050354,1.2534815073013306,-1.5002586841583252,-0.7731038928031921,0.5292817950248718,-0.6781554222106934,0.5098689198493958,0.07592761516571045,-0.08161026239395142,-0.0575830340385437,-0.20838053335401732,0.19659633645859292,-0.8463358277386267,-0.44904698174896973,0.7452497793604764,2.3375151574996607,0.7858840217741946
1784373902053703424,0.8541784286499023,1.1912533044815063,-1.5497268438339233,-0.7688721418380737,0.5419327020645142,-0.6678315997123718,0.5102055668830872,0.10896140336990356,-0.1540524959564209,-0.012006223201751709,-0.21777468730432492,0.19474679139400627,-0.84686272906442,-0.44437747076037115,0.7312916622036574,2.3260487339904685,0.7798797223436025
1784373902063623424,0.8640985488891602,1.0751994848251343,-1.504068374633789,-0.6407946348190308,0.5544719099998474,-0.6580206155776978,0.509479820728302,0.1662921905517578,-0.11131221055984497,-0.000980675220489502,-0.22718566172139285,0.19266126390447774,-0.847125458412464,-0.4400531140293962,0.7181870972064895,2.313931957345005,0.7740299782200282
1784373902073543424,0.8740184307098389,0.74092036485672,-1.5399811267852783,-0.5795784592628479,0.5661389827728271,-0.6499576568603516,0.5069930553436279,0.15796691179275513,-0.04706388711929321,-0.035511672496795654,-0.23611074291127654,0.19026555745899768,-0.8469330248006445,-0.4367553930448189,0.7075287069326125,2.301134960220793,0.7690609238205327
1784373902083462144,0.8839373588562012,0.3578812777996063,-1.639336109161377,-0.5894697308540344,0.5779234766960144,-0.6438243389129639,0.5014921426773071,0.15578007698059082,-0.027898013591766357,-0.048779189586639404,-0.24492646659801562,0.18802831637829068,-0.8458081566981601,-0.43504578849240505,0.699485813526458,2.2855044486981733,0.767302293595127
1784373902093382400,0.893857479095459,-0.0921844094991684,-1.6774160861968994,-0.5068933367729187,0.5897819399833679,-0.6399492025375366,0.4925670325756073,0.16539078950881958,-0.07500135898590088,0.011796951293945312,-0.2535856211648352,0.186032762853464,-0.8436085176491841,-0.43521353087709147,0.6944321744984685,2.266616424514343,0.7694257743104818
1784373902103302144,0.9037773609161377,-0.4034257233142853,-1.5341042280197144,-0.43900448083877563,0.6005197167396545,-0.6384403109550476,0.48142483830451965,0.1783497929573059,-0.09364581108093262,0.03989163041114807,-0.26140520261694467,0.18420820467909507,-0.8407019437592184,-0.43698379418646327,0.6924700883154211,2.2465610119347357,0.7743394527108776
1784373902113221376,0.9136965274810791,-0.5140371918678284,-1.464186191558838,-0.4330587089061737,0.6101568341255188,-0.6381635665893555,0.46952760219573975,0.22474312782287598,-0.0845995545387268,0.02247685194015503,-0.26830568366210256,0.18285991260947185,-0.8374521199681844,-0.4396002087206637,0.692110587849542,2.2266733404647745,0.7813014507934333
1784373902123141376,0.9236164093017578,-0.4645029902458191,-1.310961127281189,-0.291881263256073,0.6189097166061401,-0.6380026936531067,0.45815181732177734,0.2850514054298401,-0.12663042545318604,0.005501687526702881,-0.27475105519486687,0.18144664342814476,-0.834357849231753,-0.44208130782392696,0.6919016948024521,2.2080322234699765,0.7876250014202515
1784373902133060096,0.9335353374481201,-0.37670600414276123,-1.1527968645095825,-0.07139520347118378,0.6254835724830627,-0.638961136341095,0.4477709233760834,0.3399246335029602,-0.11550962924957275,0.026228129863739014,-0.2801840397610611,0.17931446927854142,-0.8317041410143697,-0.4445350222275005,0.6931469940525883,2.1921004095342216,0.7917468976470304
1784373902142980352,0.9434554576873779,-0.20603348314762115,-1.0532913208007812,0.01824433170258999,0.6304561495780945,-0.6400793194770813,0.43911704421043396,0.3391636610031128,-0.09045052528381348,0.014755666255950928,-0.2848971555679056,0.17665073734614747,-0.8296704430372536,-0.44640249783585795,0.6946015153783012,2.17917406775852,0.7931684489331147
1784373902152900096,0.9533753395080566,-0.21311216056346893,-0.8267165422439575,0.2311834990978241,0.6338781118392944,-0.6416579484939575,0.43182599544525146,0.33113348484039307,-0.11865705251693726,0.013791680335998535,-0.28876710021977847,0.17368846928520407,-0.8280974097911855,-0.44799617871825065,0.696657905298019,2.168823521464509,0.7928949251267905
1784373902162819328,0.963294506072998,-0.44314756989479065,-0.6512734889984131,0.2414052039384842,0.6354332566261292,-0.6445034742355347,0.42525291442871094,0.2682685852050781,-0.23139679431915283,0.022562026977539062,-0.2913574242670892,0.17077615616359135,-0.8267175832744842,-0.44998273791269366,0.7003737228345601,2.1605735317145807,0.7926827690391667
1784373902172739328,0.9732143878936768,-0.8210434913635254,-0.5025253295898438,0.3080417811870575,0.636238157749176,-0.6487486958503723,0.4175242483615875,0.319068968296051,-0.27599507570266724,0.09538480639457703,-0.2930422000782595,0.16861496656392358,-0.8248218681875057,-0.45317137579964245,0.7059390303168142,2.151544918706618,0.7959370012967484
1784373902182659328,0.9831345081329346,-1.0884010791778564,-0.36390265822410583,0.4475858509540558,0.6355895400047302,-0.6551030874252319,0.40849214792251587,0.3619842529296875,-0.3036370873451233,0.12408539652824402,-0.29363848841761114,0.16664928025466058,-0.822480449909629,-0.45774483857819975,0.714319039495963,2.1420212229082125,0.8018324922216985
1784373902192578304,0.9930534362792969,-1.2274806499481201,-0.31537026166915894,0.5868315696716309,0.633549153804779,-0.6630393862724304,0.3987404406070709,0.3323168158531189,-0.33969181776046753,0.1449149250984192,-0.29328045514059375,0.1647307084055994,-0.8198987796909689,-0.46326693446306916,0.7248716859352746,2.1325360125000237,0.8093592793098833
1784373902202498560,1.0029735565185547,-1.2178820371627808,-0.26046931743621826,0.6623553037643433,0.6305965185165405,-0.6717525720596313,0.38871198892593384,0.2974279522895813,-0.3426366448402405,0.1571865975856781,-0.29247498279850237,0.16256502646475934,-0.8172689910432848,-0.4691508918050368,0.7365720820994626,2.12320157559881,0.8171025241436332
1784373902212418304,1.0128934383392334,-1.2197728157043457,-0.08257733285427094,0.8169654011726379,0.6263262033462524,-0.6809836626052856,0.37944233417510986,0.227586030960083,-0.3433235287666321,0.17400914430618286,-0.2908728494884603,0.16026896693322287,-0.8148834446452404,-0.47504918649228894,0.7491050371000849,2.1154858733598862,0.824297106154241
1784373902222337280,1.0228123664855957,-1.0970737934112549,0.06575891375541687,0.9563217759132385,0.6202250123023987,-0.690923810005188,0.3714093863964081,0.18636977672576904,-0.38594990968704224,0.16731736063957214,-0.28825983942515343,0.15759033383761933,-0.8129390973709786,-0.4808341430429058,0.7627661607773831,2.1103551290043714,0.8299224276958126
1784373902232257280,1.0327324867248535,-0.9517272710800171,0.22995531558990479,1.053238868713379,0.6127691268920898,-0.7006912231445312,0.3654394745826721,0.20060068368911743,-0.433113157749176,0.18897345662117004,-0.2848243476460641,0.15476265261697428,-0.8116454005968172,-0.48595825463351106,0.7763658598549407,2.1085452626928087,0.8332504100516883
1784373902242177280,1.0426523685455322,-0.9399917125701904,0.21154065430164337,1.2774264812469482,0.6037503480911255,-0.7110938429832458,0.36032116413116455,0.2968081831932068,-0.45478445291519165,0.27069091796875,-0.28072640702836654,0.15130805653954982,-0.8107197092843343,-0.49095029298622483,0.7910527097087805,2.108863169211262,0.8345313300499235
1784373902252096512,1.0525715351104736,-1.1246699094772339,0.06083343178033829,1.5805137157440186,0.5931488871574402,-0.7231605052947998,0.3538548946380615,0.38623642921447754,-0.4587394595146179,0.33193621039390564,-0.27635721394664725,0.1466535299093789,-0.8095802505634511,-0.4966882725937936,0.8083673652471804,2.1086900301031295,0.834964841366915
1784373902262016256,1.0624914169311523,-1.5948691368103027,0.08529559522867203,1.8482111692428589,0.5804256200790405,-0.7378200888633728,0.3445688486099243,0.395846962928772,-0.5047031044960022,0.3294881582260132,-0.27129985692234393,0.14100536182500809,-0.8077140072445971,-0.5040952144790661,0.8298350828116289,2.106532575150931,0.837061003873346
1784373902271935232,1.0724103450775146,-2.397369623184204,0.044296227395534515,1.9793561697006226,0.5660510063171387,-0.7553364038467407,0.3302324712276459,0.3501020669937134,-0.5740857124328613,0.3571454584598541,-0.2652492089041567,0.1355393288531739,-0.8042047812923898,-0.5143216247424421,0.8561673217147661,2.0989183244919025,0.8465558805022478
1784373902281855232,1.0823304653167725,-3.2809150218963623,0.09715224802494049,2.1511521339416504,0.550190806388855,-0.7757708430290222,0.30898213386535645,0.35212254524230957,-0.5970014929771423,0.37552717328071594,-0.2582528616122103,0.1304909133852937,-0.7984129166671408,-0.5280288837835609,0.8879357970778315,2.0824949135748443,0.867051847056081
1784373902291775232,1.0922503471374512,-4.161845684051514,0.3019014000892639,2.1527740955352783,0.5327761173248291,-0.7982707023620605,0.2809154689311981,0.3675382137298584,-0.563255786895752,0.3426196575164795,-0.2493576217919697,0.12720799251309228,-0.790111300852788,-0.5453100554861776,0.9244185801350167,2.056019135617077,0.9031432590855712
1784373902301694464,1.1021695137023926,-4.718978404998779,0.3790130317211151,2.233116865158081,0.5143391489982605,-0.8213011026382446,0.24681854248046875,0.44260042905807495,-0.5984222888946533,0.287406861782074,-0.23917120675705159,0.1251280473533744,-0.779584662501078,-0.5651439701506432,0.9636879231044929,2.0182147949748592,0.954167167829906
1784373902311614208,1.1120893955230713,-4.6367645263671875,0.29474449157714844,2.3649914264678955,0.4945699870586395,-0.8434479832649231,0.20975327491760254,0.5449961423873901,-0.5831268429756165,0.20255449414253235,-0.22838041077519722,0.12275841090150587,-0.7679889407911141,-0.585632922957465,1.003669554722481,1.9719149534502922,1.0139354876451636
1784373902321534464,1.122009515762329,-4.410071849822998,0.2027028352022171,2.5246975421905518,0.4734947979450226,-0.8637184500694275,0.17260751128196716,0.5841682553291321,-0.49025505781173706,0.24900807440280914,-0.21753927728974945,0.11929982929940271,-0.7563539561696763,-0.6052875502866298,1.0426019559708857,1.9203646830364631,1.077182350448401
1784373902331453440,1.1319284439086914,-4.184815406799316,0.12217310816049576,2.6452796459198,0.4508482813835144,-0.8821244239807129,0.1363532543182373,0.5695221424102783,-0.38533157110214233,0.2566063404083252,-0.20647432861353568,0.11477689506041594,-0.7449851596265092,-0.6238523016627445,1.0803536741484294,1.8644874915340186,1.1433263467962334
1784373902341373440,1.1418485641479492,-4.03464412689209,0.15387335419654846,2.6547036170959473,0.4273706376552582,-0.8984571695327759,0.10064443945884705,0.5838751792907715,-0.27257871627807617,0.24208320677280426,-0.19546574245985163,0.10954908822685494,-0.7337037661548163,-0.6414600818207304,1.116242848322834,1.802079081652059,1.2147214755456144
1784373902351293440,1.151768445968628,-4.023074150085449,0.28814247250556946,2.6564559936523438,0.40380072593688965,-0.9124823808670044,0.06573274731636047,0.5890581011772156,-0.27008897066116333,0.23568940162658691,-0.18411229893100428,0.10466511686538232,-0.7224344861869982,-0.6582068308699638,1.1493111979358939,1.732165992592711,1.29446581280633
1784373902361212160,1.1616873741149902,-4.089718341827393,0.3441706895828247,2.6582934856414795,0.37952831387519836,-0.9246887564659119,0.030150728300213814,0.5902745723724365,-0.37651973962783813,0.21296751499176025,-0.17213040734880244,0.0999351137478963,-0.7106956710038406,-0.6747560999531409,1.180217219160405,1.6500724601975627,1.387395419579124
1784373902371132416,1.171607494354248,-4.329405307769775,0.2538279891014099,2.758500576019287,0.3546368181705475,-0.9349756240844727,-0.007319973316043615,0.5922168493270874,-0.5242072343826294,0.28339719772338867,-0.15988506885593917,0.09502777004323004,-0.6980757382648206,-0.6914455035161051,1.2081903195828714,1.55015849852534,1.4981506015579669
1784373902381052160,1.1815273761749268,-4.715005874633789,0.1726352870464325,2.8523316383361816,0.32835063338279724,-0.9432920813560486,-0.048846203833818436,0.5569947957992554,-0.5689759850502014,0.40820592641830444,-0.1472982715302812,0.08949435258930215,-0.683789192393612,-0.70903196091245,1.2324114457257305,1.4231170471658934,1.6355205740481147
1784373902390971392,1.1914465427398682,-5.0506815910339355,0.09891553223133087,2.7827796936035156,0.30211520195007324,-0.9486088156700134,-0.09416773170232773,0.47890588641166687,-0.4496607780456543,0.4714108109474182,-0.13476810625772093,0.08396981017070554,-0.6677313875065704,-0.7272697756198219,1.248810297767667,1.268645208619849,1.8001499868270399
1784373902400891392,1.2013664245605469,-5.346325874328613,0.14073392748832703,2.764385461807251,0.2761608362197876,-0.950404703617096,-0.1430593878030777,0.3960650861263275,-0.3474467992782593,0.5621725916862488,-0.12218067550656907,0.07865796050160612,-0.6498332307191911,-0.7460573348815214,1.2545346401817896,1.0928295375519361,1.9864247711497849
1784373902410811392,1.2112865447998047,-5.076844692230225,-0.013741929084062576,2.781916618347168,0.25034379959106445,-0.9488840103149414,-0.19221603870391846,0.38001197576522827,-0.3386678099632263,0.606537938117981,-0.10958844551558233,0.07326009409925677,-0.6312883144735929,-0.7642632464444999,1.2496810330262969,0.9159950002826334,2.1735458981938254
1784373902420730368,1.221205472946167,-4.432272434234619,-0.08672170341014862,2.8852601051330566,0.22358809411525726,-0.9453832507133484,-0.23718969523906708,0.39419448375701904,-0.2940271496772766,0.6801828145980835,-0.09725787318409605,0.06673041160982289,-0.6139643356371549,-0.7804715073246039,1.238768283393368,0.755887965159531,2.3419270942627644
1784373902430650112,1.2311253547668457,-3.4868662357330322,-0.09733866155147552,2.985004425048828,0.19583316147327423,-0.9414054751396179,-0.274599552154541,0.3268566131591797,-0.19815129041671753,0.748720645904541,-0.08480546674375238,0.059324293929588386,-0.5993169920631364,-0.7937932392790645,1.2267735714956582,0.6195030843654361,2.4855116009509914
1784373902440569344,1.241044521331787,-2.3928990364074707,-0.03827717527747154,3.002465009689331,0.16762007772922516,-0.9383986592292786,-0.3021779954433441,0.25530779361724854,-0.10817116498947144,0.748818039894104,-0.07236132818525186,0.05130177651948581,-0.5884548699823441,-0.8036497452874876,1.2179667079083079,0.5064494067760249,2.604890085973529
1784373902450489344,1.2509644031524658,-1.4301813840866089,0.174843892455101,3.010805606842041,0.1397002786397934,-0.9371523857116699,-0.3197331726551056,0.1634613573551178,-0.05170869827270508,0.6593022346496582,-0.05976381827816702,0.04331650110069504,-0.5815987417744564,-0.8101203113325818,1.2143775396253735,0.41192998334966563,2.7060279115609984
1784373902460409344,1.2608845233917236,-0.9890486001968384,0.6262503862380981,2.7143561840057373,0.11427871137857437,-0.9370324611663818,-0.33001628518104553,0.04471791535615921,-0.07708203792572021,0.43450847268104553,-0.04677819483003193,0.03699646622673466,-0.5776011705281763,-0.8141376240335333,1.2140339088368288,0.3333587553674613,2.794177515678892
1784373902470328320,1.270803451538086,-1.3819278478622437,0.8537498712539673,2.4022669792175293,0.09325550496578217,-0.935878574848175,-0.33975666761398315,0.048758022487163544,-0.1691322922706604,0.27731767296791077,-0.034111241861160956,0.033092346612262215,-0.5736083721233916,-0.8177497728676317,1.2107445703419664,0.2678802339456913,2.872247717928447
1784373902480248576,1.2807235717773438,-2.2816836833953857,0.6777403950691223,2.361712694168091,0.073818638920784,-0.9316271543502808,-0.3558395802974701,0.059161730110645294,-0.19027531147003174,0.24509131908416748,-0.021950610541317677,0.029729060852382472,-0.5667419074679607,-0.8230662564927519,1.1988648035723055,0.2045478783122316,2.9482383253463844
1784373902490168320,1.2906434535980225,-3.278715133666992,0.5478598475456238,2.128041982650757,0.055314064025878906,-0.9228753447532654,-0.3811055123806,-0.045899398624897,-0.08856868743896484,0.22661033272743225,-0.010655569711185487,0.02615887978117115,-0.5556644280918562,-0.8309267090546864,1.175481455641322,0.14413459424128464,3.0198188756292845
1784373902500087296,1.3005623817443848,-4.159677028656006,0.5286608934402466,1.8442720174789429,0.03936564177274704,-0.90913987159729,-0.41462641954421997,-0.14715373516082764,-0.012719869613647461,0.19750910997390747,-0.0005114591202268723,0.023074830525199642,-0.5405130329311302,-0.8410189883091514,1.1412141402988645,0.09465869390019578,3.079595326626918
1784373902510007296,1.3104825019836426,-5.033080577850342,0.5233643651008606,1.6714307069778442,0.026100579649209976,-0.8898499011993408,-0.45550617575645447,-0.17511792480945587,0.00505375862121582,0.21763694286346436,0.008696383238272608,0.02061366685720184,-0.521365505805553,-0.8530400833304547,1.0970160312378112,0.05723757877631709,3.126999837282375
1784373902519927296,1.3204023838043213,-5.776224136352539,0.7043095231056213,1.6358270645141602,0.014566965401172638,-0.8644232153892517,-0.5025537014007568,-0.20575959980487823,0.012616634368896484,0.2505548596382141,0.017854566008023657,0.01867308967902062,-0.49837180061125225,-0.866578331362605,1.0440019948063288,0.028977772876906564,-3.117060868501511
1784373902529846528,1.3303215503692627,-6.237722873687744,0.6861459612846375,1.5301849842071533,0.004823376424610615,-0.8329972624778748,-0.5532561540603638,-0.28750768303871155,0.014851510524749756,0.28309929370880127,0.02695396180128665,0.017190504904575566,-0.4723096479379953,-0.8808528020035964,0.9845030785643503,0.00871794027396304,-3.0850873669529277
1784373902539766272,1.3402414321899414,-6.678110599517822,0.6299276947975159,1.4068388938903809,-0.0033308665733784437,-0.795925498008728,-0.6053853631019592,-0.33796247839927673,0.08762776851654053,0.333962082862854,0.035403981073857504,0.015695320296765142,-0.4439155005313387,-0.8952313452954234,0.9205347938164606,-0.005502004344750462,-3.059811441811142
1784373902549686528,1.3501615524291992,-7.322650909423828,0.6034811735153198,1.2472279071807861,-0.009602527134120464,-0.752083420753479,-0.6589980125427246,-0.43848708271980286,0.210457444190979,0.3483290672302246,0.04315988949053961,0.014300188110533808,-0.41266997311617626,-0.909745163164432,0.8512175538946256,-0.014570374213060613,-3.040175190032385
1784373902559605248,1.3600804805755615,-7.826188087463379,0.5653008818626404,1.1087599992752075,-0.0139829246327281,-0.7001608610153198,-0.7138482332229614,-0.5586336255073547,0.3233755826950073,0.2967797517776489,0.05021284715752776,0.012972037134258181,-0.3780312216555645,-0.9243391502564293,0.7756227456458191,-0.01958558629199973,-3.0250525096243455
1784373902569525248,1.3700003623962402,-7.498080253601074,0.3487222194671631,0.933940052986145,-0.01727171801030636,-0.6431568264961243,-0.7655396461486816,-0.6373608708381653,0.49056899547576904,0.23825699090957642,0.05621983299592121,0.011305021421419308,-0.34220224043086966,-0.937874761210138,0.6986137706204627,-0.022557665703019942,-3.0136314265661683
1784373902579445248,1.379920482635498,-5.780663967132568,-0.16717980802059174,0.9771928191184998,-0.02240675501525402,-0.5906569957733154,-0.8066115975379944,-0.6375358700752258,0.7578475475311279,0.13305813074111938,0.06114219753647415,0.008226594116896194,-0.31084806637986073,-0.948455287918718,0.631872763913968,-0.027771722327315555,-3.0037620551701694
1784373902589364224,1.3898394107818604,-3.573636770248413,-0.2176070213317871,0.7483319640159607,-0.029391014948487282,-0.5523695945739746,-0.8330810070037842,-0.7731297612190247,1.0179762840270996,0.10204768180847168,0.0651099001179468,0.004305353302775548,-0.2888614829813339,-0.9551446037933066,0.5852042010190286,-0.035265273332539177,-2.994843451724274
1784373902599284480,1.3997595310211182,-1.553035855293274,0.06048600375652313,0.3972548544406891,-0.03306572511792183,-0.5312520861625671,-0.8465682864189148,-0.9215546250343323,0.9683706760406494,0.12626194953918457,0.06785983320781097,0.002360010624201677,-0.276966206375222,-0.9584775939893326,0.5600777920911867,-0.039038701473627944,-2.9890006528783064
1784373902609203456,1.4096784591674805,-0.35382726788520813,-0.03255179524421692,-0.10184149444103241,-0.03333530202507973,-0.523841917514801,-0.8511629700660706,-0.9326375722885132,0.8038864731788635,0.21143823862075806,0.06854869825432422,0.0021171823296978615,-0.27278935542210303,-0.9596262823141738,0.5513550125746648,-0.03914441280759253,-2.987895033020829
1784373902619123200,1.4195983409881592,0.25204482674598694,-0.1306501030921936,-0.3637431263923645,-0.032396748661994934,-0.5239936113357544,-0.851105809211731,-0.8509498238563538,0.7625343203544617,0.18708914518356323,0.06721420234305205,0.0022302700483256355,-0.2728408221182494,-0.9597057770994315,0.551533121806209,-0.03804593576317262,-2.99098119338338
1784373902629043456,1.429518461227417,0.5793912410736084,-0.2729518413543701,-0.5378331542015076,-0.03190319985151291,-0.528166651725769,-0.8485412001609802,-0.8408079743385315,0.837096095085144,0.14846795797348022,0.06486059343359514,0.0019775960740340335,-0.2751826489080295,-0.9591994553072177,0.5564400234536149,-0.03758000417178306,-2.995824111869849
1784373902638962176,1.4394373893737793,-0.36582401394844055,-0.025702526792883873,-0.5606789588928223,-0.029934028163552284,-0.5291114449501038,-0.8480241894721985,-0.9006537199020386,0.8975654244422913,0.360856831073761,0.062197340730583354,0.0022701927424255363,-0.2756496701737066,-0.9592411882547033,0.5575530681261869,-0.035283904119215316,-3.001993368078981
1784373902648882432,1.449357509613037,-0.36152008175849915,0.2338680624961853,-0.5242799520492554,-0.02623763494193554,-0.5264706611633301,-0.8497883677482605,-0.8490980267524719,0.5543789863586426,0.240428626537323,0.05946328620578414,0.0033089449899094724,-0.27403443296176977,-0.9598741430611141,0.554443976909362,-0.03086568718040908,-3.0090692655846825
1784373902658802176,1.4592773914337158,-1.8680351972579956,0.35804226994514465,-0.5318344235420227,-0.02105477638542652,-0.5168606042861938,-0.8558106422424316,-0.8057884573936462,0.43696558475494385,0.6549134254455566,0.05718039322952126,0.0050158357597458025,-0.26845767110867363,-0.9615798461645114,0.5431796332123295,-0.02459718292780431,-3.0159525450628832
1784373902668721408,1.4691965579986572,-2.1698081493377686,-0.0895962119102478,-0.5992267727851868,-0.01754280924797058,-0.4992782771587372,-0.8662641048431396,-0.876988410949707,0.2517502009868622,0.47995734214782715,0.054447401482568006,0.0055004045336309705,-0.2585298872038944,-0.964451958558668,0.5227656026352108,-0.020248342284893604,-3.0233872454694732
1784373902678641408,1.479116439819336,-1.58755624294281,0.1604463756084442,-0.6185488700866699,-0.014105216600000858,-0.4827021062374115,-0.8756710290908813,-0.8601165413856506,0.3646295964717865,0.22090113162994385,0.051060924607173985,0.005868007750096184,-0.2492590022858007,-0.9670721046300538,0.5037374547924915,-0.0161065020648486,-3.0319468127271927
1784373902688561408,1.4890365600585938,-0.7801288962364197,-0.3813686668872833,-0.7938495874404907,-0.011778491549193859,-0.47279781103134155,-0.8810922503471375,-0.8200544118881226,0.7545360922813416,-0.09588223695755005,0.04835386043375082,0.006088386152453695,-0.24375564412132122,-0.9686114430914664,0.49246318392161076,-0.013367261427507549,-3.038474213398971
1784373902698480384,1.498955488204956,-1.0319334268569946,0.05836666002869606,-0.9528932571411133,-0.008630169555544853,-0.4649679958820343,-0.8852854371070862,-0.9034944772720337,0.8728659152984619,-0.08244222402572632,0.04411316326790913,0.006439793388313751,-0.239407213867895,-0.9698952159848296,0.4835984458618934,-0.009748151012193408,-3.0482863458917064
1784373902708400128,1.5088753700256348,-1.2731308937072754,0.24437753856182098,-1.058254361152649,-0.0013937561307102442,-0.4544698894023895,-0.8907610177993774,-0.6941781640052795,0.5378592014312744,-0.07057321071624756,0.03937151386042658,0.00874733623350139,-0.23354439756284565,-0.9715092919133443,0.4717770112322266,-0.0015646789408489746,-3.0602086196043823
1784373902718320384,1.5187954902648926,-1.4037296772003174,0.24292992055416107,-1.5286221504211426,0.004590042866766453,-0.443524032831192,-0.8962507247924805,-0.28378012776374817,0.360027939081192,-0.09662342071533203,0.03355115210255093,0.010203025433255412,-0.22753140518906428,-0.9731390264845856,0.45952677942753334,0.005121337921196345,-3.073863310214742
1784373902728239360,1.5287144184112549,-1.024782657623291,0.4773291051387787,-1.3872864246368408,0.014129801653325558,-0.4322252869606018,-0.9016549587249756,-0.15531937777996063,0.5099077820777893,-0.057115793228149414,0.02653330965943344,0.013273327100044413,-0.22135116898816018,-0.9747427924496737,0.446959018026473,0.01566968053082621,-3.0907258409507445
1784373902738159360,1.5386345386505127,-0.8684481978416443,0.7255800366401672,-1.962669014930725,0.028478382155299187,-0.4240274727344513,-0.9052014946937561,0.48430848121643066,0.6003732681274414,-0.3584856390953064,0.01952940277829131,0.018932747870430113,-0.21688894679132914,-0.975817297354806,0.43788775848540734,0.03145044851929155,-3.108569848008098
1784373902748079360,1.5485544204711914,-1.6136765480041504,-0.3910011053085327,-2.2866320610046387,0.038022808730602264,-0.41279616951942444,-0.9100294709205627,1.116518259048462,0.14837661385536194,-0.47066205739974976,0.010753575015074006,0.021776899121078927,-0.21097640366318587,-0.9771893813053291,0.42552186166678446,0.04175766550027203,-3.1286065282456064
1784373902757998336,1.5584733486175537,-0.8117831349372864,-0.21679438650608063,-1.825877070426941,0.042930666357278824,-0.4002794325351715,-0.915386974811554,1.0984114408493042,0.027430951595306396,-0.5510131120681763,0.0007226043733984364,0.022085334877698072,-0.20449631660635179,-0.9786178721257951,0.4118217367703168,0.046864586786515436,3.1332790596170437
1784373902767918336,1.5683934688568115,-0.4856409430503845,-0.7164326906204224,-1.0387142896652222,0.04543420672416687,-0.39520201086997986,-0.9174699783325195,0.9924533367156982,0.14749082922935486,-0.34838390350341797,-0.006929778313695008,0.021771987021721444,-0.20196783124359932,-0.9791256296078712,0.4062877525167199,0.04948077036004285,3.117243560128483
1784373902777838336,1.5783133506774902,-0.6789386868476868,-1.0399574041366577,-0.7191178202629089,0.039491914212703705,-0.38909679651260376,-0.9203500151634216,0.8288857936859131,0.31440502405166626,-0.12731844186782837,-0.010896170497753183,0.017942292173121883,-0.19875381639980216,-0.9798246939368561,0.3996509150926996,0.04288336175735894,3.110666145533965
1784373902787757312,1.5882325172424316,0.4272146224975586,-1.5026973485946655,-1.1825432777404785,0.03316568210721016,-0.3859740197658539,-0.9219132661819458,0.19522787630558014,-0.010144144296646118,-0.2962416410446167,-0.0168803130761182,0.013523816373992224,-0.19713058611019924,-0.9801386292411135,0.3962634402687859,0.035959331626927604,3.099931167131657
1784373902797678592,1.598153829574585,0.46570515632629395,-0.8404804468154907,-1.294737458229065,0.025903042405843735,-0.39087849855422974,-0.9200777411460876,-0.08773164451122284,-0.22792643308639526,-0.16308265924453735,-0.02418237925529238,0.008291385588687248,-0.19973077007715895,-0.979517326331396,0.4015858199347209,0.028145667024694565,3.0864975665052823
1784373902807598592,1.6080737113952637,1.3016138076782227,-0.33246225118637085,-1.2708104848861694,0.025999758392572403,-0.39766591787338257,-0.9171618223190308,-0.1578204333782196,-0.14203745126724243,-0.26937687397003174,-0.030530858947486573,0.006938464825685603,-0.20339846911655732,-0.9785953361650632,0.40897155817986103,0.028340469694435048,3.073337830795175
1784373902817517824,1.617992877960205,1.5659459829330444,-0.014750543981790543,-1.5040466785430908,0.03045949898660183,-0.41059359908103943,-0.911309540271759,0.11044016480445862,0.03989657759666443,-0.1936098337173462,-0.03734775261547631,0.007544559538056281,-0.2104478447470443,-0.9768623123888907,0.42310496466009506,0.033411439780797254,3.057988882608389
1784373902827437568,1.6279127597808838,0.9333137273788452,-0.34380167722702026,-0.6877745985984802,0.03200790658593178,-0.42247435450553894,-0.9058095216751099,0.331074982881546,-0.36786988377571106,-0.0010508298873901367,-0.04280044486007256,0.006891019650485591,-0.21690491837391726,-0.9752296649937998,0.43617352360500766,0.035321548166503895,3.046045405412424
1784373902837356800,1.6378319263458252,0.18618004024028778,-0.43483445048332214,-0.018007051199674606,0.0301273912191391,-0.42742863297462463,-0.9035469889640808,0.2326289564371109,-0.8094335794448853,0.21297991275787354,-0.04518723781588791,0.005277558992427822,-0.21954194878434652,-0.974541747331269,0.4416465790680717,0.0333311220252344,3.041440711609885
1784373902847276800,1.647751808166504,-0.9413144588470459,0.24019059538841248,0.28368061780929565,0.02834700234234333,-0.42340323328971863,-0.9054977297782898,0.10078813880681992,-0.6923346519470215,0.3547927737236023,-0.04469475607103899,0.004574268429774039,-0.21732510714293962,-0.9750647887011904,0.43719860221664164,0.031295214890090475,3.043028586627372
1784373902857196800,1.6576719284057617,-0.6583411693572998,0.2794491648674011,-0.2524784505367279,0.030283818021416664,-0.4166202247142792,-0.9085760712623596,0.11737549304962158,0.008600205183029175,0.09419924020767212,-0.04326493097666539,0.0060408817952090155,-0.21371820068444705,-0.9759181583800867,0.42972434867423404,0.03331874171501839,3.0457137827074616
1784373902867115776,1.667590856552124,0.13775303959846497,-0.016303926706314087,-0.1582249104976654,0.03413653001189232,-0.4149540364742279,-0.9092018008232117,0.3310062885284424,0.1653202474117279,-0.02048569917678833,-0.04514493119022791,0.007638769889167123,-0.2129337022409141,-0.9759932838473666,0.4278922695744684,0.03752797775700996,3.040993147472729
1784373902877035520,1.6775107383728027,-0.1627715528011322,0.3545079231262207,0.32211512327194214,0.035334262996912,-0.4142795503139496,-0.9094635248184204,0.4903310239315033,-0.466976523399353,0.07158821821212769,-0.04437853134500709,0.008434042548243896,-0.21259608271440153,-0.9760954314964826,0.4271510864207713,0.03883223507705214,3.0423014328366778
1784373902886955776,1.6874308586120605,-0.6471635103225708,-0.1640649288892746,0.25434672832489014,0.03626658394932747,-0.4109956622123718,-0.9109156727790833,0.35344287753105164,-0.4107358753681183,0.08248549699783325,-0.042292877756011954,0.009437517675022504,-0.2108390639725991,-0.9765598586671862,0.42354595329387773,0.03979231196427362,3.046474408123008
1784373902896874752,1.6973497867584229,-1.189416766166687,-0.15838424861431122,0.35436609387397766,0.033733781427145004,-0.4031875729560852,-0.9144954085350037,0.3185458779335022,-0.2467300295829773,0.16486161947250366,-0.040583661215552146,0.008677781402180755,-0.2065841236374969,-0.9775482949743542,0.41499741343906804,0.03687114565680641,3.050845504150505
1784373902906794752,1.7072699069976807,-1.0421749353408813,-0.438309907913208,0.5257860422134399,0.029159391298890114,-0.39330267906188965,-0.9189465641975403,0.43153396248817444,-0.17635369300842285,0.03961300849914551,-0.03858426785197327,0.006964732560722146,-0.20119200859761746,-0.9787668827241922,0.4042210346227806,0.031720682290064646,3.0562905056526444
1784373902916714752,1.7171897888183594,-0.9994204640388489,-0.04419095069169998,0.3429476320743561,0.024861089885234833,-0.3844519555568695,-0.9228101968765259,0.28837135434150696,-0.1988610327243805,0.011173844337463379,-0.03697238810894972,0.005276220969106215,-0.19638499344130433,-0.9798154292021418,0.3946140658839692,0.026934117063645215,3.0607757322202507
1784373902926633472,1.7271087169647217,-1.490394115447998,0.03989915922284126,0.6629019975662231,0.02250199392437935,-0.37280571460723877,-0.9276365637779236,0.19437117874622345,-0.35451972484588623,0.040414273738861084,-0.03468442965640926,0.004745094684897539,-0.1901557576150477,-0.9811296127438469,0.3820308996442256,0.024252582539938984,3.0662290192737216
1784373902936553728,1.7370288372039795,-1.8161253929138184,-0.11988221108913422,-0.06143242120742798,0.020946208387613297,-0.35789451003074646,-0.9335270524024963,0.056690506637096405,-0.24493446946144104,-0.05017656087875366,-0.03321420430355002,0.004497605940590807,-0.18225323803769258,-0.9826801720353375,0.36601207821527226,0.022433945207169806,3.0698669891984305
1784373902946473472,1.7469487190246582,-1.6441195011138916,-0.01364951767027378,0.3760645091533661,0.019953342154622078,-0.3425813317298889,-0.9392762780189514,0.14603176712989807,-0.24454635381698608,-0.15818160772323608,-0.03246738279933954,0.004390655677280496,-0.174191251386007,-0.9841666510736671,0.3496631228995042,0.021240120739828224,3.0718852486689827
1784373902956392704,1.7568678855895996,-1.3776317834854126,0.004625855013728142,0.44430097937583923,0.019886773079633713,-0.32814928889274597,-0.9444165229797363,0.11939545720815659,-0.32395032048225403,-0.13828611373901367,-0.030513177016953632,0.0049301238646835,-0.1666356232740129,-0.9855340048854404,0.33434369599034247,0.021054095207873685,3.076137376629799
1784373902966312704,1.7667877674102783,-1.965541958808899,-0.18944348394870758,-0.0684075728058815,0.01809454895555973,-0.31306084990501404,-0.9495607018470764,0.255739688873291,-0.40806952118873596,0.032446444034576416,-0.029136134524942122,0.004480885810685839,-0.15874375826050777,-0.9868796363498079,0.3184141844958174,0.01905339971539064,3.0795033942798584
1784373902976232704,1.7767078876495361,-1.2781648635864258,-0.24432720243930817,0.15307551622390747,0.01622065156698227,-0.2972705662250519,-0.9546554684638977,0.26750126481056213,-0.24147146940231323,-0.16193687915802002,-0.0291504235402894,0.0037669975301534236,-0.15052597513967797,-0.9881689495609465,0.3018327164998443,0.016989470526395167,3.080027190232066
1784373902986151680,1.7866268157958984,-1.0505160093307495,-0.22934213280677795,0.15941622853279114,0.014463338069617748,-0.2869853079319,-0.957825779914856,0.21760758757591248,-0.10496720671653748,-0.09303176403045654,-0.028421423848263794,0.003140010961504484,-0.1451800365129087,-0.9889920157656333,0.291078272568046,0.015099028641971152,3.0819197474445676
1784373902996071936,1.7965469360351562,-1.1357135772705078,-0.08739153295755386,-0.1366378515958786,0.012326150201261044,-0.27596497535705566,-0.9610886573791504,0.19771108031272888,0.014078378677368164,0.05848550796508789,-0.02867099669257674,0.0021867171442360076,-0.1394664578420298,-0.9898092176758985,0.2795935245856069,0.012824492835291877,3.081871859648926
1784373903005991680,1.806466817855835,-0.6249459385871887,-0.17747321724891663,0.17654961347579956,0.010650217533111572,-0.2680542767047882,-0.963344931602478,0.2604984641075134,0.09840705990791321,-0.08046305179595947,-0.02881677673872416,0.0014379775718301345,-0.13537156844176856,-0.990374667636232,0.2713728195422218,0.011055005660356968,3.081906072744671
1784373903015910656,1.8163857460021973,-0.10311149805784225,-0.227039635181427,0.2713538706302643,0.008204728364944458,-0.26423707604408264,-0.964422881603241,0.14311668276786804,0.20298829674720764,-0.020104706287384033,-0.02806370541690794,0.00036280007140780554,-0.13337331529436566,-0.990668350356256,0.26741280285039876,0.00850719162156714,3.083807391065986
1784373903025830656,1.826305866241455,-0.23218771815299988,-0.2854584753513336,-0.030057886615395546,0.004943324718624353,-0.2638358771800995,-0.9645549058914185,0.18095450103282928,0.08666607737541199,0.018387913703918457,-0.02793448286200271,-0.0012586771387195755,-0.13312008007068324,-0.9907053381571249,0.26699682845067957,0.005124935333894432,3.0845262015109274
1784373903035750656,1.8362257480621338,-0.041930630803108215,-0.6519273519515991,0.11825704574584961,-0.00032711951644159853,-0.2617776691913605,-0.9651281237602234,0.28748226165771484,0.07864171266555786,0.033487558364868164,-0.02787301796515828,-0.0038779461188966956,-0.13198820842203415,-0.9908516894949864,0.26486363278740654,-0.00033893893384566475,3.085391904879489
1784373903045669888,1.8461449146270752,-0.04068400338292122,-0.5116575956344604,0.16640059649944305,-0.005412678699940443,-0.26198911666870117,-0.9650556445121765,0.10520516335964203,0.013759136199951172,0.007078349590301514,-0.02790121163821828,-0.006449115876450272,-0.1320249323075267,-0.9908327124188588,0.2650827408888564,-0.0056086113062243734,3.0860365845815396
1784373903055589632,1.856064796447754,-0.5055989027023315,-0.17395660281181335,0.06787646561861038,-0.009799462743103504,-0.25925105810165405,-0.9657602310180664,0.12343166768550873,0.024677693843841553,0.057557106018066406,-0.02714444708353746,-0.008520266593954648,-0.1305652243613398,-0.9910314599356025,0.26224665452590024,-0.01014654154149861,3.0881642937836387
1784373903065509888,1.8659849166870117,-0.29189804196357727,-0.3394787013530731,0.23209097981452942,-0.012469745241105556,-0.25504201650619507,-0.9668495655059814,0.12494227290153503,-0.07563120126724243,-0.13907694816589355,-0.02692066312397964,-0.009775690306650073,-0.12837311360548137,-0.9913122704419387,0.2578911616947339,-0.012896580816496622,3.0889650710292287
1784373903075428608,1.875903844833374,-0.47406452894210815,-0.19063733518123627,-0.08433577418327332,-0.014939986169338226,-0.2515924572944641,-0.9677179455757141,0.13417215645313263,-0.1462499499320984,-0.10784357786178589,-0.026712005510372255,-0.01094368640191876,-0.12657511760887646,-0.991536858728031,0.25432527498772906,-0.015437142205513267,3.089699388577052
1784373903085348608,1.8858237266540527,-0.580030620098114,-0.45725226402282715,-0.09595541656017303,-0.018311001360416412,-0.24643497169017792,-0.9689863324165344,0.2966007888317108,-0.020929530262947083,-0.17465990781784058,-0.02778268995551494,-0.012700938602636056,-0.12387702858669213,-0.9918273051107183,0.24900004957170255,-0.018894819701387677,3.087948769431992
1784373903095268608,1.8957438468933105,-0.2969488799571991,-0.2893216013908386,-0.06777197122573853,-0.02165098302066326,-0.24217069149017334,-0.9699920415878296,0.20687741041183472,-0.05085909366607666,-0.2274872064590454,-0.028277275240516982,-0.014379321470848376,-0.12164377841907476,-0.9920666845622966,0.24460252053149445,-0.022317077478780062,3.0873444843243827
1784373903105187584,1.9056627750396729,0.059546127915382385,-0.4515549838542938,-0.12468239665031433,-0.025360779836773872,-0.2410816252231598,-0.9701734185218811,0.18266363441944122,-0.010459497570991516,-0.23185288906097412,-0.028877852530519575,-0.016304263713251742,-0.12102668011922117,-0.9920951527371287,0.2434801990934159,-0.026134509426125465,3.086590803131925
1784373903115107840,1.9155828952789307,0.2981325387954712,-0.47835153341293335,0.016697600483894348,-0.029310697689652443,-0.24298077821731567,-0.9695881605148315,0.2842850685119629,0.033019840717315674,-0.16360580921173096,-0.029458781739032144,-0.018395771836832765,-0.12193239431092164,-0.9919305683902709,0.24543753690773704,-0.030220844636051004,3.0859409182910964
1784373903125027584,1.9255027770996094,0.6398072838783264,-0.4922923743724823,-0.09521082788705826,-0.034023821353912354,-0.2473161518573761,-0.9683372974395752,0.22922950983047485,-0.0361311137676239,-0.1067512035369873,-0.030116163850250538,-0.020924301875853767,-0.12407067436434074,-0.9915954730936822,0.24990938216636135,-0.03512188365070247,3.0852805488934107
1784373903134946816,1.9354219436645508,0.6430898904800415,-0.6023272275924683,-0.005193050485104322,-0.039179593324661255,-0.2537943422794342,-0.9664644002914429,0.20052602887153625,-0.000981658697128296,-0.02753889560699463,-0.030680744871304552,-0.023706366110276204,-0.12730208504467333,-0.9911058844958195,0.25660103670422657,-0.04051691056794552,3.0849280311609553
1784373903144866816,1.9453418254852295,0.5092825889587402,-0.4026958644390106,-0.014358320273458958,-0.04383564740419388,-0.25948143005371094,-0.964752733707428,0.14082050323486328,0.05420494079589844,-0.02133125066757202,-0.03090554425108167,-0.026184438184433133,-0.13014611760955974,-0.990667068551127,0.26248520658145474,-0.04540595467263266,3.085214142515444
1784373903154785536,1.9552607536315918,0.8483821749687195,-0.600670337677002,-0.17624425888061523,-0.04765811935067177,-0.2659096419811249,-0.9628191590309143,0.13051335513591766,0.12908411026000977,-0.11207091808319092,-0.03136090321189723,-0.028290201585104244,-0.1333794329983341,-0.9901647230833595,0.2691474025436705,-0.04945814935844323,3.0849665845725114
1784373903164705792,1.9651808738708496,1.065409541130066,-0.45456477999687195,-0.08643794059753418,-0.052221208810806274,-0.27531716227531433,-0.9599340558052063,0.2519892752170563,0.04501625895500183,-0.0996515154838562,-0.03214461116184696,-0.030877665828724345,-0.13812870336649094,-0.9894108452703166,0.27891961274308485,-0.054347257756619874,3.084268847663396
1784373903174625536,1.9751007556915283,1.1471713781356812,-0.5669788122177124,0.05055449903011322,-0.056745875626802444,-0.28619739413261414,-0.956488847732544,0.16369473934173584,-0.13256481289863586,-0.07637852430343628,-0.03230029516399113,-0.03339632244462369,-0.14366714199059413,-0.9885348647591415,0.2902558471425858,-0.05925781369952409,3.084929398038808
1784373903184544768,1.9850199222564697,0.8693214654922485,-0.5089091062545776,0.12348303943872452,-0.06166892126202583,-0.29650986194610596,-0.9530366659164429,0.14165550470352173,-0.19366347789764404,-0.007382035255432129,-0.032244095200155004,-0.03608166492365002,-0.1489288088567355,-0.9876632773090593,0.3010361001677615,-0.06461773105117025,3.0861257295295013
1784373903194464768,1.9949398040771484,0.7933163642883301,-0.4131101369857788,-0.010407819412648678,-0.06571682542562485,-0.3039924204349518,-0.9504051208496094,0.12774381041526794,-0.14637073874473572,0.007183074951171875,-0.03206019421905489,-0.03825294986320507,-0.15275517957280094,-0.9870029450061609,0.3088806156093143,-0.06903623433370971,3.087402482230282
1784373903204384768,2.0048599243164062,0.6703609228134155,-0.3975476920604706,0.2445238083600998,-0.06990961730480194,-0.3112434148788452,-0.9477553367614746,0.22544243931770325,-0.13763964176177979,-0.02465677261352539,-0.031774582748034935,-0.04047958857989891,-0.15647280083040788,-0.9863406973291875,0.31650116835620357,-0.07363000964506478,3.0889411219530456
1784373903214303744,2.0147788524627686,0.46506014466285706,-0.36956775188446045,0.15003256499767303,-0.07440722733736038,-0.3165918290615082,-0.9456390142440796,0.15830004215240479,-0.09589901566505432,0.01666867733001709,-0.031096728671832365,-0.04276103608301583,-0.15922305285046237,-0.9858257496555143,0.322134333506031,-0.0785228150277191,3.0912902347346356
1784373903224223488,2.0246987342834473,0.10520768910646439,-0.17718712985515594,0.30320772528648376,-0.07810547202825546,-0.31938961148262024,-0.9443991780281067,0.08967164158821106,-0.16234561800956726,0.02516394853591919,-0.03001659152126576,-0.04451936799617562,-0.1606811505721044,-0.9855448755321033,0.3250852885476936,-0.08251607870093043,3.0942370208345107
1784373903234143744,2.034618854522705,-0.07033556699752808,-0.21795141696929932,0.2715262770652771,-0.0802542194724083,-0.31934401392936707,-0.9442344307899475,0.1054312214255333,-0.10788682103157043,-0.02295917272567749,-0.028641335576914603,-0.04538573102512877,-0.16069511503048423,-0.9855439785592393,0.32503718276417787,-0.08479017676532034,3.097396818863727
1784373903244062720,2.0445377826690674,-0.249698668718338,-0.41221970319747925,0.18014255166053772,-0.08366276323795319,-0.3180122971534729,-0.9443880319595337,0.23904301226139069,-0.0924949049949646,-0.04680764675140381,-0.027966204753034293,-0.04698229554910129,-0.15999580567459243,-0.9856022961423773,0.32363220947415716,-0.08835873129958519,3.099291526439657
1784373903253982720,2.054457902908325,-0.42277929186820984,-0.4742707908153534,0.24627327919006348,-0.08820147067308426,-0.3145830035209656,-0.9451233148574829,0.18242448568344116,-0.13408643007278442,-0.00609433650970459,-0.027427020875057245,-0.04913695561011262,-0.15818949210763092,-0.9858039202411588,0.32001732232762936,-0.09305320486362363,3.1009913018042776
1784373903263902720,2.064377784729004,-0.3516041934490204,-0.43837323784828186,0.2426156848669052,-0.09333117306232452,-0.31112611293792725,-0.9457747340202332,0.12693101167678833,-0.20497190952301025,-0.057689011096954346,-0.026554918320634942,-0.051540302256633926,-0.15638489842323094,-0.9859929585257948,0.3163777267303163,-0.09836377612301547,3.103444851910403
1784373903273821696,2.074296712875366,-0.42869532108306885,-0.49067607522010803,0.09127993136644363,-0.0975440964102745,-0.3073463439941406,-0.9465851187705994,0.111170195043087,-0.17304611206054688,-0.013864099979400635,-0.026331707501548677,-0.05357657974473877,-0.15439233526220517,-0.9862044654167655,0.3124031424275566,-0.1026859664637686,3.1043905572756123
1784373903283741696,2.084216833114624,-0.26895996928215027,-0.5325843691825867,0.2995937168598175,-0.10289705544710159,-0.3037972152233124,-0.9471638798713684,0.216788649559021,-0.15877294540405273,-0.024469971656799316,-0.025768520109664652,-0.05614451392681743,-0.15253146908386533,-0.9863659582954063,0.30867572671720883,-0.1082126343551917,3.106206365119411
1784373903293661696,2.0941367149353027,-0.2852415442466736,-0.38268283009529114,0.26669859886169434,-0.10804670304059982,-0.30129626393318176,-0.9473893046379089,0.07905500382184982,-0.14029309153556824,-0.019407570362091064,-0.024820330889196135,-0.0585710648646353,-0.1512441129707129,-0.9864474673044294,0.30605178494638935,-0.11355614763131727,3.1088129556382973
1784373903303580672,2.104055881500244,-0.277582049369812,-0.42744871973991394,0.3325713574886322,-0.11211131513118744,-0.29808101058006287,-0.9479339718818665,0.08151744306087494,-0.07401981949806213,-0.022723376750946045,-0.0237291066605508,-0.06041457289028602,-0.14960983834989647,-0.9866123696178571,0.3026816320278317,-0.11772226905102337,3.1114734792564183
1784373903313500672,2.113975763320923,-0.25877314805984497,-0.39722394943237305,0.27801159024238586,-0.11715039610862732,-0.29527169466018677,-0.9482038021087646,0.21126660704612732,-0.08096426725387573,-0.03392815589904785,-0.02262138089783895,-0.06276167455283199,-0.14818595828526357,-0.9867067506864358,0.2997398671751031,-0.1229268571573423,3.114333495072769
1784373903323420672,2.1238958835601807,0.15602965652942657,-0.5258586406707764,0.3650892376899719,-0.12196768820285797,-0.29475051164627075,-0.9477584362030029,0.20132865011692047,-0.12889450788497925,-0.10152745246887207,-0.021505740690137245,-0.06503601017863848,-0.14795642683237933,-0.9866188756877022,0.2991944108324276,-0.12798723835105527,3.1173211531759315
1784373903333339648,2.133814811706543,-0.002083479892462492,-0.4393281936645508,0.3318113386631012,-0.1272520273923874,-0.2945276200771332,-0.9471327662467957,0.1860441416501999,-0.07029479742050171,0.029453933238983154,-0.019851503991247747,-0.06747371869782676,-0.14792203599242634,-0.9864949946355551,0.2989611601854684,-0.1335552215502685,3.1214947625713725
1784373903343259904,2.143734931945801,0.1623014658689499,-0.48505064845085144,0.6176422834396362,-0.13283932209014893,-0.2950843870639801,-0.9461917877197266,0.16015256941318512,-0.12001568078994751,-0.04025834798812866,-0.017814613305510395,-0.07002168373233295,-0.14832756530267316,-0.986295346296749,0.29954384373755677,-0.13948200913933914,3.126553800276768
1784373903353179648,2.1536548137664795,-0.2726316750049591,-0.5808131694793701,0.4814129173755646,-0.13911312818527222,-0.29361775517463684,-0.9457463622093201,0.19088618457317352,-0.12175700068473816,0.08208364248275757,-0.015456746738211501,-0.07284342376054818,-0.1477181897424079,-0.9862222241340785,0.2980092309135164,-0.14604618095437785,3.132212076908644
1784373903363098624,2.163573741912842,-0.5320499539375305,-0.697385311126709,0.6526097059249878,-0.14706657826900482,-0.28921589255332947,-0.9458993673324585,0.22447441518306732,-0.08418193459510803,0.037375807762145996,-0.013589302230673743,-0.07656115941487658,-0.1455634250205672,-0.9862885382899397,0.29340763179548535,-0.15424309013362567,3.136874045701999
1784373903373018624,2.1734938621520996,-0.8023636341094971,-0.7886322736740112,0.902143657207489,-0.15607456862926483,-0.2821447551250458,-0.9465912580490112,0.18169409036636353,-0.020589590072631836,0.015164315700531006,-0.010472868330349012,-0.08061410893787076,-0.1421468363121013,-0.9865018469684319,0.2860289592556906,-0.16341040736592793,-3.139242078466425
1784373903382938624,2.1834137439727783,-1.2506061792373657,-0.7625546455383301,0.683510959148407,-0.16536077857017517,-0.2715660631656647,-0.9481074213981628,0.12797673046588898,0.007375389337539673,0.004366576671600342,-0.007437615983284632,-0.08480877577857959,-0.13694437854374028,-0.986913497043752,0.27501987101774344,-0.17267452990130877,-3.132711167689041
1784373903392857856,2.1933329105377197,-1.4626661539077759,-0.7686091661453247,0.8133494853973389,-0.17442721128463745,-0.25696757435798645,-0.9505487084388733,0.17905062437057495,0.025918960571289062,-0.02750915288925171,-0.004814868068510815,-0.08894549071702146,-0.12967016257440162,-0.9875480781123102,0.25988308151581957,-0.1814825650561113,-3.127563796360138
1784373903402777600,2.2032527923583984,-1.6813538074493408,-0.7836155295372009,0.7909448146820068,-0.183499276638031,-0.24110491573810577,-0.9529933929443359,0.1303529292345047,-0.0038138926029205322,-0.05925935506820679,-0.0020275143015705175,-0.09309734440838575,-0.12180385924886755,-0.9881764107093913,0.24350419042913893,-0.190222348649526,-3.122351728941293
1784373903412697856,2.2131729125976562,-1.7804598808288574,-0.8204784393310547,0.6756046414375305,-0.19268138706684113,-0.2232585996389389,-0.9555257558822632,0.17322644591331482,-0.036262884736061096,-0.06373083591461182,0.00031744497679880607,-0.09739381757310486,-0.11292281523895015,-0.9888189180376632,0.22515617472960084,-0.1989812134266727,-3.118380986081836
1784373903422616832,2.2230918407440186,-1.8044568300247192,-0.6555771231651306,0.9317283034324646,-0.2010892778635025,-0.20482563972473145,-0.9579193592071533,0.2311185896396637,-0.15430520474910736,-0.0868193507194519,0.0028989002042240576,-0.1013156741612237,-0.10380481812076806,-0.9894196479499352,0.2062855724242292,-0.20691841064791983,-3.114238800780809
1784373903432536576,2.2330117225646973,-1.9149314165115356,-0.7861852049827576,0.7800870537757874,-0.20986604690551758,-0.1852722018957138,-0.9600158929824829,0.17400789260864258,-0.2513885498046875,-0.09429013729095459,0.005835641707889624,-0.10544446914518646,-0.094199426095745,-0.989936332905941,0.18634884717737493,-0.21522108913743332,-3.109614222840364
1784373903442456832,2.242931842803955,-2.0061936378479004,-0.8503181338310242,0.6466927528381348,-0.219351664185524,-0.1653750091791153,-0.961527943611145,0.2459172159433365,-0.3745877742767334,-0.12657630443572998,0.007828578560775092,-0.11008267493302722,-0.08436728766045101,-0.9903043973784158,0.16613824508735617,-0.22428993553613785,-3.1070298674143944
1784373903452375552,2.2528507709503174,-2.6502811908721924,-0.944313645362854,0.7436602115631104,-0.22899240255355835,-0.14172416925430298,-0.9630559682846069,0.23186105489730835,-0.17874091863632202,-0.07437384128570557,0.009525881226917639,-0.11487549736105228,-0.07263367362830285,-0.9906751526853851,0.14220295012918466,-0.23344184587409145,-3.105660543843998
1784373903462295808,2.262770891189575,-3.2142837047576904,-0.9606082439422607,0.4974972903728485,-0.23895502090454102,-0.11225763708353043,-0.9645199179649353,0.1363091617822647,0.21015803515911102,-0.14999723434448242,0.010670503832335726,-0.11993485820515441,-0.05792803223804084,-0.9910328993743003,0.1124947622141003,-0.2428552151583272,-3.106317601098902
1784373903472215552,2.272690773010254,-3.4327290058135986,-0.7966087460517883,0.2644936144351959,-0.24751931428909302,-0.07906730473041534,-0.9656513333320618,0.11093789339065552,0.5139580368995667,-0.27618515491485596,0.010209530623018027,-0.12441899444674155,-0.04116106435551267,-0.9913230881684628,0.07914992380041647,-0.25092145276750183,-3.111007825702867
1784373903482134784,2.2826099395751953,-3.3265700340270996,-0.5855697393417358,0.0947120413184166,-0.2542197108268738,-0.046527232974767685,-0.9660266637802124,0.05609962344169617,0.460315078496933,-0.3922038674354553,0.008885752130111049,-0.1279879533614167,-0.02461179647378535,-0.9914304735572369,0.046544034877394544,-0.2573258002872634,-3.11764519472418
1784373903492054784,2.292529821395874,-3.3335654735565186,-0.5617200136184692,-0.052930381149053574,-0.2591841518878937,-0.014234223403036594,-0.9657230377197266,0.04824665188789368,0.17518392205238342,-0.26967430114746094,0.006789158586135568,-0.13066483340217433,-0.008073889575244124,-0.9913705172571906,0.014234704335023251,-0.2622045879237325,-3.126019358760818
1784373903501974784,2.302449941635132,-3.3483004570007324,-0.5356465578079224,-0.20471298694610596,-0.26419392228126526,0.01703805662691593,-0.9643190503120422,0.12327900528907776,-0.010019013658165932,-0.23001688718795776,0.0038773185317816307,-0.13332391959768106,0.008074501299606381,-0.9910320363161519,-0.017038881991417638,-0.2674078366482327,-3.1360597767385454
1784373903511893760,2.312368869781494,-3.437429666519165,-0.6341654658317566,-0.029988544061779976,-0.26967936754226685,0.049480173736810684,-0.9616780877113342,0.19802409410476685,0.053104668855667114,-0.14633888006210327,0.0011521924854701927,-0.13617935656146396,0.024822156694675874,-0.9903725034731681,-0.049500385155109745,-0.2734035363413004,3.1371088150342414
1784373903521813504,2.322288751602173,-3.3062899112701416,-0.4380393922328949,0.006375587545335293,-0.2745750844478607,0.0815926045179367,-0.9580976963043213,0.16617664694786072,0.05755229294300079,-0.1952989101409912,-0.0009476781858141263,-0.13870916105934902,0.04136337262143227,-0.9894685034302977,-0.08168340961244809,-0.27910318772661896,3.128197237384318
1784373903531733760,2.3322088718414307,-3.570091724395752,-0.1599753051996231,0.02139744721353054,-0.2772086560726166,0.11421549320220947,-0.9539969563484192,0.10801917314529419,-0.07713664323091507,-0.08277672529220581,-0.003124093700945969,-0.14004309625020417,0.058218996097299976,-0.9884274499760022,-0.11446528829439194,-0.2827886793419737,3.118960416627059
1784373903541652736,2.342127799987793,-3.6985113620758057,0.033744633197784424,-0.13443396985530853,-0.27798163890838623,0.14842848479747772,-0.9490496516227722,0.05120551586151123,-0.19399122893810272,-0.12963992357254028,-0.005934945236156974,-0.14034125831973843,0.07602310464423884,-0.9871624786390786,-0.14897895750496426,-0.28493522022297035,3.108160313931856
1784373903551572736,2.352047920227051,-3.3810644149780273,0.029468316584825516,0.04118270426988602,-0.2779284119606018,0.18165914714336395,-0.9432686567306519,0.1701861023902893,-0.24882833659648895,-0.21684181690216064,-0.00859715286892393,-0.14016901917749894,0.09337193280306814,-0.9856776741661613,-0.18267341209271387,-0.2865357806496875,3.0977251908946775
1784373903561492736,2.3619678020477295,-3.023616075515747,0.024549191817641258,-0.026887161657214165,-0.2777872383594513,0.21162937581539154,-0.9370417594909668,0.1292429268360138,-0.20564793050289154,-0.2160038948059082,-0.01103160072683531,-0.1399186321945073,0.10909580570334952,-0.9840727612692568,-0.21324178876650765,-0.28819791868807215,3.088115624696698
1784373903571411712,2.371886730194092,-2.1516201496124268,0.22901737689971924,-0.017081867903470993,-0.27684131264686584,0.23576411604881287,-0.9315439462661743,0.12442129850387573,-0.27249202132225037,-0.3141530156135559,-0.012792217526875179,-0.1392788441461599,0.12177610757105478,-0.9826536790513316,-0.23800476773901397,-0.28887263978956595,3.0807796116989477
1784373903581331712,2.3818068504333496,-1.2585102319717407,0.31967538595199585,0.019499579444527626,-0.2742174565792084,0.2512761652469635,-0.9282591938972473,0.135667622089386,-0.2578679621219635,-0.3011872172355652,-0.01436581176268041,-0.13774900241497812,0.12998317944591145,-0.9817959098840521,-0.25399848748305504,-0.28724088056040975,3.0754035395144177
1784373903591251712,2.3917267322540283,-0.30049481987953186,0.3317590057849884,0.10707069933414459,-0.27123135328292847,0.2587825655937195,-0.9270734190940857,0.22614163160324097,-0.24364584684371948,-0.2782946228981018,-0.014751495703924302,-0.13616136175763333,0.13387819295096784,-0.9814881954130665,-0.2617616205154182,-0.28462390844904945,3.0738189626966443
1784373903601170688,2.4016458988189697,0.26445114612579346,0.4122171103954315,0.08793402463197708,-0.26736199855804443,0.2588315010070801,-0.9281830787658691,0.14806878566741943,-0.4111294746398926,-0.09931325912475586,-0.014444878051017919,-0.13419401713032544,0.1337924809682993,-0.9817753491984769,-0.26181226864251217,-0.28045661730911725,3.075004413423834
1784373903611090688,2.4115657806396484,0.6246358156204224,0.47380998730659485,0.06379227340221405,-0.26295748353004456,0.2549206614494324,-0.9305207133293152,0.057589441537857056,-0.4944531321525574,0.08028572797775269,-0.014058783833651466,-0.13195364483968958,0.1316353729835812,-0.9823760606609362,-0.2577656543906065,-0.275410400413937,3.077055607605967
1784373903621010688,2.4214859008789062,0.7318089008331299,0.7283580899238586,0.16997623443603516,-0.25697416067123413,0.24900242686271667,-0.933789074420929,0.05059906840324402,-0.42106056213378906,0.15041816234588623,-0.013408869248988636,-0.1289294619006823,0.12838474847927,-0.9832165654557286,-0.2516501022950641,-0.2685475540860449,3.0801470628652567
1784373903630929664,2.4314048290252686,0.7956258058547974,1.021295428276062,0.1179269477725029,-0.24874386191368103,0.24210646748542786,-0.9378224611282349,-0.02705875039100647,-0.31809523701667786,0.22534382343292236,-0.01278750811446459,-0.12474319597502544,0.12461104002575017,-0.984249777728627,-0.24453632224591496,-0.2592658140682595,3.083574033220746
1784373903640849664,2.4413247108459473,0.45873406529426575,1.1579371690750122,0.19133032858371735,-0.2382386326789856,0.23646323382854462,-0.9419806003570557,-0.047985732555389404,-0.2795845866203308,0.36731940507888794,-0.012373235013815369,-0.11936949470419037,0.12149324669235291,-0.9853107832799209,-0.23872423928983563,-0.24771790931016102,3.086618587291465
1784373903650769664,2.451244831085205,0.35584577918052673,1.1700958013534546,0.2022683322429657,-0.22681917250156403,0.23319892585277557,-0.9456063508987427,-0.016177043318748474,-0.2774036228656769,0.3268929719924927,-0.01184323745613956,-0.11355615822172337,0.11959029271541419,-0.9862366834975597,-0.23536601242395086,-0.2354186391704994,3.0896159418647193
1784373903660688640,2.4611637592315674,0.5790244936943054,1.2197768688201904,0.29001495242118835,-0.21479196846485138,0.22967912256717682,-0.9492691159248352,0.04621286690235138,-0.22394181787967682,0.31212317943573,-0.011248357615310577,-0.10745209471765377,0.11755626504567525,-0.98717171692753,-0.23174797697624935,-0.2225237574649231,3.0927978918626566
1784373903670608640,2.471083879470825,1.070265769958496,1.1215579509735107,0.1282823234796524,-0.20341911911964417,0.22235305607318878,-0.9535092115402222,0.050678640604019165,-0.07884414494037628,0.24515044689178467,-0.010343190904218699,-0.10172979033128123,0.11356254244028527,-0.9882548716185557,-0.22422727755848237,-0.2101864229626035,3.0969108056718135
1784373903680528640,2.481003761291504,1.524712324142456,1.088083267211914,0.04755524545907974,-0.19300854206085205,0.21013039350509644,-0.9584325551986694,0.03910839557647705,0.08787375688552856,0.20998895168304443,-0.009992180741583525,-0.09644594793194745,0.10715367623494998,-0.9895031716248404,-0.21170832987947744,-0.19872152458013204,3.100213598629231
1784373903690447872,2.4909229278564453,1.5876734256744385,1.0889192819595337,-0.07126438617706299,-0.1822524219751358,0.1947437971830368,-0.963773250579834,0.019364848732948303,0.011707603931427002,0.26353222131729126,-0.009776310126734163,-0.09098891699650104,0.09916845590516755,-0.9908537157977102,-0.1959962366669967,-0.18689605748638932,3.1034327206679677
1784373903700367616,2.500842809677124,1.1622270345687866,0.9177717566490173,-0.15467192232608795,-0.1726437211036682,0.18146322667598724,-0.9681246280670166,0.012548506259918213,-0.10237693786621094,0.3733217716217041,-0.010252935756148778,-0.08606809553893345,0.09235790086824361,-0.9919461874101795,-0.18247418469680537,-0.17647293372266787,3.104733649686047
1784373903710287872,2.510762929916382,0.8811850547790527,1.073264718055725,-0.1247270405292511,-0.16301044821739197,0.17107997834682465,-0.9716785550117493,-0.03172221779823303,-0.25387418270111084,0.40350228548049927,-0.010882624542530889,-0.08113931383783007,0.08704671255887335,-0.9928347408485477,-0.17192570857179906,-0.16621393071940324,3.105314857182229
1784373903720206848,2.520681858062744,0.03737045079469681,1.2083665132522583,-0.3019436299800873,-0.1520213931798935,0.1658877432346344,-0.9743565917015076,-0.106660857796669,-0.2023562341928482,0.5468510985374451,-0.012199949728348328,-0.07547190854388353,0.08441386006933196,-0.9934935122064302,-0.16665815367479553,-0.15477449853847017,3.104081347426908
1784373903730126592,2.530601739883423,-0.4160137474536896,1.049285650253296,-0.4303188621997833,-0.14201919734477997,0.1677047312259674,-0.9755540490150452,0.028798967599868774,-0.08906093239784241,0.47926193475723267,-0.014677370823600768,-0.07019383297927335,0.08541549936515318,-0.9937613831958524,-0.16850095920255778,-0.14456245841236612,3.0998262742167886
1784373903740046848,2.5405218601226807,0.017501207068562508,1.0908597707748413,-0.3393450081348419,-0.13226273655891418,0.169209286570549,-0.9766651391983032,0.10179093480110168,-0.139759823679924,0.3450428247451782,-0.016938506391517873,-0.06506091644579735,0.086223594537799,-0.994004890899342,-0.17002732475373863,-0.13460394558863906,3.0960265759994567
1784373903749965568,2.550440788269043,0.1420038491487503,0.8751806616783142,-0.3955271542072296,-0.12295882403850555,0.1677524298429489,-0.9781309962272644,0.040347740054130554,-0.07061497867107391,0.4195067286491394,-0.0191312656375243,-0.06018447979363277,0.08551216085994301,-0.9943336982793647,-0.16854935279678174,-0.1250519739977499,3.0925394033984337
1784373903759885824,2.560360908508301,0.2756809592247009,1.007073163986206,-0.2815004289150238,-0.1150679886341095,0.1657022088766098,-0.9794396758079529,0.0954146683216095,0.008461609482765198,0.44754886627197266,-0.02133564170442718,-0.05603268192236817,0.0845013980676945,-0.9946178199839856,-0.166470018484229,-0.1169474019291108,3.0889293214095535
1784373903769805568,2.5702807903289795,0.8413489460945129,1.259486436843872,-0.14382456243038177,-0.10417758673429489,0.1599043309688568,-0.9816198945045471,0.05550204962491989,-0.06711563467979431,0.3761358857154846,-0.02254034041144665,-0.05049752180253801,0.08148649306902103,-0.9951391264981095,-0.16059373754889358,-0.10573245652858634,3.087783352518773
1784373903779724544,2.580199718475342,1.0391422510147095,1.1690452098846436,-0.27075669169425964,-0.09267216175794601,0.15034270286560059,-0.9842809438705444,0.020330242812633514,-0.043195486068725586,0.49023187160491943,-0.02384851314400399,-0.04469898907992675,0.07656067127688705,-0.995776978693262,-0.1509149025700639,-0.09387541187867608,3.086600247018643
1784373903789644800,2.5901198387145996,0.8267244100570679,1.1066277027130127,-0.39372965693473816,-0.08189652860164642,0.14101706445217133,-0.9866139888763428,0.12092851847410202,-0.020777806639671326,0.5271260738372803,-0.0256760230116209,-0.03924977818511624,0.07178067559916376,-0.99631705968863,-0.1414886725975859,-0.08281780998774256,3.0841901599036983
1784373903799564288,2.600039482116699,1.1363328695297241,0.8426780104637146,-0.18631573021411896,-0.07278530299663544,0.1314326971769333,-0.9886494278907776,0.27278223633766174,-0.04927937686443329,0.4047871232032776,-0.027505812944392426,-0.03466457452231357,0.06688527081691326,-0.9967788931390337,-0.13181407686425445,-0.07348835900798781,3.08156465923657
1784373903809483264,2.6099584102630615,1.666338562965393,0.5794655084609985,-0.03154895827174187,-0.06623708456754684,0.11721260100603104,-0.9908955097198486,0.27709829807281494,-0.07712776213884354,0.31364941596984863,-0.027874025460972493,-0.031540164337498997,0.05964459438336453,-0.9973317942224369,-0.1174826642767878,-0.06674638795928672,3.081783259518741
1784373903819403264,2.6198782920837402,1.3917025327682495,0.3973652124404907,-0.002053649863228202,-0.06165332719683647,0.1021762564778328,-0.9928538799285889,0.14885731041431427,0.04307214915752411,0.38628655672073364,-0.027974059851135685,-0.029435487689903065,0.05202498147769557,-0.9978198157465006,-0.10235488160523266,-0.062017444945169094,3.0823592879266424
1784373903829323264,2.629798412322998,1.4856417179107666,0.5573875308036804,0.01649053953588009,-0.0571335069835186,0.08802907913923264,-0.9944780468940735,0.002842739224433899,0.04823189973831177,0.22799861431121826,-0.027695437472108498,-0.02737289122925088,0.04485183140517716,-0.9982344611829811,-0.08814316870659558,-0.05738766528307608,3.0835865468647574
1784373903839242240,2.6397173404693604,1.4631712436676025,0.4718573987483978,-0.03394680097699165,-0.05188441649079323,0.07349014282226562,-0.995945394039154,-0.09261631965637207,-0.029544830322265625,0.08984798192977905,-0.027741946225829546,-0.024937078206342174,0.037489340198671985,-0.9986005630742488,-0.07355645853749743,-0.05204859124211623,3.0841297432490173
1784373903849162240,2.649637460708618,1.3114928007125854,0.5766810178756714,-0.07449672371149063,-0.046570539474487305,0.05940020829439163,-0.9971473217010498,-0.007796525955200195,-0.09020770341157913,0.015427350997924805,-0.027854416731022142,-0.02246437895950851,0.030359281535601322,-0.9988983236265396,-0.05943519322635896,-0.0466698584681712,3.0844492556284804
1784373903859082240,2.659557342529297,0.3906886577606201,0.44587454199790955,-0.043775565922260284,-0.04155576974153519,0.050727155059576035,-0.9978476166725159,0.06030881777405739,-0.06601646542549133,0.10906893014907837,-0.02826393871616697,-0.020063111241155375,0.02595498271691456,-0.9990621079903309,-0.05074893518884519,-0.041621354462736466,3.0839703062027906
1784373903869002240,2.6694774627685547,-0.14875267446041107,0.4347277581691742,-0.08036389946937561,-0.03736697882413864,0.049943264573812485,-0.9980527758598328,0.08729373663663864,-0.15467959642410278,0.07579630613327026,-0.02856193097757004,-0.01797102370187115,0.025507750264717795,-0.999104980394828,-0.04996405221539227,-0.03742240391499023,3.0834980044283897
1784373903878921216,2.679396390914917,-0.6748082637786865,0.34113043546676636,-0.058860208839178085,-0.033413756638765335,0.05389988422393799,-0.9979871511459351,0.041195739060640335,-0.09322178363800049,0.07068002223968506,-0.028980723230776946,-0.01592644744970548,0.02743684116703345,-0.9990764271771259,-0.05392601503887297,-0.03346864618928809,3.0826911727908324
1784373903888841216,2.6893162727355957,-1.2355759143829346,0.3799598217010498,-0.18943330645561218,-0.029733940958976746,0.06334937363862991,-0.9975483417510986,-0.0008751899003982544,0.01282249391078949,0.1517537236213684,-0.029768933486320877,-0.01392540998251893,0.03212317157174156,-0.9989434835333538,-0.06339182500991415,-0.02979819329060914,3.081064589403223
1784373903898761216,2.6992363929748535,-1.2846907377243042,0.4150911867618561,0.017320413142442703,-0.025926539674401283,0.07589592784643173,-0.9967786073684692,0.015657376497983932,-0.002104431390762329,0.08646982908248901,-0.030320438680037035,-0.011815293254171326,0.03835475853391869,-0.9987341581351795,-0.07596897722657536,-0.02600446594339739,3.079905259238485
1784373903908680192,2.709155321121216,-1.7766661643981934,0.431512713432312,-0.1096823439002037,-0.021248197183012962,0.09068311005830765,-0.9956530928611755,-0.05881466716527939,0.03869616240262985,0.15703004598617554,-0.030552816707806362,-0.009242357277139006,0.045694976223363167,-0.9984453155274617,-0.09080785965329226,-0.021337725310518214,3.07944144280938
1784373903918600448,2.7190754413604736,-1.6702218055725098,0.3668908476829529,-0.10393630713224411,-0.017558244988322258,0.1082073226571083,-0.9939732551574707,-0.08615574240684509,-0.026252374053001404,0.02586418390274048,-0.03130879463689035,-0.007089015780247673,0.054434411439143876,-0.9980012155427685,-0.10841960433497484,-0.017662867521094677,3.077911763002878
1784373903928520192,2.7289953231811523,-1.1567018032073975,0.3196539878845215,0.11457885801792145,-0.014408960938453674,0.12231451272964478,-0.9923868179321289,-0.031931981444358826,-0.027847349643707275,-0.1945486068725586,-0.03143260124596996,-0.005284974205476987,0.06147091576292769,-0.9975998630820281,-0.1226215730721326,-0.014518480460695276,3.077705778662756
1784373903938439168,2.7389142513275146,-1.2591933012008667,0.2820355296134949,0.018452057614922523,-0.011183315888047218,0.1334952414035797,-0.9909863471984863,-0.01837295852601528,0.1982918679714203,-0.18390989303588867,-0.031134492441759094,-0.003514010199269719,0.06704084534069679,-0.9972581412421532,-0.1338949603303535,-0.011284556241338294,3.0784161287834504
1784373903948359168,2.7488343715667725,-1.702715277671814,0.1728712022304535,0.12965834140777588,-0.00896274670958519,0.14834193885326385,-0.9888955354690552,0.05293857306241989,0.14114780724048615,-0.004405856132507324,-0.03093038758161456,-0.00218475837042559,0.07448133155489935,-0.9967402877140036,-0.1488914481209145,-0.009063142393882747,3.0788735230004862
1784373903958279168,2.758754253387451,-1.6002177000045776,0.11232663691043854,0.25231876969337463,-0.007387713063508272,0.16475677490234375,-0.9863065481185913,0.030901504680514336,0.07366180419921875,-0.04917013645172119,-0.03008706176142988,-0.0012092674104039632,0.08273607418576112,-0.9961165101157244,-0.1655114086316601,-0.007490140855835998,3.0805810234129583
1784373903968198400,2.7686734199523926,-1.6708675622940063,0.40972039103507996,0.15287290513515472,-0.004464688710868359,0.18043196201324463,-0.983577311038971,-0.023062169551849365,0.29901444911956787,-0.005009055137634277,-0.029011559185400607,0.00039836061270565287,0.0906155249745336,-0.995463247659341,-0.18142560517376433,-0.004539203788393879,3.082908700050745
1784373903978118144,2.7785933017730713,-1.913678526878357,0.5844520330429077,-0.10080249607563019,0.0003137723542749882,0.19791483879089355,-0.9802191853523254,-0.07582952082157135,0.39241719245910645,-0.01830071210861206,-0.029173923026753108,0.0030734149159110666,0.09940307176532577,-0.9946147297430337,-0.19923022969370657,0.0003201042820088668,3.0829776954135197
1784373903988038400,2.788513422012329,-2.313060998916626,1.0296552181243896,-0.08081687241792679,0.008139755576848984,0.2183225154876709,-0.9758427143096924,0.004021495580673218,0.1630861759185791,-0.05595660209655762,-0.030010129882125227,0.007408810700569732,0.10965284385541656,-0.993489245239485,-0.2200951932105773,0.00834106391966749,3.082119070648372
1784373903997957120,2.7984323501586914,-2.824819803237915,1.2089709043502808,-0.24465587735176086,0.018638798967003822,0.24315829575061798,-0.969807505607605,0.11280040442943573,-0.008569687604904175,-0.059535086154937744,-0.03128293635413058,0.013247531334435505,0.12215047105659779,-0.991930060690113,-0.24562054477445305,0.019216703654632333,3.0809106928042773
1784373904007877376,2.808352470397949,-2.9981672763824463,1.1013853549957275,-0.38398632407188416,0.029375968500971794,0.27112993597984314,-0.9620943665504456,0.34602075815200806,-0.14678609371185303,-0.17734038829803467,-0.033325299080177284,0.019425809882413828,0.13629176271381896,-0.9899174515708269,-0.2745667395205498,0.030523871146114177,3.078505883900494
1784373904017797120,2.818272352218628,-3.2116804122924805,0.6164228916168213,-0.48679712414741516,0.03661767393350601,0.3008604049682617,-0.9529649019241333,0.5248599648475647,-0.1350584328174591,-0.20810681581497192,-0.03585202513695088,0.024038920136310322,0.15145846521099995,-0.9875206242750274,-0.3055947307395498,0.03840610139901516,3.074929504508587
1784373904027716096,2.8281912803649902,-3.2523434162139893,0.1750299334526062,-0.21076112985610962,0.0391278900206089,0.3313000202178955,-0.9427137970924377,0.6802935004234314,-0.003342866897583008,-0.28473371267318726,-0.03750641918389599,0.026232063597192483,0.16719743181526694,-0.9848604295259075,-0.33768106491468425,0.04148177696171332,3.0725355894843434
1784373904037636352,2.838111400604248,-3.498213529586792,-0.029975416138768196,-0.29577481746673584,0.03882226347923279,0.36258214712142944,-0.9311428666114807,0.4611777365207672,0.16650110483169556,-0.2654971480369568,-0.03820309455941529,0.026912059608338645,0.18358734801703597,-0.9818919997073449,-0.3710370897393645,0.04166899909364998,3.071638000508933
1784373904047556096,2.8480312824249268,-3.6181042194366455,-0.058227602392435074,-0.5631735324859619,0.03699677810072899,0.3955838978290558,-0.9176843762397766,0.1969357132911682,0.2098695933818817,-0.2629339098930359,-0.03972873493372499,0.02707100532142591,0.20105963055529547,-0.9783985892101092,-0.406703535398583,0.040293541009145915,3.0687351671264222
1784373904057475328,2.857950448989868,-3.2908294200897217,-0.05536710098385811,-0.7074798941612244,0.03366208076477051,0.42734450101852417,-0.9034619927406311,0.1114032194018364,0.23568040132522583,-0.3507036566734314,-0.04231812080750768,0.026737134067532566,0.2180691018615655,-0.9746487944249397,-0.4415535251789203,0.037241763757789176,3.0631687651698343
1784373904067395328,2.867870330810547,-2.997683525085449,-0.0027292249724268913,-0.7604462504386902,0.03039490059018135,0.45543232560157776,-0.8897513747215271,0.13320982456207275,0.25486430525779724,-0.3012276291847229,-0.04539968681848268,0.026558794413677023,0.23327865646171983,-0.9709864119376101,-0.47285777386837585,0.034147837263392315,3.05637636777811
1784373904077315328,2.8777904510498047,-2.751535654067993,-0.09575370699167252,-0.7221201658248901,0.026395529508590698,0.48078808188438416,-0.8764394521713257,0.2021811306476593,0.24682727456092834,-0.23923742771148682,-0.04853707987773175,0.026044591035955345,0.24718809828294183,-0.9674006186586128,-0.5015532846199076,0.03010767490363152,3.0490445856090655
1784373904087234304,2.887709379196167,-2.4483792781829834,-0.1701565384864807,-0.6318172812461853,0.022205950692296028,0.5034275054931641,-0.8637520670890808,0.18131576478481293,0.34322166442871094,-0.3149893879890442,-0.051310027079103634,0.02534500468892353,0.2597721859532378,-0.9639727328500042,-0.5275610700996622,0.025703047401772483,3.0421797516756004
1784373904097154048,2.8976292610168457,-1.995972752571106,-0.15040946006774902,-0.6643075942993164,0.017337346449494362,0.522357165813446,-0.8525505661964417,0.1718411147594452,0.35577088594436646,-0.39978402853012085,-0.05385964010500059,0.02417954725392949,0.2704442237717001,-0.9609237751361287,-0.549612893939338,0.020333055137742903,3.035342995974895
1784373904107074304,2.9075493812561035,-1.9247157573699951,-0.005744721740484238,-0.7930281758308411,0.013050350360572338,0.5389419794082642,-0.8422418236732483,0.09402056783437729,0.32192838191986084,-0.352811336517334,-0.05687194378565877,0.023424582786979734,0.27987567049304607,-0.9580639695519305,-0.5691805772359253,0.015493539435576246,3.027541597011072
1784373904116993280,2.917468309402466,-1.9351691007614136,0.42036399245262146,-0.8988779187202454,0.010258384048938751,0.5549944639205933,-0.8317908048629761,0.06020670756697655,0.18539249897003174,-0.3661309480667114,-0.060990460733103144,0.023827466209295937,0.2890274380226039,-0.9550788309779695,-0.5883563201708047,0.012332264400713971,3.0177840056935077
1784373904126913280,2.9273884296417236,-2.15828275680542,0.4611152708530426,-1.111258625984192,0.008217171765863895,0.571657657623291,-0.8204510807991028,0.11733215302228928,0.09173345565795898,-0.3126055598258972,-0.0662078083512823,0.025086616620907894,0.29857180532543975,-0.9517573078565668,-0.6085247544734657,0.010015096762059778,3.005833796975825
1784373904136833280,2.9373083114624023,-2.5785326957702637,0.3154424726963043,-1.146045446395874,0.005168312694877386,0.5908069610595703,-0.8067963719367981,0.22775709629058838,0.03608512878417969,-0.2537505030632019,-0.07178570779491328,0.02618435877641173,0.3097033771247808,-0.947757884267527,-0.6320586576550028,0.006405881359438734,2.9924906739147934
1784373904146752256,2.9472274780273438,-2.892637014389038,0.29832300543785095,-1.0642892122268677,0.0010519262868911028,0.6125655174255371,-0.7904191017150879,0.2402658462524414,0.05207681655883789,-0.2964034080505371,-0.07719023322407957,0.02696354709784447,0.32258863086095224,-0.9430011084455169,-0.6593022907840772,0.0013308454943335333,2.978700278798861
1784373904156672256,2.9571473598480225,-2.6136229038238525,0.17274722456932068,-0.9223184585571289,-0.002880356041714549,0.6340472102165222,-0.7732889652252197,0.24221444129943848,0.06529361009597778,-0.3782765865325928,-0.08173434956015736,0.027700772115848826,0.33554160973812347,-0.9380640020304899,-0.6867757911526681,-0.003724794815078116,2.966438070352607
1784373904166592256,2.9670674800872803,-2.155927896499634,0.2653842270374298,-0.8499243855476379,-0.006683521904051304,0.6520688533782959,-0.7581302523612976,0.17741411924362183,0.08773821592330933,-0.3416163921356201,-0.08583872748754229,0.028287276236632387,0.34660453602350016,-0.9336470259927024,-0.7103100583275609,-0.008815568059958723,2.954960242246131
1784373904176511232,2.9769864082336426,-1.6494882106781006,0.2430645227432251,-0.7809722423553467,-0.009959273040294647,0.6662791967391968,-0.7456358075141907,0.11680132895708084,0.21493107080459595,-0.28373730182647705,-0.08977847112236173,0.028961466739837443,0.3554480611324814,-0.9299234419700729,-0.729207937674121,-0.013355958598783631,2.944003705977323
1784373904186431232,2.9869062900543213,-0.908599853515625,0.3186163008213043,-0.7811937928199768,-0.013320975005626678,0.6755789518356323,-0.7371672987937927,0.09394841641187668,0.2521859407424927,-0.2975921630859375,-0.0936795907185543,0.029321282519254106,0.3613261686435946,-0.9272582174184533,-0.7417496353315497,-0.018068523593800286,2.933192277753166
1784373904196351232,2.996826410293579,-0.4097766876220703,0.36508259177207947,-0.7375829815864563,-0.015760518610477448,0.6799339056015015,-0.7331040501594543,0.05656251311302185,0.14555132389068604,-0.21725910902023315,-0.09770858286182633,0.029914617705085533,0.3640784233785153,-0.9257456733404927,-0.7476724601658292,-0.021495026149549835,2.9228472610781915
1784373904206271232,3.006746292114258,-0.11905936896800995,0.373227596282959,-0.6966831684112549,-0.01798357255756855,0.6819097995758057,-0.7312151193618774,0.05007282644510269,0.08081597089767456,-0.09745913743972778,-0.10170957494615121,0.0304557665336918,0.36532846686675824,-0.9248040814870836,-0.7503704954370691,-0.02458913500254821,2.912829274926865
1784373904216190464,3.016665458679199,0.23111408948898315,0.3095785975456238,-0.7832769155502319,-0.020172053948044777,0.6813106536865234,-0.7317163348197937,0.04846186935901642,0.03425019979476929,-0.13830924034118652,-0.10562295531012254,0.030786204217206164,0.3649575898902766,-0.9245008519821261,-0.749551686212001,-0.027561153784226147,2.903239557917564
1784373904226110208,3.026585340499878,0.5194782614707947,0.2991746962070465,-0.7369174361228943,-0.023455064743757248,0.6781823039054871,-0.7345193028450012,0.016207143664360046,0.003198862075805664,-0.12702244520187378,-0.1098270119416477,0.03043622531777386,0.36306195916993,-0.9247690054591973,-0.7452864290428154,-0.03192168975940723,2.8926975716008787
1784373904236030464,3.0365054607391357,0.6107120513916016,0.228584423661232,-0.8828464150428772,-0.02670058235526085,0.6738659143447876,-0.7383710741996765,-0.029741685837507248,-0.0458599328994751,-0.07208430767059326,-0.1140689731758978,0.030005810108718188,0.36043602000488373,-0.9252966402051985,-0.739428735203891,-0.03614572032326878,2.88226487077033
1784373904245949184,3.046424388885498,0.6656143069267273,0.1347801238298416,-0.7310233116149902,-0.030516309663653374,0.6687803864479065,-0.7428335547447205,0.03108086995780468,-0.1530027985572815,-0.09055578708648682,-0.11814133541195036,0.029120834289382155,0.35740063508534375,-0.9259911179715783,-0.7325671040614209,-0.041057865871027784,2.872045108287134
1784373904255869184,3.0563442707061768,0.5783401131629944,0.0630476176738739,-0.854103684425354,-0.03526506572961807,0.6640427708625793,-0.7468624711036682,-0.034711744636297226,-0.18137675523757935,-0.014795184135437012,-0.1220566365546013,0.02769264611391537,0.3546855923978302,-0.9265708094682101,-0.726212854235023,-0.04718257132347025,2.861712025452782
1784373904265789184,3.0662643909454346,0.6382150053977966,0.1341935098171234,-0.74085932970047,-0.03977274149656296,0.6592729091644287,-0.7508511543273926,-0.03775716945528984,-0.2117326259613037,-0.021869182586669922,-0.12598188360966264,0.026377041866580568,0.35196403974483226,-0.9271214677840549,-0.7198513291762964,-0.052920750746500225,2.8515581347979735
1784373904275708160,3.076183319091797,0.6872422099113464,0.12643012404441833,-0.787110447883606,-0.043656252324581146,0.6540079712867737,-0.7552269101142883,-0.04571446776390076,-0.24632364511489868,0.00513535737991333,-0.1297298830919217,0.025262145792288863,0.34892458791843367,-0.927784192702696,-0.7128704793175203,-0.05774122199111132,2.842234380886495
1784373904285628416,3.0861034393310547,0.731222927570343,0.1320696771144867,-0.6303685307502747,-0.04709533601999283,0.6484254598617554,-0.7598200440406799,0.014914542436599731,-0.19472062587738037,0.007454931735992432,-0.13326241842946976,0.02425346681985333,0.3456902552789898,-0.9285209445449363,-0.7055142938986778,-0.06190303149911728,2.8337008829698793
1784373904295548160,3.0960233211517334,0.905083954334259,-0.06781759858131409,-0.7421389818191528,-0.05125119164586067,0.6418155431747437,-0.7651445269584656,-0.0040466636419296265,-0.25505101680755615,-0.022834599018096924,-0.13645152255204954,0.0226265845421727,0.34192948894549946,-0.9294908942013214,-0.6968634502184317,-0.06688245904359366,2.825767054726549
1784373904305467392,3.105942487716675,1.1976513862609863,0.10665258765220642,-0.4593152403831482,-0.05506947636604309,0.6337096095085144,-0.7716084122657776,0.0599370151758194,-0.2570006251335144,0.009737074375152588,-0.1394611718379552,0.020952830741697657,0.3372784857397761,-0.9307818559990803,-0.6863392732827895,-0.0712489126326826,2.8186737103970785
1784373904315387136,3.1158623695373535,1.4061700105667114,0.10073210299015045,-0.33613765239715576,-0.056438345462083817,0.6234235763549805,-0.7798447012901306,0.05886448919773102,-0.30141735076904297,0.02189493179321289,-0.14149200829392505,0.01998501102017335,0.33117704443664475,-0.9326856114180315,-0.6731137111255102,-0.07224530520863169,2.8151949507124856
1784373904325307136,3.1257822513580322,1.7762881517410278,-0.10608965903520584,-0.24864645302295685,-0.05834599584341049,0.6109592914581299,-0.7895089983940125,0.10104008764028549,-0.20809674263000488,-0.03178006410598755,-0.1430161366383521,0.01834087641081194,0.32389675233999893,-0.9350405955721353,-0.6572717884955293,-0.0737675242201308,2.8128766882788643
1784373904335226368,3.1357014179229736,2.2304022312164307,0.0011486425064504147,-0.06771661341190338,-0.060351159423589706,0.5952251553535461,-0.801289439201355,0.112322598695755,-0.19065362215042114,-0.08394920825958252,-0.14388223978291279,0.0161161041848083,0.3147944622587702,-0.938052554971578,-0.6375458001390161,-0.07517561656427271,2.8123765305739807
1784373904345146112,3.1456212997436523,2.5804131031036377,0.24682916700839996,-0.03412716090679169,-0.060141000896692276,0.5756311416625977,-0.8154948949813843,0.01949157938361168,-0.16639041900634766,-0.13517343997955322,-0.14460810242768915,0.01465438358015834,0.30337734273551575,-0.9417197423577417,-0.6133757912670592,-0.07361459260777284,2.813536398024509
1784373904355066368,3.15554141998291,2.6371841430664062,0.2452203631401062,-0.19069121778011322,-0.0586128756403923,0.5539688467979431,-0.8304715752601624,-0.012538846582174301,-0.14196628332138062,-0.08925193548202515,-0.14545203906723017,0.013741834759891141,0.29081844914536525,-0.945557729534447,-0.5871238568878714,-0.07046098425479612,2.8150238553662223
1784373904364985344,3.1654603481292725,2.1479358673095703,0.2018064558506012,-0.32133373618125916,-0.05782940983772278,0.5338420867919922,-0.8436043858528137,-0.004701104015111923,-0.1701641082763672,0.048331618309020996,-0.1472435155539633,0.012876559620153348,0.2793420647368222,-0.9487473512171047,-0.5631377670574627,-0.06844331578805242,2.8138491435617072
1784373904374905344,3.1753804683685303,2.023200035095215,0.17971020936965942,-0.13142532110214233,-0.057763006538152695,0.516294002532959,-0.8544611930847168,0.1294335275888443,-0.15646123886108398,0.013228893280029297,-0.14887838843346132,0.011815941560999839,0.2694991151968975,-0.9513495577342619,-0.54251792391797,-0.06749897290966983,2.8123482187599276
1784373904384825344,3.185300350189209,2.0446579456329346,0.12871907651424408,-0.03227773308753967,-0.05675538629293442,0.4989430904388428,-0.8647742867469788,0.12413819134235382,-0.09702658653259277,-0.006349921226501465,-0.14946933251005382,0.01095796537352174,0.2597936974250118,-0.9539633711739148,-0.522378804654569,-0.06553629854733338,2.8132315409884168
1784373904394745344,3.195220470428467,2.175042152404785,0.13391678035259247,-0.021118288859725,-0.05554123595356941,0.48069998621940613,-0.8751243948936462,0.0021507255733013153,-0.08551260828971863,-0.0019965767860412598,-0.14987449856269383,0.010086500262318788,0.24967190251391252,-0.9566085504285797,-0.5014527859434539,-0.0633816668066745,2.814535765598023
1784373904404664320,3.205139398574829,2.4290425777435303,0.22235989570617676,-0.12237506359815598,-0.05437382683157921,0.46070393919944763,-0.8858867883682251,-0.067192941904068,-0.07545003294944763,-0.018715262413024902,-0.15063504764947847,0.009140243587548743,0.23869032877734697,-0.9592978721417719,-0.4787881490119033,-0.06130094940713735,2.8151172107607167
1784373904414584064,3.215059280395508,2.687610149383545,0.21572063863277435,-0.12204430252313614,-0.05281896889209747,0.437745064496994,-0.8975462913513184,-0.02979210764169693,-0.0765085220336914,-0.030401647090911865,-0.15147277130150208,0.008160033274621812,0.22618632606109582,-0.9622001354545539,-0.4530891526758452,-0.058780390114199985,2.8157561205570527
1784373904424504320,3.2249794006347656,2.982940196990967,0.20904643833637238,0.02797112613916397,-0.051005493849515915,0.4125221073627472,-0.9095185399055481,-0.05601966008543968,-0.04890516400337219,0.016085922718048096,-0.15213089983621322,0.007083846521627236,0.2125806951719385,-0.965202353165105,-0.42522100778688315,-0.05602098629314032,2.8168373235426656
1784373904434423296,3.234898328781128,3.455335855484009,0.11548826843500137,-0.04896945878863335,-0.04972698539495468,0.38276833295822144,-0.9225050806999207,-0.13067767024040222,-0.030519187450408936,-0.08303385972976685,-0.15231001166544228,0.005272950883083467,0.196773110364572,-0.9685319367693289,-0.3927909757605645,-0.053852177432405654,2.818913320869629
1784373904444343296,3.2448184490203857,3.6877400875091553,0.006612725555896759,-0.2703222930431366,-0.049562063068151474,0.34989696741104126,-0.9354761838912964,-0.18343964219093323,0.08191150426864624,-0.0025731325149536133,-0.1529888925816153,0.0027732389725912067,0.17959457499543208,-0.971767695345235,-0.3574611106721398,-0.05293108235220294,2.8197241738518795
1784373904454263296,3.2547383308410645,4.134106159210205,0.15870052576065063,-0.21320413053035736,-0.04909364506602287,0.313256174325943,-0.9483988285064697,-0.12467344850301743,0.06517702341079712,-0.0353352427482605,-0.15435712445612432,0.00025320962308208127,0.1606253638074903,-0.9748709426333225,-0.31861984462533693,-0.05171860431378802,2.8192164878896726
1784373904464182016,3.2646572589874268,4.191989421844482,0.21438825130462646,-0.3822801411151886,-0.048374246805906296,0.27326303720474243,-0.9607222676277161,-0.022151872515678406,0.04102224111557007,0.060850441455841064,-0.15586157718856355,-0.002401422853991776,0.1401181962878509,-0.977787448441389,-0.2767835609620788,-0.05030947200117364,2.8184391229519186
1784373904474102272,3.2745773792266846,4.087583065032959,0.3142714202404022,-0.2773806154727936,-0.046515513211488724,0.2336561381816864,-0.97120600938797,0.039176031947135925,0.0463273823261261,0.10169917345046997,-0.15749386231074025,-0.004461865511930038,0.11990448295960471,-0.9802034435411832,-0.2358362214090867,-0.04785801692576814,2.8172959512581692
1784373904484022016,3.2844972610473633,4.1751885414123535,0.1474759876728058,-0.3028205931186676,-0.0441320426762104,0.1935223489999771,-0.9801027774810791,0.1347387284040451,0.07669554650783539,0.0402224063873291,-0.15889105329598033,-0.006363055288270673,0.09953953751312437,-0.9822449597504039,-0.1947511068540508,-0.04499757848602681,2.816448514079989
1784373904493941248,3.2944164276123047,4.078116416931152,0.0035816682502627373,-0.3715392053127289,-0.044040270149707794,0.1531691551208496,-0.9872181415557861,0.1879916787147522,0.04829263687133789,0.07822155952453613,-0.16052845594361417,-0.009429413034433766,0.07938522402378899,-0.983788412517575,-0.15377447295518296,-0.04458091632413382,2.814661074063623
1784373904503861248,3.3043363094329834,4.196555137634277,-0.16511771082878113,-0.30158665776252747,-0.045150287449359894,0.11235150694847107,-0.9926422238349915,0.1711573600769043,0.02433672547340393,0.031109631061553955,-0.16189877714013926,-0.013188931602508735,0.05920251890115191,-0.9849416183008647,-0.11258922479225492,-0.04545362526282953,2.8131964783951804
1784373904513781248,3.314256429672241,4.218940258026123,-0.2959023714065552,-0.09233704209327698,-0.04759063944220543,0.07051325589418411,-0.9963749647140503,0.08466950058937073,0.0022406503558158875,0.03810775279998779,-0.1623152157328828,-0.017767419699175044,0.038689158606673504,-0.9858201421138258,-0.07057182307193842,-0.04772751267786333,2.813535951037663
1784373904523700224,3.3241753578186035,4.38327169418335,-0.2204689234495163,-0.21115820109844208,-0.05007700249552727,0.02786622755229473,-0.9983565211296082,-0.055208638310432434,-0.04248414933681488,0.0014235973358154297,-0.16255488632139306,-0.022448598184380074,0.017826771590755647,-0.9862830507958094,-0.02786983442735134,-0.05011743368714245,2.8141997987992418
1784373904533620480,3.3340954780578613,4.42779541015625,-0.06508200615644455,-0.20334848761558533,-0.051517240703105927,-0.016066431999206543,-0.998542845249176,-0.038707979023456573,-0.04678452014923096,-0.011939942836761475,-0.16302712836861713,-0.026733605777138306,-0.0037261384331844856,-0.9862523643619587,0.016067122926480035,-0.05154671498883098,2.8143703603977794
1784373904543540224,3.34401535987854,4.469412803649902,-0.033557672053575516,-0.1547723263502121,-0.05156395211815834,-0.06017747521400452,-0.9968549609184265,0.04120323434472084,-0.015368789434432983,-0.004167377948760986,-0.16329723772382526,-0.0303765227586943,-0.025490824472946132,-0.9857796365109905,0.060213855600911484,-0.05168057441416514,2.8148251509866746
