time,seconds_elapsed,rotationRateX,rotationRateY,rotationRateZ,gravityX,gravityY,gravityZ,accelerationX,accelerationY,accelerationZ,quaternionW,quaternionX,quaternionY,quaternionZ,pitch,roll,yaw
1782905463527014912,0.3676159381866455,0.2811911702156067,-0.15567390620708466,-0.0733100026845932,0.151336669921875,0.6320756673812866,-0.7599852085113525,0.025817856192588806,-0.04877793788909912,0.10445237159729004,0.5979616857020287,-0.152598716606109,0.31100004816466936,-0.7227962124418444,-0.684228921221432,0.19655992418747462,-1.6890751319878923
1782905463536932608,0.3775336742401123,0.28119170665740967,-0.12153537571430206,-0.07199519872665405,0.15048782527446747,0.6304584741592407,-0.7614955306053162,0.010995924472808838,-0.013667702674865723,0.08414268493652344,0.5981248723140553,-0.1522925285447071,0.3099341984067875,-0.7231834746042098,-0.6821437242187904,0.19510741161511636,-1.6900844196797862
1782905463546853888,0.3874547481536865,0.29807183146476746,-0.09810450673103333,-0.06861035525798798,0.1497107893228531,0.6286832094192505,-0.7631146907806396,-0.008536472916603088,0.024423420429229736,0.050117313861846924,0.5982557033390542,-0.1518774608229587,0.30882985220727466,-0.7236348871177016,-0.6798588003735158,0.1937235052189454,-1.691227459465743
1782905463556773888,0.39737486839294434,0.32700014114379883,-0.07228675484657288,-0.07245435565710068,0.14903225004673004,0.6267527341842651,-0.7648335695266724,-0.015121102333068848,0.028078198432922363,0.028108716011047363,0.5983546290048252,-0.15134524829606555,0.3076976194052226,-0.72414675885574,-0.6773788446204225,0.1924443413598794,-1.6924845406541833
1782905463566693888,0.40729475021362305,0.33830440044403076,-0.04901217669248581,-0.08071085065603256,0.14841946959495544,0.6246891617774963,-0.7666388750076294,-0.019055455923080444,0.021230638027191162,0.011633992195129395,0.5983932739062896,-0.150706851727189,0.3065420313061144,-0.7247378289602348,-0.6747333836957744,0.19123192499480912,-1.6939376326219031
1782905463576613888,0.41721487045288086,0.3337583839893341,-0.027877068147063255,-0.09200531989336014,0.14788617193698883,0.6226096749305725,-0.7684314250946045,-0.020353198051452637,0.02839130163192749,-0.0006878376007080078,0.5983584170449666,-0.1500026552269626,0.3054234683785288,-0.7253846210422444,-0.6720732076674167,0.1901274512634063,-1.6955455207652086
1782905463586534656,0.427135705947876,0.28628042340278625,-0.022082634270191193,-0.11860347539186478,0.1472954899072647,0.6207615733146667,-0.770038366317749,-0.00973750650882721,0.027462303638458252,-0.009502649307250977,0.5982163028523705,-0.14937813202297673,0.30441253602184964,-0.7260553652451304,-0.6697137310438336,0.18900026157011982,-1.697333379885561
1782905463596454912,0.4370558261871338,0.1904870569705963,-0.035393647849559784,-0.14307792484760284,0.1464613378047943,0.6194812655448914,-0.7712275385856628,-0.0004042088985443115,0.008478820323944092,-0.018903017044067383,0.5979217618569553,-0.1490304804035116,0.3036052303709976,-0.7267071029111586,-0.6680817628368133,0.1876719587210222,-1.6993349011492327
1782905463606374656,0.4469757080078125,0.0660291537642479,-0.032274819910526276,-0.18707194924354553,0.1453431099653244,0.6191191673278809,-0.7717298269271851,0.0010649561882019043,-0.01717519760131836,-0.011015534400939941,0.5974256605418586,-0.1491036341562745,0.30315540181843403,-0.7272878281527796,-0.6676205187021977,0.18615369436963278,-1.701512487812227
1782905463616295936,0.4568967819213867,-0.062325093895196915,-0.022592894732952118,-0.2129056751728058,0.14408992230892181,0.6197414398193359,-0.7714652419090271,-0.00511285662651062,-0.023702621459960938,-0.0064430832862854,0.5967041254640492,-0.14955711323912005,0.30315020313311974,-0.7277889557291688,-0.6684131935282257,0.18464685622394728,-1.7038174689937204
1782905463626215680,0.46681666374206543,-0.09644551575183868,-0.03667554259300232,-0.21428732573986053,0.1426779329776764,0.6209439635276794,-0.7707603573799133,-0.0049978941679000854,-0.008929252624511719,-0.0068579912185668945,0.5958789504492898,-0.15027790112920292,0.3033749680393566,-0.7282227579963483,-0.669946418579046,0.18304124646605754,-1.7061624890588853
1782905463636135936,0.47673678398132324,-0.05329218506813049,-0.07358908653259277,-0.21191205084323883,0.14106586575508118,0.6220596432685852,-0.7701572775840759,-0.006559655070304871,0.016642749309539795,-0.019210338592529297,0.5951132677853547,-0.15106534067000862,0.3034808262328768,-0.7286418793035114,-0.6713705320377318,0.18115691357031227,-1.7085026077670808
1782905463646055680,0.48665666580200195,0.03664103522896767,-0.11176363378763199,-0.2299843281507492,0.13910669088363647,0.6226447820663452,-0.7700408101081848,-0.009956315159797668,0.057119011878967285,-0.014978110790252686,0.594429886920291,-0.15179743021039685,0.30321135757119216,-0.729159541410113,-0.6721180513571031,0.17872098583425325,-1.7111048292767717
1782905463655976704,0.49657773971557617,0.12938269972801208,-0.1495554894208908,-0.27252352237701416,0.13660883903503418,0.6226617693901062,-0.7704740762710571,-0.011791959404945374,0.0956762433052063,0.014263749122619629,0.593739701403426,-0.15249718263535933,0.30250216197739943,-0.7298700143012705,-0.6721397900994409,0.1754812118433911,-1.7143334628592244
1782905463665896960,0.506497859954834,0.19303004443645477,-0.1835259348154068,-0.29355016350746155,0.1336108297109604,0.6222328543663025,-0.7713459134101868,-0.015889286994934082,0.1353965401649475,0.06927376985549927,0.5930071598085302,-0.15318890210243433,0.3014302694350661,-0.7307637074962586,-0.671591732151319,0.17151589641810974,-1.7181869758437063
1782905463675816704,0.5164177417755127,0.2634751796722412,-0.20926004648208618,-0.25106528401374817,0.13036777079105377,0.6215426325798035,-0.7724564075469971,-0.01614050567150116,0.15203213691711426,0.13512736558914185,0.5923601934575642,-0.15390576838647332,0.30014129651738214,-0.7316676316313594,-0.6707103839430804,0.1671948441739984,-1.722064412541488
1782905463685736960,0.5263378620147705,0.4750118553638458,-0.11586322635412216,0.00753162382170558,0.12788736820220947,0.6198421120643616,-0.7742354869842529,-1.870095729827881e-05,0.11407512426376343,0.18751978874206543,0.592167947595944,-0.15408439982470115,0.2985636699181481,-0.732430732715678,-0.6685414714393006,0.16370078370126584,-1.7248257207182145
1782905463695657728,0.5362586975097656,0.7334535121917725,-0.28679901361465454,0.1376960277557373,0.12686093151569366,0.6159061193466187,-0.7775383591651917,0.12066715955734253,0.14201319217681885,0.21061331033706665,0.5931614173629453,-0.15323094351500932,0.2962280974548038,-0.7327541465086014,-0.6635355875032641,0.16173207014802712,-1.7247597349927173
1782905463705577728,0.5461788177490234,1.196786880493164,-0.3293355703353882,-0.14900019764900208,0.1248030737042427,0.6093454957008362,-0.7830212116241455,0.0978073999285698,0.21995437145233154,0.22863894701004028,0.5943411834629193,-0.1517621208356678,0.29233139338533143,-0.7336682544740266,-0.6552348618499783,0.15805709171183546,-1.726042674083494
1782905463715497728,0.5560986995697021,1.7386770248413086,-0.4203149974346161,-0.7451935410499573,0.11912605166435242,0.5990720391273499,-0.79178386926651,-0.04521247744560242,0.28866904973983765,0.2315269112586975,0.5940478869956455,-0.1496247924696995,0.2858679466163125,-0.7368847219142104,-0.6423416480527313,0.14933269359135184,-1.7348560473446795
1782905463725417728,0.56601881980896,1.958409070968628,-0.32527077198028564,-0.7658964395523071,0.11170031130313873,0.5864037275314331,-0.8022803068161011,-0.010259866714477539,0.3329230546951294,0.3455237150192261,0.5929722834378014,-0.14699036655428935,0.27794544849053204,-0.741298863949923,-0.626611916406497,0.13833922344495853,-1.7473379014394281
1782905463735339008,0.5759398937225342,2.028294801712036,-0.26628655195236206,-0.86617511510849,0.10482862591743469,0.5723357796669006,-0.8132913112640381,-0.022843152284622192,0.32932132482528687,0.3716866970062256,0.5917305563662091,-0.1436434977812731,0.26966813178188737,-0.7459896244117621,-0.609351442038888,0.1281875483851206,-1.7600512978272551
1782905463745258752,0.5858597755432129,1.9632909297943115,-0.1863996982574463,-1.1264867782592773,0.09743279218673706,0.5580956339836121,-0.8240364789962769,-0.08740776777267456,0.31807929277420044,0.42529380321502686,0.5895863303814154,-0.14026435031751117,0.26135739227595256,-0.751269641528692,-0.5920889918225517,0.11769202513511771,-1.7748671761021464
1782905463755178752,0.5957796573638916,1.8369636535644531,-0.09446978569030762,-1.2850626707077026,0.08969519287347794,0.5445098876953125,-0.8339447379112244,-0.010380014777183533,0.2381439208984375,0.5113281607627869,0.5864404268671344,-0.1370939223385688,0.2534420987157866,-0.7570072839101422,-0.5758046447398643,0.10714343474022907,-1.791613058296757
1782905463765098752,0.6056997776031494,1.7014063596725464,-0.0021928558126091957,-1.4144667387008667,0.0820595994591713,0.5316988229751587,-0.8429487347602844,0.0800192579627037,0.1806730031967163,0.5552137494087219,0.5656879439894373,-0.12867131364796322,0.24893639169957552,-0.7755459539389526,-0.56060518237481,0.09704249036623754,-1.85325534536266
1782905463775019776,0.6156208515167236,1.6254246234893799,0.10361351072788239,-1.5676969289779663,0.07475172728300095,0.5195324420928955,-0.8511745929718018,0.10235704481601715,0.189162015914917,0.5573818683624268,0.5585229041264681,-0.12511727128597572,0.24240125243473332,-0.7833513873712554,-0.5463036521836172,0.08759710692950459,-1.8782533869087121
1782905463784939776,0.6255407333374023,1.7151798009872437,0.1939529925584793,-1.7601763010025024,0.06759976595640182,0.5071723461151123,-0.8591894507408142,0.08706330507993698,0.2343285083770752,0.5341162085533142,0.5516441385064113,-0.12173272060997238,0.23576772224051337,-0.7907487667150791,-0.5319006887534438,0.07851678631850173,-1.9019373179338617
1782905463794859776,0.6354608535766602,2.004009962081909,0.2449643611907959,-1.9591727256774902,0.06030039116740227,0.4930146038532257,-0.8679288625717163,0.08456653356552124,0.2778899371623993,0.4977201223373413,0.5441083226929606,-0.11782665611907885,0.22836911426898643,-0.7986931242218541,-0.5155513512865277,0.0693647283308658,-1.927239089779452
1782905463804780800,0.6453816890716553,2.523117780685425,0.264566570520401,-2.196835994720459,0.052615124732255936,0.47514811158180237,-0.8783313035964966,0.11375144869089127,0.29885396361351013,0.4672290086746216,0.5368182172077677,-0.11319416316578267,0.2191378943795399,-0.8068406448127341,-0.4951323349725289,0.05983200478668238,-1.952307453647859
1782905463814700800,0.6553018093109131,3.226984977722168,0.2300110161304474,-2.4558849334716797,0.04414278268814087,0.4516051709651947,-0.8911252021789551,0.16253751516342163,0.3526092767715454,0.46696144342422485,0.5302916340714028,-0.10760927707982684,0.2070208437963109,-0.8150787095125843,-0.46856359243740825,0.049495544874451756,-1.9761811991887177
1782905463824620800,0.6652216911315918,3.72212815284729,0.03305358812212944,-2.634418249130249,0.034439899027347565,0.4216982424259186,-0.9060819149017334,0.21519389748573303,0.45708590745925903,0.4546354413032532,0.5225550625901056,-0.10070982319606506,0.19187643217270842,-0.8246072667514461,-0.4353174395010261,0.03799140625099158,-2.003524812169471
1782905463834540800,0.6751418113708496,3.8011744022369385,-0.148676797747612,-2.8194520473480225,0.02297862619161606,0.3888341188430786,-0.9210211634635925,0.29492297768592834,0.4595850706100464,0.49244755506515503,0.5140562519812707,-0.09406914241835954,0.17504403582671055,-0.8344199392567361,-0.3993658020507757,0.024943900011597953,-2.0322486425386725
1782905463844461824,0.6850628852844238,3.718095541000366,-0.183486208319664,-3.005385637283325,0.01067647710442543,0.3550969064235687,-0.9347684979438782,0.34434977173805237,0.21722975373268127,0.6001585125923157,0.505183095172103,-0.08806172214376466,0.1576733113189914,-0.8439041490922028,-0.3630177311547126,0.011421023542159764,-2.0606790477424886
1782905463854381824,0.6949827671051025,3.436810255050659,-0.07819335162639618,-3.1689963340759277,-0.0009146033553406596,0.3222888708114624,-0.9466409683227539,0.345213919878006,0.0029064416885375977,0.5872659683227539,0.4944207132127102,-0.0822581597911127,0.14111387531852798,-0.8537380940103927,-0.32814636760792276,-0.0009661562619877551,-2.091895739216702
1782905463864301824,0.7049028873443604,3.2216007709503174,0.16118332743644714,-3.4479165077209473,-0.010525726713240147,0.2912607789039612,-0.9565858244895935,0.2773866653442383,-0.0021372437477111816,0.6360291242599487,0.48181519401857603,-0.07637075859981561,0.1259944796433528,-0.863798123102414,-0.2955444875121075,-0.01100298774309552,-2.1256269057970316
1782905463874221824,0.7148227691650391,3.5083796977996826,0.38023629784584045,-3.7906899452209473,-0.017719797790050507,0.25939399003982544,-0.9656090140342712,0.1694684624671936,0.23381584882736206,0.6506065726280212,0.4677378798760644,-0.06960540894237079,0.11113316180451094,-0.8740856438325812,-0.26239464693522435,-0.018348844569672725,-2.161324325748091
1782905463884142848,0.7247438430786133,4.4682393074035645,0.46926718950271606,-3.964195489883423,-0.02278250828385353,0.22104360163211823,-0.9749977588653564,0.11073417216539383,0.5816144943237305,0.6048958897590637,0.451644431182771,-0.060759247636874576,0.09385851244139987,-0.8851644856493154,-0.2228844056214021,-0.02336247595230638,-2.200598518461685
1782905463894062848,0.734663724899292,6.011242389678955,0.35306069254875183,-4.0474443435668945,-0.02639036998152733,0.1696641594171524,-0.985148549079895,0.12072020024061203,0.8021833896636963,0.428080677986145,0.43510608553511915,-0.04910170040572282,0.07081496089025802,-0.8962460597650018,-0.17048887507141236,-0.026781809514402826,-2.2399590397638303
1782905463903982848,0.7445838451385498,7.468551158905029,-0.02706506848335266,-4.225866794586182,-0.03018144518136978,0.10244925320148468,-0.9942802786827087,0.18513445556163788,0.839887797832489,0.25721973180770874,0.41815999852490765,-0.03520501014290213,0.040255171859095565,-0.9067977868960431,-0.10262932260435512,-0.030345750349304403,-2.2789940906090678
1782905463913902848,0.7545037269592285,8.054855346679688,-0.5215715169906616,-4.344618797302246,-0.035560332238674164,0.023858530446887016,-0.9990826845169067,0.33730289340019226,0.6834321022033691,0.22929203510284424,0.3996319233387892,-0.021071175008849505,0.0038285174363568114,-0.9164255520976669,-0.02386079487880733,-0.035577961359495446,-2.3195867368855825
1782905463923823872,0.7644248008728027,7.015079498291016,-0.8676719069480896,-4.450903415679932,-0.04202939569950104,-0.05292881652712822,-0.9977134466171265,0.49370479583740234,0.3431814908981323,0.33918988704681396,0.38016687348173533,-0.00937370404384859,-0.03248727686888109,-0.9242996856505729,0.052953560272895356,-0.042100828201808736,-2.3600538212973126
1782905463933743616,0.7743446826934814,5.519052982330322,-0.6681755781173706,-4.441000938415527,-0.04610396549105644,-0.11601943522691727,-0.992176353931427,0.5621256828308105,-0.15676194429397583,0.5603678822517395,0.35991432357960584,-0.0005825327965699076,-0.0625418598833629,-0.9308865808410645,0.11628130183904735,-0.046434110319332776,-2.4010235465983993
1782905463943663872,0.7842648029327393,4.592708587646484,-0.06728830933570862,-4.159488201141357,-0.043662168085575104,-0.1669074296951294,-0.9850053191184998,0.5011664628982544,-0.7231835126876831,0.5206193923950195,0.33966239892737,0.007959792532963155,-0.08622047692900849,-0.9365532679414621,0.16769225606905933,-0.044297836407892525,-2.4420296262472028
1782905463953583616,0.794184684753418,3.9172825813293457,0.4451749920845032,-3.9714322090148926,-0.03407558426260948,-0.2092800885438919,-0.9772618412971497,0.3105801045894623,-0.8186587691307068,0.5022709965705872,0.3203378322805255,0.017683820024166803,-0.1051492452627653,-0.9412835153465424,0.21083869449712037,-0.034854309263757224,-2.4818532637486737
1782905463963504896,0.8041057586669922,4.073306083679199,0.7450484037399292,-3.9048874378204346,-0.01925843209028244,-0.24807797372341156,-0.968548595905304,0.10565369576215744,-0.49850404262542725,0.44143378734588623,0.30170740424899006,0.028775254335927997,-0.12205603333042563,-0.9451173776210454,0.2506956991456833,-0.01988118544147696,-2.5210833323820947
1782905463973424896,0.81402587890625,4.7239990234375,0.7796327471733093,-3.843466281890869,-0.0014764579245820642,-0.29000192880630493,-0.9570249319076538,0.0662042424082756,-0.14748281240463257,0.2538694143295288,0.2830663871694557,0.04123113684094215,-0.14066816437669796,-0.9478322236212473,0.29422886063651865,-0.0015427568561881377,-2.5609356397640277
1782905463983344896,0.8239457607269287,5.695785999298096,0.4741392135620117,-3.619178295135498,0.016301702708005905,-0.33860722184181213,-0.940786600112915,0.11179584264755249,0.19470158219337463,0.09097886085510254,0.26427223593350657,0.054078267602073356,-0.16334699534251676,-0.9489750504298543,0.34543627811640043,0.01732600233155592,-2.601414886963732
1782905463993264896,0.8338658809661865,5.811713695526123,0.023323576897382736,-3.3108696937561035,0.031118856742978096,-0.3914308249950409,-0.919681191444397,0.16982412338256836,0.2115602195262909,-0.05373799800872803,0.2459977251114602,0.06553274910884525,-0.18938020195224042,-0.948327796274988,0.40218598255962573,0.03382366577680847,-2.640873231959781
1782905464003185664,0.8437867164611816,4.561460971832275,-0.3050304055213928,-3.013570785522461,0.04275088757276535,-0.43765559792518616,-0.8981257677078247,0.24574704468250275,-0.40897828340530396,0.12035483121871948,0.22880492955505247,0.07408393935634969,-0.2131869434643491,-0.9469483817152029,0.45298964484447013,0.047564207610642964,-2.678396871840345
1782905464013105920,0.8537068367004395,2.009641170501709,0.0008469531312584877,-2.666470527648926,0.05369802191853523,-0.46563035249710083,-0.8833487033843994,0.27947765588760376,-1.416205644607544,0.3582327365875244,0.2137470511486457,0.07983428680271866,-0.22793011486255,-0.9465657440802154,0.4843467705769323,0.0607144436430817,-2.7124181534933354
1782905464023025664,0.8636267185211182,-0.6585095524787903,0.7871683835983276,-2.3560996055603027,0.0688873827457428,-0.46955209970474243,-0.8802132606506348,0.0934813842177391,-2.01505184173584,0.5485634803771973,0.2023144285839192,0.085266679239369,-0.22939698360703847,-0.9482486153237524,0.48878341032375455,0.0781029520846972,-2.7406706343945237
1782905464032946944,0.8735477924346924,-2.262928009033203,1.2472885847091675,-2.1695120334625244,0.08842925727367401,-0.4541381299495697,-0.8865318894386292,-0.2433670163154602,-1.6887603998184204,0.46276479959487915,0.1939585699377114,0.0912987912304785,-0.21999677603473428,-0.9516543168740416,0.4714045934415121,0.09941855344708021,-2.763371680324285
1782905464042866688,0.8834676742553711,-2.609990358352661,1.2931839227676392,-2.009532928466797,0.10899259150028229,-0.42985278367996216,-0.8962963819503784,-0.3536062240600586,-0.9618708491325378,0.23287475109100342,0.18691781918208267,0.09729631189601563,-0.20587673079517207,-0.9556202354857058,0.44432970562715685,0.12100915423145786,-2.7826401384102755
1782905464052786944,0.8933877944946289,-2.3740999698638916,1.0706006288528442,-1.870410680770874,0.12760837376117706,-0.40523332357406616,-0.9052635431289673,-0.28477388620376587,-0.5770969986915588,0.030431389808654785,0.18054980763142076,0.10264442114291668,-0.19191757712199944,-0.9591837898634675,0.4172340289647012,0.1400399828110319,-2.799173621008556
1782905464062706688,0.9033076763153076,-1.6752278804779053,0.496942937374115,-1.59010648727417,0.14201737940311432,-0.3839804530143738,-0.9123541712760925,-0.249759703874588,-0.47048118710517883,-0.07833796739578247,0.1744365868744596,0.10647790527052828,-0.18023702379030848,-0.9621585008592667,0.3941033766469936,0.15442110984865598,-2.8137824408812935
1782905464072627712,0.9132287502288818,-0.27988189458847046,0.1323801726102829,-0.9183205962181091,0.14920714497566223,-0.3750184178352356,-0.9149308204650879,-0.08142760396003723,-0.8417631983757019,-1.0027480125427246,0.16979396191258989,0.10833833493502604,-0.17549184794157777,-0.9636573345430971,0.38441662633540336,0.16165717545157823,-2.8243043871465012
1782905464082547968,0.9231488704681396,-0.4297482967376709,0.11055423319339752,-1.3071653842926025,0.15666693449020386,-0.3686329424381256,-0.9162779450416565,-0.06804391741752625,-0.887104332447052,-0.410153329372406,0.16462216240717825,0.11055474421779686,-0.17215890736842449,-0.9649033376116187,0.3775379521501964,0.16934432300744598,-2.836053547260399
1782905464092467712,0.9330687522888184,-0.24910849332809448,0.03457158803939819,-0.6646543145179749,0.1593170464038849,-0.36501964926719666,-0.9172669649124146,-0.06219486892223358,-0.819367527961731,-0.17086774110794067,0.16063965564450491,0.11084000586615446,-0.17053151884226628,-0.965830385951462,0.3736539051066287,0.17197107176129398,-2.8445497901309054
1782905464102387968,0.9429888725280762,-0.27817198634147644,0.5270484089851379,-0.8145440220832825,0.1648985892534256,-0.360805869102478,-0.9179474711418152,-0.4082305133342743,-0.46855512261390686,-0.2528746724128723,0.15788702597092136,0.112794807787331,-0.16823671967217302,-0.9664601855271209,0.3691318074295937,0.1777426383349921,-2.8509884614230288
1782905464112308736,0.9529097080230713,0.5907626152038574,0.23631243407726288,-0.5300185680389404,0.17068786919116974,-0.3610859215259552,-0.9167783856391907,-0.26666563749313354,-0.1948222815990448,-0.3073274493217468,0.1553057228760934,0.11532971697878834,-0.16825534385118085,-0.9665761169902416,0.3694321203666386,0.18407465134944714,-2.8574513832906163
1782905464122228736,0.9628298282623291,1.4165440797805786,0.21080806851387024,-0.5176826119422913,0.17430540919303894,-0.36941027641296387,-0.912772536277771,-0.01015135645866394,-0.08861279487609863,-0.3432546854019165,0.15315635947173664,0.11759688891029509,-0.17258246602104668,-0.9658827519262563,0.3783743294679357,0.18869083655977878,-2.863312377225193
1782905464132148736,0.9727497100830078,2.3377065658569336,0.02106635645031929,-0.707417905330658,0.1776493787765503,-0.38526231050491333,-0.9055460691452026,-0.1577061265707016,0.14278489351272583,-0.24322712421417236,0.14960765409951463,0.1201718531288811,-0.18106820852006453,-0.9645675998472042,0.3954920608436823,0.19371910394025443,-2.872769601798124
1782905464142068736,0.9826698303222656,3.4252443313598633,-0.2016129046678543,-0.935799241065979,0.17988334596157074,-0.4095374643802643,-0.8943830132484436,-0.25358331203460693,0.43949049711227417,-0.22777879238128662,0.14427133680749435,0.12258320561572095,-0.194375505395447,-0.9624849281700636,0.4219470124448695,0.19847765642594256,-2.8866585029793286
1782905464151989760,0.9925906658172607,4.296695709228516,-0.385014146566391,-1.199790358543396,0.18164193630218506,-0.4418603479862213,-0.8785019516944885,-0.25477731227874756,0.5943566560745239,-0.23320764303207397,0.13678390085231823,0.12494819775469473,-0.21245464741083772,-0.9594483863663557,0.4576713818039813,0.20389017483489796,-2.906016269582857
1782905464161909760,1.0025107860565186,4.763051986694336,-0.5184486508369446,-1.321250557899475,0.18336540460586548,-0.47892436385154724,-0.8584920167922974,-0.11421258747577667,0.48466166853904724,-0.09632670879364014,0.1278422875496919,0.1272133338253865,-0.23360383188058836,-0.9554592311489961,0.4994290017974335,0.21042817697842967,-2.929421862230804
1782905464171829760,1.0124306678771973,4.2912917137146,-0.5818667411804199,-1.3236292600631714,0.1851167231798172,-0.5152654647827148,-0.8367994427680969,0.0889921635389328,0.17507076263427734,0.050330936908721924,0.11829535852243364,0.12902877942745555,-0.25485654169713906,-0.9510026052025616,0.5413173895771427,0.21771362527491508,-2.9547132911300786
1782905464181749760,1.022350788116455,2.6512434482574463,-0.48938655853271484,-1.2497292757034302,0.18718092143535614,-0.5418458580970764,-0.8193694949150085,0.26000839471817017,-0.1370481252670288,0.35052794218063354,0.1095717416952646,0.13010951186752467,-0.27089994288344094,-0.9474590907368206,0.5726317838962743,0.2245910875089449,-2.977695324764897
1782905464191670784,1.0322718620300293,0.6009318232536316,0.020764049142599106,-1.2226824760437012,0.19183948636054993,-0.5528809428215027,-0.8108762502670288,0.2630250155925751,-0.4406188130378723,0.5985044240951538,0.1027679129646634,0.131590771533639,-0.27793119167426567,-0.9459793222190082,0.5858177174513035,0.2323115220996079,-2.9955174155805433
1782905464201590784,1.042191743850708,-1.473459243774414,0.489827036857605,-1.294355034828186,0.20069752633571625,-0.546810507774353,-0.8128461241722107,0.12063732743263245,-0.5533024072647095,0.7125195860862732,0.09788904081388429,0.13436919005645703,-0.27481240821351904,-0.9470168431560507,0.5785500126217532,0.24206564179756163,-3.0079595442808458
1782905464211510784,1.0521118640899658,-3.031163454055786,0.9658625721931458,-1.380591869354248,0.213619664311409,-0.5255711674690247,-0.8234935402870178,-0.0386471152305603,-0.35425060987472534,0.7179027795791626,0.09441786565018988,0.13852491587746274,-0.26280043024401023,-0.9501748076687463,0.5533863234464177,0.2538121451224481,-3.0159397248662523
1782905464221431808,1.062032699584961,-3.766998291015625,1.3491154909133911,-1.4665532112121582,0.23035867512226105,-0.4940704107284546,-0.8383491635322571,-0.13959939777851105,-0.02385866641998291,0.6573341488838196,0.09173482567686657,0.14423990046050147,-0.2449903602625144,-0.9543370936026889,0.5167653143247,0.2681584504121859,-3.0212025561753637
1782905464231351808,1.0719528198242188,-3.8258533477783203,1.538732886314392,-1.5068713426589966,0.24953359365463257,-0.4583907127380371,-0.8530011177062988,-0.09830375015735626,0.178681880235672,0.4791150689125061,0.08919277172697382,0.15112782793166163,-0.2250773359581934,-0.9584076828659199,0.4761836250975568,0.28459516095793363,-3.025512085438894
1782905464241271808,1.0818727016448975,-3.757038116455078,1.5248643159866333,-1.4660906791687012,0.26922914385795593,-0.42252790927886963,-0.8654396533966064,0.06571650505065918,0.18967881798744202,0.3249581456184387,0.08676688366008205,0.15847443734154082,-0.20534364417228873,-0.9618686563425144,0.4362326081425336,0.3015992730775005,-3.0289995591853187
1782905464251191808,1.0917928218841553,-3.9469497203826904,1.508095383644104,-1.4104564189910889,0.2878827452659607,-0.3853923976421356,-0.8766961693763733,0.32489490509033203,0.08587762713432312,0.36322271823883057,0.08482444021362211,0.16544330885819106,-0.18514972606980984,-0.9649625777964211,0.3956330189811975,0.3172790181436931,-3.0303462952178393
1782905464261112576,1.1017136573791504,-4.109347343444824,1.6283512115478516,-1.272049069404602,0.30640968680381775,-0.34625253081321716,-0.8866917490959167,0.43034568428993225,-0.09698477387428284,0.41991013288497925,0.0835492932830578,0.17248683128873096,-0.16401954857109174,-0.9676597044593308,0.3535735662846366,0.3327184059834136,-3.0293139005654433
1782905464271032832,1.1116337776184082,-4.193312644958496,1.7732599973678589,-1.03273344039917,0.32516106963157654,-0.3060210943222046,-0.8947744965553284,0.46590033173561096,-0.1956268548965454,0.37776094675064087,0.08349760780574536,0.17990374426081257,-0.14229336701410014,-0.9697501842789142,0.31101080327627656,0.34856224874907327,-3.025002497188472
1782905464280952576,1.121553659439087,-4.094534873962402,1.8868377208709717,-0.7978185415267944,0.3440661132335663,-0.2660597860813141,-0.9004613757133484,0.4309125244617462,-0.09592446684837341,0.3777105212211609,0.0847576682288796,0.18767825306584027,-0.12060756384912806,-0.9711059528111555,0.2693031711611888,0.36498057103258064,-3.017465106846426
1782905464290872832,1.1314737796783447,-3.6759378910064697,2.111690044403076,-0.6394904255867004,0.3636534810066223,-0.2287854105234146,-0.9030024409294128,0.3817383646965027,0.018763437867164612,0.40754956007003784,0.08664294017482747,0.1960827958384467,-0.10025128493711953,-0.9715936611297571,0.23082981284087495,0.38284550666442296,-3.008636912290998
1782905464300793856,1.141394853591919,-3.3003036975860596,2.3045272827148438,-0.4303004741668701,0.3844774067401886,-0.19550669193267822,-0.9021941423416138,0.3606550395488739,0.05060923099517822,0.43379509449005127,0.08919929122114222,0.2054605864878219,-0.08178557617134811,-0.9711542401688328,0.1967740895558888,0.4028512258388577,-2.998714061343415
1782905464310713856,1.1513147354125977,-2.3844454288482666,2.3811535835266113,-0.10287974029779434,0.40600863099098206,-0.16884706914424896,-0.8981356620788574,0.38369473814964294,-0.0013189464807510376,0.4023623466491699,0.09245171165288163,0.21566379264231972,-0.06649283820113616,-0.9698043786284675,0.16965982177965436,0.42456331743314196,-2.9881570162082998
1782905464320633856,1.1612348556518555,-0.9384971261024475,2.250603675842285,0.2072465717792511,0.42653539776802063,-0.15417848527431488,-0.8912331461906433,0.5867854952812195,-0.12459957599639893,0.2749917507171631,0.09593148144873495,0.2260653825981832,-0.057252584993380824,-0.9676847637098362,0.15479594003106117,0.44637348565492696,-2.979168666136213
1782905464330553856,1.1711547374725342,0.4550175666809082,2.1048214435577393,0.44789671897888184,0.4451645314693451,-0.1536497324705124,-0.8821679353713989,0.7701674699783325,-0.2099061757326126,0.11755001544952393,0.09882276035368553,0.23631754382415646,-0.05540791730034492,-0.9650482515436636,0.15426081251863302,0.46734123895663415,-2.974286060841628
1782905464340474880,1.1810758113861084,1.8743219375610352,1.963881254196167,0.8240238428115845,0.4618435204029083,-0.16672383248806,-0.87115079164505,0.8836002349853516,-0.207269087433815,-0.028202176094055176,0.10140705567597133,0.24646005769267923,-0.06067974586696058,-0.9619210484294864,0.16750605077427116,0.4874782938179693,-2.973273376083784
1782905464350394624,1.190995693206787,3.438981533050537,1.9261919260025024,1.1700513362884521,0.4768391251564026,-0.19427402317523956,-0.8572525978088379,0.9169596433639526,-0.20100489258766174,-0.22926467657089233,0.10386286935977852,0.25683549658225313,-0.07354747159852075,-0.9580389578094327,0.19551732483633064,0.5076222060929734,-2.9764817429354404
1782905464360314880,1.200915813446045,4.999238967895508,1.8399527072906494,1.395891547203064,0.4900140166282654,-0.23611751198768616,-0.8391274213790894,0.8268957734107971,-0.15153200924396515,-0.32801735401153564,0.1054019394186911,0.26748205880890197,-0.09428488716444616,-0.9531286695235534,0.2383684390444612,0.5285393721310749,-2.986103896872232
1782905464370235904,1.2108368873596191,6.47711181640625,1.8140521049499512,1.6356679201126099,0.5010858774185181,-0.2908748984336853,-0.8150489330291748,0.6749395132064819,-0.1093783974647522,-0.4025413990020752,0.1058142838621993,0.2783284262449614,-0.12251050513031017,-0.9467459244759306,0.29514113874232395,0.5512253204371653,-3.003014576429233
1782905464380155904,1.2207567691802979,8.159645080566406,1.7043571472167969,1.7930188179016113,0.5096800923347473,-0.3574109673500061,-0.7826133370399475,0.4565216898918152,-0.12383595108985901,-0.4606879949569702,0.10474167699023712,0.28926593149396673,-0.1581725068491448,-0.9382622279458542,0.36549428570332804,0.5772562689776489,-3.028882663698291
1782905464390075904,1.2306768894195557,10.051526069641113,1.4807770252227783,1.8349356651306152,0.5146819353103638,-0.43559789657592773,-0.7384828925132751,0.23731696605682373,-0.15185022354125977,-0.5398526191711426,0.10091544460781479,0.29968273458696826,-0.20235809396319543,-0.9268535920571499,0.4507023828272991,0.6086726344329275,-3.0684486811756924
1782905464399995904,1.2405967712402344,11.80258846282959,1.1477283239364624,1.8126215934753418,0.5154101252555847,-0.5221801400184631,-0.6794705986976624,0.09256106615066528,-0.09126895666122437,-0.5959657430648804,0.09367673611045271,0.3088762289509976,-0.2546765834896576,-0.9115700901956012,0.5494053072075323,0.6489485205097446,-3.125810831872002
1782905464409916928,1.2505178451538086,12.90615463256836,0.8094971776008606,1.776578426361084,0.5115692615509033,-0.6105837821960449,-0.6045529842376709,0.038098037242889404,-0.0713924765586853,-0.6255647540092468,0.08303556630729747,0.31593781910961694,-0.31290064160628267,-0.8918416386123372,0.6567975394053976,0.7022804739298567,3.0789150336689155
1782905464419836672,1.2604377269744873,12.992561340332031,0.6946536302566528,1.7377824783325195,0.5043761134147644,-0.692113995552063,-0.516316831111908,-0.022747576236724854,-0.2804507613182068,-0.47912079095840454,0.07042819994109883,0.3208281821849882,-0.37270746747809796,-0.8678700183420915,0.7644137594547725,0.7737000231287382,2.97891017371236
1782905464429756928,1.2703578472137451,12.264765739440918,0.7620510458946228,1.7093807458877563,0.49539247155189514,-0.7597471475601196,-0.4211540222167969,-0.20604002475738525,-0.6547883749008179,-0.22894668579101562,0.058866662361466246,0.3245946132485442,-0.42902368257559736,-0.8408994163973751,0.8629241291225096,0.8662197135829006,2.861874280623986
1782905464439676672,1.2802777290344238,10.682165145874023,0.9469243884086609,1.7528645992279053,0.48508796095848083,-0.811132550239563,-0.32673153281211853,-0.4803272485733032,-1.0077760219573975,-0.2110949456691742,0.04914831791544198,0.32729812934241925,-0.4790721981583996,-0.8129883602895102,0.9460859559370984,0.9780427058295925,2.7305607267300624
1782905464449597952,1.290198802947998,8.515471458435059,1.2380571365356445,1.9273067712783813,0.4730229377746582,-0.8472389578819275,-0.24173438549041748,-0.7756047248840332,-1.2019095420837402,-0.16331017017364502,0.04331716056907659,0.3292615298524682,-0.5203072665132316,-0.7867597123277768,1.0107658838782811,1.098354534062739,2.59860793027111
1782905464459517696,1.3001186847686768,6.554123878479004,1.584587812423706,2.0910513401031494,0.45836564898490906,-0.8724461197853088,-0.16952526569366455,-0.9675818681716919,-1.2238216400146484,-0.16203297674655914,0.04241674004259339,0.3308845366977995,-0.5529491728999756,-0.7635205032315376,1.0601854900879644,1.2165507809872356,2.477660268355436
1782905464469437952,1.3100388050079346,5.49775505065918,1.7627724409103394,2.1537935733795166,0.44090592861175537,-0.8912233710289001,-0.10640864074230194,-1.0019868612289429,-0.9932522773742676,-0.31421512365341187,0.04539927931076331,0.33241348218649064,-0.5799111612087655,-0.742390193793895,1.10003532713103,1.3339838359421934,2.3642253377494318
1782905464479357696,1.3199586868286133,5.620238780975342,1.694570779800415,2.1336255073547363,0.42260387539863586,-0.9049708247184753,-0.04933243244886398,-0.878963828086853,-0.5578281879425049,-0.5708610415458679,0.049182732187147644,0.3334603344361286,-0.6034384712681253,-0.722666747504993,1.131311123010813,1.4545878240538075,2.2488370122610095
1782905464489278720,1.3298797607421875,7.2071003913879395,1.2409199476242065,2.1448049545288086,0.40327760577201843,-0.9149537682533264,0.015064655803143978,-0.7338593006134033,-0.17771285772323608,-0.9122815132141113,0.05039663178118039,0.33340676797182206,-0.629581015251838,-0.6999485069180098,1.1553932742896098,1.6081345114157926,2.095530010559587
1782905464499198976,1.3397998809814453,8.844718933105469,0.49353328347206116,2.2971107959747314,0.3819412887096405,-0.9195756912231445,0.09220359474420547,-0.5394577980041504,0.15828418731689453,-1.1571907997131348,0.04725858498908034,0.33063067864844675,-0.6608972335252461,-0.6720601855218883,1.1669992612535116,1.8076719846988325,1.8864177947167156
1782905464509118720,1.349719762802124,10.242264747619629,-0.09132938832044601,2.2118489742279053,0.3597530126571655,-0.9152719974517822,0.18125972151756287,-0.3880122900009155,0.2919046878814697,-1.1537175178527832,0.03980682430389169,0.3250914352339501,-0.6963802253580946,-0.6385809414373396,1.1561826035215126,2.0375151121132165,1.637722330648866
1782905464519038976,1.3596398830413818,10.167243003845215,-0.5186654329299927,2.0911598205566406,0.3394748270511627,-0.8998282551765442,0.273980975151062,-0.3814213275909424,0.12468194961547852,-1.0489749908447266,0.02924419095591357,0.3176338725414245,-0.7321879619814924,-0.601792440356119,1.1193756584867762,2.249835221639012,1.400553562485676
1782905464528959744,1.369560718536377,8.654436111450195,-0.8445007801055908,2.088932514190674,0.3226277530193329,-0.8773391246795654,0.35522836446762085,-0.4820973873138428,-0.14626610279083252,-0.7373389005661011,0.018035124792060413,0.30850521541804,-0.7631767298756776,-0.567503736454829,1.0702888502412895,2.4042511890340386,1.218618199727427
1782905464538880768,1.3794817924499512,6.9804253578186035,-0.8677720427513123,2.011026382446289,0.30789726972579956,-0.8538800477981567,0.419628381729126,-0.7178094387054443,-0.4078996777534485,-0.5655636191368103,0.00874728784396346,0.2986158206950331,-0.7878088522436684,-0.5386178759857823,1.0233951598501818,2.5085807819514168,1.0884193969984173
1782905464548801024,1.389401912689209,5.513981819152832,-0.7311558723449707,1.877020239830017,0.2945537865161896,-0.8324665427207947,0.4692946672439575,-0.8760509490966797,-0.3783641457557678,-0.63190758228302,0.0018676647867392046,0.2888334917779332,-0.8069836079949373,-0.5151205448409983,0.9835445796430037,2.5810884779618024,0.9933713635188677
1782905464558721792,1.399322748184204,4.642108917236328,-0.6218245625495911,1.5959696769714355,0.28327712416648865,-0.8132584095001221,0.5082964897155762,-0.8135199546813965,-0.037678658962249756,-0.7656663656234741,-0.0034509451174090646,0.2799422505009446,-0.8220587380707071,-0.49582255973523903,0.9497299727320384,2.6331568550398803,0.9220371248142193
1782905464568641792,1.409242868423462,4.6294074058532715,-0.7084921002388,1.1982265710830688,0.27509361505508423,-0.793252170085907,0.5432077050209045,-0.5398183465003967,0.3106929659843445,-0.8709512948989868,-0.008824656556158923,0.27243644634521486,-0.8350941555639888,-0.4778266443842431,0.9161316685736982,2.6728187804049206,0.8650700530398516
1782905464578561792,1.4191627502441406,4.990139484405518,-1.0303157567977905,0.9441218376159668,0.27145472168922424,-0.7696747183799744,0.5778526663780212,-0.17109757661819458,0.56197190284729,-0.9289724826812744,-0.01635259640986481,0.26542517139578675,-0.8476295246164024,-0.45913659951261243,0.8783314590666185,2.702424617674974,0.8158546337175011
1782905464588481792,1.4290828704833984,5.427862167358398,-1.4056947231292725,0.8565909266471863,0.2716465890407562,-0.741062581539154,0.6140310764312744,0.1672419309616089,0.5857739448547363,-0.9773886799812317,-0.02638143645230197,0.25797069409228013,-0.8605037227099774,-0.4385070341160342,0.8346515511492514,2.725077883427703,0.7693699190152723
1782905464598403072,1.4390039443969727,4.529484748840332,-1.8920687437057495,0.43266135454177856,0.277407705783844,-0.7114459872245789,0.6456697583198547,0.3295105993747711,0.47986340522766113,-0.8264406323432922,-0.038697965001665606,0.25043757556101426,-0.8718462520395381,-0.4191271157858519,0.7915536742858547,2.7357956275800706,0.7309330047734931
1782905464608322816,1.4489238262176514,2.748518466949463,-1.9836971759796143,0.30403441190719604,0.2875637710094452,-0.6885451674461365,0.6657423377037048,0.2119632065296173,0.4411391615867615,-0.7102674245834351,-0.050957881413347686,0.24399266579728712,-0.8793968041301188,-0.4056256820680033,0.7594809942842443,2.733854629629485,0.7059463404404244
1782905464618243072,1.4588439464569092,0.8921754956245422,-2.1863980293273926,0.14584235846996307,0.2997773289680481,-0.6771700382232666,0.6719930171966553,-0.024890214204788208,0.4113008379936218,-0.673991858959198,-0.06167690858934932,0.2384701700144215,-0.882682545313543,-0.4002493589510681,0.743909834243385,2.7219851465037506,0.6934908246139908
1782905464628162816,1.468763828277588,-0.5354841351509094,-2.1162426471710205,-0.08582628518342972,0.31371355056762695,-0.6767784953117371,0.6659988760948181,-0.26989033818244934,0.32069945335388184,-0.5346969962120056,-0.07112584066125485,0.23385578942096377,-0.8822193053153676,-0.40241972133763937,0.7433778753125956,2.7013785110190813,0.692219233662391
1782905464638083840,1.478684902191162,-0.7219328284263611,-2.257540464401245,-0.13530156016349792,0.3289240896701813,-0.6810721158981323,0.6541786193847656,-0.37402909994125366,0.2326163649559021,-0.5236702561378479,-0.08013035815182785,0.2302832769837568,-0.879806179360738,-0.4080316038700317,0.7492258105447984,2.6757037995866604,0.6980267731833577
1782905464648003840,1.4886047840118408,-0.392105370759964,-2.3219525814056396,-0.39191338419914246,0.3448134958744049,-0.6838294267654419,0.6430251002311707,-0.16677388548851013,0.20905214548110962,-0.6459853053092957,-0.0896579242126152,0.22703865487645278,-0.8774770695239953,-0.4128546985007213,0.7529981867384543,2.649377852389027,0.7043544017145903
1782905464657923840,1.4985249042510986,0.19085490703582764,-2.661224842071533,-0.39747315645217896,0.363309383392334,-0.683316171169281,0.633313000202179,0.1871667206287384,0.35172736644744873,-0.662091076374054,-0.10118058332411926,0.2236790452388283,-0.8755707745847755,-0.4160601089951391,0.7522950025532718,2.6207623817636088,0.7099449446832367
1782905464667844864,1.5084457397460938,0.8001358509063721,-2.7981491088867188,-0.5750234127044678,0.3836696147918701,-0.6783541440963745,0.626604437828064,0.4155704379081726,0.5385684370994568,-0.7134727835655212,-0.11455247288649335,0.2199779942557056,-0.8745924161670612,-0.41662388420517826,0.7455202288017322,2.5921784025554646,0.7123491886147779
1782905464677764864,1.5183658599853516,1.2102110385894775,-2.8138976097106934,-0.5252459645271301,0.40471524000167847,-0.6698992252349854,0.6224470138549805,0.47548794746398926,0.7158892750740051,-0.5590925812721252,-0.12893290955377937,0.21599500239677705,-0.8743967385604351,-0.414912878232446,0.734073021967274,2.5650766096357565,0.7113634216691012
1782905464687684864,1.5282857418060303,1.3096476793289185,-2.790860652923584,-0.4949154853820801,0.42532309889793396,-0.65989089012146,0.6193901896476746,0.46020543575286865,0.6801851391792297,-0.40099114179611206,-0.1434656009904829,0.2116350652383434,-0.874588866782965,-0.41197391038234044,0.7206735314870127,2.53986207291039,0.7076029790905157
1782905464697604864,1.538205862045288,1.1651612520217896,-2.7103848457336426,-0.5174233913421631,0.4456382989883423,-0.6500756144523621,0.6154742240905762,0.3244728446006775,0.5124717950820923,-0.2900194525718689,-0.15786159601077243,0.2072101994695343,-0.8745290360693332,-0.40907542352906634,0.7076839312048774,2.5149029589734613,0.7035426573264211
1782905464707525888,1.5481269359588623,1.0006519556045532,-2.5771536827087402,-0.5851818919181824,0.46509817242622375,-0.6411357522010803,0.6104328632354736,0.1573687493801117,0.3369671702384949,-0.18887841701507568,-0.1714855072176793,0.20328603805344989,-0.8740087086849523,-0.40666468360062197,0.6959772723724906,2.490509250980024,0.7007352069088288
1782905464717445888,1.558046817779541,0.7935819029808044,-2.4166009426116943,-0.6323973536491394,0.4839048385620117,-0.6329162120819092,0.6043617725372314,0.17915058135986328,0.19529414176940918,-0.15576863288879395,-0.18435863027687927,0.2001372750445605,-0.8729982623168185,-0.4047604286245886,0.6853141110729899,2.4664327497867977,0.6998560332390529
1782905464727365888,1.5679669380187988,0.47715872526168823,-2.2872118949890137,-0.4880683720111847,0.5013533234596252,-0.6262994408607483,0.5969875454902649,0.29918384552001953,0.06587457656860352,-0.014895260334014893,-0.19621692586441897,0.1973272276633702,-0.8715249578180497,-0.40373904129381044,0.6767972314843489,2.4430470137833935,0.7002870646860013
1782905464737285888,1.5778868198394775,-0.18415865302085876,-2.330810546875,-0.445734441280365,0.5178511738777161,-0.62305748462677,0.5861996412277222,0.28230464458465576,-0.02319812774658203,-0.05136370658874512,-0.2073553010363259,0.19443695203218986,-0.8690765766700752,-0.4048507125125666,0.6726455835428067,2.4180226117539414,0.7032898388894865
1782905464747206912,1.5878078937530518,-0.6213325262069702,-2.248642921447754,-0.5441270470619202,0.5338573455810547,-0.6230667233467102,0.571650505065918,0.05764967203140259,0.03896021842956543,-0.10470110177993774,-0.2176692740331775,0.19238413807400623,-0.8653401684712558,-0.40840526318555626,0.6726574096005997,2.3903674662049728,0.7115284378071665
1782905464757126912,1.5977277755737305,-1.036604404449463,-2.126676321029663,-0.586750864982605,0.5496360063552856,-0.6247188448905945,0.5546411275863647,-0.04362398386001587,0.08771622180938721,-0.23464900255203247,-0.2274204573943285,0.19127372597186248,-0.8606595824558533,-0.41347238494763555,0.6747713911426535,2.3607269366298564,0.7241416049175105
1782905464767046912,1.6076478958129883,-1.1046884059906006,-2.0286712646484375,-0.5278558135032654,0.5644048452377319,-0.6276271343231201,0.5362192392349243,0.07512140274047852,0.1357906460762024,-0.10795092582702637,-0.23635237450428653,0.19073391098878406,-0.8554122933719512,-0.41955671154135993,0.6785014824787374,2.330591337227816,0.7394715289346923
1782905464776967936,1.6175689697265625,-0.7165220379829407,-1.864357590675354,-0.48945698142051697,0.5778276324272156,-0.6295638084411621,0.5193887948989868,0.22187024354934692,0.06784200668334961,-0.005198121070861816,-0.2448648501274907,0.18981981501976009,-0.8506837430385892,-0.42467263025185936,0.6809916622461734,2.3029837450805397,0.7523414796145639
1782905464786887936,1.6274888515472412,-0.37161877751350403,-1.741913914680481,-0.4034600257873535,0.5897703766822815,-0.6296727061271667,0.505651593208313,0.19694232940673828,0.03515970706939697,0.1296023726463318,-0.25285345627732336,0.18862196969683637,-0.8469046876666138,-0.4280647857928745,0.6811318458123428,2.2795536683112108,0.7613666521309608
1782905464796807936,1.637408971786499,-0.2118149846792221,-1.5521053075790405,-0.28211432695388794,0.6002273559570312,-0.6289786696434021,0.49407798051834106,0.14278405904769897,-0.0203133225440979,0.1464250087738037,-0.26034068256050036,0.18688058888234574,-0.8438688523107092,-0.4303298575557323,0.6802387941266883,2.2594954054253726,0.7669208550243584
1782905464806727936,1.6473288536071777,-0.13563740253448486,-1.473924160003662,-0.11536633223295212,0.6086296439170837,-0.6287493109703064,0.4839877784252167,-0.01077502965927124,0.023784101009368896,0.11473655700683594,-0.2668174336272762,0.18468732062295973,-0.841358710437479,-0.43222047953095905,0.6799438171072634,2.2426091065791782,0.770186561769451
1782905464816648960,1.657249927520752,-0.47918570041656494,-1.2490358352661133,-0.19618302583694458,0.6160343289375305,-0.6293025612831116,0.47379326820373535,-0.1686466932296753,-0.04841655492782593,0.05896735191345215,-0.27258980536087757,0.18268691653592567,-0.8387622570633247,-0.43450914660748213,0.6806554680839966,2.2264110622288014,0.7742000376932819
1782905464826568960,1.6671698093414307,-1.1574710607528687,-1.1283360719680786,-0.24144691228866577,0.6230292916297913,-0.6316636204719543,0.46134087443351746,-0.25488054752349854,-0.18135511875152588,-0.04138854146003723,-0.2772903495769847,0.1822226339358773,-0.835143911006441,-0.43867933750458915,0.6836972486551535,2.20817689052199,0.7844282606587475
1782905464836488960,1.6770899295806885,-1.5897717475891113,-1.036842703819275,-0.12414354830980301,0.6290563941001892,-0.6367809176445007,0.4458675682544708,-0.09599071741104126,-0.3407275676727295,-0.06220060586929321,-0.28090110216219966,0.1825440341105522,-0.8304284777338573,-0.44515245882658183,0.6903160681652789,2.1873958901106585,0.8002858253047049
1782905464846408960,1.6870098114013672,-1.5207513570785522,-0.9298751354217529,0.09183215349912643,0.6334922313690186,-0.6435256600379944,0.429607093334198,0.10314100980758667,-0.43578946590423584,-0.01420179009437561,-0.28353066413880385,0.18273608615487416,-0.8254762653432051,-0.45255583853679154,0.6990955197539,2.1667115301668995,0.8174728440034978
1782905464856329984,1.6969308853149414,-0.9276837110519409,-0.8119205236434937,0.3170832693576813,0.6357903480529785,-0.6501662135124207,0.4159979224205017,0.1494268774986267,-0.38088542222976685,0.00750964879989624,-0.2855152518795431,0.18160477038351433,-0.82159519565992,-0.4587831435409425,0.7078031467064961,2.1501887892747042,0.8294464292536959
1782905464866249728,1.7068507671356201,-0.21405109763145447,-0.6596614718437195,0.5146384835243225,0.6360939741134644,-0.6550314426422119,0.40782105922698975,0.0702505111694336,-0.3290230631828308,0.024979084730148315,-0.2870446221868657,0.17904178543037028,-0.8196673565486062,-0.4622713197260449,0.7142242527586717,2.1409131371675625,0.8325771130452229
1782905464876169984,1.716770887374878,0.1923673152923584,-0.5321095585823059,0.6596291065216064,0.634636402130127,-0.658713161945343,0.40414565801620483,0.05767011642456055,-0.3771297335624695,0.12824881076812744,-0.2881875010360864,0.175127446649943,-0.8193919747911671,-0.46354630582934336,0.7191071552693808,2.1378463783976356,0.8279487773780463
1782905464886089728,1.7266907691955566,0.013454556465148926,-0.4486024081707001,0.6817107200622559,0.6321301460266113,-0.6624634861946106,0.4019377827644348,-0.022068440914154053,-0.5011870861053467,0.20826119184494019,-0.28871316104705347,0.17106097501114015,-0.8195773547099083,-0.46440922804535145,0.7241025883087493,2.1371574523832915,0.8216850029090252
1782905464896010752,1.7366118431091309,-0.6102107167243958,-0.19311107695102692,0.727997362613678,0.6287750601768494,-0.6679377555847168,0.39812201261520386,-0.057577550411224365,-0.6081700325012207,0.22321593761444092,-0.2881585271811149,0.16787653974131236,-0.819071712381589,-0.4668015457597713,0.731434323703279,2.1352497108742705,0.8198036139296414
1782905464905931008,1.7465319633483887,-1.3490915298461914,-0.10625739395618439,0.8550178408622742,0.624024510383606,-0.6767591238021851,0.3906281292438507,-0.012437045574188232,-0.6893754601478577,0.1958281397819519,-0.2860684218117036,0.16571866669902002,-0.8172217494639277,-0.47207068806240016,0.7433515201812707,2.130101499379758,0.825339280385547
1782905464915850752,1.7564518451690674,-1.8525692224502563,4.936940968036652e-06,1.0316423177719116,0.6177873015403748,-0.6888257265090942,0.3792862296104431,0.06594377756118774,-0.6910418272018433,0.15474092960357666,-0.2827047212477244,0.16404678369219772,-0.8140833943171308,-0.4800363926872118,0.7598679319145321,2.121405069059799,0.8373187979077477
1782905464925772032,1.7663729190826416,-2.259634017944336,0.06842527538537979,1.0821189880371094,0.6102930903434753,-0.7029551267623901,0.3652355372905731,0.09219121932983398,-0.5902578830718994,0.0784597098827362,-0.2783084881124164,0.16273325688944865,-0.8100220058763643,-0.4898232568618279,0.7795439595005981,2.110082145809863,0.8541481646324329
1782905464935691776,1.7762928009033203,-2.4647631645202637,0.006626126356422901,1.2541522979736328,0.6020171642303467,-0.7183879613876343,0.34855931997299194,0.190341055393219,-0.5434374809265137,0.0868958830833435,-0.2734431452906406,0.16139791622226551,-0.8051275535328298,-0.500948127258729,0.801482216334091,2.0956207895757872,0.8748151548236354
1782905464945612032,1.7862129211425781,-2.5717689990997314,-0.023413265123963356,1.4059122800827026,0.5923187136650085,-0.7347686290740967,0.3305656313896179,0.27692872285842896,-0.5572540760040283,0.048951029777526855,-0.26806247203771233,0.15941365801646898,-0.7999188049241132,-0.5126984514688845,0.8253255192530691,2.079827484422068,0.8965963817990541
1782905464955531776,1.7961328029632568,-2.951568365097046,-0.20447306334972382,1.568036675453186,0.5817005038261414,-0.7522143125534058,0.30951252579689026,0.33715319633483887,-0.6014538407325745,0.1493801772594452,-0.2625136532172017,0.15686991371078582,-0.7938186795470693,-0.5256712544519622,0.8514162217733685,2.0597791540018733,0.9220260729620794
1782905464965452800,1.806053876876831,-3.382469892501831,-0.1820753514766693,1.6121184825897217,0.5700631141662598,-0.770803689956665,0.2844110429286957,0.39433807134628296,-0.6445557475090027,0.2358984649181366,-0.2565624104267968,0.15409709820438391,-0.7864220239229579,-0.5403426534925201,0.8801017113776745,2.03357272788213,0.9538669236470838
1782905464975372800,1.8159737586975098,-4.10193395614624,-0.10319997370243073,1.545557975769043,0.5581799149513245,-0.7896978855133057,0.2545832693576813,0.3738727569580078,-0.6308039426803589,0.321207195520401,-0.25001466688076457,0.15219154703509682,-0.7772575908836559,-0.5569569935774237,0.9103163591127504,1.9987075833963166,0.9965093823244262
1782905464985292800,1.8258938789367676,-4.751898765563965,-0.1769133359193802,1.4865328073501587,0.5464432835578918,-0.8084823489189148,0.21853220462799072,0.4444625973701477,-0.6041917204856873,0.37398186326026917,-0.24290858292172085,0.15143540886463855,-0.7657241129880908,-0.5759595795466856,0.9415687820948687,1.9512315420958986,1.0542163569445815
1782905464995214080,1.8358149528503418,-4.9796953201293945,-0.05857037752866745,1.5433906316757202,0.534277617931366,-0.8263733983039856,0.1779176890850067,0.5395597219467163,-0.607189953327179,0.36384570598602295,-0.23525108783753507,0.15112869796046519,-0.7524087703799387,-0.5964043655043431,0.972636699808795,1.8922523158730429,1.124766536959897
1782905465005133824,1.8457348346710205,-4.902581214904785,-0.22815115749835968,1.5882185697555542,0.5213973522186279,-0.8423855900764465,0.13612928986549377,0.5723373293876648,-0.5958925485610962,0.3488255739212036,-0.2272585356279121,0.150593995349048,-0.7385026040893977,-0.6166756439478684,1.0016950151403,1.8261809016282975,1.2023888970798327
1782905465015054080,1.8556549549102783,-4.88254451751709,-0.19956831634044647,1.7534070014953613,0.5073273777961731,-0.8566485047340393,0.09366081655025482,0.6565062403678894,-0.5491284728050232,0.31461870670318604,-0.21917632719074617,0.14912344372522227,-0.7242876554863695,-0.6364993101689465,1.028737851680098,1.753356911983165,1.2853673456279673
1782905465024973824,1.865574836730957,-4.6673665046691895,-0.2918713688850403,1.9030004739761353,0.4915020763874054,-0.8693795800209045,0.051036495715379715,0.6326739192008972,-0.5790303945541382,0.3039592504501343,-0.21054172499865656,0.146809092026363,-0.7099051609969319,-0.6558611777132343,1.053945409839852,1.6742633182818496,1.3740680376442322
1782905465034894848,1.8754959106445312,-4.579921245574951,-0.263973593711853,2.117182731628418,0.47257575392723083,-0.8812509775161743,0.008301441557705402,0.6324046850204468,-0.6881459951400757,0.33979737758636475,-0.20114819069467144,0.14282955643595652,-0.6955217023218035,-0.6748249293796116,1.0785023932977567,1.5883608915894596,1.4681679369467309
1782905465044814848,1.88541579246521,-4.6502509117126465,-0.27548909187316895,2.18973970413208,0.4531410038471222,-0.8907921314239502,-0.03394775465130806,0.5558310747146606,-0.6572729349136353,0.47634583711624146,-0.19137115295738544,0.13887367913941057,-0.6809847457495029,-0.6930735076689907,1.0990854269898134,1.4960194767879045,1.569197710183731
1782905465054734848,1.8953359127044678,-4.845609664916992,-0.1559174805879593,2.1951651573181152,0.433097779750824,-0.898034930229187,-0.07719768583774567,0.5031204223632812,-0.6348934769630432,0.5632206201553345,-0.18121900012930764,0.13485347385306864,-0.6657444691120185,-0.7111669762603381,1.1152821286445898,1.3944034423336988,1.679867288493182
1782905465064654848,1.9052557945251465,-5.142816543579102,-0.020556453615427017,2.2182345390319824,0.41319605708122253,-0.9023739695549011,-0.12243442982435226,0.44414952397346497,-0.5912478566169739,0.6575143933296204,-0.17025468351316705,0.1316871682677594,-0.6491850846311706,-0.7295413249393718,1.1252467959377708,1.282727602854385,1.8029329936913867
1782905465074575872,1.9151768684387207,-5.3133955001831055,0.08595606684684753,2.095707893371582,0.39369767904281616,-0.9035228490829468,-0.16925930976867676,0.41356855630874634,-0.5298420190811157,0.6935513019561768,-0.15877726548347212,0.1291456200777294,-0.6314204228193961,-0.7479435024839055,1.1279201100529586,1.164764041235218,1.933871195111908
1782905465084495872,1.9250967502593994,-5.175303936004639,0.17992357909679413,2.1067440509796143,0.3752073347568512,-0.9014703035354614,-0.2158026248216629,0.4187837541103363,-0.3980444669723511,0.6951879858970642,-0.14711196050375377,0.12721646119899654,-0.6131187972044978,-0.765675772175239,1.123154428732367,1.0488450737346315,2.0638903352205435
1782905465094415872,1.9350168704986572,-5.024919033050537,0.293985515832901,2.1037757396698,0.35688847303390503,-0.8971042037010193,-0.26045066118240356,0.4433281719684601,-0.29981040954589844,0.6362441778182983,-0.13507545446226954,0.1253631365160473,-0.5950283671667499,-0.7822914224904568,1.1131710192688438,0.9403610300804628,2.187128355864551
1782905465104336896,1.9449379444122314,-4.717544078826904,0.25262022018432617,2.3282523155212402,0.3380812108516693,-0.8910894989967346,-0.30275532603263855,0.42238637804985046,-0.27661997079849243,0.5881557464599609,-0.12259581511512142,0.12316075477739609,-0.5774545523167557,-0.7977142864272432,1.0997402448030462,0.8404670521750816,2.3019477171330203
1782905465114256896,1.9548578262329102,-4.384232044219971,0.3492388129234314,2.4845328330993652,0.31771156191825867,-0.8844302296638489,-0.34182241559028625,0.36518028378486633,-0.2933499217033386,0.5526072978973389,-0.10936402793667283,0.12012021201807264,-0.5609455678244105,-0.8117577909745992,1.0852716304995964,0.7488570476189573,2.408406811761255
1782905465124176896,1.964777946472168,-4.430333137512207,0.35093921422958374,2.53493332862854,0.2971358895301819,-0.876395046710968,-0.37900131940841675,0.22209018468856812,-0.300942599773407,0.5705143809318542,-0.09564760512112548,0.1169417919089066,-0.544815529067756,-0.8248346655933394,1.0683249974427294,0.6649065533639068,2.5077780224398385
1782905465134096896,1.9746978282928467,-5.155008316040039,0.37616926431655884,2.5928733348846436,0.27622753381729126,-0.8650412559509277,-0.4188102185726166,0.18417590856552124,-0.39683008193969727,0.4594596028327942,-0.08128104606591356,0.11365761804144256,-0.5269505083572279,-0.8383308054569708,1.0452326221170247,0.5830615885394425,2.605950688574725
1782905465144017920,1.984618902206421,-6.530075550079346,0.30432596802711487,2.390106439590454,0.2565514147281647,-0.8461061120033264,-0.4672108292579651,0.1400398313999176,-0.48088979721069336,0.4192981719970703,-0.06670266679338648,0.11084525104553698,-0.5040911808680472,-0.8539065150851712,1.0086370137290455,0.5021617593796819,2.704419580935779
1782905465153937920,1.9945387840270996,-8.160143852233887,0.21115095913410187,2.206599712371826,0.23912882804870605,-0.8153451681137085,-0.5272852182388306,0.09686972200870514,-0.5136343240737915,0.47754156589508057,-0.052260823372969986,0.10867781718552437,-0.4738634069510649,-0.8723023880462596,0.9533251338079705,0.4257685488227417,2.7995939328268937
1782905465163857920,2.0044589042663574,-9.170212745666504,0.21809807419776917,2.1474556922912598,0.2226783186197281,-0.7722764015197754,-0.5949820876121521,-0.038535237312316895,-0.4805922508239746,0.5458487868309021,-0.037506039104372654,0.1064065125170919,-0.4372489145351064,-0.8922356741667129,0.8824166316752573,0.3581222300196972,2.8870278313349407
1782905465173777920,2.014378786087036,-10.357179641723633,0.35200628638267517,1.7357925176620483,0.21014896035194397,-0.7151860594749451,-0.6665931344032288,-0.23276247084140778,-0.35480600595474243,0.701871395111084,-0.023189608457949682,0.10511734143013354,-0.3945298326920663,-0.9125562403579444,0.7968902780262476,0.30539571647550945,2.961392573606604
1782905465183698944,2.0242998600006104,-11.013298034667969,0.4682562053203583,1.5629568099975586,0.2018057256937027,-0.6438197493553162,-0.7380858063697815,-0.275734543800354,-0.26166731119155884,0.8092527985572815,-0.009346789232909202,0.10477110570981644,-0.34638146141069476,-0.9321779006497003,0.6994798143411054,0.2668945733536843,3.0236903944896643
1782905465193618688,2.034219741821289,-10.97020149230957,0.6663380265235901,1.5251438617706299,0.19736742973327637,-0.5621814727783203,-0.8031177520751953,-0.27161669731140137,-0.2430400848388672,0.8013782501220703,0.004337928444864759,0.1052831969660587,-0.2955614533254662,-0.9494947096549771,0.5970212391461835,0.24097613747133365,3.076253910239106
1782905465203538944,2.044139862060547,-9.770376205444336,0.6708006858825684,1.9656099081039429,0.19355817139148712,-0.47982779145240784,-0.8557456135749817,-0.17199750244617462,-0.24461373686790466,0.7087882161140442,0.019033881054019222,0.10537205146550595,-0.24703022180619036,-0.9630734785166936,0.5004584184072036,0.22244355645164163,3.1240413026529836
1782905465213459968,2.054060935974121,-7.64432954788208,0.6620504260063171,2.1197338104248047,0.1899579018354416,-0.40761512517929077,-0.8931774497032166,-0.2506726384162903,-0.07813313603401184,0.5016369223594666,0.0341662343787411,0.10491780822848215,-0.20592120259423113,-0.9723278191426153,0.4198408398471825,0.209554319903374,-3.1161484582488947
1782905465223379968,2.0639808177948,-4.8593668937683105,0.42580246925354004,2.2382123470306396,0.18677394092082977,-0.3560732305049896,-0.9156021475791931,-0.27426785230636597,0.173089861869812,0.2722458839416504,0.048597333032862323,0.10433761134916976,-0.1769535970177233,-0.977465762047354,0.3640623156026814,0.20122940240802764,-3.07940035627339
1782905465233299968,2.0739009380340576,-2.602203369140625,-0.12225207686424255,2.1234946250915527,0.18080094456672668,-0.32632243633270264,-0.9278063774108887,-0.3000483810901642,0.5466288328170776,0.10642576217651367,0.06131409060433113,0.10227658993020562,-0.16011343635062739,-0.9798692123099899,0.33241042159744627,0.19245732608300037,-3.048990543975388
1782905465243219968,2.0838208198547363,-0.790885865688324,-0.7039772272109985,1.8538851737976074,0.17042919993400574,-0.31474781036376953,-0.933749258518219,-0.32045361399650574,0.6464738845825195,-0.014553964138031006,0.07152628621136962,0.0980744857301443,-0.15331915778701918,-0.9806928633423543,0.32019095400375236,0.18053410365205397,-3.025211125737503
1782905465253140992,2.0937418937683105,-0.1947275996208191,-0.9893847107887268,1.753442406654358,0.15656934678554535,-0.31412118673324585,-0.9363834261894226,-0.31960949301719666,0.28882214426994324,-0.1439083218574524,0.07984234705384143,0.09224994480073857,-0.15263758306428576,-0.9807227347836547,0.3195308582014994,0.16567382709392756,-3.0058835980838667
1782905465263060736,2.1036617755889893,-0.5300244092941284,-1.0740985870361328,1.6391658782958984,0.141489177942276,-0.3137764036655426,-0.9388957023620605,-0.379770427942276,-0.08875042200088501,-0.12957048416137695,0.0874620054203564,0.08572085800196007,-0.15232882898277017,-0.9807131838973753,0.31916771571509694,0.14957196988215044,-2.9878169995141133
1782905465272980992,2.113581895828247,-1.2276142835617065,-0.9462249875068665,1.54799222946167,0.12691622972488403,-0.30788370966911316,-0.9429209232330322,-0.45879489183425903,-0.18445637822151184,-0.09250998497009277,0.09487056931731348,0.07911815939275105,-0.14926434989024348,-0.9810504920240577,0.3129678767712379,0.13379489997281396,-2.9699261820894636
1782905465282902016,2.1235029697418213,-1.9260444641113281,-0.9129709005355835,1.420899510383606,0.11358755826950073,-0.2950666844844818,-0.9487009644508362,-0.5034496188163757,-0.11624923348426819,0.06840616464614868,0.10196202850029984,0.07266748695131886,-0.14271985750781055,-0.9818116388027351,0.2995253083511349,0.11916232524146883,-2.952634231405289
1782905465292821760,2.1334228515625,-2.880143880844116,-0.6632181406021118,1.3226149082183838,0.10200092196464539,-0.27403420209884644,-0.9562954902648926,-0.5803487300872803,0.13876503705978394,0.17861604690551758,0.10899832498145301,0.06652116318779232,-0.1320120900052551,-0.9829887849338224,0.27758531461900054,0.10626079904328121,-2.935583041783077
1782905465302742016,2.143342971801758,-3.457266092300415,-0.5439359545707703,1.0429062843322754,0.09310895949602127,-0.24490702152252197,-0.9650654196739197,-0.7826994061470032,0.5833927392959595,0.23410838842391968,0.11558820248803714,0.06105186728922274,-0.11721757045482757,-0.9844653654810496,0.24742379899449726,0.09618173767806576,-2.9198075490916553
1782905465312661760,2.1532628536224365,-3.081753730773926,-0.41482409834861755,0.6989915370941162,0.08639097958803177,-0.21369606256484985,-0.9730727672576904,-0.8803668022155762,0.7779508233070374,0.10823512077331543,0.1206090902503302,0.05623014222918008,-0.10149774193576917,-0.9858954529247917,0.2153568585734589,0.08854945954059278,-2.907711313196181
1782905465322583040,2.1631839275360107,-2.013110876083374,-0.4557270407676697,0.4943801164627075,0.08097545057535172,-0.18936170637607574,-0.9785627722740173,-0.872982919216156,0.7920838594436646,-0.002272188663482666,0.12391411903557692,0.052248742662387784,-0.08937940489893047,-0.9868772311932849,0.19051205777670216,0.08256126270156407,-2.89966912374018
1782905465332502784,2.1731038093566895,-0.7351291179656982,-0.6954494118690491,0.1004592701792717,0.07432310283184052,-0.17631053924560547,-0.981524646282196,-0.7830633521080017,0.790247917175293,0.08111876249313354,0.1254240043586458,0.0481966952422625,-0.0831549581183086,-0.9874365953825941,0.17723700924941013,0.0755778667597006,-2.8956245251481407
1782905465342423040,2.1830239295959473,0.7350218296051025,-0.7363454103469849,0.2642441987991333,0.06680779904127121,-0.17702192068099976,-0.9819368124008179,-0.6685686707496643,0.6908769011497498,0.10492271184921265,0.12617109887667838,0.04455446337458262,-0.08394331548964606,-0.9874458419798281,0.17795976197296687,0.06793206726438862,-2.8934824248502315
1782905465352343808,2.1929447650909424,1.9326525926589966,-0.8567420840263367,0.3565013110637665,0.05733291432261467,-0.19053013622760773,-0.9800057411193848,-0.49042314291000366,0.535638153553009,0.030634403228759766,0.12682735176062504,0.04078004416855613,-0.09129145893440213,-0.9868726649639273,0.1917021516918272,0.05843602591983432,-2.89158496449377
1782905465362263808,2.2028648853302,2.0042879581451416,-0.9515138268470764,0.19278612732887268,0.04681769385933876,-0.21045714616775513,-0.9764813780784607,-0.45462408661842346,0.3542101979255676,-0.009724676609039307,0.12752440736528464,0.0369320415396645,-0.10195749511709498,-0.9858896111042317,0.2120425532599735,0.047908613306266674,-2.8894214124711017
1782905465372183808,2.212784767150879,1.8542635440826416,-0.6864444613456726,0.1182677298784256,0.03764936700463295,-0.2293241024017334,-0.972621738910675,-0.585012674331665,0.3937680721282959,0.05903226137161255,0.1276644770757167,0.03363904170776689,-0.11206051948006839,-0.9848922651295657,0.23138321919896182,0.038689842771126796,-2.888281331169689
1782905465382103808,2.2227048873901367,1.8452762365341187,-1.006208896636963,-0.20801371335983276,0.027644645422697067,-0.24668903648853302,-0.9687002897262573,-0.6734423637390137,0.6361849308013916,-0.1270638108253479,0.12663733834062,0.02968617213090527,-0.12152602506753347,-0.9840290412153719,0.24926220320978384,0.028530129387227245,-2.88918876196597
1782905465392025088,2.232625961303711,2.351794481277466,-1.0459784269332886,-0.37200620770454407,0.017705848440527916,-0.2666811943054199,-0.9636221528053284,-0.6457576155662537,0.8908114433288574,-0.19517606496810913,0.12477109368686272,0.02580870107176025,-0.13237384759625656,-0.9829767916442663,0.2699478749644612,0.018372197734641608,-2.891574289918901
1782905465401944832,2.2425458431243896,2.9577109813690186,-1.1093683242797852,-0.4557594358921051,0.007103677839040756,-0.2917358875274658,-0.9564725160598755,-0.601799726486206,0.9675934314727783,-0.10965907573699951,0.12152743297512104,0.021685265292634686,-0.14592286544558924,-0.9815637416812018,0.29604118130363716,0.0074268177344461095,-2.896333772940045
1782905465411865088,2.2524659633636475,3.3889758586883545,-1.2098121643066406,-0.4080367684364319,-0.0041522434912621975,-0.3215985894203186,-0.9468669891357422,-0.39544492959976196,0.7107892632484436,-0.1605091094970703,0.11808723536954148,0.017417429278549952,-0.1620590419480696,-0.9795350548775894,0.32741726876553706,-0.004385216461655034,-2.900917487612681
1782905465421785856,2.2623867988586426,3.395413875579834,-1.0372278690338135,-0.3073008358478546,-0.01576002687215805,-0.352957546710968,-0.9355065822601318,-0.23221056163311005,0.4210270345211029,-0.1250402331352234,0.11551108389590112,0.013109705236229915,-0.17909450059374885,-0.9769393193127859,0.3607302217692007,-0.01684492255596756,-2.903138336352307
1782905465431705856,2.2723069190979004,2.8295035362243652,-0.8519201278686523,0.12691223621368408,-0.026230959221720695,-0.3822203278541565,-0.9236988425254822,-0.12890516221523285,0.2233763337135315,-0.16022449731826782,0.11403289113487271,0.009374883690064967,-0.1950966324901587,-0.9740871398354475,0.3921978771024625,-0.028390109628906226,-2.902880517059776
1782905465441625856,2.282226800918579,1.5177018642425537,-0.5504658222198486,-0.2691813111305237,-0.03503349795937538,-0.4027327299118042,-0.9146469235420227,0.15351800620555878,0.0622023344039917,-0.007121264934539795,0.11352232939585172,0.006096614458260595,-0.20649300708368232,-0.971821089241415,0.41450043704317024,-0.038284039836045315,-2.90096777244171
1782905465451545856,2.292146921157837,0.44612640142440796,-0.0897631049156189,-0.5564684867858887,-0.03794756531715393,-0.40943920612335205,-0.911547839641571,0.31768694519996643,0.11793529987335205,0.3413269519805908,0.1106525657404962,0.004417861473225241,-0.2102535344277299,-0.9713546852446547,0.4218393000619247,-0.04160578698400144,-2.9058299235505425
1782905465461466880,2.302067756652832,0.4846053719520569,-0.1994539201259613,-0.4680033326148987,-0.04017770662903786,-0.4122488796710968,-0.910184919834137,0.6660321950912476,0.0021994411945343018,0.23718076944351196,0.10851581788193641,0.002990877839435362,-0.21189287689818656,-0.9712449508770683,0.4249210881833007,-0.04411371899027858,-2.9095408998653696
1782905465471386880,2.31198787689209,1.6035970449447632,-0.19853098690509796,-0.5367298126220703,-0.040990617126226425,-0.42117440700531006,-0.9060529470443726,0.9052941799163818,0.04249703884124756,0.21917855739593506,0.1059364798215046,0.002538092578330467,-0.21671893042660134,-0.970465867786541,0.43473978173294553,-0.04521003597664602,-2.9141461396619235
1782905465481306880,2.3219077587127686,1.3554540872573853,-0.22936666011810303,0.04744308441877365,-0.04261879622936249,-0.43524423241615295,-0.899303138256073,0.9916849732398987,0.12073010206222534,-0.1413920521736145,0.10488303425094848,0.0022950203047956237,-0.22437285278158475,-0.9688400531677053,0.4503095321786504,-0.04735548288476093,-2.9150718140187806
1782905465491227904,2.3318288326263428,0.15094923973083496,-0.3190016746520996,0.08581211417913437,-0.04647069424390793,-0.4419160783290863,-0.8958519101142883,0.889167845249176,0.1656557023525238,0.16956406831741333,0.10505774055046599,0.0007628837809060598,-0.22819609465324042,-0.9679302258426271,0.45773352578139914,-0.05182673633447009,-2.9132865360935627
1782905465501147904,2.3417489528656006,-0.7801195979118347,-0.16017472743988037,0.32534533739089966,-0.049818381667137146,-0.4389380216598511,-0.8971351981163025,0.45515286922454834,-0.10215389728546143,0.10170978307723999,0.10546968560714455,-0.0010227755425807224,-0.22678481299623104,-0.96821687155514,0.45441640758966934,-0.05547354499894653,-2.911755966124355
1782905465511067904,2.3516688346862793,-1.7504289150238037,-0.4184803366661072,0.10223746299743652,-0.05335814505815506,-0.4274030029773712,-0.9024852514266968,0.29554563760757446,-0.3752245604991913,-0.005275368690490723,0.10689502675253187,-0.0031749645518077472,-0.22078792521414048,-0.9694410862407414,0.44161822252424726,-0.05905481925638554,-2.9086910984800367
1782905465520987904,2.361588954925537,-2.726517915725708,-0.2687118947505951,0.08025040477514267,-0.0564594641327858,-0.40635237097740173,-0.9119704365730286,-0.1812724620103836,-0.30171647667884827,-0.12985390424728394,0.10665378348526065,-0.006032799594094783,-0.2097102399879198,-0.9719106191600708,0.41845842779753206,-0.06183040151213293,-2.90986204986831
1782905465530908928,2.3715097904205322,-2.474794626235962,-0.1306944042444229,0.6788504719734192,-0.06015206128358841,-0.38291481137275696,-0.9218232035636902,0.008745208382606506,-0.32944175601005554,-0.18268424272537231,0.10835033561948537,-0.00890532850267696,-0.19750721695953388,-0.9742545651763178,0.39294955216067595,-0.06516097960221652,-2.907101606909029
1782905465540828672,2.381429672241211,-3.55157470703125,0.1228792741894722,-0.36773988604545593,-0.06129009276628494,-0.3546008765697479,-0.9330068230628967,-0.006260555237531662,-0.19059565663337708,-0.20282691717147827,0.10928686733492338,-0.010930210586070228,-0.1826940343162022,-0.9770158123133892,0.3624871571061925,-0.06559668989457222,-2.9067780753713355
1782905465550748928,2.3913497924804688,-3.891904592514038,-0.05660180374979973,-0.24220426380634308,-0.060596298426389694,-0.31941765546798706,-0.9456745982170105,0.0761144831776619,-0.04001837968826294,-0.064380943775177,0.10754966557542817,-0.012878829749652536,-0.16430714396284204,-0.9804439496073143,0.32511489352967515,-0.0639898416890169,-2.912578474078819
1782905465560669696,2.401270627975464,-3.6020500659942627,-0.05792619660496712,-0.2324640303850174,-0.06259990483522415,-0.28326335549354553,-0.9569969177246094,0.34369730949401855,-0.11079487204551697,-0.025806427001953125,0.10588085800756832,-0.016134584099772774,-0.14574364843610343,-0.9835078095289208,0.28719512097099925,-0.0653197995385897,-2.917657954680261
1782905465570589696,2.4111907482147217,-2.793333053588867,0.005358614027500153,0.0400911346077919,-0.06303561478853226,-0.25278690457344055,-0.9654663801193237,0.28811800479888916,0.07306888699531555,-0.24396049976348877,0.10562416950553276,-0.01802773655875819,-0.13016075707645763,-0.9856858607310193,0.25555963395237047,-0.06519778946807789,-2.9197117333685023
1782905465580509696,2.4211106300354004,-1.9541314840316772,-0.44246232509613037,-0.26908135414123535,-0.06592884659767151,-0.22966814041137695,-0.9710334539413452,0.3746141493320465,0.24286699295043945,-0.5081535577774048,0.10468224492046384,-0.020822883564799114,-0.11853139055747741,-0.9871972163286464,0.23173669990584964,-0.06779150962329526,-2.922409325111403
1782905465590429696,2.431030750274658,-0.6739781498908997,-0.4959997534751892,0.05740034580230713,-0.06988906860351562,-0.21691156923770905,-0.9736862182617188,0.4271278381347656,0.20253778994083405,-0.5052566528320312,0.10378315151043395,-0.023578264126184873,-0.11225394055876375,-0.9879636529510789,0.2186496006582773,-0.07165492772303389,-2.9243969501968268
1782905465600350976,2.4409518241882324,-0.057242251932621,-0.7064384818077087,0.003209545975551009,-0.07574798911809921,-0.2135210633277893,-0.9739974141120911,0.3948550522327423,0.0930224061012268,-0.45982521772384644,0.10371601539255833,-0.026695679846193227,-0.11085407181578665,-0.9880494449016464,0.21517773636361376,-0.07761399034366963,-2.924030820997501
1782905465610270720,2.450871706008911,0.26702791452407837,-0.5382242202758789,0.15241844952106476,-0.08254904299974442,-0.21491090953350067,-0.973138689994812,0.2634114623069763,-0.030526697635650635,-0.2504482865333557,0.10362173412694342,-0.0300414631335451,-0.11192924015975408,-0.987841982037608,0.21660060524596336,-0.08462502863237016,-2.9233565732816627
1782905465620190976,2.460791826248169,0.6401482224464417,-0.6988956332206726,0.28368672728538513,-0.08867304772138596,-0.21928153932094574,-0.9716237187385559,0.26953548192977905,-0.07145941257476807,-0.06812536716461182,0.10462621746066658,-0.03276942150717073,-0.11451765498899731,-0.9873526315451308,0.22107802178548405,-0.09101062856884164,-2.920339485397971
1782905465630110720,2.4707117080688477,0.5363156795501709,-0.7127321362495422,0.06763450801372528,-0.09670311212539673,-0.22520959377288818,-0.969499409198761,0.22350364923477173,-0.060190796852111816,0.007600605487823486,0.10513443864240825,-0.03642830687675524,-0.1179968697412657,-0.9867606548367706,0.2271581550200918,-0.09941656727957854,-2.917953831651336
1782905465640031744,2.480632781982422,0.17637643218040466,-0.4304652512073517,0.18740831315517426,-0.10228374600410461,-0.2285844385623932,-0.9681359529495239,0.13393047451972961,0.0016099512577056885,0.21328365802764893,0.1054002617120669,-0.03902091775273372,-0.12003915697191331,-0.9863867321638541,0.23062337004732142,-0.10525971646895262,-2.9164878215674777
1782905465649951744,2.4905526638031006,-0.5616965293884277,-0.36180686950683594,-0.07085452973842621,-0.10641772300004959,-0.22710852324962616,-0.9680377244949341,0.2339354306459427,-0.06747767329216003,0.16557800769805908,0.10545281312001592,-0.04116615643393707,-0.11952612704989671,-0.9863562712712084,0.22910758255284583,-0.10949173174379245,-2.9159685678375853
1782905465659871744,2.5004727840423584,-1.561671495437622,-0.10387971997261047,0.09418236464262009,-0.10869845747947693,-0.21677438914775848,-0.9701513051986694,0.29896029829978943,-0.13777883350849152,0.33482110500335693,0.10518994782640848,-0.04287699956869361,-0.11439371549679596,-0.9869198022899389,0.21850907120865073,-0.11157744529229252,-2.916974583728469
1782905465669792768,2.5103936195373535,-2.542931079864502,-0.0300316009670496,0.06443065404891968,-0.10957293957471848,-0.19706551730632782,-0.9742478728294373,0.3672786355018616,-0.1755388379096985,0.28522205352783203,0.10521541880542458,-0.04433015793282243,-0.104455209338837,-0.9879543182775263,0.19836383810566896,-0.11199860607425538,-2.9182396168883327
1782905465679712768,2.5203137397766113,-3.3708274364471436,-0.18128129839897156,0.17787307500839233,-0.11046156287193298,-0.16768872737884521,-0.9796319603919983,0.16430982947349548,-0.19936144351959229,0.05028015375137329,0.10483829497249955,-0.04632456476117268,-0.08965525800954263,-0.9893558231390968,0.16848472799152456,-0.11228395883578278,-2.9209567685735016
1782905465689632768,2.53023362159729,-3.9956181049346924,0.08599604666233063,0.16374629735946655,-0.11105979979038239,-0.13174089789390564,-0.9850431680679321,0.15949119627475739,-0.29794660210609436,-0.17705094814300537,0.10522684515145454,-0.0484433541626469,-0.07163555808581229,-0.990681087899999,0.13212498508076634,-0.11227200073184739,-2.922517313670126
1782905465699553792,2.5401546955108643,-4.8034257888793945,0.16526077687740326,-0.18406839668750763,-0.1098053827881813,-0.0881086066365242,-0.9900402426719666,-0.009075842797756195,-0.1062120720744133,-0.27543216943740845,0.10383103075593994,-0.05014382122593311,-0.04965362850330777,-0.9920883858071351,0.0882230068244439,-0.1104585766176758,-2.9281532400288413
1782905465709473792,2.550074815750122,-4.863610744476318,0.04505261033773422,-0.6342688798904419,-0.10875771194696426,-0.0406741239130497,-0.9932358264923096,-0.019812844693660736,0.1820010244846344,-0.41144251823425293,0.10039248838909623,-0.05214629799835152,-0.025746023548153207,-0.993246904457635,0.0406853466125842,-0.1090638773544507,-2.9379056231875964
1782905465719393792,2.559994697570801,-4.3885369300842285,0.08549057692289352,-0.4662303030490875,-0.10764435678720474,0.004534450359642506,-0.9941791296005249,0.09540680795907974,0.25515487790107727,-0.4320751428604126,0.09636560570325496,-0.053868203499643344,-0.0029418121178376964,-0.9938829472001762,-0.004534465860337665,-0.10785444602516905,-2.9485242905477236
1782905465729313792,2.5699148178100586,-4.3241987228393555,-0.2564445734024048,-0.5675418376922607,-0.10861101746559143,0.046793606132268906,-0.9929823875427246,0.31445208191871643,0.024876922369003296,-0.4840378761291504,0.09294928820616978,-0.056347060076576555,0.01827070185252863,-0.9939073269297934,-0.04681070085247818,-0.10894550612015254,-2.957649863615404
1782905465739234560,2.5798356533050537,-4.25578498840332,-0.4223581850528717,-0.7279583811759949,-0.11256222426891327,0.08784684538841248,-0.9897538423538208,0.21999935805797577,-0.13914689421653748,-0.5611494779586792,0.08809938539352064,-0.060094857720184774,0.03888039424470533,-0.9935367628463505,-0.0879602229824537,-0.11324094779910233,-2.9696991549351655
1782905465749154816,2.5897557735443115,-3.8840746879577637,-0.6800937056541443,-0.5123485922813416,-0.11831342428922653,0.1272139847278595,-0.9847936630249023,0.19746077060699463,-0.245637446641922,-0.6854486465454102,0.08396092644652074,-0.06455302391197132,0.05861810013999937,-0.9926466402378034,-0.12755963261744413,-0.11956725206490754,-2.980473962779651
1782905465759074560,2.5996756553649902,-3.2006962299346924,-0.6234040856361389,-0.44052690267562866,-0.1251520961523056,0.16128498315811157,-0.9789403080940247,0.09129282832145691,-0.22694355249404907,-0.8146693110466003,0.08072972349026597,-0.06928013356287413,0.07569751229616153,-0.99143982725964,-0.16199255031652512,-0.12715470101171342,-2.9894331358723987
1782905465768995840,2.6095967292785645,-2.553814649581909,-0.770033597946167,-0.6002610921859741,-0.13303792476654053,0.1880015730857849,-0.9731168150901794,0.07029378414154053,-0.3259715437889099,-0.7250795960426331,0.0773367175991806,-0.07413602695093358,0.08913723004917479,-0.9902411098322936,-0.18912704048416423,-0.13587088905728317,-2.998617867324221
1782905465778915840,2.6195168495178223,-2.332524538040161,-0.9659770131111145,-0.4812031090259552,-0.1420777142047882,0.21059328317642212,-0.9671940803527832,0.2144043743610382,-0.24027162790298462,-0.5071711540222168,0.07440641157138377,-0.07939227658025552,0.10049788022171505,-0.988969559430732,-0.21218180779939863,-0.14585366052784632,-3.0069623568399013
1782905465788835840,2.629436731338501,-1.7400511503219604,-1.0611361265182495,-0.46191543340682983,-0.1529737263917923,0.22933414578437805,-0.9612517356872559,0.1652570515871048,0.022405341267585754,-0.35935068130493164,0.07167917223829451,-0.0854177562260244,0.10989968475112055,-0.9876679958091871,-0.23139354624093986,-0.15781674886745553,-3.0150768205407816
1782905465798755840,2.639356851577759,-1.2162052392959595,-0.9666057229042053,-0.4650086760520935,-0.1636723279953003,0.24285483360290527,-0.9561553001403809,0.1288670301437378,-0.04307150840759277,-0.29880380630493164,0.06942534154994093,-0.09116315534732966,0.11666894345424962,-0.9865382892965595,-0.245307701665951,-0.16953441583349108,-3.022027340469959
1782905465808676608,2.649277687072754,-1.2055367231369019,-0.9667842388153076,-0.6141679883003235,-0.1741701364517212,0.25251418352127075,-0.9517884850502014,0.11662924289703369,-0.19219622015953064,-0.2451413869857788,0.06685912621719788,-0.09660187946496135,0.12154762102800486,-0.9856085002418846,-0.2552777541971548,-0.18098997750250773,-3.029419621478789
1782905465818596864,2.6591978073120117,-1.3640930652618408,-0.9014848470687866,-0.5796414017677307,-0.18379727005958557,0.2637002468109131,-0.946932315826416,0.14058436453342438,-0.22128081321716309,0.044237613677978516,0.06402524425048765,-0.10161816661824456,0.12730909150264516,-0.9845643890002509,-0.2668562321740959,-0.19171376736951054,-3.0375280819273844
1782905465828516608,2.6691176891326904,-1.384713888168335,-0.7999114990234375,-0.5110078454017639,-0.19336791336536407,0.2758869230747223,-0.9415387511253357,0.19060607254505157,-0.2235035002231598,0.007273614406585693,0.061102440944211356,-0.10662237869079946,0.13364986873830467,-0.9833797766831108,-0.27951232326503067,-0.20255782715463014,-3.0460722681431904
1782905465838437888,2.6790387630462646,-1.089734673500061,-0.7918291091918945,-0.4126701056957245,-0.20208153128623962,0.2867589592933655,-0.9364466667175293,0.17699608206748962,-0.24311882257461548,-0.0606083869934082,0.05874505848669564,-0.111201553038497,0.1393229499846646,-0.9822282155375426,-0.2908419828602509,-0.2125369607211534,-3.0533612884286403
1782905465848357632,2.6889586448669434,-1.1689273118972778,-0.7823736667633057,-0.4559101462364197,-0.21076788008213043,0.29618367552757263,-0.9315857887268066,0.19579902291297913,-0.34569844603538513,-0.059655606746673584,0.05643094474659622,-0.11571000699335575,0.14428544025001505,-0.9811260659567356,-0.3006945483982505,-0.22250040972404783,-3.060529439933351
1782905465858277888,2.698878765106201,-1.2929967641830444,-0.5535481572151184,-0.27594491839408875,-0.21822327375411987,0.3069162964820862,-0.9263805747032166,0.22173281013965607,-0.39007672667503357,-0.09710264205932617,0.05453015566805883,-0.11969317629216875,0.149944166933712,-0.9799064630801207,-0.31195124603262553,-0.23134776875296728,-3.0669498544592533
1782905465868197632,2.70879864692688,-1.4288614988327026,-0.5083354115486145,-0.16767734289169312,-0.2237280011177063,0.31891459226608276,-0.9209990501403809,0.1237066388130188,-0.31500834226608276,-0.13143014907836914,0.0528634177560546,-0.12275097394633588,0.15630951933051027,-0.9786240539754981,-0.3245840500733715,-0.2383029938129075,-3.072859858774829
1782905465878118656,2.718719720840454,-1.1587690114974976,-0.5100874900817871,-0.033068399876356125,-0.22890207171440125,0.3306904733181,-0.9155586361885071,0.20026133954524994,-0.38438618183135986,-0.13062965869903564,0.051935054964565484,-0.12574741341027257,0.16250619729534388,-0.9772829703768293,-0.3370351200277468,-0.2449914232869979,-3.0772922264117395
1782905465888038912,2.728639841079712,-0.9227427244186401,-0.5830464363098145,0.2535296082496643,-0.23339518904685974,0.34034234285354614,-0.9108752608299255,0.19228802621364594,-0.43506893515586853,-0.06455802917480469,0.05215678890539969,-0.12850747396816495,0.16747593677759381,-0.9760723997729303,-0.34728096249334295,-0.25083520159625583,-3.079046635370791
1782905465897958656,2.7385597229003906,-0.23556438088417053,-0.652636706829071,0.27220821380615234,-0.23811206221580505,0.34663745760917664,-0.9072734713554382,0.17092761397361755,-0.34601184725761414,-0.003920376300811768,0.05355010690346011,-0.13146479989172322,0.17052941159624288,-0.9750739085301644,-0.353983926204143,-0.2566596335574707,-3.078017379211262
1782905465907879936,2.748480796813965,0.40214803814888,-0.7829663753509521,0.3004230260848999,-0.24319802224636078,0.34645894169807434,-0.9059916734695435,0.07304726541042328,-0.25696614384651184,-0.07879531383514404,0.0557252379902412,-0.1344879772670523,0.17005042268933745,-0.9746232453267889,-0.35379360308827196,-0.2622506841805886,-3.07450781367051
1782905465917799680,2.7584006786346436,1.066347599029541,-0.8180463314056396,0.387762188911438,-0.24967728555202484,0.3404412567615509,-0.9065103530883789,0.04746781289577484,-0.1066155731678009,-0.020232200622558594,0.05821188026646733,-0.13803017583192562,0.1664106477427606,-0.9746109305636481,-0.3473861554564978,-0.2687630036613908,-3.069712248774976
1782905465927719936,2.7683207988739014,1.6201895475387573,-0.751545786857605,0.50128573179245,-0.25482088327407837,0.32938769459724426,-0.9091590046882629,0.15130525827407837,-0.18757250905036926,-0.03185051679611206,0.06219653261404542,-0.14087269720707415,0.15992306499825543,-0.9750441431916096,-0.33565499399567733,-0.2732701575516623,-3.0607680100840517
1782905465937639680,2.77824068069458,1.9035141468048096,-0.7619014978408813,0.39875614643096924,-0.26056888699531555,0.3144533634185791,-0.9128105044364929,0.06702637672424316,-0.1123201847076416,0.042861104011535645,0.0662785175010034,-0.14381009568616324,0.1513717885612301,-0.975711295893708,-0.31988075609839584,-0.2780625185660202,-3.051084391906348
1782905465947560704,2.7881617546081543,2.047328472137451,-0.5541269779205322,0.38279813528060913,-0.2652903199195862,0.29731646180152893,-0.9171826243400574,0.02769571542739868,-0.10456743836402893,0.018760383129119873,0.06993498033042533,-0.14597928121514325,0.14177000730443748,-0.9765758543241858,-0.3018807670495206,-0.2815606778097299,-3.041714954435693
1782905465957480704,2.798081636428833,2.0673673152923584,-0.4037652015686035,0.38954606652259827,-0.2685336768627167,0.2794729173183441,-0.921837568283081,0.08220863342285156,-0.147621750831604,-0.05089491605758667,0.07364209837426412,-0.1472919347371244,0.1318570732431857,-0.9774945543371802,-0.2832451077055093,-0.283458529025448,-3.0318834086658377
1782905465967400704,2.808001756668091,2.280513048171997,-0.4502077102661133,0.2223966270685196,-0.27125686407089233,0.2602848410606384,-0.9266452789306641,0.07190078496932983,-0.07070964574813843,-0.05649375915527344,0.07700899634185049,-0.1481639675864306,0.12134573469308715,-0.9784642522199154,-0.2633172037001197,-0.28477378250868873,-3.0224720140857273
1782905465977321984,2.817922830581665,2.615173578262329,-0.3608107268810272,0.0035369815304875374,-0.27442997694015503,0.23773562908172607,-0.9317563772201538,0.10011357069015503,0.10012447834014893,-0.01849997043609619,0.07962870769317708,-0.14895831104960525,0.10923933030669102,-0.9795598294668632,-0.24003398287892583,-0.28643069979198166,-3.0141459400497665
1782905465987241728,2.8278427124023438,2.5955326557159424,-0.6626541018486023,-0.11678862571716309,-0.27909693121910095,0.21338333189487457,-0.9362545013427734,0.10128626227378845,0.18442855775356293,0.08041954040527344,0.08143528530999189,-0.1503148945216836,0.0963233732618693,-0.9805587986768478,-0.21503675301397399,-0.28971225624743674,-3.007361157775411
1782905465997161984,2.8377628326416016,2.1227951049804688,-0.4299124479293823,0.022210534662008286,-0.28496792912483215,0.19076946377754211,-0.9393616318702698,0.19939664006233215,0.050288885831832886,0.20410162210464478,0.0832696899246877,-0.15236709662292483,0.08428194439840078,-0.9811967362789382,-0.1919459418391615,-0.29453961032140064,-3.000827303670689
1782905466007081728,2.8476827144622803,1.3559186458587646,-0.16389954090118408,-0.14035843312740326,-0.28733208775520325,0.1745031177997589,-0.9418008923530579,0.18555596470832825,-0.15488030016422272,0.42115575075149536,0.08452012562623787,-0.15286126655324359,0.07571647205823587,-0.9817111191689657,-0.17540111478705184,-0.2961180513905149,-2.9960537385892523
1782905466017002752,2.8576037883758545,0.9677058458328247,-0.0006379121914505959,-0.1782110035419464,-0.2882794141769409,0.16343936324119568,-0.9434948563575745,0.19964110851287842,-0.13841494917869568,0.37159544229507446,0.08464078780273131,-0.15279796927877573,0.07003817546177556,-0.9821320788442645,-0.16417589065196703,-0.29653543937518895,-2.9942320998162817
1782905466026922752,2.867523670196533,1.0270919799804688,-0.045636583119630814,-0.20519186556339264,-0.28848183155059814,0.15385791659355164,-0.9450428485870361,0.25147926807403564,0.017727166414260864,0.24841809272766113,0.0843558977478598,-0.1524011725178644,0.06521091885718047,-0.9825504813656654,-0.15447150123133227,-0.2962735943399582,-2.9934013567831714
1782905466036842752,2.877443790435791,1.9847700595855713,-0.3113976716995239,-0.23619771003723145,-0.2905151844024658,0.13945098221302032,-0.9466543197631836,0.3104736804962158,0.011961981654167175,0.1379995346069336,0.08443881731814795,-0.15274306834326778,0.057813578567686985,-0.9829533129491094,-0.13990696092695318,-0.2977624245866016,-2.991225350845961
1782905466046763776,2.887364625930786,3.0436761379241943,-0.2974644899368286,0.03201080113649368,-0.2938847243785858,0.11532630026340485,-0.9488580822944641,0.2649540603160858,-0.022323988378047943,0.02916508913040161,0.08593616586398742,-0.1533781279695354,0.04523403137768291,-0.983383999341868,-0.11558348708572215,-0.3003544256938425,-2.984767861086952
1782905466056683776,2.897284746170044,3.7745513916015625,-0.11185014247894287,-0.020806606858968735,-0.29553863406181335,0.08278797566890717,-0.9517368674278259,0.15009185671806335,0.12430430948734283,0.06352275609970093,0.08880417721654858,-0.1527464139147503,0.02828597793168153,-0.9838609110438742,-0.08288283750375677,-0.30108508098422093,-2.9741382536226793
1782905466066603776,2.9072046279907227,4.148338794708252,0.010994319804012775,-0.1595706045627594,-0.2961602509021759,0.045128874480724335,-0.9540715217590332,-0.001370847225189209,0.31307119131088257,0.18193107843399048,0.09314855876294686,-0.151294818403522,0.008608833128826933,-0.9840524186960393,-0.04514420710596666,-0.3009862948042357,-2.959685611078252
1782905466076523776,2.9171247482299805,4.427278995513916,0.1393197923898697,-0.5062497854232788,-0.295632541179657,0.0033149225637316704,-0.955295979976654,0.05822104215621948,0.44442373514175415,0.26332515478134155,0.09474355537580971,-0.14896922688926664,-0.012656239790968925,-0.9842111935728738,-0.003314928723673388,-0.30011930345152504,-2.950158391567961
1782905466086444800,2.9270458221435547,4.371285438537598,0.10943201929330826,-0.4843536913394928,-0.2941567301750183,-0.03992793709039688,-0.9549227952957153,0.08933800458908081,0.4944719970226288,0.46534454822540283,0.09716896216039657,-0.14605952840293995,-0.034716046829515755,-0.983879930033245,0.03993855461327058,-0.2988187181862662,-2.9386963679999285
1782905466096364800,2.9369657039642334,3.718686580657959,0.07082284241914749,-0.6886064410209656,-0.2927916347980499,-0.08043219894170761,-0.9527873396873474,0.22310474514961243,0.3410828113555908,0.6392039656639099,0.09918895195126502,-0.14332119013949995,-0.05536569221663187,-0.983135478719967,0.08051917265023499,-0.2981405809251741,-2.9283932146241654
1782905466106284800,2.946885824203491,2.526235342025757,0.07407578080892563,-0.9038102030754089,-0.2917199730873108,-0.11211160570383072,-0.9499107599258423,0.2180810570716858,0.2783866226673126,0.7209984064102173,0.09908569575752582,-0.14127885225433898,-0.07130854342811362,-0.9824140739266786,0.11234780030684575,-0.2979600557979049,-2.9236738343346804
1782905466116205568,2.9568066596984863,1.6495640277862549,0.44056907296180725,-0.7379317879676819,-0.28819024562835693,-0.13438564538955688,-0.9480964541435242,0.19326531887054443,-0.009519994258880615,0.5785591006278992,0.09830484194375612,-0.13849463314577942,-0.08228613243950805,-0.9820307784267145,0.13479345592962932,-0.2950924510238322,-2.9219865958081965
1782905466126125824,2.966726779937744,0.5002995729446411,0.4715929925441742,-0.6566717028617859,-0.2826657295227051,-0.14651772379875183,-0.9479623436927795,0.053600817918777466,-0.11571982502937317,0.4856668710708618,0.0974544378202312,-0.13517814011479073,-0.08800957853062091,-0.9820813961542233,0.14704707688675323,-0.2897884644770962,-2.922280628422222
1782905466136045568,2.976646661758423,-0.16386136412620544,0.7714779376983643,-0.7499979138374329,-0.2752416431903839,-0.1501927226781845,-0.9495705366134644,0.04585626721382141,-0.034438639879226685,0.47111594676971436,0.0961794013233595,-0.13131685077207556,-0.0892783200957772,-0.9826163317712092,0.15076319964747167,-0.2821274234514348,-2.9250031807845214
1782905466145965824,2.9865667819976807,-0.8557699918746948,0.6612110137939453,-0.8679415583610535,-0.26704496145248413,-0.14770998060703278,-0.9522965550422668,-0.005721151828765869,0.08951295912265778,0.36167460680007935,0.09369423370858819,-0.12744599505662685,-0.08723093378133649,-0.9835495060002584,0.14825244564826365,-0.27340003380650746,-2.9312131563852724
1782905466155886592,2.996487617492676,-1.4176805019378662,0.7737559676170349,-0.79877769947052,-0.25928857922554016,-0.13910992443561554,-0.9557289481163025,0.06801968812942505,0.09044966101646423,0.30916833877563477,0.090968956076038,-0.12407694288740308,-0.0821001210644591,-0.9846771331181006,0.13956254234840873,-0.2649224376580828,-2.9387213033859623
1782905466165806848,3.0064077377319336,-2.411489725112915,0.9635242223739624,-0.8953324556350708,-0.24999576807022095,-0.12326496839523315,-0.9603686332702637,-0.06317561864852905,0.054249465465545654,0.36445188522338867,0.08735347818619564,-0.12027000806490433,-0.07314931280341151,-0.9861813306408869,0.12357927320302345,-0.25466056763657585,-2.949057974571607
1782905466175726592,3.0163276195526123,-2.8317651748657227,1.3251817226409912,-0.8436317443847656,-0.23827390372753143,-0.09967650473117828,-0.9660694003105164,-0.05519837141036987,0.01302184909582138,0.35037732124328613,0.08369931718057107,-0.11548824897201204,-0.06023081243545695,-0.9879418468469253,0.09984230174595173,-0.24181629728189877,-2.9604136579654132
1782905466185647616,3.0262486934661865,-3.6636922359466553,1.1811206340789795,-1.1077632904052734,-0.22494249045848846,-0.07117381691932678,-0.9717690944671631,-0.045275405049324036,-0.02404101938009262,0.07282805442810059,0.07746853510242287,-0.11013191732260383,-0.044569242755581995,-0.9898904647647153,0.07123404866197894,-0.22747102445793,-2.9772512528967106
1782905466195567872,3.0361688137054443,-4.046499729156494,1.1269018650054932,-1.0550217628479004,-0.21351344883441925,-0.035775937139987946,-0.9762848615646362,0.05418117344379425,0.18934039771556854,0.09599006175994873,0.07002211983108057,-0.10586099077253708,-0.025515310463047596,-0.9915842427871568,0.03578357375566282,-0.21530994213328106,-2.9967262530172345
1782905466205487616,3.046088695526123,-3.979440212249756,0.9885483980178833,-0.9402793645858765,-0.20278503000736237,0.0009692038875073195,-0.9792227745056152,0.053157344460487366,0.24382755160331726,-0.12516260147094727,0.06324387732678621,-0.10174810213375528,-0.005993618143608643,-0.9927797200861755,-0.0009692040450686518,-0.20420130038151055,-3.0144562057921505
1782905466215407872,3.056008815765381,-3.944918394088745,0.9299865365028381,-1.002697229385376,-0.1940642148256302,0.037572283297777176,-0.9802690744400024,-0.029354974627494812,0.35558566451072693,-0.16087472438812256,0.05647678615297937,-0.09842866690156109,0.01331440204889799,-0.9934510304328721,-0.03758112801845631,-0.19544321888335198,-3.031701380623889
1782905466225328640,3.065929651260376,-3.6885931491851807,0.8649523258209229,-0.9884300231933594,-0.18529559671878815,0.07250204682350159,-0.980004608631134,-0.08133649826049805,0.3154374063014984,-0.15434902906417847,0.04967251133300453,-0.09481718017754687,0.03173965135964662,-0.9937479971421961,-0.07256571396738765,-0.1868702270761684,-3.0485087079854627
1782905466235248896,3.075849771499634,-3.8046367168426514,0.7415661811828613,-0.9830394983291626,-0.1783575415611267,0.10730022192001343,-0.9780977964401245,0.01995605230331421,0.21623188257217407,-0.05686008930206299,0.04294018677659813,-0.09191675592213153,0.05002425023328249,-0.9935818750081012,-0.1075071934232738,-0.1803696526462907,-3.064942463501619
1782905466245168640,3.0857696533203125,-3.597519874572754,0.7124860882759094,-0.9310367703437805,-0.17238232493400574,0.1412528157234192,-0.9748497009277344,0.14140699803829193,0.22114340960979462,0.00577932596206665,0.0364430956915794,-0.08928652668892419,0.06784581846124248,-0.9930240824717114,-0.14172680747186395,-0.17502037930720468,-3.0806823607493383
1782905466255089664,3.0956907272338867,-3.295132875442505,0.8626925945281982,-0.8799821138381958,-0.16620610654354095,0.17367751896381378,-0.9706758856773376,0.17079898715019226,0.3945750594139099,0.0054354071617126465,0.031846481001766305,-0.0864826197267195,0.08475150046849365,-0.9921309911035802,-0.17456271470596094,-0.1695826323026961,-3.092291047964661
1782905466265009920,3.1056108474731445,-2.341827154159546,0.548672616481781,-0.888709306716919,-0.16057275235652924,0.19938646256923676,-0.9666754603385925,0.21362756192684174,0.41226208209991455,-0.14475947618484497,0.02786332851798601,-0.083756617386663,0.09821966874253722,-0.9912423261980864,-0.2007317713050517,-0.1646052910092232,-3.102002049614794
1782905466274929664,3.1155307292938232,-1.321940541267395,0.5434059500694275,-1.0874454975128174,-0.15751074254512787,0.21532462537288666,-0.9637560248374939,0.32918739318847656,0.5092847347259521,-0.3095288872718811,0.022105983392452188,-0.08188295063303842,0.10685116986578706,-0.9906509304318217,-0.2170242435208219,-0.1620019841312381,-3.1146575930466307
1782905466284850944,3.1254518032073975,-0.4553791582584381,0.5673837661743164,-1.2595049142837524,-0.15437723696231842,0.22188535332679749,-0.962774395942688,0.3174936771392822,0.5091327428817749,-0.4123934507369995,0.015543197083608289,-0.07966467236714847,0.11075350086083197,-0.9905279059641345,-0.22374759860394616,-0.15899282074266075,-3.1281105226980666
1782905466294770688,3.135371685028076,0.4788326919078827,0.35519635677337646,-1.0825191736221313,-0.15233354270458221,0.22004367411136627,-0.9635223150253296,0.4666493535041809,0.19790980219841003,-0.4898926019668579,0.009619551262942288,-0.07794541473351624,0.11028757816306745,-0.9907919142655249,-0.22185924899764975,-0.1568028089581721,-3.139676563908928
1782905466304690944,3.145291805267334,0.6509221792221069,0.1479073464870453,-0.9922292828559875,-0.15159699320793152,0.21264676749706268,-0.9652976989746094,0.6026620864868164,-0.06578093767166138,-0.49824899435043335,0.004784590147927565,-0.0769815817619991,0.10688766693349099,-0.9912748897421058,-0.21428288711577972,-0.15577453028615235,3.1344583506750374
1782905466314610688,3.1552116870880127,0.28787633776664734,0.08046679198741913,-1.0210747718811035,-0.15189813077449799,0.20666535198688507,-0.9665486812591553,0.5444457530975342,-0.07803374528884888,-0.3089182376861572,-1.986224504302352e-05,-0.07659021119623184,0.1042093602126283,-0.9916018455429754,-0.20816549279164667,-0.15588022187643916,3.125236611845407
1782905466324531712,3.165132761001587,-0.18067143857479095,0.1807287633419037,-0.795640766620636,-0.15222196280956268,0.20490652322769165,-0.9668721556663513,0.4236147999763489,0.0010718554258346558,-0.2763833999633789,-0.004529943547538419,-0.07627654271505446,0.10366196452487711,-0.9916731573553219,-0.20636819822342373,-0.15615575894251968,3.1162539568327627
1782905466334451712,3.1750526428222656,-0.6042080521583557,0.039364174008369446,-0.6120054125785828,-0.15197746455669403,0.20767074823379517,-0.9663206934928894,0.2772979140281677,0.05787794291973114,-0.21350407600402832,-0.008091694662753833,-0.07577958879202205,0.10534275906001317,-0.9915114945370564,-0.2091931852958863,-0.1559965302841212,3.108861694705944
1782905466344371712,3.1849727630615234,-0.8690614700317383,0.3319724500179291,-0.660155713558197,-0.15160995721817017,0.2141190469264984,-0.9649701714515686,0.07008224725723267,0.1619795858860016,-0.0692552924156189,-0.011568108701203627,-0.07521192187963151,0.10889479132566186,-0.9911363406819447,-0.21578987470915742,-0.1558396616913517,3.1013368840651556
1782905466354292992,3.1948938369750977,-1.1304939985275269,0.44667237997055054,-0.7866784930229187,-0.14913690090179443,0.22244247794151306,-0.9634715914726257,-0.07634221017360687,0.22088636457920074,-0.015806913375854492,-0.015586351401061948,-0.07348379323290653,0.11342103029835301,-0.9907032406036519,-0.22431900044004055,-0.15357237060251214,3.092799190788484
1782905466364212736,3.2048137187957764,-1.3001185655593872,0.6007587909698486,-1.1897555589675903,-0.14633582532405853,0.23289307951927185,-0.9614294767379761,-0.03991296887397766,0.39738646149635315,0.08540713787078857,-0.02117959757371919,-0.07135212069540121,0.11913913253962234,-0.9900839778768425,-0.2350515045597184,-0.15104719624952356,3.0809481218416064
1782905466374132992,3.214733839035034,-0.812242329120636,0.5838751196861267,-1.1177692413330078,-0.14327828586101532,0.2416359782218933,-0.9597309231758118,0.10105720162391663,0.5549033284187317,0.07217293977737427,-0.027729064416150882,-0.06892401485412912,0.12403237554578675,-0.9894931417930032,-0.24405143040224264,-0.14819555737588863,3.067353530935582
1782905466384052736,3.224653720855713,-0.28628209233283997,0.3481929898262024,-1.184814691543579,-0.1414846032857895,0.24514789879322052,-0.9591061472892761,0.2908833920955658,0.5512998700141907,-0.06582671403884888,-0.03371218771038632,-0.06721683970323311,0.12620941139081865,-0.9891494986651868,-0.24767224323424075,-0.14646084203962376,3.055192480672295
1782905466393973760,3.234574794769287,-0.19473779201507568,0.18246445059776306,-1.2929890155792236,-0.14182423055171967,0.24579817056655884,-0.9588895440101624,0.27245473861694336,0.5352992415428162,-0.06659263372421265,-0.04004578417424796,-0.066568796408425,0.1269796305155511,-0.9888584836223292,-0.24834303919583448,-0.1468400930825426,3.0422827855713153
1782905466403893760,3.244494676589966,-0.2598656117916107,0.2750389873981476,-1.2520344257354736,-0.14288131892681122,0.24559876322746277,-0.9587836861610413,0.3072337210178375,0.35439208149909973,-0.16510242223739624,-0.04641212889896414,-0.06628962443157314,0.12733355518337502,-0.9885534434187421,-0.24813732657734933,-0.14793481170726322,3.02928047238609
1782905466413813760,3.2544147968292236,-0.9152772426605225,0.37849053740501404,-1.3649673461914062,-0.14273066818714142,0.24951204657554626,-0.9577952027320862,0.2628478705883026,0.18267787992954254,0.03720200061798096,-0.05341164387567456,-0.06521820392822064,0.12980358896636335,-0.9879498217294828,-0.2521763272491449,-0.14793140256270834,3.014785994936341
1782905466423734784,3.2643356323242188,-1.6637464761734009,0.5001593828201294,-1.3006505966186523,-0.1421341747045517,0.25972461700439453,-0.955165445804596,0.3164811134338379,-0.0008897781372070312,0.17361027002334595,-0.060463937050270894,-0.06371073072731648,0.13549252914921583,-0.986877321043478,-0.26273701046773207,-0.147721839552199,2.999656406896572
1782905466433654784,3.2742557525634766,-2.6992969512939453,0.9143229722976685,-1.3854928016662598,-0.1392621248960495,0.2786114513874054,-0.9502534866333008,0.2377118319272995,-0.027802735567092896,0.2872591018676758,-0.06824267413063792,-0.060595865169960975,0.14560696537044743,-0.9851241927370215,-0.28234799771192226,-0.14551671513882358,2.982550716249484
1782905466443574784,3.2841756343841553,-2.8053572177886963,1.2434918880462646,-1.1822746992111206,-0.13229863345623016,0.30320432782173157,-0.9436970949172974,0.12283818423748016,0.023287981748580933,0.31917011737823486,-0.07613837347839868,-0.05502302187926266,0.15850525462759862,-0.9828792259663002,-0.3080534735263445,-0.1392840904435386,2.965313265269772
1782905466453494784,3.294095754623413,-3.0412490367889404,1.267763614654541,-1.0545082092285156,-0.12422828376293182,0.32935622334480286,-0.935997724533081,0.13960915803909302,0.040913522243499756,0.13814622163772583,-0.0833396983606103,-0.048727679657200144,0.17212418934259394,-0.9803332545971915,-0.3356216862617025,-0.13195166053113447,2.949592556761518
1782905466463415808,3.3040168285369873,-2.683246612548828,1.509353518486023,-0.9225556254386902,-0.11437813192605972,0.35510388016700745,-0.9278032779693604,0.16061225533485413,0.17858752608299255,0.21285271644592285,-0.08995142610934757,-0.041435927528685225,0.18542232262971464,-0.9776555431135723,-0.3630251887403899,-0.12265955779517995,2.9355553753749715
1782905466473335808,3.313936710357666,-2.6240620613098145,1.8641339540481567,-0.885883092880249,-0.10193963348865509,0.37851521372795105,-0.9199644327163696,0.20601984858512878,0.21329692006111145,0.40510237216949463,-0.09639751201161732,-0.03276446234913659,0.1973430504797537,-0.9750331826296703,-0.3881916335227441,-0.1103580291897125,2.9227870538014518
1782905466483255808,3.323856830596924,-2.676565170288086,2.2115466594696045,-0.9243159294128418,-0.08591413497924805,0.40244320034980774,-0.911404550075531,0.34267377853393555,0.2761914134025574,0.719448983669281,-0.10297255764958525,-0.022016191282273993,0.20931561045031596,-0.9721619207705976,-0.41418415668386543,-0.09398790659553097,2.910776000579398
1782905466493176576,3.333777666091919,-3.073470115661621,2.5280215740203857,-0.6307154893875122,-0.06761325895786285,0.4279150366783142,-0.9012864232063293,0.47194066643714905,0.1961541771888733,0.8062698841094971,-0.10962990261656853,-0.009779285694974514,0.22194857147552488,-0.9688263172249801,-0.4421846690078628,-0.07487836100907197,2.8993987398398926
1782905466503096832,3.3436977863311768,-3.0696074962615967,2.7704553604125977,-0.31861570477485657,-0.04589484632015228,0.4553479850292206,-0.8891298174858093,0.6390650272369385,0.03302481770515442,0.9650270342826843,-0.11483769260385766,0.004234206245121221,0.23540847499494466,-0.9650788564693221,-0.47276302238775314,-0.05157193989537667,2.8922948127173336
1782905466513016576,3.3536176681518555,-2.524531364440918,3.0444836616516113,-0.11008249223232269,-0.021302858367562294,0.48016488552093506,-0.8769195675849915,0.6840683817863464,-0.07435739040374756,0.954754650592804,-0.1193072654511678,0.01961048404353993,0.24729669754225553,-0.9613665662616829,-0.5008426923251034,-0.024288053686319838,2.888438829108451
1782905466522936832,3.3635377883911133,-2.127655267715454,3.24991512298584,0.36278846859931946,0.006569612305611372,0.500091552734375,-0.8659476041793823,0.681494951248169,-0.17692571878433228,0.8326529860496521,-0.12233920772898728,0.03616143061622467,0.25635629848964336,-0.9581267101278195,-0.523704497812443,0.007586470783929834,2.889628590595245
1782905466532857600,3.3734586238861084,-1.6772191524505615,3.539844512939453,0.616969108581543,0.03799690306186676,0.5162602663040161,-0.855588436126709,0.6591619253158569,-0.2200871706008911,0.985196590423584,-0.12392342586266189,0.05403783968703936,0.2632217743857019,-0.9552157356718298,-0.5424785337267162,0.04438109506894743,2.8959108263296125
1782905466542777344,3.383378267288208,-1.5286941528320312,3.955089569091797,0.6423922777175903,0.07300462573766708,0.5292515158653259,-0.8453183770179749,0.6269618272781372,-0.18673747777938843,1.0312315225601196,-0.12532352290235027,0.07362032904931891,0.2681806240233485,-0.95234093749636,-0.5577181313373014,0.08614970159394066,2.9045862141101377
1782905466552697088,3.3932981491088867,-1.3054261207580566,4.185817241668701,0.6408183574676514,0.11031889915466309,0.5408017039299011,-0.8338844180107117,0.6868002414703369,0.03802520036697388,1.092963457107544,-0.12720613363689467,0.09460532314635137,0.2722271413681191,-0.9490841579433916,-0.5713899046853563,0.13153138785940577,2.9138056431950212
1782905466562618368,3.403219223022461,-1.076568841934204,4.332650184631348,0.7725846171379089,0.14925074577331543,0.5494750738143921,-0.822071373462677,0.8430740833282471,0.1620727777481079,1.0056040287017822,-0.1290612983670734,0.11638666428660133,0.2746242217573002,-0.9457160316315332,-0.5817358527332044,0.17959823942628722,2.924225706206445
1782905466572538368,3.4131393432617188,-0.5839958786964417,4.697607040405273,0.8693785667419434,0.19025541841983795,0.5549678802490234,-0.8098231554031372,0.9182345867156982,0.18670082092285156,1.0064173936843872,-0.1307124999096626,0.13913430742475658,0.27519098973446915,-0.9422450478924532,-0.5883243549979713,0.23074992063411862,2.9360921016731374
1782905466582458368,3.4230592250823975,-0.14050352573394775,4.813240051269531,1.0130728483200073,0.23384450376033783,0.555691123008728,-0.7978246212005615,0.807018518447876,-0.03583943843841553,0.962146520614624,-0.13272911107370283,0.16313236190457328,0.2729020351799528,-0.9387732644929424,-0.5891939898835796,0.28511699939224044,2.947730953707957
1782905466592378368,3.4329793453216553,0.08610378950834274,4.537901878356934,1.1036714315414429,0.27616214752197266,0.553268313407898,-0.7858935594558716,0.9127874374389648,-0.28414905071258545,0.9931689500808716,-0.13406637993342918,0.18617946522165038,0.2690546989936598,-0.9353999254557076,-0.5862826692045726,0.3379205197620521,2.9597690983134854
1782905466602299136,3.4429001808166504,0.4831516146659851,4.453110694885254,1.2924468517303467,0.3175901174545288,0.5475701093673706,-0.7741469740867615,1.0582643747329712,-0.6856468915939331,0.9079970717430115,-0.1347066137318274,0.20844215109293096,0.2635875236753743,-0.9321628932624552,-0.5794575177787442,0.38930716148579836,2.971972775097558
1782905466612219392,3.452820301055908,0.7328892946243286,4.3414130210876465,1.5193383693695068,0.35885125398635864,0.5382192730903625,-0.7625914812088013,1.1222431659698486,-0.9795950055122375,0.9159270524978638,-0.13474112994659132,0.23029292649281521,0.25626048580669064,-0.9290535265673276,-0.5683228240834426,0.43982614138036685,2.9839245953293427
1782905466622139136,3.462740182876587,1.0187814235687256,4.092759609222412,1.8424789905548096,0.39925092458724976,0.5252981185913086,-0.7514389753341675,1.183985710144043,-0.9723043441772461,0.872578501701355,-0.13319183083710606,0.2510965538215107,0.24744903062962187,-0.9262717777705894,-0.5530654337404944,0.48838476075014586,2.997156494825157
1782905466632060416,3.472661256790161,1.2613717317581177,3.8914191722869873,1.9376262426376343,0.4385271966457367,0.5090714693069458,-0.7406349182128906,1.1706494092941284,-0.9421617388725281,0.7051277756690979,-0.1308904103630496,0.27098817990957197,0.2371664678177046,-0.9236802040421048,-0.5341056459730866,0.5345876779150934,3.009619366054825
1782905466641980160,3.48258113861084,2.1830193996429443,3.816108226776123,2.2400496006011963,0.47726964950561523,0.48741111159324646,-0.7311935424804688,1.2384438514709473,-0.8949428796768188,0.3666000962257385,-0.12797600845000165,0.29008634964385444,0.22417209161631377,-0.9215307047323442,-0.5091223759438103,0.5782897596045533,3.020116311459186
1782905466651900416,3.4925012588500977,3.7854392528533936,3.2364919185638428,2.4456753730773926,0.51377934217453,0.454458624124527,-0.7276661992073059,1.3087456226348877,-0.9659180641174316,0.05167132616043091,-0.12556723084420504,0.3068921109488427,0.2049003306931477,-0.9209048942621804,-0.4717643518540571,0.6147846110287183,3.022869620151377
1782905466661820160,3.5024211406707764,5.434048652648926,2.630042314529419,2.901467800140381,0.5462185740470886,0.40705540776252747,-0.7320868372917175,1.388855218887329,-1.07572603225708,-0.03373652696609497,-0.12313236835670777,0.31982896231653396,0.17794948961660714,-0.922432543698451,-0.41922796601026835,0.6410079965848081,3.017191254864356
1782905466671741184,3.5123422145843506,6.89047384262085,2.3503549098968506,2.9000329971313477,0.5754777193069458,0.34561049938201904,-0.7412009239196777,1.2453840970993042,-1.1735676527023315,-0.12072229385375977,-0.12171249364198912,0.3299057824023036,0.14339359605809368,-0.9250873485924561,-0.3528893128483678,0.6601920177003723,3.00198824962155
1782905466681661440,3.5222623348236084,7.445296287536621,2.110102891921997,2.9809038639068604,0.6009882092475891,0.2746836245059967,-0.75057452917099,1.0286810398101807,-1.3810068368911743,0.03980487585067749,-0.12167385012627399,0.3375530318076868,0.10378195016620573,-0.9276221282423326,-0.27826065143575607,0.6751702320660841,2.97897858906187
1782905466691581184,3.532182216644287,7.472447872161865,1.9490275382995605,3.0092215538024902,0.6233141422271729,0.2007916420698166,-0.7557528018951416,1.0134656429290771,-1.6453869342803955,0.2743074893951416,-0.12133741146575736,0.3437044728954805,0.06317306629615001,-0.9290606919520074,-0.20216595933535403,0.6896567832561251,2.954688117251279
1782905466701502208,3.5421032905578613,7.06860876083374,1.756535291671753,3.0356945991516113,0.6420701146125793,0.12714950740337372,-0.7560284733772278,0.9870039820671082,-2.052549362182617,0.3494275212287903,-0.12032673177129669,0.3484872284683594,0.02328979473345618,-0.9292663054906037,-0.12749462253767363,0.7040684234452609,2.9309424114087705
1782905466711422208,3.55202317237854,6.286302089691162,2.1346845626831055,3.0713772773742676,0.6590539813041687,0.057345274835824966,-0.7499063014984131,0.9622839093208313,-2.61053729057312,0.19737029075622559,-0.1178998440428072,0.3533426081750654,-0.013995031539182681,-0.9279293677716255,-0.05737675166456872,0.7210055134692205,2.9104679837958987
1782905466721342208,3.561943292617798,5.931473255157471,2.44972562789917,3.0594334602355957,0.6770771741867065,-0.0077540515922009945,-0.7358711957931519,0.8000346422195435,-2.80132794380188,-0.17460548877716064,-0.11411125738444364,0.3601369209969679,-0.04863934056982934,-0.9246157984676037,0.007754129369340592,0.7438112509192314,2.892980400402904
1782905466731262208,3.5718631744384766,5.970930099487305,2.6890757083892822,2.8456358909606934,0.6942877173423767,-0.07075080275535583,-0.7162114381790161,0.7537407875061035,-2.472385883331299,-0.5468652844429016,-0.11061972494881493,0.3675059653930941,-0.08266595372744412,-0.9197112833090525,0.07080996245087437,0.7698562117927166,2.8734916205903134
1782905466741183232,3.581784248352051,5.618037700653076,2.8302016258239746,2.9564173221588135,0.7109850645065308,-0.13117514550685883,-0.6908642053604126,0.9033643007278442,-1.7363327741622925,-0.7300647497177124,-0.10673524673842252,0.37573187605857844,-0.1157300875199356,-0.913257789044932,0.13155426837604547,0.7997502724028196,2.8532353352829216
1782905466751103232,3.5917041301727295,5.771347999572754,2.5047874450683594,3.2753193378448486,0.7238295078277588,-0.1917060762643814,-0.6628119349479675,1.1529710292816162,-1.3002678155899048,-0.8879845142364502,-0.1015853949160838,0.38273418164625617,-0.14868950162717537,-0.9061382125002981,0.1929001664345796,0.8293736289296534,2.83317852741764
1782905466761023232,3.6016242504119873,5.488958835601807,1.9677062034606934,3.4471435546875,0.7310505509376526,-0.25256943702697754,-0.6338562965393066,1.2681407928466797,-1.0865724086761475,-0.9570097923278809,-0.09542593866442552,0.38740166454965674,-0.1816364475490015,-0.8987892526512133,0.25533487314283565,0.8564876102160364,2.812978720396619
1782905466770944256,3.6115453243255615,5.34933614730835,1.315065622329712,2.938417434692383,0.7324675917625427,-0.30906257033348083,-0.6066066026687622,1.1857147216796875,-0.9494060277938843,-0.7421787977218628,-0.08989685485169611,0.38926504254324357,-0.21253102116854813,-0.8917521245377522,0.31420719020563753,0.8791139085798124,2.791947352192616
1782905466780864256,3.6214652061462402,4.87063455581665,0.7911554574966431,2.583404541015625,0.7295950055122375,-0.3598290979862213,-0.5815618634223938,1.1827890872955322,-0.8138617277145386,-0.6806146502494812,-0.08672820879072134,0.38853889796009516,-0.24136402943247007,-0.8850193029884643,0.3680847017543903,0.8978247604616476,2.7673620281628386
1782905466790784256,3.631385326385498,4.039138317108154,1.3042938709259033,2.3136677742004395,0.7282993793487549,-0.4026711881160736,-0.554469108581543,1.1102778911590576,-0.528420090675354,-0.24440479278564453,-0.08301477883795903,0.38971168408216317,-0.26625220334829897,-0.8776919737154188,0.41443320816992996,0.9200894704400362,2.7453923951778636
1782905466800704256,3.6413052082061768,3.832319974899292,1.2108187675476074,1.7248899936676025,0.7271594405174255,-0.4384055733680725,-0.5282422304153442,0.9149762392044067,-0.2900490164756775,-0.29187190532684326,-0.08019610229088286,0.39116846757020884,-0.28786475482220897,-0.870453789627747,0.453823894742252,0.9425408160930602,2.7236201863608667
1782905466810625280,3.651226282119751,3.2140731811523438,1.62112557888031,0.7674594521522522,0.7285023331642151,-0.4659472703933716,-0.5021729469299316,0.8118114471435547,0.2517901360988617,-0.08379513025283813,-0.07981887220928244,0.3937518949227476,-0.30638696541269245,-0.8629690502684632,0.4847049013249347,0.9672725632651573,2.6988844474313627
1782905466820545280,3.6611461639404297,2.518582582473755,2.7144603729248047,0.9416652321815491,0.7352761626243591,-0.48549216985702515,-0.4729337692260742,0.6809530854225159,0.6688875555992126,0.21167278289794922,-0.07868491138624523,0.40065473013635095,-0.3209499963234367,-0.8545616548410632,0.5069260321426566,0.9992123088582389,2.6770624762566753
1782905466830465280,3.6710662841796875,1.9032031297683716,2.7136285305023193,0.5143564939498901,0.7454785704612732,-0.5011270046234131,-0.43946951627731323,0.5609026551246643,1.1778390407562256,0.33154410123825073,-0.07498422512764116,0.411534387003964,-0.3330235581232998,-0.8450515544041194,0.5249005857249756,1.0381233380717467,2.660001578275604
1782905466840386048,3.6809871196746826,2.3926358222961426,1.4998875856399536,-1.5596544742584229,0.7572264671325684,-0.5064799785614014,-0.41241490840911865,0.48044437170028687,1.1465556621551514,0.38002052903175354,-0.077663776651917,0.4207584757165431,-0.3416940833740952,-0.8367650537289034,0.5310974816598911,1.0720785223995686,2.6361284318358362
1782905466850306304,3.6909072399139404,1.7968299388885498,1.6501154899597168,-3.7500977516174316,0.7767928838729858,-0.49483412504196167,-0.3895280361175537,0.6909805536270142,0.27039259672164917,0.10057234764099121,-0.09154805610348596,0.43054766490799923,-0.346214803991347,-0.8284823603812406,0.5176439237406772,1.1059839923977972,2.5975115543224163
