time,seconds_elapsed,rotationRateX,rotationRateY,rotationRateZ,gravityX,gravityY,gravityZ,accelerationX,accelerationY,accelerationZ,quaternionW,quaternionX,quaternionY,quaternionZ,pitch,roll,yaw
1784547165086814208,0.1613600254058838,-0.022383837029337883,0.30179309844970703,-0.0333155132830143,0.023520443588495255,0.6931566596031189,-0.7204030156135559,-0.11981865018606186,0.06883668899536133,0.001653134822845459,0.15249429245271687,-0.07394783803438112,-0.36651084198964784,0.9148480243172863,-0.7658593821125833,0.032637413750776854,2.8244012988702734
1784547165096734208,0.1712801456451416,-0.07868392765522003,0.19669683277606964,0.030806448310613632,0.025295298546552658,0.6934979557991028,-0.7200144529342651,-0.06739431619644165,0.04386776685714722,0.025922656059265137,0.1529462748741235,-0.0751183647491029,-0.36653786415158607,0.9146664783295894,-0.7663329405954642,0.03511721097637718,2.8243843076701363
1784547165106654208,0.1812000274658203,-0.12561334669589996,0.06011582165956497,0.034792400896549225,0.026481151580810547,0.6942517757415771,-0.7192448973655701,-0.029242994263768196,0.0020220279693603516,0.038794517517089844,0.15298398883691267,-0.07586183988828829,-0.3669094296411167,0.9144497988122818,-0.7673798282939684,0.03680136797934556,2.8249284209297185
1784547165116573440,0.19111919403076172,-0.18746952712535858,-0.13076533377170563,0.05146858096122742,0.026443779468536377,0.6953446865081787,-0.7181897759437561,-0.0020754914730787277,-0.02253890037536621,0.035267412662506104,0.15270295701077138,-0.07586839703609222,-0.3676263200768905,0.9142082716235016,-0.7688994247972702,0.03680342077819327,2.8254738834954836
1784547165126493184,0.20103907585144043,-0.2692999541759491,-0.22849509119987488,0.08313596248626709,0.025593383237719536,0.6969544291496277,-0.7166586518287659,0.0013536177575588226,-0.024728477001190186,0.029173851013183594,0.1519392871146053,-0.07531197867591068,-0.36878013703225737,0.9139168007556692,-0.7711416991324817,0.035696927260853134,2.826595100121358
1784547165136413440,0.21095919609069824,-0.33402377367019653,-0.25520941615104675,0.05597521737217903,0.02429427020251751,0.6990894079208374,-0.7146214842796326,-0.039690397679805756,-0.020439505577087402,0.01875966787338257,0.15107111816340824,-0.07453837935387012,-0.3703151287300627,0.9135033077713869,-0.7741231728049099,0.0339829117037729,2.827661636496842
1784547165146332160,0.22087812423706055,-0.4048049747943878,-0.14603792130947113,0.05486707761883736,0.023130958899855614,0.70168137550354,-0.7121152877807617,-0.07081468403339386,-0.02382493019104004,0.014468193054199219,0.15029915365889687,-0.07393158585253216,-0.3721242561103537,0.9129445737663794,-0.777754583088134,0.03247062424884728,2.8285631008085734
1784547165156252416,0.23079824447631836,-0.4339311718940735,0.03688209876418114,0.00839145202189684,0.022996945306658745,0.7046802639961243,-0.7091522216796875,-0.11737257242202759,-0.011366665363311768,0.0179901123046875,0.149899201576416,-0.07407694630657417,-0.37408084806029507,0.9121986843096463,-0.7819724125673603,0.03241742333455737,2.8292129164101665
1784547165166172160,0.24071812629699707,-0.42929041385650635,0.17718350887298584,0.010040582157671452,0.02375723421573639,0.7076970338821411,-0.7061164379119873,-0.13372734189033508,-0.0016424059867858887,0.02433854341506958,0.1499331630552427,-0.07488273674280012,-0.3759445995997162,0.9113606581744557,-0.7862332735702335,0.03363223705251849,2.8294308222561484
1784547165176091136,0.2506370544433594,-0.4357720911502838,0.2800947427749634,0.1306023895740509,0.02582220546901226,0.7107039093971252,-0.7030172348022461,-0.0980573296546936,-0.022776663303375244,0.034758567810058594,0.14991493052205607,-0.07636832489486843,-0.377702612051537,0.9105131490852296,-0.7904982763215596,0.0367140405586553,2.830541870121695
1784547165186011392,0.2605571746826172,-0.4815843105316162,0.32407233119010925,0.24644829332828522,0.029291857033967972,0.7138045430183411,-0.6997320652008057,-0.05958054959774017,-0.06637418270111084,0.048273324966430664,0.14944766903777373,-0.07843758479481254,-0.37944895698155223,0.9096874975313342,-0.794915706092889,0.041837104824698275,2.8334976955642377
1784547165195930368,0.2704761028289795,-0.5468396544456482,0.37157586216926575,0.2446938455104828,0.03343736752867699,0.7173172831535339,-0.6959438323974609,-0.06183397397398949,-0.08201766014099121,0.05673795938491821,0.14875573638451128,-0.08083498288768995,-0.38143647121925106,0.9087593651872545,-0.7999442748489426,0.04800915419149283,2.837388093098837
1784547165205850368,0.2803962230682373,-0.481245756149292,0.40463927388191223,0.1654014140367508,0.03760973736643791,0.7208438515663147,-0.6920763850212097,-0.09957569092512131,-0.0352206826210022,0.04337948560714722,0.14836117765305792,-0.08338029073745934,-0.383418221770959,0.9077594583228308,-0.8050190272444947,0.054289931515931714,2.8407028408174835
1784547165215770368,0.290316104888916,-0.33028286695480347,0.3430538773536682,0.10737285763025284,0.04111730679869652,0.7235842347145081,-0.6890103220939636,-0.07247412204742432,0.007967889308929443,0.019973456859588623,0.14832880677941737,-0.08562321553583101,-0.38492014332737495,0.9069199073858006,-0.8089810879526098,0.05960520671753539,2.8428817541009614
1784547165225689088,0.3002350330352783,-0.1814955323934555,0.2349894642829895,0.13279512524604797,0.04391764476895332,0.725280225276947,-0.6870515942573547,-0.01301860436797142,0.03335624933242798,0.022500813007354736,0.14826409950523306,-0.08733552667997142,-0.3858065727814244,0.9063904431461892,-0.8114413458418287,0.0638350543873457,2.84473991576022
1784547165235609344,0.31015515327453613,-0.052201785147190094,0.10305005311965942,0.17426304519176483,0.04617604240775108,0.7259661555290222,-0.6861785054206848,0.008191019296646118,0.03463870286941528,0.030737221240997314,0.14785418290079771,-0.08847380509120434,-0.38611286388643257,0.9062165121297112,-0.8124381927476364,0.06719319893919583,2.847043332174418
1784547165245529088,0.32007503509521484,-0.1581130474805832,-0.029657931998372078,0.20454025268554688,0.04776638746261597,0.7265220880508423,-0.6854807734489441,0.014108024537563324,0.0026038289070129395,0.024287045001983643,0.14704614099241753,-0.0890642432699305,-0.38642873275217526,0.906155428804015,-0.8132469138996508,0.06957058303404881,2.8498162426492444
1784547165255448320,0.32999420166015625,-0.33688783645629883,-0.23344217240810394,0.20203247666358948,0.04837838187813759,0.7280895709991455,-0.6837727427482605,0.048453882336616516,-0.08911252021789551,0.04801535606384277,0.14574855115895177,-0.08905219808156761,-0.3875349395341523,0.9058939523295003,-0.8155308273802895,0.07063443167568428,2.853071180588028
1784547165265368320,0.33991408348083496,-0.5181782245635986,-0.4206317961215973,0.10729000717401505,0.04727564752101898,0.7309318780899048,-0.6808109879493713,0.05514134466648102,-0.14075243473052979,0.04828840494155884,0.14421708373074615,-0.08817917705829202,-0.38963950336111525,0.9053214155192234,-0.819686417239183,0.06932890726069982,2.85577801922909
1784547165275288320,0.3498342037200928,-0.5767562389373779,-0.5690280795097351,0.001702657318674028,0.0443170890212059,0.7346492409706116,-0.6769981384277344,0.039499431848526,-0.09391742944717407,0.029445648193359375,0.14276120352133995,-0.08644265338729605,-0.3924647727982027,0.9044989417135988,-0.8251495581829918,0.0653679058581948,2.8571258088923277
1784547165285207296,0.3597531318664551,-0.48941734433174133,-0.6441164016723633,-0.06614057719707489,0.039916250854730606,0.738289475440979,-0.6733018755912781,0.03134229779243469,-0.031258225440979004,-0.004249453544616699,0.1415162235500286,-0.08399629149293919,-0.39533998025436806,0.903672588423133,-0.830530787049058,0.059215024007099215,2.857027930213451
1784547165295127296,0.3696732521057129,-0.3174116909503937,-0.5181680917739868,0.0065428526140749454,0.0356484018266201,0.7410193681716919,-0.6705366969108582,0.019908856600522995,0.017205119132995605,-0.024363815784454346,0.14034386545981342,-0.08152544802756855,-0.39759935585123246,0.903090188632445,-0.8345871421320773,0.05311398208414364,2.856802440174813
1784547165305046272,0.3795921802520752,-0.09689688682556152,-0.17728190124034882,0.10975738614797592,0.033713631331920624,0.7423868179321289,-0.6691227555274963,-0.060111355036497116,0.045424461364746094,-0.026113450527191162,0.1392821184608338,-0.0801858233033714,-0.3987591362869009,0.9028632489962116,-0.8366259629528472,0.050342250273593875,2.8578551026876817
1784547165314966272,0.3895120620727539,0.12517093122005463,0.19070331752300262,0.15968599915504456,0.034765902906656265,0.7422426342964172,-0.6692288517951965,-0.14819976687431335,0.047704875469207764,-0.01622641086578369,0.13869655043107298,-0.08047996823886973,-0.39863333730878187,0.9029827222709383,-0.8364107239001867,0.051902542589750064,2.85984919840444
1784547165324886272,0.3994321823120117,0.29659461975097656,0.547029435634613,0.1960277557373047,0.03850487247109413,0.7407472133636475,-0.6706793904304504,-0.15917137265205383,0.032873332500457764,0.0038093924522399902,0.13872248613574908,-0.08232749322637244,-0.3973442809816888,0.9033801461776432,-0.8341819671216641,0.05734878700589173,2.8622704494903908
1784547165334805248,0.409351110458374,0.4432580769062042,0.8598077297210693,0.25970223546028137,0.04485759139060974,0.7381772994995117,-0.6731137633323669,-0.13016948103904724,0.04156208038330078,0.027438104152679443,0.13925207076253218,-0.08567422616094839,-0.39509878934778464,0.9039722180190916,-0.8303644561171599,0.06654352487987547,2.8652477663522298
1784547165344725248,0.41927123069763184,0.5693638324737549,1.2187857627868652,0.28072068095207214,0.05377207696437836,0.7346652746200562,-0.6762954592704773,-0.12759411334991455,0.07275354862213135,0.044444262981414795,0.14025938816709935,-0.09049185223066726,-0.391999353970696,0.9046961339156147,-0.8251731505188409,0.07934282778943808,2.8687159689958865
1784547165354645248,0.42919111251831055,0.6134707927703857,1.658809781074524,0.20537835359573364,0.06523318588733673,0.7304837703704834,-0.6798073649406433,-0.13250918686389923,0.0668947696685791,0.07359099388122559,0.14217134104418863,-0.09698367265231497,-0.3881887127000155,0.9053678808679554,-0.819030074234267,0.09566542374439692,2.871623212786448
1784547165364564224,0.43911004066467285,0.538073718547821,1.9736876487731934,0.019658287987113,0.07849512994289398,0.7264772057533264,-0.6826927661895752,-0.07664881646633148,-0.002325594425201416,0.1336662769317627,0.14557474061092984,-0.10509570231687584,-0.3841985355852501,0.9056237735472892,-0.8131816019277205,0.1144760090484587,2.872164395137728
1784547165374484224,0.44903016090393066,0.41865116357803345,1.991838812828064,-0.47953277826309204,0.0908995047211647,0.7234518527984619,-0.6843644380569458,0.1213502511382103,-0.10382294654846191,0.1736375093460083,0.15017067320462427,-0.1133577339499585,-0.3807463859751239,0.9053347463164286,-0.8087893173275593,0.13205032666679034,2.8694222319329654
1784547165384404224,0.4589500427246094,0.3439803719520569,0.3235583007335663,-0.8429357409477234,0.09321081638336182,0.7215113043785095,-0.6861000061035156,0.5681051015853882,-0.09495490789413452,0.16536331176757812,0.15627100682951406,-0.11688909144732867,-0.3785326163071487,0.9047814509068655,-0.8059825792094251,0.13502933406924106,2.8571715270309985
1784547165394323456,0.4688692092895508,0.3140283226966858,-0.6985068917274475,-0.07777682691812515,0.08794624358415604,0.71982342004776,-0.6885634660720825,1.0773980617523193,0.041361212730407715,0.1677810549736023,0.1581366446340511,-0.11455533541976408,-0.37761798732840646,0.9051377990704805,-0.8035479058449392,0.12703641851987585,2.849699577585934
1784547165404243200,0.4787890911102295,0.5644858479499817,-0.7429766058921814,0.4782019853591919,0.08440227061510086,0.7167018055915833,-0.6922534108161926,0.9469392895698547,0.09213608503341675,0.08641844987869263,0.15587497334929856,-0.11123074488768288,-0.3761662081274017,0.906548209428607,-0.7990613104466179,0.12132513012524519,2.8523159609892472
1784547165414163456,0.4887092113494873,0.8746994137763977,-0.26166093349456787,0.41313686966896057,0.08415385335683823,0.7113317251205444,-0.69780033826828,0.5176680684089661,0.10539495944976807,0.07054203748703003,0.153190805517034,-0.10921546592507504,-0.37305738516337755,0.9085332986814154,-0.7913911282883688,0.12001913986465491,2.8576935930214566
1784547165424082176,0.4986281394958496,0.9771350026130676,0.35944175720214844,0.22622798383235931,0.08667661249637604,0.7045174241065979,-0.7043737173080444,0.25830936431884766,0.10444247722625732,0.11311095952987671,0.15239803954259384,-0.10929752649478285,-0.36860166842272823,0.9104732885439962,-0.781742903311219,0.1224393288075528,2.860407323191148
1784547165434002176,0.5085480213165283,0.9477236270904541,0.8022844791412354,0.23294968903064728,0.09237787872552872,0.6975639462471008,-0.710542619228363,0.3123004734516144,0.053259968757629395,0.1926746368408203,0.15303370486921686,-0.11166334425568686,-0.36367566748623836,0.912059142960438,-0.7719920155806422,0.12928516099579265,2.861711556658806
1784547165443921408,0.5184671878814697,0.8921014070510864,0.9334366321563721,0.3375717103481293,0.10057743638753891,0.6907250285148621,-0.7160888314247131,0.5322350263595581,-0.01524895429611206,0.23281246423721313,0.15385565475897595,-0.11546220117156658,-0.35864198053534757,0.9134402024971602,-0.762491220476262,0.13954104976777365,2.86386689392996
1784547165453841152,0.5283870697021484,0.719582200050354,0.8189644813537598,0.48121416568756104,0.10966844856739044,0.6845728754997253,-0.7206475734710693,0.7180750370025635,-0.016268432140350342,0.29842162132263184,0.15405833863134255,-0.11959026437851139,-0.35408246976407376,0.9146529057565435,-0.7540175869241752,0.15102170973814757,2.867750651262442
1784547165463761408,0.5383071899414062,0.7324716448783875,0.5834808349609375,0.684147834777832,0.11863279342651367,0.6788303852081299,-0.7246485352516174,0.8125042915344238,-0.029080629348754883,0.3725825548171997,0.1530603210168448,-0.12324791421681404,-0.3499795314957155,0.9159130727801273,-0.746168621488804,0.16227132449679832,2.874062022559948
1784547165473680384,0.5482261180877686,0.8503925800323486,0.4350849390029907,0.8198009729385376,0.12728717923164368,0.6721910238265991,-0.7293539643287659,0.8058793544769287,-0.03707444667816162,0.38131630420684814,0.15097495781344233,-0.12621786138351082,-0.345531562606281,0.9175421235900437,-0.7371641270252309,0.17278032563891604,2.8823046388009796
1784547165483600384,0.5581462383270264,1.023186445236206,0.42839643359184265,0.8373274803161621,0.13590042293071747,0.6643261909484863,-0.7349842190742493,0.7262516617774963,0.040568768978118896,0.40972787141799927,0.14847259602225707,-0.1288728218236465,-0.3404404495588272,0.9194823914377479,-0.7265919322185324,0.18283750627185033,2.891083664779197
1784547165493520384,0.5680661201477051,1.13363516330719,0.524429440498352,0.7762213349342346,0.14468121528625488,0.6552302837371826,-0.7414449453353882,0.6255366802215576,0.13383221626281738,0.4199270009994507,0.14627355954018909,-0.13160307304839017,-0.33460148774370857,0.9215890925546006,-0.7144873907505305,0.19271248629510718,2.898904856199769
1784547165503439104,0.5779850482940674,1.2228883504867554,0.6579139828681946,0.701323926448822,0.1537991613149643,0.6454328298568726,-0.7481726408004761,0.554651141166687,0.16425955295562744,0.4421423673629761,0.14463268073667537,-0.1346608859642365,-0.32829885128167624,0.9236707663075674,-0.7015898186180296,0.20274210544846358,2.9053559728344154
1784547165513359360,0.5879051685333252,1.1812671422958374,0.790054440498352,0.5803902745246887,0.16325193643569946,0.6353565454483032,-0.7547654509544373,0.5027026534080505,0.13124501705169678,0.45032215118408203,0.14364357050902826,-0.13812220989014082,-0.32177556696103177,0.9256075522076286,-0.6884701208671119,0.2130135365529978,2.9102919321362557
1784547165523278336,0.5978240966796875,1.0567097663879395,0.8848225474357605,0.42326781153678894,0.172736257314682,0.6261165142059326,-0.7603554129600525,0.464074045419693,0.08811688423156738,0.4163306951522827,0.14344984182347775,-0.1419986269730306,-0.31568765723391995,0.9271461063517841,-0.676562650800779,0.22338682896228346,2.913459139286061
1784547165533198336,0.6077442169189453,0.9450625777244568,0.8025007247924805,0.2023647129535675,0.18115337193012238,0.6180039644241333,-0.7650192975997925,0.4481038451194763,0.0009993314743041992,0.29283607006073,0.14403175724095293,-0.14570898836023638,-0.3102567240617718,0.9283127357072732,-0.6662012611541128,0.23251311653740342,2.9145069795921166
1784547165543118336,0.617664098739624,0.9308298230171204,0.7491427063941956,-0.07580804824829102,0.1873646080493927,0.6108331084251404,-0.7692707180976868,0.4083690047264099,-0.08574765920639038,0.17475777864456177,0.14553136978120626,-0.148648200605084,-0.3053986685239809,0.9292234080761504,-0.6571124230534593,0.23890961777295147,2.912675692977254
1784547165553037056,0.6275830268859863,1.0127207040786743,0.7583261132240295,-0.333886981010437,0.19188231229782104,0.6037579774856567,-0.7737295627593994,0.31698304414749146,-0.136640727519989,0.04440528154373169,0.14843399439503535,-0.1511288838224333,-0.3004917236099611,0.9299634886686415,-0.6482069191366481,0.24309223778797565,2.9070627214519593
1784547165562957312,0.6375031471252441,1.1117242574691772,0.6699501872062683,-0.5692715644836426,0.1948373168706894,0.5964921712875366,-0.7786112427711487,0.2623617649078369,-0.1518816351890564,-0.018996119499206543,0.15233506385657553,-0.15303569475542744,-0.29542249577199925,0.9306447155130635,-0.6391234982698153,0.2452016711631091,2.898596880743438
1784547165572877056,0.6474230289459229,1.2698630094528198,0.5970296263694763,-0.8456906676292419,0.19541889429092407,0.5886582732200623,-0.7844060659408569,0.18281596899032593,-0.15744489431381226,-0.060778260231018066,0.15744604344498067,-0.1539366040919541,-0.29000084383146285,0.9313505033777878,-0.6293980786987587,0.2441594483019656,2.8864893859118257
1784547165582796288,0.6573421955108643,1.4842028617858887,0.6781856417655945,-1.0248223543167114,0.19496040046215057,0.5797613263130188,-0.7911177277565002,0.12082020938396454,-0.1828191876411438,-0.11150068044662476,0.16373712806055774,-0.15445361147076614,-0.2838753330488372,0.9320671338567247,-0.6184357215223536,0.2416221170224082,2.871328213858121
1784547165592716288,0.667262077331543,1.7842657566070557,0.7007154822349548,-1.0947185754776,0.19445644319057465,0.5690087676048279,-0.7990092039108276,0.07559362053871155,-0.21852964162826538,-0.13948261737823486,0.17088506876504506,-0.15488724689464015,-0.27659599818477587,0.9329002275016322,-0.6052999679543809,0.23873085826974605,2.854120175585024
1784547165602636288,0.6771821975708008,2.0928053855895996,0.5888922810554504,-1.235956072807312,0.19293862581253052,0.5557959675788879,-0.808619499206543,0.058495715260505676,-0.22646552324295044,-0.12207508087158203,0.1786097756539269,-0.1545270683137163,-0.26797691883822217,0.934027991250422,-0.5893201464563945,0.23422315382442516,2.835086081888414
1784547165612555264,0.6871011257171631,2.4698281288146973,0.601523756980896,-1.3570646047592163,0.19051429629325867,0.5398540496826172,-0.819915771484375,0.03404931724071503,-0.2356548309326172,-0.072784423828125,0.18731379099529408,-0.1534789940143789,-0.2578494096115167,0.9353455704002127,-0.5702637372775213,0.22830711572425239,2.813486509366976
1784547165622475264,0.6970212459564209,2.629340171813965,0.572090208530426,-1.4147255420684814,0.18824678659439087,0.5214665532112122,-0.8322474360466003,0.04267971217632294,-0.21905261278152466,-0.030453979969024658,0.19629102280127325,-0.15211302813689145,-0.2464506069201012,0.9367996828248796,-0.5485687807866882,0.22244765703124256,2.7913319279690074
1784547165632394240,0.7069401741027832,2.7872514724731445,0.8946638107299805,-1.5842560529708862,0.18656952679157257,0.5017194747924805,-0.8446711897850037,-0.015564307570457458,-0.16901689767837524,-0.011774122714996338,0.20627090097868678,-0.15096823866586342,-0.23424988085810802,0.9379701396183459,-0.5255854193363236,0.21738790327590476,2.7673548764364244
1784547165642314240,0.7168600559234619,2.6987130641937256,0.9317350387573242,-1.6426945924758911,0.18656691908836365,0.481423556804657,-0.8564019203186035,-0.03588637709617615,-0.19216269254684448,0.010653018951416016,0.2168675337422285,-0.1505798060683739,-0.22164109857856767,0.9387063265266776,-0.5022781360438674,0.21449837562529406,2.7427321721392244
1784547165652234240,0.7267801761627197,2.5273942947387695,0.9127185940742493,-1.6743022203445435,0.18666982650756836,0.46225178241729736,-0.866878092288971,-0.027917400002479553,-0.27350056171417236,0.09470713138580322,0.22745342697953946,-0.15020906810834175,-0.209757419821552,0.9389909657719643,-0.480532888155111,0.21209702872631525,2.7184318824248104
1784547165662153216,0.736699104309082,2.624830484390259,0.9927660226821899,-1.8553372621536255,0.1871630996465683,0.4433799386024475,-0.876575231552124,-0.09828066825866699,-0.3758598268032074,0.1236303448677063,0.2385102986929904,-0.14998861084022605,-0.19802977395375762,0.9388292230493409,-0.4593660154976158,0.21035757868974048,2.6933732142042754
1784547165672073472,0.7466192245483398,2.7392377853393555,0.6932793259620667,-2.071157217025757,0.1861134022474289,0.42343997955322266,-0.8866004347801208,-0.045290037989616394,-0.31710150837898254,0.08832168579101562,0.2504752463859422,-0.14878978994837483,-0.185906903019516,0.9383827820364533,-0.437239184231651,0.20691366444155992,2.666037247207832
1784547165681993216,0.7565391063690186,2.820289373397827,0.7767537236213684,-2.114178419113159,0.18365882337093353,0.40273380279541016,-0.896702229976654,0.09514977037906647,-0.30416202545166016,0.11168330907821655,0.26288820437826477,-0.14661598876207776,-0.17364511157617943,0.9376785032625689,-0.4145016200227539,0.20202185042234402,2.637524131596906
1784547165691912192,0.7664580345153809,3.1043457984924316,0.7068559527397156,-2.2559421062469482,0.18132127821445465,0.3801526129245758,-0.9069766402244568,-0.013856068253517151,-0.2306164801120758,0.08489412069320679,0.2757838229545373,-0.1440426404156853,-0.1605098242905694,0.9367132456942857,-0.38996129587083017,0.19731705063186997,2.6080298040286327
1784547165701832192,0.7763781547546387,3.294250011444092,0.41608479619026184,-2.3432047367095947,0.1781030148267746,0.35512661933898926,-0.917695164680481,0.0961889773607254,-0.26040005683898926,0.05053818225860596,0.2891679935789783,-0.14043588670224041,-0.14639052390222992,0.9355369566087858,-0.363049509997356,0.19169340334031992,2.577325419059646
1784547165711752192,0.7862980365753174,3.4205009937286377,0.6187352538108826,-2.4433608055114746,0.1744087189435959,0.32884132862091064,-0.9281405806541443,0.062117770314216614,-0.26309120655059814,0.10824006795883179,0.3029472194670359,-0.13614850124597824,-0.13188359926142684,0.933966418238726,-0.3350764037753841,0.18574588579070006,2.5457774349069044
1784547165721671424,0.7962172031402588,3.49788236618042,0.8907462954521179,-2.5627684593200684,0.17414769530296326,0.30114051699638367,-0.9375430345535278,0.014466196298599243,-0.29689857363700867,0.07597076892852783,0.3171810054423503,-0.13304431725774796,-0.1163085910210364,0.9317551164060712,-0.30588845866052194,0.18365589558140424,2.513764440516177
1784547165731591168,0.8061370849609375,3.3392295837402344,0.6921343803405762,-2.6416099071502686,0.1741454005241394,0.27363765239715576,-0.9459365010261536,0.012927353382110596,-0.29939448833465576,0.16988974809646606,0.3319594506215776,-0.12980504861194564,-0.10090793549904499,0.9288548059978131,-0.2771730237059922,0.1820598712917853,2.480576888750534
1784547165741511424,0.8160572052001953,3.2606048583984375,0.6853348016738892,-2.777261972427368,0.17286072671413422,0.2472468614578247,-0.9534087181091309,0.09682311117649078,-0.2465907335281372,0.21459341049194336,0.34672851119541354,-0.12578212634274233,-0.08645519816789961,0.9254641134289564,-0.2498378691935134,0.17935969824207487,2.447241067483053
1784547165751430400,0.8259761333465576,3.172264575958252,1.0165854692459106,-3.044302463531494,0.1739930659532547,0.2217905968427658,-0.9594453573226929,0.023531973361968994,-0.253864586353302,0.17421281337738037,0.362290791440111,-0.12280095299169497,-0.07209203098226685,0.9211232173957604,-0.2236504192113196,0.17939789044148766,2.412332465331399
1784547165761350400,0.8358962535858154,3.2582502365112305,1.2461481094360352,-3.1470627784729004,0.17872263491153717,0.19656415283679962,-0.9640647172927856,-0.00904490053653717,-0.2780765891075134,0.11840736865997314,0.3786826267898243,-0.12123021745057205,-0.057191642427989006,0.9157683829981147,-0.1978524682462749,0.1833035016848835,2.3756332563843796
1784547165771269376,0.8458151817321777,3.215930700302124,0.9891183972358704,-3.207461357116699,0.18349482119083405,0.17110349237918854,-0.9680151343345642,0.19275639951229095,-0.34946346282958984,0.05924743413925171,0.39527125179493444,-0.11919578208550465,-0.0422470072849799,0.9098177393653548,-0.17194956237286238,0.1873351232624891,2.338088787923415
1784547165781189120,0.8557350635528564,3.5147600173950195,1.1718997955322266,-3.2077460289001465,0.1882583349943161,0.1452251374721527,-0.9713230729103088,0.2076004296541214,-0.2774578034877777,0.08530622720718384,0.4117811141735602,-0.11660698658791475,-0.027226610761156313,0.9033813225404212,-0.145740513987531,0.19144278558856523,2.3002405314412733
1784547165791109376,0.8656551837921143,3.696776866912842,0.946927011013031,-3.3326337337493896,0.19435200095176697,0.11655018478631973,-0.9739832282066345,0.16705241799354553,-0.19656728208065033,0.0010218620300292969,0.42854542088394865,-0.11354874000003458,-0.010726742261359163,0.8962925810845896,-0.1168156788543173,0.19695654846765248,2.261146790068709
1784547165801028352,0.8755741119384766,3.6526730060577393,0.7763891220092773,-3.651301622390747,0.1994045376777649,0.08730649203062057,-0.9760202169418335,0.1625491976737976,-0.12916135787963867,0.005393385887145996,0.44595030346290654,-0.10934721268727582,0.00575253653307492,0.88833468282695,-0.08741778661238375,0.2015302849120235,2.219932923998257
1784547165810948352,0.8854942321777344,3.6282360553741455,0.9344181418418884,-3.7239882946014404,0.2048892080783844,0.05938426032662392,-0.976982057094574,0.1062527596950531,-0.06574717164039612,0.12888330221176147,0.46398328469930505,-0.10506786577630636,0.021673018457013016,0.8793238821416632,-0.05941922001444017,0.20672060226413752,2.1766993664475827
1784547165820868352,0.8954141139984131,3.1197845935821533,0.7163121700286865,-3.50492262840271,0.21111637353897095,0.03401479497551918,-0.9768689274787903,0.19821590185165405,-0.11806021630764008,0.14463931322097778,0.4814275723609264,-0.10117921101504311,0.03644604038761725,0.8698630853726996,-0.03402135622085945,0.2128419990419771,2.1342477239926327
1784547165830787072,0.9053330421447754,3.173755168914795,0.8058713674545288,-3.677868604660034,0.21749964356422424,0.011733648367226124,-0.9759898781776428,0.24038609862327576,-0.03277551382780075,0.18720203638076782,0.4979892009366787,-0.09764407646778148,0.04970611809470783,0.8602335664717325,-0.011733918006530435,0.21926739569182102,2.0933637949938855
1784547165840707328,0.9152531623840332,3.4350039958953857,0.8683709502220154,-3.875131607055664,0.2254524677991867,-0.012132824398577213,-0.9741786122322083,0.030834153294563293,-0.11613255739212036,0.06388503313064575,0.5154090210153851,-0.09383192854606465,0.06408011720787121,0.8493778914137375,0.012133122496659477,0.2274244751653696,2.0493867109458597
1784547165850627072,0.9251730442047119,3.4900569915771484,0.9814197421073914,-3.8377573490142822,0.23536530137062073,-0.03669505938887596,-0.9712139964103699,-0.013548284769058228,-0.24051135778427124,0.07251709699630737,0.5328163550558802,-0.09010179578357895,0.07921278400979978,0.83768347485433,0.0367032996420837,0.23775762687113522,2.0041830072467097
1784547165860546304,0.9350922107696533,3.4893946647644043,0.8537251353263855,-3.648921251296997,0.24631157517433167,-0.06140716373920441,-0.9672433733940125,0.038356393575668335,-0.3511294722557068,0.08819979429244995,0.5493916287410621,-0.08623456894849343,0.09456165077031575,0.8257061114489412,0.06144582372268871,0.24935328539896634,1.9596949475103078
1784547165870466304,0.945012092590332,3.3977653980255127,0.5817174911499023,-3.924347400665283,0.25599393248558044,-0.08439350873231888,-0.96298748254776,0.08661165833473206,-0.3419523239135742,0.09668499231338501,0.5657872672894035,-0.08173192828733156,0.10874815784379446,0.8132518472349568,0.08449401305413297,0.25982399222644603,1.914865666554748
1784547165880385280,0.9549310207366943,3.747818946838379,0.5594332218170166,-3.8721814155578613,0.26518547534942627,-0.10850377380847931,-0.95807284116745,0.013439983129501343,-0.342469722032547,0.06572365760803223,0.5826414989793941,-0.07602246631421736,0.12322401152158044,0.7997283020106253,0.10871781117147736,0.2700300775364534,1.8675485566793908
1784547165890305280,0.9648511409759521,3.457353353500366,0.61236172914505,-3.6973209381103516,0.27512326836586,-0.13255207240581512,-0.9522274732589722,-0.004630714654922485,-0.2698221802711487,0.09460723400115967,0.598328562241706,-0.07017282950110541,0.13770272905094472,0.7862040430649322,0.13294332750002077,0.2812664577811798,1.8216930986302817
1784547165900225280,0.9747710227966309,3.2875077724456787,0.7822085618972778,-3.9025707244873047,0.2872643768787384,-0.15367119014263153,-0.9454439878463745,-0.0800195038318634,-0.2775269150733948,0.1616305112838745,0.6136568483756789,-0.06553624199365778,0.15160146190605764,0.7721057596254525,0.1542825354586412,0.2949766420818262,1.775522827613782
1784547165910143744,0.9846897125244141,2.977512836456299,0.8878418803215027,-3.755563974380493,0.3016153573989868,-0.1719365119934082,-0.9377985000610352,-0.20099890232086182,-0.4091639518737793,0.08605289459228516,0.6285398279039607,-0.06213793377364531,0.16504431755148982,0.7575203137111908,0.1727951217521194,0.3111723480576743,1.7292033955474733
1784547165920063744,0.9946095943450928,2.7412142753601074,0.7790088653564453,-3.7595410346984863,0.3158735930919647,-0.18656273186206818,-0.9302785992622375,-0.12626788020133972,-0.311362087726593,0.003230869770050049,0.6427459170589431,-0.05946024503975508,0.17698923186251678,0.7429784888839532,0.18766227444879927,0.32733265778633475,1.6841294170854062
1784547165929983744,1.0045297145843506,2.52070689201355,0.658676028251648,-3.6033718585968018,0.32954350113868713,-0.19926121830940247,-0.9228737950325012,-0.08145084977149963,-0.28644129633903503,-0.15825718641281128,0.6562808899303203,-0.05684492642944256,0.18796744676133761,0.7285136487348277,0.20060396777727496,0.3429717718695795,1.6401689876664887
1784547165939902720,1.014448642730713,2.3184261322021484,0.6018106341362,-3.550260066986084,0.34246161580085754,-0.2093847692012787,-0.915902853012085,-0.19336798787117004,-0.183391734957695,-0.21552109718322754,0.6690804019960902,-0.05456387286553527,0.19766474906955578,0.7143408241138741,0.21094573394049768,0.3578112481830859,1.5979208999177401
1784547165949822720,1.0243685245513916,1.948108196258545,0.4570709764957428,-3.5885589122772217,0.35511788725852966,-0.21658413112163544,-0.9093858599662781,-0.25300607085227966,-0.21813878417015076,-0.23905164003372192,0.6815992759898566,-0.05289039687084844,0.20617877913998933,0.7000823322233402,0.21831418242098347,0.37229257604374516,1.5562765167854349
1784547165959742720,1.0342886447906494,1.7563518285751343,0.2904447019100189,-3.5998611450195312,0.3660697340965271,-0.22029423713684082,-0.9041368365287781,-0.2867087721824646,-0.15885615348815918,-0.2502363324165344,0.6941234157332762,-0.05153151908275911,0.21278178548491136,0.6857558479969836,0.22211611011889748,0.3847088437672228,1.515236701937966
1784547165969661696,1.0442075729370117,1.4619258642196655,0.1994990110397339,-3.445091724395752,0.3761245310306549,-0.22184798121452332,-0.8996186852455139,-0.2563430666923523,-0.20912125706672668,-0.3397764563560486,0.7062003912162139,-0.05050927713158077,0.2182646690879445,0.6716325813819628,0.2237092731482387,0.39600609011048205,1.4755660415711294
1784547165979581952,1.0541276931762695,1.0867258310317993,0.05666782706975937,-3.3310439586639404,0.38485321402549744,-0.22043919563293457,-0.8962669968605042,-0.2909659147262573,-0.26594996452331543,-0.24097055196762085,0.7175034144848681,-0.05018930225741189,0.22214303266878596,0.6582722600070322,0.22226472494222335,0.40558796250842394,1.438860439540774
1784547165989500672,1.0640466213226318,1.5406726598739624,-0.1082422211766243,-3.278212070465088,0.3918081521987915,-0.21881097555160522,-0.8936488032341003,-0.3508535623550415,-0.21493536233901978,-0.23364001512527466,0.728490079637312,-0.04929398977414054,0.22526809379606794,0.6450787911779893,0.2205957489509437,0.41319613812343503,1.4030790170850747
1784547165999420928,1.0739667415618896,2.440081834793091,-0.1777384728193283,-3.2124812602996826,0.39778539538383484,-0.2241244912147522,-0.8896825313568115,-0.33345434069633484,-0.1508907675743103,-0.3933374881744385,0.7394289706595835,-0.045115959096037106,0.23048487994452216,0.6309406947737203,0.2260445754140176,0.420447462283895,1.3643621238503039
1784547166009340672,1.0838866233825684,2.7844326496124268,-0.3872365951538086,-2.9777348041534424,0.40267762541770935,-0.23471663892269135,-0.8847365379333496,-0.28346073627471924,-0.005716100335121155,-0.3343796133995056,0.7498377459457998,-0.038341800103828774,0.23698443816437378,0.6165318208526482,0.23692705065773476,0.42711884291008995,1.3246757048140005
1784547166019259648,1.0938055515289307,3.2120068073272705,-0.5146558284759521,-2.9790704250335693,0.4059045910835266,-0.248879536986351,-0.8793750405311584,-0.252034991979599,-0.029929041862487793,-0.22885555028915405,0.7598625480155349,-0.029373609266794203,0.24382305944004984,0.6019105737772863,0.2515232257839975,0.4324445272395097,1.2843209181268838
1784547166029179904,1.1037256717681885,3.723862409591675,-0.6817545890808105,-2.9431536197662354,0.4083639085292816,-0.26700887084007263,-0.8728947043418884,-0.3395925760269165,-0.06602948904037476,-0.18189960718154907,0.7697009380866461,-0.018152293213561335,0.2514421280834521,0.5865217141353454,0.2702878651725889,0.43757975504069374,1.241841201678999
1784547166039099648,1.1136455535888672,4.1801958084106445,-0.7642569541931152,-2.9493141174316406,0.41038405895233154,-0.2892394959926605,-0.8648267984390259,-0.37211504578590393,-0.08809506893157959,-0.10361796617507935,0.7792711106962611,-0.004618575761961647,0.2599332025146332,0.5702190936606956,0.2934322897899278,0.4430627224277067,1.1968728700856681
1784547166049018880,1.1235647201538086,4.2803955078125,-0.9109664559364319,-2.9088642597198486,0.41204705834388733,-0.31350383162498474,-0.8555305600166321,-0.4182726740837097,-0.04669514298439026,-0.07546919584274292,0.7884828343677828,0.010367307039090404,0.26856514891095384,0.5532269299180016,0.31888064557940626,0.4488419024484534,1.1502645987722901
1784547166058938624,1.1334846019744873,4.341073513031006,-1.052833080291748,-2.895385980606079,0.4130925238132477,-0.33801326155662537,-0.845636785030365,-0.3097752630710602,-0.06632938981056213,0.033396244049072266,0.79723081582367,0.026049566404492155,0.27659178802096523,0.5359490577032138,0.3448050949526293,0.4544043377870534,1.1032616731273728
1784547166068858880,1.1434047222137451,4.335426330566406,-1.1475189924240112,-2.8009986877441406,0.4137963354587555,-0.36255311965942383,-0.8350615501403809,-0.2862023413181305,-0.08410215377807617,0.04378652572631836,0.8055232158639237,0.04226725559129245,0.2840469894375512,0.518327292705727,0.37100595197180986,0.46006356799971315,1.055702286422479
1784547166078777856,1.1533236503601074,4.292308807373047,-1.1684399843215942,-2.670896291732788,0.41433197259902954,-0.3867124617099762,-0.8238825798034668,-0.28162625432014465,0.042931944131851196,0.0736689567565918,0.8129996031411467,0.05857194396715391,0.2909089827596126,0.5009720195752482,0.39706402484003533,0.4659662869137255,1.009089850305863
1784547166088697600,1.1632435321807861,4.440700054168701,-1.2489817142486572,-2.6240460872650146,0.415070503950119,-0.41141894459724426,-0.8114498853683472,-0.22691437602043152,-0.06091687083244324,0.03985869884490967,0.8197709310166368,0.07541665970670282,0.2976363250338698,0.4834258346768296,0.42401032576330255,0.4728187768675684,0.9620197499176142
1784547166098616832,1.1731626987457275,4.194260597229004,-1.2740838527679443,-2.460148334503174,0.4156109690666199,-0.43550950288772583,-0.7984979152679443,-0.11695075035095215,-0.11733165383338928,0.09929448366165161,0.8258695206449665,0.09229082318123391,0.30369958295260485,0.46603482034753935,0.4506042134855553,0.4799057019642449,0.9154706975475211
1784547166108536832,1.1830825805664062,3.9859557151794434,-1.2887327671051025,-2.33636212348938,0.41617196798324585,-0.45755210518836975,-0.7857779860496521,-0.06848517060279846,-0.09187111258506775,0.19358432292938232,0.8312326611604994,0.10825162742057007,0.3088569293278077,0.4493788186434234,0.47524026594652213,0.48707004779464,0.8710121542733427
1784547166118456832,1.193002700805664,4.184946537017822,-1.3763084411621094,-2.2305104732513428,0.41644173860549927,-0.4796890616416931,-0.7723177671432495,-0.10604742169380188,-0.11128383874893188,0.1844576597213745,0.835929196494298,0.12453668559180293,0.31357890617955414,0.43287565693659663,0.5003002977699256,0.4945216816118062,0.8268192131294892
1784547166128375808,1.2029216289520264,4.244663715362549,-1.4828155040740967,-2.1273393630981445,0.4161474108695984,-0.5028544068336487,-0.757600724697113,-0.086252361536026,-0.05682271718978882,0.20160096883773804,0.8399483085209458,0.14174929395845912,0.31797291680240664,0.4162779906170383,0.5268979160081444,0.5023029138333243,0.7820601247671365
1784547166138295808,1.2128417491912842,4.071595668792725,-1.5095709562301636,-2.184446096420288,0.41581931710243225,-0.5250207185745239,-0.7425951361656189,-0.04924216866493225,-0.047473788261413574,0.21404600143432617,0.8436075310533351,0.15883166113090147,0.3216751856662383,0.39952962675152276,0.5527394402376415,0.5104534889407838,0.7368679112728693
1784547166148215808,1.222761631011963,3.9577386379241943,-1.494539499282837,-2.1570732593536377,0.4164341390132904,-0.5452126860618591,-0.7275477647781372,0.061349064111709595,-0.01327425241470337,0.1588832139968872,0.8469146011776031,0.17501793157250492,0.3249535855637643,0.3827657430039728,0.5766428039888926,0.5198633990279573,0.691527062726801
1784547166158134784,1.2326805591583252,3.8566951751708984,-1.4712464809417725,-2.0558135509490967,0.4174683690071106,-0.5645713210105896,-0.7120248675346375,0.21137690544128418,-0.10046768188476562,0.14792269468307495,0.8496641052001777,0.19090253662271764,0.32793869128200764,0.36617405627953953,0.5999138244105652,0.5302936054150282,0.6462460877840942
1784547166168054784,1.242600679397583,3.3651926517486572,-1.3639068603515625,-1.9469610452651978,0.4189112186431885,-0.581572413444519,-0.6973428130149841,0.19562125205993652,-0.07783615589141846,0.24208158254623413,0.8519752496774629,0.20542762172154821,0.33034540760942666,0.35044217918388776,0.6206602875686177,0.5409523728917511,0.6030987799215668
1784547166177974784,1.2525205612182617,3.2174317836761475,-1.2717689275741577,-1.810510516166687,0.42098358273506165,-0.5959986448287964,-0.6837824583053589,0.05956152081489563,0.012105882167816162,0.2514246702194214,0.8539184312159704,0.21831641350204753,0.332335224243533,0.3357300687990493,0.6385087768680245,0.5518611196858494,0.5625433158515002
1784547166187893760,1.2624397277832031,3.2371230125427246,-1.303421974182129,-1.6403284072875977,0.42264115810394287,-0.6105955243110657,-0.6697369813919067,0.03620588779449463,-0.024261653423309326,0.17053043842315674,0.8552333165574062,0.23133485909974835,0.334089357750575,0.32162797845063545,0.6568123557421927,0.5629419598114805,0.5230004476340827
1784547166197813760,1.2723596096038818,3.2426772117614746,-1.4048268795013428,-1.505162000656128,0.42336422204971313,-0.6251440048217773,-0.6557116508483887,-0.03557732701301575,0.10573482513427734,0.15533018112182617,0.8561350592292173,0.24448377464113943,0.33521913944970505,0.30803987255070386,0.6753159933773482,0.5733154523101736,0.4845021054517446
1784547166207732736,1.2822785377502441,3.5439693927764893,-1.5553884506225586,-1.3538116216659546,0.4229374825954437,-0.6408827304840088,-0.6406193375587463,-0.11913499236106873,0.1399977207183838,0.05184376239776611,0.8565104601730907,0.2586765953979601,0.3358224822153634,0.294447676694716,0.6956476287525384,0.5835129521004816,0.4453175920660618
1784547166217652736,1.292198657989502,3.7386040687561035,-1.67536199092865,-1.123260498046875,0.42066681385040283,-0.6586520671844482,-0.6238723993301392,-0.08096045255661011,0.09450417757034302,0.052842795848846436,0.8561418371036313,0.2744643673125873,0.33575751610278326,0.280993311817796,0.7190259835203907,0.5932572117331598,0.4055131602743018
1784547166227572736,1.3021185398101807,3.8825836181640625,-1.8349981307983398,-1.0334185361862183,0.4170558452606201,-0.6774508357048035,-0.6059081554412842,-0.0791957676410675,0.09358853101730347,0.08594965934753418,0.8551843700838446,0.2912609289188371,0.33498210046077875,0.26760724796749863,0.7442915455993238,0.6028407692612816,0.36501776222237403
1784547166237491968,1.312037706375122,4.072139739990234,-1.9533189535140991,-0.9835712909698486,0.4126836061477661,-0.6967771053314209,-0.5866802930831909,-0.1339513659477234,0.06298810243606567,0.0765027403831482,0.8537256236593127,0.3088549035219583,0.3335693325661634,0.2539538391545184,0.7708944782256717,0.6130186532467022,0.32283599407492214
1784547166247411712,1.3219575881958008,4.177308082580566,-2.083620548248291,-0.9548033475875854,0.40792518854141235,-0.7165529131889343,-0.56581711769104,-0.11742836236953735,0.06629961729049683,0.07713913917541504,0.8516918084438886,0.32726682811336016,0.33164420130643496,0.23985336323280554,0.7988478545935908,0.624647693050736,0.2780954168284378
1784547166257331968,1.3318777084350586,4.194136142730713,-2.152428150177002,-1.0614129304885864,0.4034501016139984,-0.7355377078056335,-0.5442538857460022,-0.1292649507522583,0.19687193632125854,0.0747409462928772,0.849346726620063,0.3457008236352217,0.3291868616729193,0.22524892027164828,0.8264600059399261,0.6379035036686439,0.23087548820221238
1784547166267250688,1.341796636581421,4.2394022941589355,-2.151736259460449,-1.1228480339050293,0.4001501798629761,-0.7535072565078735,-0.5216384530067444,-0.16929998993873596,0.26084673404693604,0.004243373870849609,0.8466061915197242,0.3640247527003744,0.32659877958886413,0.20994575565244597,0.8533806414138339,0.6543572173919712,0.18000238557928855
1784547166277170944,1.3517167568206787,4.2241411209106445,-2.1202919483184814,-1.1181541681289673,0.3977814018726349,-0.7704486846923828,-0.4981754422187805,-0.14529424905776978,0.2326222062110901,-0.036614567041397095,0.8433670729245291,0.38207364295954493,0.3239321041951492,0.1944728819300272,0.8795446614230114,0.6738113241007142,0.12659980166470922
1784547166287090688,1.3616366386413574,4.437707901000977,-2.0715432167053223,-1.1277124881744385,0.3964073657989502,-0.7868262529373169,-0.4730388820171356,-0.1291191279888153,0.1393042802810669,-0.10832095146179199,0.839372118782083,0.4002319166544337,0.3213953460367877,0.17881283137703718,0.9056496159697034,0.6974870445749173,0.06959183861836944
1784547166297009664,1.3715555667877197,4.745133876800537,-2.0473053455352783,-1.0612356662750244,0.3957400321960449,-0.8033995628356934,-0.4449034035205841,-0.12102079391479492,0.03652334213256836,-0.1862305998802185,0.8342359160093863,0.4192669134116794,0.3190039966847864,0.16279504511005086,0.9329827727700488,0.7269816672362834,0.006924855046270782
1784547166306929920,1.3814756870269775,5.145687580108643,-2.060176134109497,-0.9491694569587708,0.3951030969619751,-0.8204740881919861,-0.41317757964134216,-0.10155457258224487,-0.01459360122680664,-0.19026169180870056,0.8277282589979196,0.4396172759835406,0.3164614589609134,0.1464740934829793,0.9622398229601493,0.7630402390711459,-0.06259707054117981
1784547166316848640,1.3913946151733398,5.576706886291504,-2.0758049488067627,-0.7889286875724792,0.39413580298423767,-0.8380722999572754,-0.37721577286720276,-0.14384591579437256,-0.06401199102401733,-0.20193156599998474,0.8195910558615601,0.46156294079793836,0.31361086187043624,0.12991675577595668,0.9937401843750043,0.807330217629942,-0.1407702109257823
1784547166326768896,1.4013147354125977,6.021097660064697,-2.13608455657959,-0.6123275756835938,0.39258795976638794,-0.8559033870697021,-0.3366069495677948,-0.17046573758125305,-0.08954644203186035,-0.2056140899658203,0.8096261441307843,0.48520593753265095,0.3102768429965323,0.11317723893778833,1.027295208740388,0.862018831332826,-0.22987781055490042
1784547166336688640,1.4112346172332764,6.2551374435424805,-2.22688627243042,-0.4347546398639679,0.3902668356895447,-0.8730594515800476,-0.29233410954475403,-0.17440065741539001,-0.12248510122299194,-0.18238207697868347,0.7980571328164072,0.5100629946458625,0.3060534002003583,0.09629140079554402,1.0614418250708217,0.9278957139191675,-0.331112368181758
1784547166346607616,1.4211535453796387,6.427316665649414,-2.229274034500122,-0.21529103815555573,0.3871189057826996,-0.8887229561805725,-0.24558191001415253,-0.14728125929832458,-0.1500954031944275,-0.16234654188156128,0.7851390991446631,0.535435473668314,0.30086193101084835,0.07967162806194228,1.094552034475119,1.0054776507725427,-0.4443634652467726
1784547166356527872,1.4310736656188965,6.633881568908691,-2.311835289001465,0.08320270478725433,0.38276225328445435,-0.9027795791625977,-0.1961687058210373,-0.10538798570632935,-0.19527339935302734,-0.1424238085746765,0.7707402155907748,0.5613487797079371,0.29462381501616774,0.06359201516871757,1.1261889491635049,1.0971924666641037,-0.5717958842534355
1784547166366447616,1.4409935474395752,6.871897220611572,-2.2120039463043213,0.35268765687942505,0.3769184350967407,-0.9150256514549255,-0.14373749494552612,-0.02383008599281311,-0.2359142303466797,-0.10737638175487518,0.7546822157365831,0.5878843381969727,0.2872686105691645,0.04820216215367215,1.155571491878699,1.2064709829041083,-0.7167532650107105
1784547166376366848,1.4509127140045166,6.991885662078857,-1.937083125114441,0.6463462114334106,0.369931697845459,-0.9248702526092529,-0.08812306821346283,-0.037656307220458984,-0.26581883430480957,-0.05921578407287598,0.7368179056362965,0.6146879789703618,0.2794586826022015,0.03407307728264012,1.18069426715785,1.3369403583771675,-0.8810309013720449
1784547166386286848,1.4608325958251953,7.008710861206055,-1.7809977531433105,0.8538886308670044,0.36188602447509766,-0.9317268133163452,-0.03038949705660343,-0.0007562935352325439,-0.31476354598999023,-0.059103306382894516,0.7174490159026597,0.6412059026263167,0.27140420373011837,0.021484003326298098,1.1991390957780335,1.4870175612348393,-1.0623715970221537
1784547166396206848,1.4707527160644531,7.074044704437256,-1.6175920963287354,1.1159764528274536,0.3527189791202545,-0.9352899193763733,0.02867170050740242,0.059573471546173096,-0.44091546535491943,-0.0562748908996582,0.6968216482434195,0.6672692168567982,0.26284528258434964,0.010185974690156464,1.2090774963878261,1.651905650091222,-1.25681413431772
1784547166406125824,1.4806716442108154,7.4579339027404785,-1.4118497371673584,1.4309368133544922,0.3418925404548645,-0.9353338479995728,0.0908861979842186,0.07261249423027039,-0.5897821187973022,0.06197631359100342,0.6742084127203407,0.6936509375967236,0.25355763542056536,6.369412356976688e-06,1.2092015224677923,1.8306198944040482,-1.4640353671010538
1784547166416045568,1.4905915260314941,7.528594017028809,-1.1890970468521118,1.7336252927780151,0.32868093252182007,-0.9314118027687073,0.15633545815944672,-0.008322685956954956,-0.7053526639938354,0.1386169046163559,0.6494295006414543,0.7203158641835425,0.24354216114156008,-0.00857540699927977,1.198272706388923,2.0147708314373314,-1.6749968785513218
1784547166425964800,1.5005106925964355,7.4592132568359375,-1.0946636199951172,2.011141538619995,0.31346622109413147,-0.9234104752540588,0.2214762270450592,-0.11118054389953613,-0.6425836086273193,0.2150777131319046,0.6237153209620739,0.7460418722682751,0.23272223981061116,-0.01552283882939308,1.1768733387474652,2.185897661366356,-1.871380593162784
1784547166435884800,1.5104305744171143,7.943197250366211,-0.9732151627540588,2.0741195678710938,0.2974017858505249,-0.9102274775505066,0.28816336393356323,-0.1331409215927124,-0.5014241337776184,0.1500232219696045,0.5961904368296955,0.7714587944475977,0.22120807621729147,-0.02180122946694149,1.1438330919793616,2.3404188857556134,-2.0508540351765343
1784547166445804800,1.520350694656372,8.198476791381836,-0.9103438258171082,2.332362413406372,0.28084680438041687,-0.8905007243156433,0.3579578697681427,-0.0926143229007721,-0.38487470149993896,0.051801711320877075,0.5658999772795802,0.7970968943779759,0.20884316974749403,-0.02790007431969689,1.0984445780615095,2.4763247132870285,-2.2123604900631473
1784547166455723776,1.5302696228027344,8.344883918762207,-0.6066752672195435,2.4363303184509277,0.26303377747535706,-0.8647278547286987,0.4278538227081299,-0.09868139028549194,-0.3160582184791565,0.01703140139579773,0.533853137187669,0.8219182273328398,0.19590133573168725,-0.03277010104618792,1.0446082175525782,2.590380051949219,-2.350884278261237
1784547166465643776,1.5401897430419922,8.272797584533691,-0.4828484356403351,2.5852155685424805,0.24441224336624146,-0.832725465297699,0.4968211054801941,-0.08186033368110657,-0.424659788608551,-0.09156286716461182,0.5002615176687472,0.845597843051305,0.18268781377794194,-0.036441005276462296,0.9840120187329072,2.68440398029017,-2.4679248815558616
1784547166475563776,1.550109624862671,7.832266807556152,-0.23937132954597473,2.7010717391967773,0.2248384654521942,-0.7966490387916565,0.5610682964324951,0.1570584625005722,-0.42655640840530396,-0.13467681407928467,0.46688250768879236,0.8671287289077463,0.16918016663620664,-0.038554794579789296,0.9217309263624098,2.7604547411236795,-2.565238561908353
1784547166485482752,1.5600285530090332,7.3614373207092285,-0.7023330330848694,2.7566118240356445,0.2064570188522339,-0.7578518390655518,0.6188989877700806,0.3742009401321411,-0.4220949411392212,-0.21167248487472534,0.43462961201881806,0.8862875451949759,0.15473806886467875,-0.04059039227871733,0.8600142590842637,2.819613289146132,-2.6472106359197896
1784547166495402752,1.569948673248291,6.696081161499023,-0.9202589988708496,2.8056960105895996,0.19174990057945251,-0.7184279561042786,0.6686504483222961,0.5338817834854126,-0.32879799604415894,-0.22762560844421387,0.40466847696832015,0.9027423978569603,0.13921702529077323,-0.04379789009561581,0.8015396986170267,2.862315815761941,-2.7166076047528875
1784547166505322752,1.5798685550689697,6.281250476837158,-0.40694597363471985,2.6187260150909424,0.17727597057819366,-0.6790922284126282,0.7123249173164368,0.45022642612457275,-0.28303539752960205,-0.22410482168197632,0.376506219486619,0.9168978058540506,0.1243417900209886,-0.04561307745731605,0.7465252710405691,2.8976782392872744,-2.776089471583785
1784547166515241984,1.5897877216339111,5.371927738189697,-0.3670952320098877,2.667593479156494,0.16279888153076172,-0.6408291459083557,0.7502227425575256,0.2134828269481659,-0.196313738822937,-0.25591444969177246,0.35038383107435206,0.928954295666598,0.11025106370367067,-0.04604020892898113,0.6955778676894228,2.927904958204268,-2.82760774349158
1784547166525161728,1.5997076034545898,4.061489582061768,-0.3432600498199463,2.531243324279785,0.14951887726783752,-0.6092939376831055,0.7787201404571533,0.264253705739975,-0.13945484161376953,-0.09749150276184082,0.3294484180746128,0.938127488510088,0.0963165408551071,-0.04586595051939306,0.6551698512072299,2.9518953813631077,-2.872335687525683
1784547166535080704,1.6096265316009521,2.953678846359253,-0.19866985082626343,2.5151753425598145,0.13690228760242462,-0.5853050947189331,0.7991721630096436,0.41114768385887146,-0.21994709968566895,-0.07286888360977173,0.31370721956301434,0.9447865891416549,0.08345285788625578,-0.04474172511494141,0.6252562934591739,2.971934297589763,-2.9104339156278574
1784547166545000704,1.61954665184021,1.8662927150726318,-0.2455381453037262,2.58876895904541,0.12414147704839706,-0.5696157217025757,0.8124822974205017,0.5358774662017822,-0.30338549613952637,-0.029034793376922607,0.303185505055772,0.9493528394464277,0.0705005567984588,-0.042867088279439955,0.6060382508117886,2.989972445001189,-2.945855663048575
1784547166554920704,1.6294665336608887,1.0084246397018433,-0.1750224381685257,2.5241434574127197,0.11210471391677856,-0.5610265135765076,0.8201717734336853,0.6717240214347839,-0.38895517587661743,0.07001066207885742,0.29705347955482336,0.9522459557860383,0.057563279781190475,-0.040906431837989976,0.5956253558266524,3.0057500145612606,-2.9790856927601683
1784547166564839936,1.63938570022583,0.41294705867767334,-0.0651661604642868,2.4961581230163574,0.09968619793653488,-0.5578976273536682,0.8239010572433472,0.6858362555503845,-0.4215030074119568,0.09924042224884033,0.2942583551143865,0.9538784074963607,0.045458800189226385,-0.0382296800642548,0.5918503872030269,3.0211850132737097,-3.0096012839143373
1784547166574759680,1.6493055820465088,0.06705063581466675,-0.026252318173646927,2.6388847827911377,0.08555540442466736,-0.5582462549209595,0.8252522945404053,0.7057806253433228,-0.3628047704696655,0.13541054725646973,0.29355910160184356,0.9547374644766432,0.03320444843715721,-0.03459614424895368,0.5922705179138678,3.0382898778370433,-3.040519628797954
1784547166584679936,1.6592257022857666,-0.04403780400753021,0.19951051473617554,2.419778823852539,0.07045542448759079,-0.5602012872695923,0.8253549933433533,0.6890965700149536,-0.3334450125694275,0.2231374979019165,0.2939485720622265,0.9551005059871671,0.021460044782977177,-0.03027907791862612,0.5946287660997321,3.0564353196710816,-3.0705562789368583
1784547166594598656,1.669144630432129,-0.012319285422563553,0.5524320602416992,2.506819009780884,0.05356506258249283,-0.5621464848518372,0.8253013491630554,0.7103509902954102,-0.21423602104187012,0.23832786083221436,0.2945051172829298,0.9552706146120877,0.010427611247238112,-0.024821810841310347,0.5969789307044053,3.076779918972727,-3.099813750749265
1784547166604518912,1.6790647506713867,0.33991119265556335,0.31217342615127563,2.8982512950897217,0.03534504771232605,-0.5619694590568542,0.8264026641845703,0.7339268326759338,-0.11918288469314575,0.25622379779815674,0.2940017860459397,0.9556141561780038,-0.001707526016208452,-0.019018700210547378,0.5967649086510273,3.098848939815204,-3.1320180487357447
1784547166614438656,1.6889846324920654,0.35355085134506226,0.5640775561332703,2.7645959854125977,0.015472589991986752,-0.559708833694458,0.8285451531410217,0.7265928387641907,-0.10449111461639404,0.2346721887588501,0.2925214702368635,0.9560625393068019,-0.014730376300866299,-0.012598805737321665,0.5940343715740306,3.1229204159157407,3.116495604959985
1784547166624357632,1.6989035606384277,0.333508163690567,0.634312093257904,2.6992735862731934,-0.0043142992071807384,-0.5570585131645203,0.8304620981216431,0.5260733366012573,-0.0037019848823547363,0.21938836574554443,0.29109265997447814,0.9563078145752765,-0.02657852618712417,-0.005834590184381245,0.5908396434529137,-3.1363976416325006,3.0844402733027634
1784547166634277888,1.7088236808776855,0.23322629928588867,0.5944491028785706,3.002614736557007,-0.024991389364004135,-0.5542246103286743,0.8319916725158691,0.45965325832366943,-0.014378726482391357,0.1632169485092163,0.28983237265416345,0.9562652292789382,-0.039403582152671215,0.0011244384191695664,0.587431149022657,-3.111563653411463,3.0501445252007113
1784547166644197632,1.7187435626983643,0.2747538089752197,0.7488701939582825,2.7127153873443604,-0.046283166855573654,-0.5512193441390991,0.8330754637718201,0.33459797501564026,-0.1200299859046936,0.1907280683517456,0.28877276735760643,0.9559486512126822,-0.05196067671288741,0.008511706921678585,0.5838249246812497,-3.0860927174909083,3.016307879947155
1784547166654116864,1.7286627292633057,0.11365175992250443,0.878986656665802,2.7293856143951416,-0.06774827837944031,-0.5478734970092773,0.8338133096694946,0.2590019404888153,-0.22473996877670288,0.14171147346496582,0.2877979403245352,0.9554384247575665,-0.06359293579150357,0.016298510063582645,0.579820139450205,-3.060519611994555,2.9844735178274155
1784547166664036864,1.7385826110839844,0.04399478808045387,0.9922732710838318,2.801377534866333,-0.09035807847976685,-0.5452583432197571,0.8333836793899536,0.26298075914382935,-0.24233925342559814,0.11913079023361206,0.28757908214249844,0.9544685753030179,-0.07537615626740145,0.02462358058909556,0.5766972572625017,-3.0335913923839177,2.951912780739344
1784547166673955584,1.7485015392303467,0.20360015332698822,1.0707017183303833,2.711731195449829,-0.11370581388473511,-0.5415109992027283,0.8329687714576721,0.1777927279472351,-0.267128586769104,0.029900550842285156,0.287047516265833,0.9533760452060787,-0.08693960603519954,0.03345700888910791,0.5722333647874902,-3.0059244888058507,2.9197450703466195
1784547166683875840,1.7584216594696045,0.1031416580080986,0.9342073202133179,2.6596181392669678,-0.1360909342765808,-0.5365838408470154,0.8328008651733398,0.1455666422843933,-0.2684088945388794,-0.03571212291717529,0.2860712097691808,0.9522482993639545,-0.0981000143413514,0.04198682219893412,0.5663835458907173,-2.979610839524969,2.889044829981321
1784547166693795584,1.7683415412902832,-0.348582923412323,0.775667667388916,2.6127588748931885,-0.15677885711193085,-0.533795177936554,0.8309533596038818,0.17122890055179596,-0.2237122654914856,-0.06250530481338501,0.2864811572756836,0.9505384832712589,-0.10933100103850506,0.04951736157270982,0.5630822989314798,-2.9551113209878266,2.858480546569068
1784547166703714816,1.7782607078552246,-0.5125900506973267,0.6642454862594604,2.522789239883423,-0.175937682390213,-0.5332328677177429,0.8274712562561035,0.1503792107105255,-0.19264298677444458,-0.07307672500610352,0.28829561734065834,0.948266238563248,-0.12052706906185072,0.05612496957784554,0.5624174552949875,-2.9320915943972223,2.8280224561272806
1784547166713634816,1.7881805896759033,-0.37554270029067993,0.596356213092804,2.444511651992798,-0.19397763907909393,-0.5325326323509216,0.8238821029663086,0.11170224845409393,-0.17512428760528564,-0.016921043395996094,0.29014077678865513,0.9458890067280291,-0.13128229126998017,0.06226785118195369,0.5615899390963601,-2.9103604945441433,2.798805167795417
1784547166723554816,1.7981007099151611,-0.2618338465690613,0.5092520117759705,2.4918935298919678,-0.21116456389427185,-0.5299665331840515,0.8213067054748535,0.14404118061065674,-0.18702858686447144,0.050153136253356934,0.29106578749829787,0.943625518999785,-0.14221187750121178,0.068024091894791,0.5585611104541663,-2.8899353256123796,2.7699074210787984
1784547166733473792,1.8080196380615234,-0.47667714953422546,0.48481032252311707,2.2579715251922607,-0.22764086723327637,-0.5277901887893677,0.8183013796806335,0.12980149686336517,-0.22050082683563232,0.05350947380065918,0.2923055673487624,0.9411992487919099,-0.15262593229310023,0.07353068022951664,0.555996758245269,-2.870265879174582,2.7421964750771335
1784547166743393792,1.8179397583007812,-0.8222328424453735,0.3908330500125885,2.1690547466278076,-0.24255384504795074,-0.527945876121521,0.8139047026634216,0.08102427423000336,-0.18798130750656128,-0.023911356925964355,0.2948510266825171,0.938367446581703,-0.16253892200160788,0.07816996881937316,0.5561800818322505,-2.851960181616982,2.7153457983842353
1784547166753313792,1.82785964012146,-0.9809732437133789,0.23428553342819214,2.0805487632751465,-0.2561868727207184,-0.5301405787467957,0.8082814812660217,0.05684611201286316,-0.1468307375907898,-0.104775071144104,0.29855866718057733,0.9351327021878563,-0.17224273579871008,0.08198716744438393,0.5587663271769213,-2.8346565094750193,2.688598796417021
1784547166763232768,1.8377785682678223,-1.145642638206482,0.22023902833461761,1.9008560180664062,-0.2682844400405884,-0.5333746075630188,0.8022064566612244,0.001423478126525879,-0.0884363055229187,-0.11005246639251709,0.3027961824004534,0.9317100768051133,-0.18171283484741682,0.0849194015966624,0.5625850509931934,-2.8188525887469815,2.6623595676365683
1784547166773152768,1.84769868850708,-1.1956349611282349,0.22507718205451965,1.5796265602111816,-0.279171884059906,-0.5380876064300537,0.7953139543533325,-0.09469890594482422,-0.04382139444351196,-0.017100632190704346,0.3077277149836002,0.9282351085309976,-0.18983299273714943,0.0874445206274558,0.568166631237505,-2.8040085565919677,2.63870386376163
1784547166783071744,1.8576176166534424,-1.172410011291504,0.2336185872554779,1.4202959537506104,-0.2888883054256439,-0.5433121919631958,0.7882610559463501,-0.06021752953529358,-0.06461316347122192,0.0505603551864624,0.31278750314225456,0.9248850172371134,-0.196769475698843,0.08962964156110068,0.5743773894346718,-2.7903052742101497,2.6176046504714394
1784547166792992000,1.8675377368927002,-1.2304410934448242,0.12073998153209686,1.426516056060791,-0.29802054166793823,-0.5484223365783691,0.7812919020652771,-0.013075649738311768,-0.05623781681060791,0.14928078651428223,0.3177689665201216,0.9215391890607573,-0.2034980698269558,0.09152611939019448,0.5804763626497266,-2.7771828284748694,2.596971409214333
1784547166802911744,1.877457618713379,-1.479273796081543,0.21460393071174622,1.3864562511444092,-0.306793749332428,-0.5545626878738403,0.7735230922698975,-0.08003181219100952,-0.03866857290267944,0.16306138038635254,0.32339700040338715,0.9178950725982578,-0.21030973566735991,0.09302080774496402,0.5878373187084107,-2.764004549145546,2.5755852042506127
1784547166812830720,1.8873765468597412,-2.018207311630249,0.3684110641479492,1.2070529460906982,-0.3162618577480316,-0.5636985301971436,0.7630350589752197,-0.2779459059238434,-0.026984453201293945,0.11939597129821777,0.33094278980055175,0.9135838662754074,-0.21652260974405851,0.09465395615771922,0.5988567548003131,-2.7486672000743018,2.553442226686964
1784547166822750720,1.897296667098999,-2.725137948989868,0.47607532143592834,0.9181649684906006,-0.32536575198173523,-0.5781736969947815,0.7482331991195679,-0.42390191555023193,0.04294103384017944,0.036557018756866455,0.34165094181935607,0.9082622986510798,-0.22175709485989237,0.09569851863041781,0.6164885473214645,-2.731412530598599,2.5303845947196963
1784547166832670720,1.9072165489196777,-3.515856981277466,0.4782774746417999,0.8816575407981873,-0.3340752124786377,-0.5980889797210693,0.7284800410270691,-0.4201972186565399,0.08926945924758911,0.03868609666824341,0.3557524000821743,0.9016476126057981,-0.22643231637353317,0.09591748212258044,0.6411144539598329,-2.7116165121392504,2.5047624805441986
1784547166842589952,1.9171357154846191,-4.06693172454834,0.4671899378299713,0.7792637944221497,-0.342409610748291,-0.622325599193573,0.7038934230804443,-0.4601568281650543,0.16567599773406982,0.05523109436035156,0.37283040653595245,0.8935878702275621,-0.23118699380312355,0.09513476472559905,0.6717102603858558,-2.6888429126143207,2.4748023540631885
1784547166852509696,1.9270555973052979,-4.36643648147583,0.4052565395832062,0.3342304229736328,-0.34891268610954285,-0.6492698192596436,0.6758025884628296,-0.5487619638442993,0.22348833084106445,0.14237385988235474,0.3916795527266212,0.884719022754405,-0.23489052208081265,0.09319854903309263,0.706623946046857,-2.6649951479936806,2.443882098373603
1784547166862429952,1.9369757175445557,-4.509530544281006,0.6102955341339111,0.2519378066062927,-0.3537968099117279,-0.6777719259262085,0.6445565819740295,-0.5981837511062622,0.2904580235481262,0.23730987310409546,0.4117215887123293,0.8752581942992268,-0.2370683171270384,0.09059300243781383,0.7447281167576898,-2.6395947068595946,2.4129435580640437
1784547166872348672,1.946894645690918,-4.171194553375244,0.4684446454048157,0.3576836585998535,-0.35983917117118835,-0.7034682631492615,0.6129015684127808,-0.542657196521759,0.2345808744430542,0.2541181445121765,0.43088809584413096,0.8655892773876488,-0.23917773235640588,0.0887958621514861,0.7802656451667759,-2.610706799997776,2.3797535547798403
1784547166882268672,1.9568145275115967,-4.550727367401123,0.26455238461494446,-0.013232183642685413,-0.3631771504878998,-0.7284373044967651,0.5809314846992493,-0.6084414720535278,0.2518748641014099,0.37132376432418823,0.4496977761600209,0.8557540800092429,-0.2411445526582706,0.08547596381702292,0.816038218215676,-2.58287578687647,2.3455066511939013
1784547166892187904,1.966733694076538,-4.932525157928467,0.4716986417770386,-0.27993762493133545,-0.363824725151062,-0.7555046677589417,0.5448338389396667,-0.708837628364563,0.3893396258354187,0.4949151873588562,0.4701621458962264,0.8449907049160983,-0.24167673012318197,0.0808116659365963,0.8564241249899593,-2.552825320693432,2.309401212966195
1784547166902107648,1.9766535758972168,-5.298679351806641,0.7006593942642212,-0.3435056209564209,-0.36466890573501587,-0.7832238078117371,0.5035644769668579,-0.7655649185180664,0.47403484582901,0.5907806754112244,0.4923141923284548,0.8328793315464789,-0.24102750243651985,0.07644947444747503,0.8998341085290902,-2.5148253173838575,2.2677072352362884
1784547166912029184,1.9865751266479492,-5.490045547485352,0.36183950304985046,-0.8851137757301331,-0.3628711700439453,-0.8112021684646606,0.45855820178985596,-0.8733654022216797,0.6200248003005981,0.6676472425460815,0.5154590692803169,0.8197722735327955,-0.2392749909383356,0.07087226609788894,0.9462050329396211,-2.472160294522683,2.2212401452486663
1784547166921948160,1.9964940547943115,-4.941747188568115,0.4537982940673828,-0.9771537184715271,-0.35624343156814575,-0.8378844261169434,0.4135700464248657,-0.9775577783584595,0.7727599740028381,0.6032451391220093,0.5377618307251923,0.8068984959619209,-0.23600814189741035,0.06345971899823644,0.9933958152238518,-2.4305254680111705,2.1752779547538355
1784547166931868160,2.0064139366149902,-4.635821342468262,0.8638766407966614,-0.506960391998291,-0.35247793793678284,-0.8589109778404236,0.3715258538722992,-0.8621522188186646,0.7156308889389038,0.3835705518722534,0.557505572117635,0.794742011371566,-0.2326973468946875,0.05852075439434372,1.0331393351291633,-2.382497540310501,2.1262976915757945
1784547166941788160,2.016334056854248,-4.24614953994751,0.6806167960166931,-0.9123463034629822,-0.3492554724216461,-0.8767048716545105,0.3307710289955139,-0.8979064226150513,0.849818766117096,0.33423760533332825,0.5759107259937523,0.7827596011933039,-0.2295058181493308,0.05423487760217916,1.0689686474713609,-2.32901924175676,2.0724327035904815
1784547166951707136,2.0262529850006104,-3.5873868465423584,0.35198137164115906,-1.202283263206482,-0.34125322103500366,-0.8926069140434265,0.2946173846721649,-0.8768864870071411,0.920621931552887,0.09812858700752258,0.5918914587458864,0.7724742112304321,-0.22492729810315742,0.04853762137393068,1.1030948536561602,-2.282983884051339,2.025843641227811
1784547166961627136,2.036173105239868,-2.3103368282318115,-0.10869469493627548,-0.9351546168327332,-0.3322509825229645,-0.9043496251106262,0.26788249611854553,-0.7734314203262329,0.8705056309700012,0.07229697704315186,0.6035344367950989,0.764797599779191,-0.22141788201469426,0.042484677415580506,1.1298534266511115,-2.2493460035820956,1.989286880559283
1784547166971547136,2.046092987060547,-2.00166654586792,-0.08045666664838791,-0.602446436882019,-0.32518404722213745,-0.9121421575546265,0.24950386583805084,-0.7372548580169678,0.662126898765564,0.13600945472717285,0.611429905143487,0.7593445323059301,-0.21942609544654923,0.037438008968168075,1.1484804228003858,-2.2252587242434236,1.9612765635730673
1784547166981466112,2.056011915206909,-1.498060941696167,-0.557067334651947,-0.5761773586273193,-0.3190276622772217,-0.9181013703346252,0.23518359661102295,-0.7864258289337158,0.5774336457252502,0.32170116901397705,0.6175372187892699,0.754859668771058,-0.21858335192548936,0.03249674259474155,1.1632632935383054,-2.2060476752717357,1.9365067047398707
1784547166991386112,2.065932035446167,-1.3762609958648682,-0.8075450658798218,-0.7838213443756104,-0.31188493967056274,-0.9233416318893433,0.22398270666599274,-0.7739152908325195,0.4314897656440735,0.31338611245155334,0.6223319784791307,0.7512010786299419,-0.21837649257640768,0.02667700190525721,1.1766940582013103,-2.1936052964935353,1.916263420249191
1784547167001305088,2.0758509635925293,-1.1743502616882324,-0.021501239389181137,-1.3709713220596313,-0.30083000659942627,-0.9293456673622131,0.21405185759067535,-0.7637451887130737,0.25618886947631836,0.32823026180267334,0.6265680879045835,0.7484122233934767,-0.2165757939241271,0.019662331294302976,1.1926366104244486,-2.1892237284645475,1.9047344817045906
1784547167011225344,2.085771083831787,-1.3150840997695923,0.18665727972984314,-1.4850693941116333,-0.2876044809818268,-0.9365239143371582,0.20051661133766174,-0.36275559663772583,0.44398534297943115,0.34361186623573303,0.6320882875616928,0.7456011438974164,-0.21056410205062714,0.014360416068196144,1.212580706177651,-2.1796377289064863,1.8967102561212084
1784547167021145088,2.095690965652466,-1.1060285568237305,1.1316083669662476,-0.7355043888092041,-0.27886703610420227,-0.9416383504867554,0.18854768574237823,0.12450912594795227,0.34970420598983765,0.1912129819393158,0.6368508763803891,0.7431920279315294,-0.20479123736713126,0.01212612189933604,1.2274645832698607,-2.165315280626166,1.8878922183121005
1784547167031064320,2.1056101322174072,-1.9484302997589111,1.6500318050384521,-0.49731579422950745,-0.27573031187057495,-0.9458686113357544,0.17118749022483826,0.5070078372955322,0.36588215827941895,0.33770835399627686,0.6435858642588654,0.7392265492005022,-0.19783289203575197,0.014261802007337586,1.2402605962471338,-2.12640665522257,1.8624460382573862
1784547167040984064,2.115530014038086,-3.0363965034484863,1.4482848644256592,-0.25627782940864563,-0.2745879590511322,-0.9508876800537109,0.1428777128458023,0.7576049566268921,0.11485862731933594,0.4777888059616089,0.6544462241318482,0.73121806969279,-0.19172634780393719,0.016163975749007877,1.256091184588322,-2.05057926264372,1.798524120638101
1784547167050904064,2.1254498958587646,-3.343635082244873,1.4856839179992676,0.5431908965110779,-0.2791944146156311,-0.9541060924530029,0.10831430554389954,0.8952832818031311,-0.3666793704032898,0.33924126625061035,0.6674301740606119,0.7202539447399349,-0.18812604023661084,0.019487856893473068,1.2666604433135729,-1.940874407420469,1.6990105731810858
1784547167060823296,2.135369062423706,-3.32916522026062,1.2092968225479126,-0.2919045686721802,-0.2836288809776306,-0.9560902118682861,0.07380060851573944,0.6680740714073181,-0.4762829542160034,0.26436471939086914,0.6801577442887576,0.7088541445662075,-0.1855427296668477,0.02203008931094814,1.273357475318301,-1.8253529295983242,1.5909941831003585
1784547167070743040,2.1452889442443848,-2.738755941390991,1.0318905115127563,-0.20177865028381348,-0.28158432245254517,-0.9586127996444702,0.04209074750542641,0.35244613885879517,-0.3563743233680725,0.042580246925354004,0.6917105918266703,0.6987326039479098,-0.18115772596579005,0.02215932100964574,1.2820893653859695,-1.7191760228431636,1.4914633543482059
1784547167080663296,2.1552090644836426,-1.9206714630126953,1.0143603086471558,-0.647041380405426,-0.27767214179039,-0.960529625415802,0.016761286184191704,0.4369281530380249,0.06444203853607178,-0.10384321212768555,0.7008201567150139,0.6907590085120129,-0.17672757383022467,0.0216889383250254,1.28889984289644,-1.6310867544319472,1.4091778700006632
1784547167090582016,2.165127992630005,-1.3998948335647583,0.3933567404747009,-0.8014698624610901,-0.27021297812461853,-0.9628005623817444,6.758773815818131e-05,0.3726757764816284,0.5051590204238892,-0.3562077283859253,0.7068047899068637,0.6859163223142244,-0.17190867532064036,0.019828392025847172,1.2971819633968678,-1.5710464544249123,1.3535153120437513
1784547167100502272,2.1750481128692627,-0.8748153448104858,0.3143911063671112,-0.6029455661773682,-0.264365553855896,-0.9643462896347046,-0.012122604995965958,0.3988107442855835,0.5782379508018494,-0.41979265213012695,0.7111611938013684,0.6821978427927812,-0.16895206657944706,0.01763509916143428,1.3029620104024786,-1.5249729644289018,1.3086234505155192
1784547167110422016,2.1849679946899414,-0.9825966954231262,-0.012994988821446896,-0.6354238986968994,-0.2590160071849823,-0.9656317830085754,-0.021586453542113304,0.1331614851951599,0.33391791582107544,-0.31773847341537476,0.7145235950716582,0.6793905867616656,-0.16623839381269578,0.015788770648366316,1.3078633421675627,-1.4876482397466022,1.2726142683837447
1784547167120340992,2.1948869228363037,-1.3134618997573853,0.2248275727033615,-0.6957454085350037,-0.2525462210178375,-0.9670154452323914,-0.03319069743156433,-0.09050184488296509,0.05322760343551636,-0.12748432159423828,0.7186255225119765,0.6758104485579266,-0.16335510088514194,0.01314268605677713,1.313240435246942,-1.440120998810403,1.2255031853830043
1784547167130261248,2.2048070430755615,-1.183382272720337,1.1107357740402222,-1.0511873960494995,-0.243858203291893,-0.9687051773071289,-0.04629696160554886,-0.2801285982131958,-0.3293904662132263,-0.12083256244659424,0.7232080850912892,0.6721135516044431,-0.1584767915226141,0.010887150943025376,1.3199600620985235,-1.383177250722459,1.1724116820432788
1784547167140180992,2.2147269248962402,-0.5218462347984314,0.7732565999031067,-0.36140140891075134,-0.23697981238365173,-0.9697840213775635,-0.057962946593761444,-0.04410235583782196,-0.23778140544891357,-0.001164861023426056,0.7272306760601847,0.6690413490377908,-0.15297777665923443,0.010821111551958298,1.3243438977691333,-1.3309156530182908,1.1279916801173129
1784547167150100224,2.2246460914611816,0.3732507824897766,0.34308546781539917,-0.44218307733535767,-0.23359933495521545,-0.9705122113227844,-0.05947641655802727,0.19133250415325165,-0.041099727153778076,-0.32600635290145874,0.7277491263525079,0.6690498161676176,-0.15044645104119064,0.010929518831161384,1.327346750009682,-1.321484807336732,1.1223785209241595
1784547167160020224,2.2345659732818604,-0.11342499405145645,0.8487850427627563,-0.8203349709510803,-0.2253064066171646,-0.9725862741470337,-0.05755745619535446,0.08959473669528961,-0.16343051195144653,-0.21250784397125244,0.7270964078063887,0.6709057515858966,-0.14528160493523187,0.010462674092781437,1.33610537992745,-1.320682637442694,1.1284035475826109
1784547167169938944,2.2444849014282227,-0.7850720882415771,0.6509785056114197,-0.06929212063550949,-0.22168928384780884,-0.9729748964309692,-0.06460512429475784,0.42176252603530884,-0.28560054302215576,0.10948121547698975,0.7295068851729063,0.6690213042517635,-0.14180243664497794,0.011059118585487509,1.337782440812703,-1.287227743846918,1.100796857937773
1784547167179859200,2.2544050216674805,-1.3892626762390137,-0.2293391227722168,-0.3403855264186859,-0.21976721286773682,-0.9726214408874512,-0.07556497305631638,0.4051920175552368,-0.5723921060562134,0.003970734775066376,0.7332648129830927,0.6651795572845124,-0.14054774443691365,0.010260222169697155,1.3362566665944988,-1.2396188748360173,1.0538230993874833
1784547167189778944,2.264324903488159,-2.273383855819702,0.5849740505218506,-0.03543282672762871,-0.21801233291625977,-0.9715125560760498,-0.09291972219944,0.22503139078617096,-0.5434257984161377,0.1915982961654663,0.7391788552327793,0.6587891027553391,-0.13977502146400989,0.008633156943575885,1.3315318598955534,-1.1678985921054201,0.980828198087727
1784547167199698176,2.2742440700531006,-2.6776175498962402,0.17968745529651642,-0.17315427958965302,-0.21596470475196838,-0.9692215919494629,-0.11818965524435043,0.16138403117656708,-0.3726820945739746,0.26531487703323364,0.7476880063782514,0.64954396084154,-0.13783256133576208,0.007584707455711622,1.3220491674549006,-1.0700563103961591,0.8841565358153521
1784547167209618176,2.2841639518737793,-2.392683982849121,-0.08287413418292999,-0.09499315917491913,-0.21540535986423492,-0.9659378528594971,-0.14340360462665558,0.21337595582008362,-0.26968830823898315,0.17608791589736938,0.7560908132445012,0.6397452564296652,-0.137928258805665,0.005340239889655632,1.3090435243864098,-0.9834367041381947,0.7940284958669619
1784547167219538176,2.294084072113037,-2.6136069297790527,0.8648552298545837,-0.32597410678863525,-0.213048055768013,-0.9625204205513,-0.167824849486351,0.247685506939888,-0.161915123462677,0.09392653405666351,0.7641309668717025,0.6305349989457704,-0.13606318499448936,0.004050429466339038,1.2961471675042293,-0.9035805511499826,0.714831932554192
1784547167229457152,2.3040030002593994,-2.053769826889038,-0.03193523734807968,0.03140798956155777,-0.21034783124923706,-0.9588015079498291,-0.19092808663845062,0.03931206464767456,0.13670378923416138,0.12726843357086182,0.771657337931321,0.6217838204443041,-0.13386873551587045,0.0030124985530772977,1.2827529320619493,-0.8337554284211496,0.6464872124746087
1784547167239377152,2.3139231204986572,-2.0271823406219482,-0.43325504660606384,-0.16722357273101807,-0.21013005077838898,-0.9550016522407532,-0.20932571589946747,0.21327339112758636,0.07762128114700317,-0.030359312891960144,0.7776006986806436,0.6140976238832209,-0.13498611128048177,0.00016240598967838903,1.2696653026709888,-0.7873157385432439,0.5941642684436205
1784547167249297152,2.323843002319336,-1.7498161792755127,-0.20702829957008362,-0.2987046241760254,-0.20831388235092163,-0.9514880776405334,-0.2264418601989746,0.30995267629623413,-0.11208009719848633,0.10647726058959961,0.7830781132383149,0.606993229526416,-0.13541895307749982,-0.0031082361896333966,1.2580365613234465,-0.7437253880214679,0.5450717682757134
1784547167259216128,2.3337619304656982,-2.194950819015503,0.00967905018478632,-0.3169962167739868,-0.2057824432849884,-0.947531521320343,-0.24461762607097626,0.2221246361732483,-0.23601651191711426,0.15826815366744995,0.7888440207592021,0.5995852039515887,-0.13486575305196888,-0.005832068724633746,1.245423140689097,-0.6993871441741113,0.4974046591211426
1784547167269136128,2.343682050704956,-2.27093243598938,-0.18688488006591797,0.06440146267414093,-0.20403525233268738,-0.9424155354499817,-0.2649955749511719,0.09189842641353607,-0.2619912028312683,0.21708297729492188,0.7952500527773106,0.5910582776184179,-0.13473055631047615,-0.008674022897102103,1.2297809507633461,-0.6561518569883775,0.4499980499293785
1784547167279055104,2.3536009788513184,-2.699781656265259,0.16363026201725006,0.041954539716243744,-0.20509777963161469,-0.935385525226593,-0.28807806968688965,0.15340100228786469,-0.263833224773407,0.23513007164001465,0.8024581036318468,0.5811413289261869,-0.1350397158179613,-0.01000587335140385,1.2093476720836747,-0.6187025356190928,0.40980137994590465
1784547167288975360,2.363521099090576,-3.090545654296875,0.35385534167289734,-0.10306496918201447,-0.20390643179416656,-0.926552951335907,-0.316103994846344,-0.033993348479270935,-0.11223483085632324,0.3720274865627289,0.811125235593464,0.5692901948479112,-0.13362888540064832,-0.011306257814459172,1.18514326596241,-0.5728955100876808,0.3636743504879875
1784547167298895104,2.373440980911255,-2.9980902671813965,0.3308127820491791,-0.025644544512033463,-0.2022249847650528,-0.9167613983154297,-0.344461590051651,0.0723421722650528,-0.03752338886260986,0.164865642786026,0.8197971872020606,0.5570799393057111,-0.13202705013464705,-0.012786158342864961,1.1598954983251326,-0.5308620247254593,0.32128225258746257
1784547167308814080,2.383359909057617,-2.6271069049835205,0.3720148205757141,-0.21733275055885315,-0.20051328837871552,-0.9068173170089722,-0.37077879905700684,0.13865414261817932,0.019610166549682617,0.09740230441093445,0.8277605020720089,0.5455127824144586,-0.13048526928693022,-0.014213981779168713,1.1356711865465696,-0.49574433169029586,0.28578275402348635
1784547167318734080,2.393280029296875,-2.5143611431121826,-0.23937809467315674,-0.22614555060863495,-0.19788819551467896,-0.8978836536407471,-0.39324942231178284,0.13172607123851776,0.04334580898284912,0.07551565766334534,0.8344738282039452,0.5354106527998255,-0.12926995937507116,-0.016675616357044305,1.1149383898939236,-0.4662146424447301,0.2539381995566702
1784547167328654080,2.4031999111175537,-2.2743985652923584,0.522080659866333,-0.01729060709476471,-0.19677306711673737,-0.8883288502693176,-0.4149123430252075,0.23728515207767487,0.11957579851150513,0.10071861743927002,0.8409019365177992,0.5253813571223885,-0.1285233989827725,-0.01844192713754934,1.0936930360043817,-0.4428379727106238,0.22853041930787246
1784547167338573312,2.413119077682495,-2.163795232772827,0.7720618844032288,-0.023445306345820427,-0.19348524510860443,-0.879095733165741,-0.43560779094696045,0.10469435155391693,0.10248440504074097,0.06584155559539795,0.8470370042722927,0.5162275563142058,-0.12532046019280488,-0.01822538375414708,1.073961676919913,-0.4179976887054958,0.20817953350844431
1784547167348493056,2.423038959503174,-2.2059013843536377,0.24368168413639069,-0.18266478180885315,-0.19034339487552643,-0.8695113658905029,-0.45576250553131104,0.09422829747200012,0.16887354850769043,0.053495049476623535,0.8530117136345783,0.507417673652863,-0.12102089831250641,-0.015885429419275475,1.054212166689561,-0.39561783697439173,0.19502385685721318
1784547167358413312,2.4329590797424316,-1.6024755239486694,0.15870437026023865,0.050704922527074814,-0.1885831207036972,-0.8609752655029297,-0.4723958969116211,0.2999112606048584,0.10703855752944946,0.012496024370193481,0.8579055300182706,0.49986250421964923,-0.11806575754152575,-0.013999262209919351,1.0371839738890019,-0.3798214137725395,0.18589893386004072
1784547167368332032,2.442878007888794,-1.6194806098937988,0.31561410427093506,-0.03230554237961769,-0.18778108060359955,-0.8535657525062561,-0.4859667420387268,0.34729644656181335,-0.08677232265472412,-0.0933789312839508,0.8618946024610322,0.49369794020450986,-0.11523444402905847,-0.01099741975453881,1.0227916282688734,-0.36873387702507343,0.1830307868577738
1784547167378252288,2.4527981281280518,-2.04488205909729,-0.0168469101190567,-0.17361873388290405,-0.1861867904663086,-0.8449572920799255,-0.5013799667358398,0.2679433822631836,-0.1336347460746765,0.03221791982650757,0.8663710073411978,0.48639659427872606,-0.1128201057033008,-0.009561477216707588,1.0064852651426217,-0.3555657000383545,0.1751217314596214
1784547167388172032,2.4627180099487305,-2.027813673019409,0.45549532771110535,0.044983915984630585,-0.18441645801067352,-0.8344823718070984,-0.519258975982666,0.15965145826339722,-0.1341150999069214,0.08012628555297852,0.8715332456462244,0.4777712688461889,-0.11002335165910154,-0.007704064545251254,0.9871926890852529,-0.3412582076746861,0.16719809218858409
1784547167398091008,2.4726369380950928,-1.9515818357467651,0.42195242643356323,0.0903572216629982,-0.18262197077274323,-0.8241644501686096,-0.5360990166664124,0.14206410944461823,-0.0688561201095581,0.010647416114807129,0.8763718573229135,0.46964476104226055,-0.10669715575599459,-0.00467460171474779,0.9687252653717998,-0.32832075309652714,0.16321338169072339
1784547167408011264,2.4825570583343506,-1.6178315877914429,0.13336724042892456,0.30905601382255554,-0.18235662579536438,-0.8139556646347046,-0.5515634417533875,0.17556647956371307,0.1524261236190796,-0.0017049312591552734,0.8807840581868724,0.46193331943731014,-0.104095500707347,-0.0010983121431239137,0.9509292217491374,-0.3193044559875871,0.16293590080343914
1784547167417930240,2.492475986480713,-1.55974280834198,0.08138850331306458,-0.14884118735790253,-0.1824290156364441,-0.805323600769043,-0.5640687346458435,0.1779124140739441,0.20017534494400024,-0.10362529754638672,0.8843261938706333,0.45547612746537325,-0.1025042855008222,0.0012454689906310126,0.9362211317683182,-0.3127988112668719,0.16193076474881674
1784547167427850240,2.5023961067199707,-1.429970145225525,0.2814275622367859,0.09062520414590836,-0.1814742237329483,-0.7968223094940186,-0.5763170719146729,0.07515096664428711,0.15770787000656128,-0.03115057945251465,0.88777689087837,0.4491450123824032,-0.10054964798668235,0.003276125035038927,0.922017593761546,-0.3050571857561513,0.15979452602675331
1784547167437770240,2.5123159885406494,-1.1641300916671753,0.27443331480026245,0.07339731603860855,-0.18023572862148285,-0.7894361019134521,-0.5867757201194763,0.08233533799648285,-0.02991509437561035,-0.14177042245864868,0.8907018553727492,0.4438335067905193,-0.09810174571747778,0.006170014545717296,0.9098897632459063,-0.2980152337509377,0.16045915349814308
1784547167447688960,2.5222349166870117,-1.2427431344985962,0.0075523643754422665,0.30750834941864014,-0.1811453104019165,-0.7821557521820068,-0.5961700677871704,0.1262746900320053,-0.07296204566955566,-0.1716674566268921,0.8933057430335956,0.43881373818626285,-0.09673401498084738,0.009479200921182316,0.8981181435503881,-0.2949836686306651,0.1641690573702117
1784547167457609216,2.5321550369262695,-0.8557828664779663,-0.01145111583173275,0.05141998082399368,-0.1820036768913269,-0.7757096290588379,-0.6042758226394653,0.1150786280632019,-0.1738448143005371,-0.10318267345428467,0.8955371516497426,0.4344105865109633,-0.09565318915602737,0.012294476498299489,0.8878387655548035,-0.29255096619608384,0.16735835673548438
1784547167467528960,2.5420749187469482,-1.201529622077942,0.08615534007549286,0.05899693816900253,-0.182155579328537,-0.7695878744125366,-0.6120079755783081,0.11358259618282318,-0.2803235650062561,-0.06014162302017212,0.8976537812380294,0.4302305819429447,-0.09432732791752942,0.01488622450173706,0.8781954630012551,-0.2892865322742836,0.16977835434367033
1784547167477448192,2.5519940853118896,-1.3387186527252197,0.10529021918773651,0.00349336676299572,-0.1818666160106659,-0.7612969875335693,-0.6223757266998291,0.1451539844274521,-0.20156317949295044,0.06622332334518433,0.9004940381798904,0.42449197030591407,-0.09283703220459898,0.017277398635367626,0.865311089924318,-0.2842980542736691,0.17036793912047365
1784547167487368192,2.5619139671325684,-1.6326687335968018,-0.1477510929107666,0.020321881398558617,-0.18124455213546753,-0.7524332404136658,-0.6332414150238037,0.16148443520069122,-0.15534263849258423,-0.05804276466369629,0.9034711160462635,0.4183362339085848,-0.0915100004505218,0.018993412558730643,0.8517484957854943,-0.2787644983228135,0.16915098276932752
1784547167497288192,2.571834087371826,-1.5172698497772217,-0.2823299169540405,-0.026381907984614372,-0.18303439021110535,-0.7421531677246094,-0.644753634929657,0.17552708089351654,0.0228995680809021,-0.009589016437530518,0.9066161888995541,0.4113789881582299,-0.0915997589744786,0.020592618399408805,0.8362772120794896,-0.27660547384859263,0.16895928909606914
1784547167507207168,2.5817530155181885,-1.1590169668197632,0.11587043106555939,-0.146137073636055,-0.18276143074035645,-0.7334511280059814,-0.6547118425369263,-0.028267621994018555,0.01106959581375122,-0.07584840059280396,0.9093854938930156,0.4052207174301835,-0.09187076945169599,0.01933457538663534,0.8233852421293184,-0.2722183610822867,0.1619759149161717
1784547167517126912,2.591672897338867,-1.1717913150787354,-0.13341312110424042,0.1414206176996231,-0.18263892829418182,-0.7260294556617737,-0.6629663109779358,0.04997904598712921,-0.06535238027572632,-0.08048766851425171,0.9116140057456313,0.40031073548363455,-0.090929420374204,0.02105098097832627,0.812530223563094,-0.26881938208424916,0.16239181860014076
1784547167527047168,2.601593017578125,-1.0569881200790405,0.008497139438986778,-0.03310699015855789,-0.18348939716815948,-0.7187103033065796,-0.6706617474555969,0.17471560835838318,-0.11963808536529541,-0.02864861488342285,0.9136591192335614,0.3956458815233295,-0.09018576494597948,0.023621263729535744,0.8019457249974407,-0.26705912121761144,0.16546743848861212
1784547167536966144,2.6115119457244873,-1.1427569389343262,0.1866506040096283,-0.14347147941589355,-0.18200954794883728,-0.7116318941116333,-0.6785666346549988,0.07954680919647217,-0.2354658842086792,0.04683750867843628,0.9157794521766714,0.3909712642704057,-0.08864624975186887,0.025128091685448745,0.7918182699356162,-0.2620581021043443,0.16491912515227164
1784547167546886144,2.621432065963745,-1.4605417251586914,-0.10134364664554596,0.025981731712818146,-0.18141993880271912,-0.7029525637626648,-0.687709629535675,0.2382589429616928,-0.2830703854560852,0.13154202699661255,0.9182210210131319,0.3853449868514286,-0.08748963369476796,0.02692431648084473,0.7795402991798555,-0.2579270571786917,0.16507132160843427
1784547167556805120,2.6313509941101074,-1.6536458730697632,-0.005361037328839302,-0.07422393560409546,-0.18207648396492004,-0.6922282576560974,-0.6983324289321899,0.19297127425670624,-0.3074818253517151,0.16261160373687744,0.9210612101285416,0.3784738982008979,-0.08712800327011289,0.028504003492757137,0.7645721053736539,-0.25505208113126426,0.16489017440137513
1784547167566725376,2.6412711143493652,-1.8350539207458496,-0.09082853049039841,0.11929892748594284,-0.1821271777153015,-0.6801043748855591,-0.7101321816444397,0.054380595684051514,-0.2645673155784607,0.14821207523345947,0.9242090555961552,0.3707512775990804,-0.08647188745148676,0.030061903642340446,0.7479049728078616,-0.2510581815543048,0.16399089196192812
1784547167576645120,2.651190996170044,-1.783141016960144,-0.14653243124485016,0.19461539387702942,-0.1841440200805664,-0.6666857600212097,-0.7222333550453186,0.11839388310909271,-0.09753543138504028,0.1262403130531311,0.9274074446366531,0.36243930720510553,-0.0867241168259943,0.0321251597789523,0.7297532879989088,-0.24964585478935136,0.1650367711743989
1784547167586564096,2.6611099243164062,-1.275507926940918,0.07293787598609924,0.21068544685840607,-0.18572033941745758,-0.655250072479248,-0.7322263121604919,0.07063856720924377,0.0009531974792480469,-0.03300195932388306,0.9300021092948519,0.3555207611016213,-0.08655535664413534,0.03477576387862222,0.7145135951689633,-0.2483996211424282,0.16788510563681622
1784547167596484096,2.671030044555664,-1.0123575925827026,0.036618638783693314,0.25014734268188477,-0.18663613498210907,-0.6466498970985413,-0.7396018505096436,0.08011454343795776,0.04847484827041626,-0.07602620124816895,0.9318781859849359,0.3504205464663334,-0.08604946759329285,0.037470539478895774,0.7031842769365775,-0.24718616154945772,0.17145386843580487
1784547167606404096,2.6809499263763428,-0.794836163520813,-0.15979641675949097,0.2954985797405243,-0.1887875646352768,-0.6394908428192139,-0.7452588677406311,0.2109891027212143,0.021982908248901367,-0.05837583541870117,0.9332597719537636,0.34636281704039795,-0.08604289496650093,0.040689723543780115,0.6938358083688438,-0.24809914279317477,0.1772435676558174
1784547167616323328,2.690869092941284,-0.8151853084564209,0.007219926454126835,0.28925973176956177,-0.19122643768787384,-0.6331714987754822,-0.7500175833702087,0.18809840083122253,-0.14340931177139282,-0.05383068323135376,0.9343980421914837,0.3428478327721122,-0.08629357072992175,0.04369482635817235,0.6856438915957432,-0.2496438783813069,0.1829645191491987
1784547167626243072,2.700788974761963,-1.0955787897109985,-0.12397511303424835,0.33031395077705383,-0.19309306144714355,-0.625636637210846,-0.7558398842811584,0.15845562517642975,-0.22571223974227905,-0.023457050323486328,0.9358027069649867,0.33859322935830477,-0.08622467883268307,0.04683273282922672,0.6759473596903769,-0.2501185704158055,0.188317664661182
1784547167636163328,2.7107090950012207,-1.3215655088424683,-0.22142155468463898,0.47037166357040405,-0.19725893437862396,-0.6156805753707886,-0.762906551361084,0.12894535064697266,-0.2830469012260437,-0.016375064849853516,0.937524694413346,0.3330183632690133,-0.087438491990255,0.050008423043742964,0.6632493301164257,-0.2530209991755583,0.19411823102741926
1784547167646082048,2.720628023147583,-1.490820050239563,-0.12592539191246033,0.5541490912437439,-0.20137478411197662,-0.6042753458023071,-0.7709082365036011,0.09433437883853912,-0.24637162685394287,-0.005687832832336426,0.9394606461300025,0.32665550551710004,-0.0885553995390335,0.05355207915252377,0.6488560539229192,-0.2555082067654695,0.20022985497376827
1784547167656002048,2.7305479049682617,-1.2631196975708008,0.10984327644109726,0.34631460905075073,-0.20478186011314392,-0.5922597646713257,-0.7792899012565613,0.07068762183189392,-0.059397339820861816,0.01609104871749878,0.9414665364692623,0.3199765381905203,-0.08927519172047119,0.05732084562333387,0.6338604964139627,-0.2569703343857666,0.20631800921415505
1784547167665922048,2.7404680252075195,-1.0603139400482178,-0.11871186643838882,0.23716413974761963,-0.2062421292066574,-0.5831324458122253,-0.7857612371444702,0.030933886766433716,-0.025464355945587158,-0.06528246402740479,0.9430037939324771,0.31488674088392815,-0.08925091481686886,0.06020294928401092,0.6225792801405132,-0.25668428098850044,0.21050728752693387
1784547167675841024,2.750386953353882,-0.9938262701034546,-0.06041024625301361,0.11862961202859879,-0.20793145895004272,-0.5747723579406738,-0.7914551496505737,0.15740960836410522,-0.013850688934326172,0.01237189769744873,0.9443548940037276,0.3102561407687447,-0.08951844916307576,0.06262097855423855,0.6123259194719346,-0.25691456353537534,0.214043347862702
1784547167685761280,2.7603070735931396,-0.9310199022293091,-0.21765872836112976,0.300248920917511,-0.21027633547782898,-0.5664889216423035,-0.7967898845672607,0.14535017311573029,-0.05519986152648926,0.021994411945343018,0.9456003738748558,0.305742995575653,-0.09014592251389501,0.06507474126675696,0.6022389438169995,-0.25802171616187275,0.21795625734519294
1784547167695680256,2.770226001739502,-0.9326028227806091,0.04590173065662384,0.337032288312912,-0.21258004009723663,-0.5587661266326904,-0.8016172051429749,0.09313425421714783,-0.19651347398757935,0.026409685611724854,0.9466513633152386,0.30165570153180804,-0.09052748842945776,0.06826343077172144,0.5928972511689472,-0.2592222938965645,0.22355526887212615
1784547167705600256,2.7801461219787598,-1.176619291305542,0.04522502049803734,0.37724921107292175,-0.21414828300476074,-0.5495922565460205,-0.8075201511383057,0.043951764702796936,-0.20791500806808472,0.16767340898513794,0.9479720718027428,0.29670756275371984,-0.09057887053131014,0.07147745835317143,0.5818761144584811,-0.2592255773064902,0.22853508958182137
1784547167715520256,2.7900660037994385,-1.4466780424118042,-0.014678258448839188,0.3416055142879486,-0.21599081158638,-0.5381730198860168,-0.8146887421607971,0.1273677796125412,-0.20860737562179565,0.1917182207107544,0.9496100045129681,0.29051615615110443,-0.09086240733551756,0.07473441741215446,0.5682679181097248,-0.25915845662223325,0.23314968200895175
1784547167725438976,2.799984931945801,-1.6103713512420654,-0.10453810542821884,0.26489344239234924,-0.2178461104631424,-0.5250378847122192,-0.8227261304855347,0.14042304456233978,-0.17785823345184326,0.13487523794174194,0.9515175965458406,0.2833257189789682,-0.09145194238696412,0.0773135831468215,0.5527595967556208,-0.25884547721768536,0.2359474429979742
1784547167735359232,2.8099050521850586,-1.4634974002838135,-0.15846766531467438,0.44980552792549133,-0.22066596150398254,-0.5116176009178162,-0.83039391040802,0.09276680648326874,-0.16123396158218384,0.07296288013458252,0.9532979317482984,0.2761181196929876,-0.09253022514864195,0.08012553322828307,0.5370663870078382,-0.2597337820270989,0.2395546531456263
1784547167745278976,2.8198249340057373,-1.3556479215621948,0.03357662260532379,0.4855789840221405,-0.22348830103874207,-0.4989851117134094,-0.8372973799705505,0.041115254163742065,-0.13272875547409058,0.03592103719711304,0.9548141242479006,0.269476234996973,-0.09345521628229501,0.08353904510192671,0.5224272793185074,-0.2608354169607169,0.24463671800109915
1784547167755198208,2.8297441005706787,-1.3614691495895386,0.10940728336572647,0.4479115307331085,-0.22478345036506653,-0.48661595582962036,-0.8442021608352661,0.07041028141975403,-0.10849204659461975,0.03135120868682861,0.9562830726264897,0.26296978343591304,-0.09351899442314916,0.08731456966038667,0.5082119580142038,-0.26022951762700214,0.25005218389430595
1784547167765118208,2.8396639823913574,-1.33049476146698,-0.08046092092990875,0.49152877926826477,-0.2269507646560669,-0.47451770305633545,-0.8504859209060669,0.1191474050283432,-0.06768810749053955,0.018622517585754395,0.9576202625216934,0.2566715087971308,-0.09421666338632698,0.09058892521903121,0.49441603880403,-0.2607720068503338,0.2547969565119656
1784547167775038208,2.8495841026306152,-1.1535643339157104,-0.09900904446840286,0.46099552512168884,-0.22999851405620575,-0.4628220200538635,-0.8560937643051147,0.19665805995464325,-0.08049768209457397,0.024382948875427246,0.9587271131428888,0.2507442971254135,-0.0952912628800477,0.09428306634322657,0.48117605110779027,-0.2624628671108895,0.26079569845168826
1784547167784957184,2.8595030307769775,-1.1397500038146973,0.09951043874025345,0.39251795411109924,-0.232050821185112,-0.45205557346343994,-0.8612770438194275,0.1304730772972107,-0.10720956325531006,0.018320560455322266,0.9597411338036929,0.24527035649178924,-0.09593705657070789,0.09765009539604015,0.4690684792011859,-0.2631771822096248,0.26602037130927547
1784547167794876928,2.8694229125976562,-1.3895411491394043,0.024465452879667282,0.35295966267585754,-0.23258468508720398,-0.440371572971344,-0.8671662211418152,0.12172958254814148,-0.03526011109352112,0.046212852001190186,0.9609819420430238,0.239164539183216,-0.09600633380296293,0.10048308969335178,0.45601250320798375,-0.2620449028938478,0.2695052177403692
1784547167804797184,2.879343032836914,-1.1693276166915894,-0.18640097975730896,0.7614864110946655,-0.2361508011817932,-0.42801132798194885,-0.8723755478858948,0.1524716019630432,-0.07601699233055115,-0.056426942348480225,0.9619441620266314,0.23303157820801382,-0.09751158812119821,0.1041691296704015,0.4422912283889597,-0.2643628094749967,0.2755052494061352
1784547167814716160,2.8892619609832764,-1.0332263708114624,0.09201817214488983,0.4733492434024811,-0.2391258031129837,-0.4174380302429199,-0.8766780495643616,0.1064658910036087,-0.15745210647583008,-0.13624614477157593,0.9626071679055178,0.2279152412869516,-0.09856790204018732,0.10828909922000794,0.43062412695768426,-0.2662858153161655,0.2826164309424633
1784547167824636160,2.899182081222534,-1.259454369544983,0.011228516697883606,0.3286226689815521,-0.24076005816459656,-0.406269371509552,-0.8814646005630493,0.04775165021419525,-0.0582844614982605,-0.07843530178070068,0.9637090628974464,0.22211222675294884,-0.09966880485618436,0.10953157608956911,0.4183675837907932,-0.266632817452,0.28326693302824457
1784547167834555136,2.9091010093688965,-0.9515768885612488,-0.11590634286403656,0.5686943531036377,-0.24298422038555145,-0.39523693919181824,-0.8858591318130493,0.11348287761211395,-0.020503997802734375,-0.09567773342132568,0.9646727347376559,0.21648595628172182,-0.1010161564114247,0.11106762948290368,0.4063257882572519,-0.2677080317184036,0.2847273024684671
1784547167844475392,2.9190211296081543,-0.8597984910011292,-0.11855032294988632,0.44851255416870117,-0.24618102610111237,-0.38611453771591187,-0.8889940977096558,0.12632325291633606,-0.09171444177627563,-0.08386051654815674,0.9650338595344224,0.21223193874879617,-0.10227687906072158,0.11492079205406143,0.3964157488297353,-0.27015116178655824,0.29163047110313944
1784547167854395136,2.928941011428833,-0.7021315097808838,-0.08171021193265915,0.3568982481956482,-0.24836859107017517,-0.37827345728874207,-0.8917523622512817,0.05406317114830017,-0.08583787083625793,-0.05380427837371826,0.9656102183334787,0.2083220872749888,-0.10356509897182124,0.11607398629356683,0.3879304368563765,-0.2716333996287262,0.29294368299964535
1784547167864314112,2.9388599395751953,-0.5883991122245789,-0.09993395954370499,0.5364482998847961,-0.2509874701499939,-0.3717435896396637,-0.8937628269195557,0.1084856390953064,-0.12563186883926392,-0.054342031478881836,0.9657067154147397,0.20541144510453188,-0.10452141397423738,0.11954883816084795,0.38088651288240566,-0.2737699489885271,0.29943191817972264
1784547167874234112,2.948780059814453,-0.7268301248550415,-0.18364734947681427,0.566545844078064,-0.25416165590286255,-0.3641427755355835,-0.8959921002388,0.10934048891067505,-0.06478175520896912,0.015529453754425049,0.9660344987144093,0.20182932791248703,-0.10615489738891076,0.12154595863147749,0.3727122350385121,-0.2764040740911978,0.3027601785246572
1784547167884154112,2.958699941635132,-0.39631322026252747,-0.0863703265786171,0.5578601956367493,-0.2578423023223877,-0.3578868508338928,-0.8974599242210388,0.10499504208564758,-0.04990425705909729,-0.0791025161743164,0.9661000209319612,0.19907237616768422,-0.10788985006767342,0.12401907326989131,0.3660038719738138,-0.27976721835123364,0.30745100714188234
1784547167894073344,2.9686191082000732,-0.670889139175415,-0.23568376898765564,0.5386725068092346,-0.2603667080402374,-0.351967990398407,-0.8990705013275146,0.09071952104568481,-0.06691628694534302,-0.10607171058654785,0.9660231211256313,0.1965624013417721,-0.10875653389246626,0.1278069067311702,0.35967278667797103,-0.28188421300456096,0.31465370550354765
1784547167903993088,2.978538990020752,-0.7936464548110962,-0.18470686674118042,0.6439871788024902,-0.26414456963539124,-0.3436802923679352,-0.9011722803115845,0.17428556084632874,-0.11934766173362732,-0.08436238765716553,0.9662507055147204,0.19275822636203788,-0.11071637109158934,0.13017610548851405,0.3508331134707381,-0.28512577156827934,0.3187025757199319
1784547167913913088,2.9884588718414307,-0.7404886484146118,0.005793497897684574,0.4270346760749817,-0.2667468190193176,-0.33575576543807983,-0.9033904075622559,0.10196715593338013,-0.21717700362205505,-0.16535043716430664,0.9665420373644139,0.1890316134758685,-0.11212425842334235,0.13225616876758617,0.342407443297896,-0.28711449428090347,0.3219541153410396
1784547167923832064,2.998377799987793,-0.7573925256729126,-0.23378553986549377,0.5924944877624512,-0.2699333429336548,-0.32732436060905457,-0.9055356383323669,0.09123766422271729,-0.20198780298233032,-0.08958154916763306,0.9666223370934228,0.18526215611370694,-0.11362270071934574,0.13568029252837585,0.3334705463324443,-0.2897058243814488,0.32799941713396513
1784547167933751808,3.0082976818084717,-0.6166974902153015,-0.22771494090557098,0.9156465530395508,-0.27414894104003906,-0.3191247880458832,-0.9071944355964661,0.05811500549316406,-0.11474362015724182,-0.06656044721603394,0.9663775833110683,0.18188237088622505,-0.11541917013780927,0.14039827453479475,0.32480584358992165,-0.2934686472278949,0.3369695416025098
1784547167943672064,3.0182178020477295,-0.15306727588176727,0.025635838508605957,0.6329624056816101,-0.27760592103004456,-0.31334295868873596,-0.9081581234931946,-0.006329625844955444,0.024875551462173462,-0.06713789701461792,0.9658547612868327,0.17978974513671278,-0.11660443401751364,0.14561457991380938,0.3187112276851931,-0.2966597658668118,0.34729318100741574
1784547167953590784,3.028136730194092,-0.03812118619680405,-0.166217640042305,0.8035622239112854,-0.2798929512500763,-0.31033310294151306,-0.9084895849227905,0.006897956132888794,0.12266522645950317,-0.10315287113189697,0.9652017307479597,0.17901040298632784,-0.11709178805240034,0.15043417604470988,0.3155434000435858,-0.29885857314373854,0.3571221686002441
1784547167963511040,3.0380568504333496,0.5314294099807739,-0.15854106843471527,0.7165234684944153,-0.2840835750102997,-0.3104541599750519,-0.9071465134620667,0.15163734555244446,0.13667184114456177,-0.17218393087387085,0.9639772871703237,0.1801509280650558,-0.11820491102180301,0.15595225506463706,0.3156707634766464,-0.3034876355740394,0.36944817987465706
1784547167973430784,3.0479767322540283,0.36206209659576416,-0.18883928656578064,0.5666055679321289,-0.28774240612983704,-0.3127368688583374,-0.9052071571350098,0.11392953991889954,-0.00019034743309020996,-0.18988561630249023,0.9627119185435026,0.18228162721253333,-0.11903713724920446,0.16059068351693423,0.3180730827248732,-0.3077738288488064,0.38032501367417937
1784547167983349760,3.0578956604003906,0.1239885464310646,-0.19573527574539185,0.5955139398574829,-0.29101479053497314,-0.3134477436542511,-0.903914213180542,0.16404640674591064,-0.1568129062652588,-0.1251232624053955,0.9616666818990278,0.18351004848088584,-0.11986220322447579,0.16478614651465193,0.3188215728525524,-0.3114704250896816,0.3898878889748975
1784547167993270016,3.0678157806396484,-0.33062583208084106,-0.2656695246696472,0.7494911551475525,-0.29533714056015015,-0.3106960654258728,-0.9034622311592102,0.13942286372184753,-0.3047061860561371,-0.1124984622001648,0.9607227757433073,0.1831207819610763,-0.12139059124543375,0.16953767139110093,0.31592524233054575,-0.3159447811409287,0.4000798587824433
1784547168003188736,3.0777347087860107,-0.3822703957557678,-0.14645656943321228,0.5652355551719666,-0.2994523048400879,-0.3050883114337921,-0.9040185213088989,0.11073163151741028,-0.2827870845794678,-0.06944644451141357,0.9601199927704014,0.18116550896117964,-0.12316575351140023,0.17372100800786547,0.31003114487345973,-0.3198705788353065,0.408406240340722
1784547168013108992,3.0876548290252686,-0.45228928327560425,-0.3129928708076477,0.7143357396125793,-0.3033449649810791,-0.2991316020488739,-0.9047110676765442,0.1254122257232666,-0.1439531147480011,-0.1314522624015808,0.9595829301551522,0.1789919659087762,-0.12492531512123493,0.1776408161368146,0.3037824539988574,-0.32351487002306545,0.4160478914309507
1784547168023028736,3.0975747108459473,-0.19545695185661316,-0.315091997385025,0.44361579418182373,-0.3081718683242798,-0.29451876878738403,-0.9045931696891785,0.16577684879302979,-0.009115874767303467,-0.12786227464675903,0.9588327416371482,0.1776350609005459,-0.1270794716758942,0.18148426662762632,0.2989519200004185,-0.3283430122365132,0.42401365237100275
1784547168032947968,3.1074938774108887,-0.14488478004932404,-0.5384392142295837,0.3412773609161377,-0.3132021129131317,-0.2920365333557129,-0.9036697745323181,0.12310811877250671,0.03744363784790039,-0.06465291976928711,0.9580982052742585,0.17726372517424713,-0.12939347336984405,0.18407260596044744,0.29635549821605506,-0.3336329276078751,0.42987874210578186
1784547168042867968,3.1174137592315674,0.11383545398712158,-0.4725249409675598,0.389961302280426,-0.3193003535270691,-0.2901441752910614,-0.9021438956260681,0.2221018373966217,-0.005403310060501099,-0.030656397342681885,0.9571486066977635,0.17737573161521444,-0.13215859423361057,0.18691821458811061,0.29437748673434405,-0.34017611006972304,0.43663442251186096
1784547168052787968,3.127333879470825,0.21025599539279938,-0.33445069193840027,0.247242733836174,-0.3238489031791687,-0.2909245193004608,-0.9002692699432373,0.11890813708305359,-0.1662135124206543,-0.03835982084274292,0.9561417692711761,0.178684759303636,-0.13392950631194805,0.18954529737647624,0.29519300008455734,-0.34531165015620774,0.4432496522955633
1784547168062706944,3.1372528076171875,-0.18163853883743286,-0.45612815022468567,0.4327159523963928,-0.32861700654029846,-0.2903728485107422,-0.8987182378768921,0.11618414521217346,-0.1985645294189453,0.04930722713470459,0.955260279829467,0.17930671174007953,-0.13597788448259993,0.19192942532837848,0.2946164474151642,-0.3505489958896393,0.44909980626621704
1784547168072626944,3.147172689437866,-0.4045808017253876,-0.3955604135990143,0.5010609030723572,-0.3336205780506134,-0.28604912757873535,-0.8982611894607544,0.1540551781654358,-0.14910098910331726,0.1426001787185669,0.9545363217483017,0.1780951817518319,-0.13838897516763757,0.1949125825048888,0.2901011336475895,-0.35561702028074793,0.4553436277840641
1784547168082546944,3.157092809677124,-0.637840986251831,-0.19701828062534332,0.38718947768211365,-0.3374784290790558,-0.2801896631717682,-0.8986667990684509,0.059219151735305786,-0.14463025331497192,0.1526799201965332,0.954072492382701,0.17593156813597574,-0.14040895622390653,0.19768419189535008,0.28399169543277375,-0.3592372711178166,0.46052232439226
1784547168092465920,3.1670117378234863,-0.8740452527999878,-0.15383219718933105,0.35625311732292175,-0.34024035930633545,-0.2716980576515198,-0.9002314209938049,0.06146228313446045,-0.12828058004379272,0.23323923349380493,0.9539633842824098,0.1722406980464272,-0.1421879785121805,0.20017367667842176,0.2751570241044665,-0.3613524039241818,0.4642370163400655
1784547168102385920,3.176931858062744,-0.9342366456985474,-0.1586700975894928,0.3532179296016693,-0.34217506647109985,-0.26264575123786926,-0.9021825790405273,0.06686073541641235,-0.12526318430900574,0.20398616790771484,0.9540553007075973,0.1680982563324739,-0.14370695196552047,0.20216248573450185,0.26576320553123933,-0.36251312899849025,0.46660358732337115
1784547168112305920,3.186851739883423,-1.0325957536697388,-0.07205823808908463,0.461132675409317,-0.34418538212776184,-0.2525325119495392,-0.9043028950691223,0.11661580204963684,-0.11167952418327332,0.22246390581130981,0.9540850965786533,0.16350749897543534,-0.1453060415495506,0.20462888694223894,0.2552967057656616,-0.3636786226682841,0.4697409183048899
1784547168122224896,3.196770668029785,-1.1242265701293945,-0.0658387616276741,0.35948628187179565,-0.3460514545440674,-0.2413533478975296,-0.9066404700279236,0.10369610786437988,-0.1049906313419342,0.2669615149497986,0.9542069268591681,0.15834159618049312,-0.14699559304666382,0.20690399941295015,0.24376018057760931,-0.3646189365344352,0.4722108231548287
1784547168132144896,3.206690788269043,-1.094158411026001,0.0836561843752861,0.26241591572761536,-0.3467966914176941,-0.23072370886802673,-0.9091196656227112,0.08600872755050659,-0.10881486535072327,0.30072128772735596,0.9544896126522141,0.15324412734692594,-0.14817688880007499,0.20858905162172123,0.23282138686308843,-0.3644259120112161,0.4733914001583201
1784547168142063872,3.2166097164154053,-1.3384764194488525,0.3086470067501068,0.28669676184654236,-0.3455612063407898,-0.21868756413459778,-0.9125586152076721,0.10329738259315491,-0.01867815852165222,0.3552466034889221,0.9552631523480506,0.14702024577181041,-0.14867999495578008,0.2091689831034118,0.22046927177601275,-0.3619868288617238,0.47162901685214925
1784547168151983872,3.226529836654663,-1.2643131017684937,0.4583835005760193,0.049430232495069504,-0.34190353751182556,-0.20625467598438263,-0.9168211221694946,0.08987411856651306,0.07657022774219513,0.37257063388824463,0.9561046714601377,0.1404109517901068,-0.14789929087813009,0.21041499482399773,0.20774578162754936,-0.3569483618954912,0.47085116770879903
1784547168161903872,3.236449718475342,-1.313144564628601,0.4855610430240631,-0.003739246167242527,-0.3377690017223358,-0.1944946050643921,-0.9209147095680237,0.1601262092590332,0.08749999105930328,0.3610087037086487,0.957012347517523,0.1340267485991826,-0.14689951968385706,0.21115077712643116,0.19574219594851264,-0.3515407780727424,0.4691848333904431
1784547168171822848,3.246368646621704,-1.4357000589370728,0.5906221866607666,0.05899281054735184,-0.332878440618515,-0.18198847770690918,-0.9252416491508484,0.16278871893882751,0.13750910758972168,0.3832036852836609,0.958037615200417,0.12715122495467648,-0.14564249765385767,0.21162381151717669,0.1830083161291207,-0.34535601573758645,0.46680986118461154
1784547168181742848,3.256288766860962,-1.448621153831482,0.666208028793335,-0.020009329542517662,-0.32708290219306946,-0.16841837763786316,-0.9298666715621948,0.12197425961494446,0.17778725922107697,0.3891867399215698,0.9590836399876602,0.11968854955455552,-0.1440184332495046,0.212348818013637,0.16922489982537,-0.3382351740846682,0.4647479439690515
1784547168191662848,3.2662086486816406,-1.3666096925735474,0.6760990619659424,-0.18752619624137878,-0.3204871416091919,-0.1559017449617386,-0.9343354105949402,0.05821910500526428,0.1804226189851761,0.3555390238761902,0.9602420962746828,0.11257954828971371,-0.14197939608227808,0.2123741358477816,0.15654028995457167,-0.3304348657160846,0.4614798891497194
1784547168201582080,3.276127815246582,-1.1481109857559204,0.8437362313270569,-0.07466302067041397,-0.3131447732448578,-0.14473024010658264,-0.9386125206947327,0.004596829414367676,0.18507447838783264,0.36199814081192017,0.9613680977572266,0.10606778071509008,-0.13943943957038402,0.21231483896691372,0.14524033338866493,-0.3220132014905791,0.4583445514456344
1784547168211501824,3.2860476970672607,-1.0660979747772217,1.0265980958938599,-0.07595791667699814,-0.30405905842781067,-0.13459835946559906,-0.9430966973304749,-0.012515068054199219,0.16615353524684906,0.38506752252578735,0.9624115121039618,0.09997608885352398,-0.13585446328453954,0.21286717353242568,0.1350081294373883,-0.3118829888194082,0.4566102767375145
1784547168221422080,3.2959678173065186,-0.78828364610672,1.1311501264572144,-0.11831282824277878,-0.2939773499965668,-0.12618178129196167,-0.9474468231201172,-0.021284490823745728,0.16149063408374786,0.3823528289794922,0.963469571777252,0.09460857420505721,-0.13162754516260874,0.2131893489086757,0.12651904679492446,-0.30086452106763206,0.4547299453117128
1784547168231340800,3.305886745452881,-0.542791485786438,1.2487231492996216,0.05170557275414467,-0.28261643648147583,-0.11997586488723755,-0.9517004489898682,0.07766038179397583,0.13644009828567505,0.39368653297424316,0.9643673154355995,0.09028723093758952,-0.12648317841380025,0.21411639342873057,0.12026557181140032,-0.28866496884684184,0.45446780915078366
1784547168241261056,3.3158068656921387,-0.2759547233581543,1.3291655778884888,0.09086176007986069,-0.2701571583747864,-0.11598485708236694,-0.955804705619812,0.13189727067947388,0.13785070180892944,0.409875750541687,0.9650630514708834,0.08703524558136087,-0.12050938864537647,0.21576800725195724,0.1162464925085178,-0.2754633445312658,0.4560540827372481
1784547168251180800,3.3257267475128174,0.035011276602745056,1.2424278259277344,0.10914296656847,-0.25814303755760193,-0.11447801440954208,-0.9593002200126648,0.17104589939117432,0.16222277283668518,0.37583470344543457,0.9655286822875783,0.08509985886031801,-0.11448971527764754,0.21772564469747843,0.1147295444186664,-0.26286828348609875,0.4587616527545774
1784547168261099776,3.3356456756591797,0.12470068782567978,1.3053218126296997,0.20175306499004364,-0.24618762731552124,-0.11516796797513962,-0.9623554348945618,0.19510118663311005,0.13292920589447021,0.35294991731643677,0.9658148844868915,0.0842766030932641,-0.10825771984601107,0.2199530165792352,0.11542409443985387,-0.25044666954615347,0.46238419151723986
1784547168271020032,3.3455657958984375,-0.01346437819302082,1.168150782585144,0.06837408989667892,-0.23415273427963257,-0.11547735333442688,-0.9653173089027405,0.17421621084213257,0.15006902813911438,0.453918993473053,0.9660506755720849,0.08324482463961098,-0.10203751296872295,0.22227160853347463,0.11573555509897596,-0.2379694060757446,0.46614531324844055
1784547168280939776,3.355485677719116,-0.13118115067481995,1.2530020475387573,-0.12967826426029205,-0.222817063331604,-0.11466248333454132,-0.9680935144424438,0.054604172706604004,0.15967589616775513,0.47775232791900635,0.966508391587247,0.081601792629377,-0.09640739344055986,0.22340169537587756,0.11491523654447766,-0.2262209930823808,0.4673755171165642
1784547168290859008,3.3654048442840576,0.05219892039895058,1.411590814590454,-0.17224723100662231,-0.2095838040113449,-0.11440481245517731,-0.9710747599601746,0.02527289092540741,0.2904912233352661,0.31415337324142456,0.9671086993795109,0.07996535822046331,-0.08982297630547675,0.22413851977550725,0.11465585450558412,-0.21256613994807494,0.46772670547921374
1784547168300778752,3.3753247261047363,0.3246983289718628,1.4307056665420532,-0.24572864174842834,-0.19568923115730286,-0.11673390865325928,-0.9736934304237366,0.03800491988658905,0.4259074926376343,0.18315088748931885,0.9676720916745829,0.07950439848123234,-0.08265790003055928,0.22462743672567018,0.11700066815689036,-0.1983340531287136,0.46783819394521065
1784547168310697728,3.3852436542510986,0.8261961936950684,1.400791883468628,-0.26344045996665955,-0.18146057426929474,-0.1225384771823883,-0.975733757019043,0.11719055473804474,0.4761914312839508,0.17588329315185547,0.9680985162225133,0.08071376136134334,-0.0749560243754156,0.22506039924977633,0.12284723696797346,-0.18387283815990027,0.4681790770965148
1784547168320617984,3.3951637744903564,1.5987600088119507,1.305281639099121,-0.2892046868801117,-0.16812019050121307,-0.13484570384025574,-0.9764999747276306,0.13267403841018677,0.3385353088378906,0.08785867691040039,0.96815481477898,0.08524713741207283,-0.06695466987767122,0.22566868657876152,0.13525774685946582,-0.17049465414305692,0.4695811475907044
1784547168330537728,3.405083656311035,1.4803025722503662,1.0528500080108643,-0.46534299850463867,-0.15609152615070343,-0.15120141208171844,-0.9761012196540833,0.12684041261672974,0.16342370212078094,0.08749037981033325,0.9680347423389472,0.09190045183225691,-0.059192074998530374,0.22574181125097048,0.15178354136794855,-0.15857067856107587,0.47028589579952895
1784547168340456960,3.4150028228759766,0.9115925431251526,0.9577290415763855,-0.5541154742240906,-0.14548635482788086,-0.16327860951423645,-0.9757939577102661,0.16787099838256836,0.04712870717048645,0.2532140016555786,0.9681367335148869,0.09657132843933275,-0.05269731534683772,0.22496296743652341,0.1640129552323192,-0.14800510644821246,0.4688172853267911
1784547168350376960,3.4249227046966553,0.393526554107666,1.0859251022338867,-0.6027554273605347,-0.13466337323188782,-0.17058536410331726,-0.9760975241661072,0.10445098578929901,-0.17754389345645905,0.20015764236450195,0.9685312716916918,0.09884515988541354,-0.046699724766479205,0.22359759642367544,0.1714237103719694,-0.13709555535810916,0.4655727853146419
1784547168360296960,3.434842824935913,-0.4871334135532379,0.9162620306015015,-0.6261281371116638,-0.12386717647314072,-0.17138314247131348,-0.9773867130279541,-0.04684815555810928,-0.22752737998962402,0.2826693058013916,0.969288057191821,0.09790065640258246,-0.041498393796949536,0.22175225081092692,0.17223341960714664,-0.12606099718368804,0.46071309068840227
1784547168370215936,3.4447617530822754,-1.4767301082611084,1.0396766662597656,-0.4336588680744171,-0.1137595847249031,-0.16211596131324768,-0.9801924228668213,-0.1220039576292038,-0.15273389220237732,0.2972090244293213,0.9703438133106205,0.09209644900310307,-0.03770988943271258,0.22029335283399026,0.1628346058905824,-0.11554150975915486,0.4559224936537936
1784547168380135936,3.454681873321533,-2.4262895584106445,1.417434573173523,-0.4947720170021057,-0.1012207493185997,-0.1436804234981537,-0.9844340085983276,-0.1814025342464447,-0.08361449837684631,0.25869548320770264,0.9717173382835225,0.08152906572735519,-0.033704768407059514,0.21904905980837258,0.14417942547995244,-0.10246119372919667,0.45084292297111395
1784547168390055936,3.464601755142212,-2.9708993434906006,1.3928810358047485,-0.7074510455131531,-0.08613566309213638,-0.11760017275810242,-0.9893183708190918,-0.12063618749380112,-0.11912468075752258,0.1416773796081543,0.9734958350604596,0.06693252045753885,-0.029340262124730745,0.21671393998823604,0.1178729376314805,-0.0868466661619822,0.44321231688647406
1784547168399974912,3.474520683288574,-3.3358848094940186,1.0044904947280884,-0.318198561668396,-0.0740579217672348,-0.08707401156425476,-0.9934452772140503,0.0543893501162529,-0.16519954800605774,0.006781458854675293,0.975123886537284,0.05054903635985327,-0.026872858768477382,0.21414050217696,0.0871844185917233,-0.07440892502617767,0.43559117357311267
1784547168409894912,3.484440803527832,-4.104264259338379,0.7994009256362915,-0.02432488091289997,-0.06455766409635544,-0.05062852427363396,-0.9966288208961487,0.18186724185943604,-0.19821180403232574,-0.03674209117889404,0.9761686531501923,0.031642759869838014,-0.026159356240529653,0.21309422314905013,0.05065017906940337,-0.06468566437935461,0.431488857972633
