time,seconds_elapsed,rotationRateX,rotationRateY,rotationRateZ,gravityX,gravityY,gravityZ,accelerationX,accelerationY,accelerationZ,quaternionW,quaternionX,quaternionY,quaternionZ,pitch,roll,yaw
1784201812828543488,0.028667449951171875,0.13295789062976837,-0.03990693390369415,0.03036005049943924,0.025236621499061584,0.5169709920883179,-0.8556308150291443,0.02223345823585987,0.04644453525543213,0.03423500061035156,0.7649687710854448,-0.2051562695632306,0.17348050263333673,-0.585353090824855,-0.5433085863369647,0.02948620518856882,-1.2981014363494763
1784201812838462464,0.03858637809753418,0.1276073306798935,-0.0035976609215140343,0.02194579318165779,0.025190718472003937,0.5158555507659912,-0.8563051819801331,0.005357349291443825,0.08515763282775879,0.03619104623794556,0.7652006370907894,-0.20470116600463092,0.17304579608401327,-0.5853381117958982,-0.5420060054682768,0.02940944032786749,-1.2978263592646262
1784201812848382464,0.04850649833679199,0.1116434782743454,0.0006929570809006691,0.0350225456058979,0.025354109704494476,0.5148499011993408,-0.8569053411483765,0.020773179829120636,0.06152033805847168,0.042742133140563965,0.7653953318839538,-0.20422304413195067,0.17274334804660005,-0.5853399039398159,-0.5408325267145169,0.029579363644583412,-1.2975552558366767
1784201812858301440,0.0584254264831543,0.04112722724676132,-0.020538829267024994,0.028658656403422356,0.02543139085173607,0.514202356338501,-0.8572917580604553,0.02695201151072979,0.010608434677124023,0.04776722192764282,0.7655844152295972,-0.20394283975805133,0.1725150069930803,-0.5852576395604117,-0.540077393273566,0.029656105555111424,-1.297172000978835
1784201812868221440,0.06834554672241211,-0.06068648397922516,-0.0161764957010746,-0.003381035290658474,0.025334276258945465,0.5143080949783325,-0.8572311997413635,0.01642902009189129,-0.00864708423614502,0.041404783725738525,0.7656241136877232,-0.2040357499368144,0.17249291590048385,-0.5851797912800565,-0.540200693039167,0.0295450098691848,-1.2970223459348136
1784201812878140416,0.07826447486877441,-0.1544603854417801,-0.000471566803753376,-0.03094155713915825,0.025192536413669586,0.5152809023857117,-0.8566510081291199,0.00639314204454422,0.00121384859085083,0.04012268781661987,0.7654656473647802,-0.2045019061091325,0.17278157125916035,-0.5851392363916902,-0.5413354048707658,0.029399694328964217,-1.297177513471165
1784201812888060416,0.08818435668945312,-0.16926735639572144,-0.009917988441884518,-0.03855663165450096,0.024996494874358177,0.516787588596344,-0.8557486534118652,0.016095416620373726,0.019101083278656006,0.036946773529052734,0.7651897928859034,-0.20520817677496356,0.17324917797281122,-0.5851143789707416,-0.5430943477480594,0.029201786874234286,-1.2975114269275352
1784201812897979392,0.09810352325439453,-0.10275916755199432,-0.02180926874279976,-0.004654059186577797,0.02471877448260784,0.5179895162582397,-0.8550297021865845,0.020325172692537308,0.05111747980117798,0.03238266706466675,0.7649908371184935,-0.20581616635098937,0.17356509954528887,-0.5850673715019034,-0.5444988938977856,0.028901792486045474,-1.297746538937616
1784201812907899392,0.10802340507507324,-0.06245988607406616,0.0242721289396286,0.049888044595718384,0.024867430329322815,0.5187317728996277,-0.8545753359794617,-0.003459349274635315,0.06700736284255981,0.01874464750289917,0.7649759287635062,-0.2061240040039199,0.1738540545235273,-0.5848928262475536,-0.5453668761497581,0.029090959023426195,-1.2974111642373551
1784201812917819392,0.11794352531433105,0.011595701798796654,0.06568720936775208,0.08302123099565506,0.025608232244849205,0.5189802646636963,-0.8544025421142578,-0.013111304491758347,0.05449080467224121,0.014802932739257812,0.7650935579700551,-0.2060481243576473,0.17419209691066456,-0.5846650394486195,-0.5456575222038107,0.029963122532779156,-1.296638217174246
1784201812927738368,0.12786245346069336,0.10209377855062485,0.10015624016523361,0.11493635922670364,0.026816781610250473,0.5185456275939941,-0.8546293377876282,-0.00893349014222622,0.07337337732315063,0.028442203998565674,0.7653656000315958,-0.20554244811282038,0.17446381912464085,-0.5844058780075998,-0.5451491196891187,0.03136796705499264,-1.2954828824746938
1784201812937658624,0.13778257369995117,0.15895839035511017,0.14583371579647064,0.12757624685764313,0.02850154973566532,0.5173461437225342,-0.8553014993667603,-0.010038413107395172,0.08931279182434082,0.038559556007385254,0.7657613829409636,-0.20455639823568264,0.17465948857845393,-0.5841749163123119,-0.5437469482605829,0.03331106872708219,-1.2940848567698904
1784201812947577600,0.14770150184631348,0.1139935776591301,0.14895698428153992,0.11810165643692017,0.030444204807281494,0.516220211982727,-0.8559146523475647,0.018505970016121864,0.04470813274383545,0.0505405068397522,0.7661235077358298,-0.20351696461426455,0.17499577674966585,-0.5839625045659858,-0.5424317537950463,0.035554216460054355,-1.2926779377299606
1784201812957497344,0.1576213836669922,0.10506373643875122,0.13577887415885925,0.05263609439134598,0.03213469684123993,0.5152962803840637,-0.8564094305038452,0.03164704516530037,-0.007376968860626221,0.018015265464782715,0.766360724534429,-0.20261725553544865,0.17533265768127923,-0.5838629778565992,-0.5413533596392718,0.03750499201084844,-1.291694175910742
1784201812967416576,0.1675405502319336,0.08845839649438858,0.10531657189130783,-0.005603243131190538,0.03326905146241188,0.5144588947296143,-0.8568694591522217,0.03548704460263252,0.006048917770385742,0.03291010856628418,0.7664100039425096,-0.20187602431758983,0.17553161047108212,-0.5839953323824066,-0.5403765105695998,0.03880678715703217,-1.291509875470567
1784201812977336320,0.1774604320526123,0.05644586682319641,0.058812450617551804,-0.0029299622401595116,0.03390737250447273,0.5139090418815613,-0.857174277305603,0.032514121383428574,0.032782793045043945,0.04439961910247803,0.7663778318762211,-0.2014032139388375,0.17564052253184104,-0.5841680179205252,-0.5397354521657022,0.0395365374315639,-1.2916468638508325
1784201812987255296,0.1873793601989746,0.08253558725118637,0.05188503861427307,0.003824513405561447,0.03443731367588043,0.5133458375930786,-0.8574906587600708,0.019426189363002777,0.04373729228973389,0.0352097749710083,0.7664121391880585,-0.20097765496078746,0.17567773209706328,-0.5842584352047222,-0.5390789984059625,0.04013899950882792,-1.291600484144866
1784201812997175552,0.19729948043823242,0.12444734573364258,0.03598330169916153,-0.003548181615769863,0.034812215715646744,0.5125289559364319,-0.8579639792442322,0.016854040324687958,0.062132298946380615,0.03385204076766968,0.7664617947130403,-0.20048274287896956,0.1755695665453223,-0.5843957253248019,-0.5381273864111228,0.04055313375822446,-1.2916707523844024
1784201813007095296,0.20721936225891113,0.15001383423805237,0.026993080973625183,-0.00917031429708004,0.03508271649479866,0.5113523006439209,-0.858654797077179,0.019665800034999847,0.0828249454498291,0.034863293170928955,0.766564251450875,-0.1998631093513,0.17529215503479972,-0.5845568042752285,-0.5367576165758753,0.04083505509759712,-1.29175989788198
1784201813017014528,0.21713852882385254,0.185700461268425,-0.022662624716758728,-0.023447787389159203,0.035069435834884644,0.5099673271179199,-0.8594785928726196,0.04241468012332916,0.06277132034301758,0.04800093173980713,0.7666801274807657,-0.1992357917117268,0.17483076058574182,-0.5847571446903638,-0.5351467950423503,0.04078052785380858,-1.2919949379226268
1784201813026934272,0.22705841064453125,0.20286992192268372,-0.0706155076622963,-0.030864257365465164,0.034520119428634644,0.5083903074264526,-0.8604345321655273,0.051783572882413864,0.03735548257827759,0.03002077341079712,0.7668221414470909,-0.1986908867443572,0.17408231147690387,-0.5849795772349476,-0.5333145038645761,0.04009789765078035,-1.2924097865016204
1784201813036853504,0.23697757720947266,0.299603134393692,-0.0637354925274849,-0.028518812730908394,0.03380674123764038,0.506331741809845,-0.8616758584976196,0.007605612277984619,0.06997746229171753,0.03854048252105713,0.7670355933231288,-0.19798815103560072,0.17309757574718518,-0.5852301257508088,-0.5309256128526056,0.039213600574291234,-1.292846271369455
1784201813046773504,0.24689745903015137,0.494528204202652,-0.020816214382648468,-0.03121296688914299,0.03332044556736946,0.5030137300491333,-0.8636358976364136,-0.006648074835538864,0.1339644193649292,0.055576205253601074,0.7673865478545348,-0.1966549785544852,0.1717814824845368,-0.5856072274703993,-0.5270822361399344,0.0385624620332752,-1.2932830224778569
1784201813056692480,0.25681638717651367,0.6837996244430542,-0.04488373547792435,-0.05432068184018135,0.03288164362311363,0.4979275166988373,-0.8665950298309326,0.03314312547445297,0.16010773181915283,0.06415063142776489,0.7678533891413658,-0.19450292713993356,0.16991493607165745,-0.5862582122869219,-0.5212073269410548,0.03792529846224863,-1.2940594807940045
1784201813066612480,0.2667365074157715,0.6287139058113098,-0.04242643713951111,-0.05370485782623291,0.03218918666243553,0.49216771125793457,-0.8699050545692444,0.04148024320602417,0.15935206413269043,0.08789211511611938,0.7683697756375558,-0.19213382471977766,0.16772618874447554,-0.5869926350615976,-0.5145782078375128,0.03698623079676923,-1.2950003625286899
1784201813076532480,0.2766563892364502,0.4098398983478546,-0.013132462278008461,-0.05682661756873131,0.031728025525808334,0.48772794008255005,-0.8724189400672913,0.023234128952026367,0.017231136560440063,0.05328136682510376,0.7687375126178749,-0.19028433657014845,0.16607953713850188,-0.5875815131110292,-0.5094852610373142,0.03635185590991138,-1.2957720631547298
1784201813086451456,0.2865755558013916,0.21634350717067719,0.06628748774528503,-0.08962377905845642,0.03168230876326561,0.4850693643093109,-0.8739015460014343,0.01636761799454689,-0.1480790078639984,0.0180819034576416,0.7687978428467871,-0.18906373978797983,0.16523957396040925,-0.5881332607927252,-0.506442492908829,0.036237992912077875,-1.2966907629695001
1784201813096371456,0.2964954376220703,0.14788936078548431,0.18199411034584045,-0.005950186401605606,0.03251120075583458,0.48367464542388916,-0.8746438026428223,0.022801917046308517,-0.17958226799964905,0.015207827091217041,0.7686653636451178,-0.18811423679468012,0.16520024033952882,-0.5886215933667767,-0.5048482806476234,0.03715368488644259,-1.2974526514954263
1784201813106290432,0.3064143657684326,0.2361930012702942,0.28301793336868286,0.14568574726581573,0.034875597804784775,0.4820863604545593,-0.8754292726516724,-0.019311632961034775,-0.10290545225143433,0.0027180910110473633,0.7688556228451466,-0.1866896862081136,0.16562704009309023,-0.5887067738434246,-0.5030344992275689,0.03981722355273937,-1.2967047878938776
1784201813116210432,0.31633448600769043,0.48110872507095337,0.3977242708206177,0.24487091600894928,0.03845265135169029,0.4791331887245178,-0.8768995404243469,-0.007095847278833389,0.07468456029891968,-0.008308589458465576,0.7694417526464185,-0.18436424618942082,0.16601221928347223,-0.5885653537811609,-0.49966688782675117,0.04382261656508418,-1.2947863309553012
1784201813126129408,0.32625341415405273,0.42575666308403015,0.14453035593032837,0.17873390018939972,0.04234090819954872,0.47469362616539,-0.879132091999054,0.036669109016656876,0.12714353203773499,0.003125011920928955,0.7703525620621466,-0.18134508742028177,0.16597567104471528,-0.5883221416745421,-0.49461591099419344,0.04812498072584482,-1.2922769520126411
1784201813136049408,0.33617353439331055,0.3993610143661499,-0.06154663860797882,-0.01400731410831213,0.04302416369318962,0.47119659185409546,-0.8809782862663269,0.06998242437839508,0.17516571283340454,-0.006930649280548096,0.770922551160276,-0.179663090458205,0.16502133363385532,-0.5883600594785655,-0.4906469098080025,0.048798032444571385,-1.291558624743251
1784201813145969408,0.34609341621398926,0.4116664230823517,-0.09421107172966003,-0.04570825397968292,0.042306896299123764,0.467467337846756,-0.8829973936080933,0.008840572088956833,0.13005158305168152,0.04724299907684326,0.7712502861923989,-0.1782394866824392,0.16349916990284732,-0.58878835487732,-0.48642361686370117,0.047876205494542134,-1.2921888993093564
1784201813155888640,0.35601258277893066,0.3165617287158966,-0.07648719847202301,0.011911102570593357,0.041353825479745865,0.4644799828529358,-0.8846175670623779,-0.03999580442905426,0.08567565679550171,0.06346583366394043,0.7715807532323591,-0.177237336255795,0.1621053605638859,-0.5890432881344086,-0.48304731931051503,0.04671367949189927,-1.292565586312498
1784201813165808384,0.3659324645996094,0.4992390275001526,-0.047264982014894485,0.03358037769794464,0.041115451604127884,0.46087566018104553,-0.8865118026733398,0.02092677727341652,0.00015339255332946777,0.0030431747436523438,0.7720590051037419,-0.175772604759416,0.16077341573354412,-0.589220585405183,-0.47898164099151175,0.0463457009704642,-1.292448792208877
1784201813175727360,0.3758513927459717,0.45125019550323486,-0.2368684709072113,-0.05287408456206322,0.03984564170241356,0.4569360017776489,-0.8886066675186157,0.09345513582229614,0.08325564861297607,0.09342539310455322,0.7725506866594956,-0.17447709675477047,0.1589163519483914,-0.5894648467448399,-0.47454751403802803,0.04481056838482217,-1.2927146709735646
1784201813185647360,0.3857715129852295,0.8008055686950684,-0.34103095531463623,-0.09136698395013809,0.036898426711559296,0.4516155421733856,-0.8914493322372437,0.1368228793144226,0.15383794903755188,-0.0024868249893188477,0.7730745713353553,-0.17307524742742544,0.1559496641555897,-0.5899833020705524,-0.4685752240280957,0.041367889497568186,-1.293872252586422
1784201813195566336,0.3956904411315918,1.256588339805603,-0.3916028141975403,-0.12450096756219864,0.03325270861387253,0.4424809515476227,-0.8961611986160278,0.07432175427675247,0.2581873834133148,0.014554142951965332,0.7739362802755593,-0.1702411637928484,0.151450818490227,-0.590849628424762,-0.45836330211184173,0.03708870817527957,-1.2954347901817416
1784201813205486592,0.4056105613708496,1.4883092641830444,-0.1069258376955986,-0.06721994280815125,0.030675148591399193,0.4300585687160492,-0.9022796750068665,-0.09253427386283875,0.3174847364425659,0.06763923168182373,0.775001312029967,-0.16566178128768627,0.14634318745124783,-0.5920411296660455,-0.44455764929774344,0.03398429382146048,-1.2970228320512664
1784201813215406336,0.4155304431915283,1.5894584655761719,-0.02169935777783394,0.045510608702898026,0.02973480336368084,0.4161621034145355,-0.9088041186332703,-0.1808425784111023,0.16344299912452698,0.007482707500457764,0.7762515029596408,-0.16000020709526297,0.14141383462193274,-0.5931573550348568,-0.4292204754016317,0.03270693836083062,-1.2978371159963094
1784201813225325312,0.4254493713378906,1.3587199449539185,0.07854633033275604,0.13685660064220428,0.030390212312340736,0.40285980701446533,-0.9147570133209229,-0.09177633374929428,-0.05520358681678772,-0.002463996410369873,0.7776775103928211,-0.15419675887477366,0.1372765243196739,-0.5937982136437681,-0.41463929041768666,0.033209953120806955,-1.2972519205202193
1784201813235245568,0.43536949157714844,0.8936526775360107,0.062478408217430115,0.12444333732128143,0.03160694241523743,0.39228901267051697,-0.9192988276481628,0.0015961751341819763,-0.13060078024864197,0.05969494581222534,0.7788963233207646,-0.1494162224465634,0.13425863065382604,-0.5941127447531024,-0.40311876845456784,0.03436803939264745,-1.2962149358479915
1784201813245164288,0.44528841972351074,0.3598718047142029,-0.037293270230293274,0.053643036633729935,0.032215822488069534,0.3868153393268585,-0.9215942621231079,0.08239294588565826,-0.3007863163948059,0.06583565473556519,0.7795998498963298,-0.14697171131125167,0.13267319808483893,-0.5941557931923699,-0.39717559868286145,0.03494239428903169,-1.2954047800421584
1784201813255084544,0.45520853996276855,0.058032311499118805,-0.2663522958755493,-0.08251133561134338,0.030796125531196594,0.3850088119506836,-0.9223989248275757,0.1420096606016159,-0.2920370101928711,0.04604095220565796,0.7797975399154575,-0.14665466357950865,0.13150260027835683,-0.5942350488570132,-0.39521735751399545,0.03337459447071757,-1.2956386435212845
1784201813265003520,0.46512746810913086,0.08013394474983215,-0.3838701844215393,-0.1046159416437149,0.027330107986927032,0.3846113085746765,-0.9226739406585693,0.09464865177869797,0.026048481464385986,0.051015615463256836,0.7797596394042235,-0.1475337753241113,0.1299877458316182,-0.5944004603887904,-0.39478671510055996,0.029611889644417227,-1.296714069112515
1784201813274923520,0.47504758834838867,0.35819166898727417,-0.2955922484397888,-0.01980092190206051,0.02388159930706024,0.38279491662979126,-0.9235246181488037,-0.01654212363064289,0.28653186559677124,0.010835409164428711,0.779918608327516,-0.14782761850399925,0.1280026719027085,-0.5945496975680176,-0.3928197588488169,0.025853429440656737,-1.2975378741577075
1784201813284843520,0.4849674701690674,0.881242036819458,-0.10525310784578323,0.13235649466514587,0.022224118933081627,0.3772333562374115,-0.9258515238761902,-0.08451050519943237,0.3515264093875885,0.014062643051147461,0.7806536443623504,-0.14605223525418626,0.12547099213751828,-0.5945634975709037,-0.3868071250788232,0.023999367879570525,-1.2970959667499606
1784201813294762496,0.4948863983154297,1.3051592111587524,0.07913137972354889,0.19562095403671265,0.022738900035619736,0.3670090436935425,-0.9299393892288208,-0.10219142585992813,0.3576003313064575,0.0033646821975708008,0.7819440454768976,-0.14169370539189607,0.12228322007755414,-0.5945866537379567,-0.37579163828146145,0.024447150725132573,-1.2955935701243007
1784201813304682496,0.5048065185546875,1.6375383138656616,0.2284272462129593,0.24402779340744019,0.02502596005797386,0.3533659279346466,-0.9351503849029541,-0.08125459402799606,0.2588014304637909,-0.010848760604858398,0.7835230203385389,-0.1353834905960732,0.11872708819823405,-0.5946989996536746,-0.36116672136055833,0.026755043325059225,-1.2935957066145385
1784201813314601472,0.5147254467010498,1.8229776620864868,0.2806667387485504,0.2753835916519165,0.028419651091098785,0.3370981216430664,-0.9410404562950134,-0.03484360873699188,0.1638479232788086,-0.012786388397216797,0.7852667146034947,-0.1276664643106431,0.11480867914164057,-0.5948751634377462,-0.34383289524323374,0.030191066252930193,-1.2913829232884766
1784201813324521472,0.5246455669403076,1.684120535850525,0.255472868680954,0.32609888911247253,0.03190529718995094,0.3204352855682373,-0.9467329382896423,0.017746809870004654,0.07252427935600281,0.03599691390991211,0.7871169562102864,-0.11981206781440594,0.11080882302528067,-0.5948220071848098,-0.3261889543145854,0.03368767037139573,-1.2887304194749496
1784201813334440448,0.5345644950866699,1.4781007766723633,0.15773138403892517,0.3044135570526123,0.03493516892194748,0.3052796721458435,-0.9516217112541199,0.07018262892961502,-0.056363046169281006,0.018897712230682373,0.788873202735332,-0.11275559005150548,0.10712296159345562,-0.5945501115070603,-0.31023209955367903,0.036694716991113784,-1.2859528734593366
1784201813344360448,0.5444843769073486,1.230857491493225,-0.0055178385227918625,0.17332518100738525,0.03633084520697594,0.29252415895462036,-0.9555677175521851,0.08741793036460876,-0.20045262575149536,0.06424081325531006,0.7902826893626517,-0.1071729502072242,0.10358614881215862,-0.5943376326151764,-0.29686538492889275,0.03800186366820732,-1.2839494870263104
1784201813354280448,0.5544044971466064,1.1456928253173828,-0.08354392647743225,0.07727429270744324,0.036184705793857574,0.28133440017700195,-0.95892733335495,0.060632310807704926,-0.21628618240356445,0.04956454038619995,0.7912791719021068,-0.10266074958706618,0.09998551895383333,-0.5944249007960336,-0.28518438133372426,0.0377166699499384,-1.2831477078366162
1784201813364199424,0.5643234252929688,1.192181944847107,-0.07480518519878387,0.017810668796300888,0.035511501133441925,0.2703230679035187,-0.9621145129203796,0.01916072517633438,0.018235892057418823,0.04628199338912964,0.7920208063471769,-0.09835308461500518,0.0962777316355013,-0.5947776439274752,-0.2737285720797981,0.03689310051260373,-1.283151650960844
1784201813374119424,0.5742435455322266,1.4525545835494995,-0.022155821323394775,0.04146752879023552,0.035130199044942856,0.25803622603416443,-0.9654963612556458,-0.020512286573648453,0.24463406205177307,0.03332167863845825,0.7927326115686133,-0.09343311680533198,0.09231513144634056,-0.5952505576351343,-0.2609890399846431,0.03636959405790773,-1.2833601554983711
1784201813384038400,0.5841624736785889,1.8935596942901611,0.05064891278743744,0.0013537323102355003,0.035350363701581955,0.24183444678783417,-0.9696733951568604,-0.02752259373664856,0.43921107053756714,-0.10864996910095215,0.7935734532809149,-0.08673960629941818,0.08740454919333622,-0.5958840475520282,-0.2442559746026727,0.0364398130309086,-1.2836640589712405
1784201813393958400,0.5940823554992676,2.3730311393737793,0.02881525456905365,-0.07426858693361282,0.03572515770792961,0.2214905321598053,-0.9745079278945923,0.009257759898900986,0.4447997510433197,-0.019098639488220215,0.7943167684590507,-0.07830231859196479,0.08133138627297538,-0.5969210834927687,-0.22334269750276312,0.036643280948621244,-1.284798416678925
1784201813403877376,0.604001522064209,2.904794454574585,-0.060364119708538055,-0.21001359820365906,0.03531366214156151,0.19589704275131226,-0.9799883961677551,0.04761785641312599,0.33365923166275024,-0.016486823558807373,0.7948791193791862,-0.06797032314304248,0.07338820014086919,-0.5984658418764127,-0.1971721339956437,0.0360191904948032,-1.2871482764494695
1784201813413797376,0.6139214038848877,3.2862653732299805,-0.2386944442987442,-0.404168963432312,0.033420465886592865,0.16583266854286194,-0.9855874180793762,0.07824334502220154,0.2966764569282532,0.047873854637145996,0.7949685519456037,-0.05628393591221623,0.06354839668471515,-0.6006819490266773,-0.16660231015960064,0.0338961956158854,-1.2913265850163071
1784201813423717376,0.6238415241241455,3.513777494430542,-0.48007604479789734,-0.5574172735214233,0.029144076630473137,0.13253097236156464,-0.9907503128051758,0.09844991564750671,0.24608536064624786,0.04702472686767578,0.7944934469453697,-0.04405771712241951,0.051805075504563126,-0.6034528403219828,-0.13292204646785144,0.029407687258968716,-1.2972053809897206
1784201813433636352,0.6337604522705078,3.6550705432891846,-0.5406688451766968,-0.8487673997879028,0.023249780759215355,0.09757593274116516,-0.9949564933776855,0.047062717378139496,0.15240880846977234,0.03639936447143555,0.7931812233283434,-0.031722408075991186,0.03892879988446505,-0.606911765791027,-0.09773143517800797,0.0233633842137832,-1.3051256529788755
1784201813443556608,0.6436805725097656,3.6437509059906006,-0.5933055281639099,-1.094951868057251,0.016809916123747826,0.06114188954234123,-0.9979875087738037,-0.0009102616459131241,0.16841132938861847,0.12202620506286621,0.7907753839961594,-0.01905610576913341,0.025359479525769283,-0.61128407343525,-0.06118004960004758,0.016842221516070392,-1.315626749751105
1784201813453475584,0.6535995006561279,2.7534515857696533,-0.3955000340938568,-1.2253003120422363,0.011352193541824818,0.029501331970095634,-0.9995002746582031,-0.024764668196439743,0.12273560464382172,0.22449111938476562,0.7875409386174599,-0.008121967862487488,0.013560835826405646,-0.6160596567038071,-0.02950561310103326,0.011357380743097289,-1.3274889419994302
1784201813463395328,0.6635193824768066,2.4765944480895996,-0.06595447659492493,-1.4380930662155151,0.008732941001653671,0.003976310603320599,-0.9999539852142334,-0.13519778847694397,-0.40752550959587097,0.0959012508392334,0.7834913157326244,0.0011555804189785739,0.004656607027777723,-0.6213842904578767,-0.003976320940337973,0.008733121419093126,-1.3410174273028719
1784201813473314560,0.673438549041748,1.862862229347229,0.38825297355651855,-1.2331598997116089,0.010264999233186245,-0.01772051863372326,-0.9997903108596802,-0.12353099137544632,-0.6728617548942566,0.18185818195343018,0.7791774961306274,0.010121414493076929,-0.0015539334068838527,-0.6267196539623456,0.01772144557246595,0.010266791330113396,-1.3548481097110148
1784201813483234304,0.6833584308624268,0.6265344023704529,0.9139068722724915,-0.9128002524375916,0.017192164435982704,-0.03001103736460209,-0.9994016885757446,-0.05996255204081535,-0.7749053239822388,0.1806151270866394,0.7758696805761753,0.01706860525946832,-0.0027947180410657774,-0.6306560485251655,0.03001554509002514,0.017200759882721017,-1.3652978825985296
1784201813493154560,0.6932785511016846,-0.3418692350387573,1.136643648147583,-1.0257132053375244,0.027965107932686806,-0.030880602076649666,-0.9991317987442017,-0.027461567893624306,-0.6840546727180481,0.23202669620513916,0.7728133064811689,0.020810516898905052,0.0010126945375792562,-0.6342913064146357,0.030885512189961464,0.027982102512467633,-1.3749714387332677
1784201813503073536,0.7031974792480469,-0.639850914478302,0.9639367461204529,-0.9687816500663757,0.038692984730005264,-0.02517070807516575,-0.9989340901374817,0.10969874262809753,-0.4120393693447113,0.1464408040046692,0.7697161622846334,0.022041353280114927,0.0068659024582534665,-0.6379687839552827,0.025173367468897225,0.03871491650444167,-1.3846444400555789
1784201813512993280,0.7131173610687256,-1.1312909126281738,0.6219234466552734,-1.2261250019073486,0.0468040332198143,-0.016381464898586273,-0.9987697601318359,0.0998634472489357,0.009041985496878624,0.07864952087402344,0.7663595898165649,0.0213126806478592,0.01268426183286107,-0.6419329060988344,0.01638219703415128,0.04682742674073305,-1.3949318916114364
1784201813522912512,0.723036527633667,-1.5373083353042603,0.40066179633140564,-1.5732734203338623,0.05183134973049164,-0.0018600410548970103,-0.9986541271209717,0.06723298132419586,-0.030809028074145317,0.10821223258972168,0.7619458499444624,0.017490973054735074,0.01915739964881332,-0.6471209066652925,0.0018600420734613383,0.051854676282996594,-1.4082236518538964
1784201813532832512,0.7329564094543457,-1.1198172569274902,0.3351890444755554,-1.7170250415802002,0.05536758154630661,0.012649791315197945,-0.9983859062194824,0.00388229638338089,-0.1560518890619278,-0.11503267288208008,0.7566553369538422,0.01330792869435255,0.025098742983653385,-0.6531964981691276,-0.01265012889835734,0.0554003456740404,-1.423942883111911
1784201813542752512,0.7428765296936035,-0.6319728493690491,0.24206309020519257,-1.4945203065872192,0.05800429731607437,0.022062843665480614,-0.9980725049972534,-0.01843825727701187,0.27374404668807983,-0.05891907215118408,0.7513521712315331,0.010839333263512276,0.02909045652556212,-0.6591707687332704,-0.022064634327620365,0.05805102020296623,-1.4396359349515297
1784201813552671488,0.7527954578399658,-0.13730908930301666,0.2071160227060318,-1.2823734283447266,0.059824179857969284,0.027093449607491493,-0.9978411793708801,0.001241493970155716,0.6215576529502869,-0.003516852855682373,0.746842058210604,0.009760564085428115,0.03137105962030626,-0.6641893695765646,-0.02709676485822283,0.05988192997470743,-1.4529662776126455
1784201813562591488,0.7627155780792236,0.2851006090641022,0.19890351593494415,-1.4414459466934204,0.06145766004920006,0.026626337319612503,-0.9977544546127319,-0.03960707411170006,0.6050264835357666,-0.06796514987945557,0.7423877292326944,0.010690114574244146,0.031756629959157366,-0.6691320460429571,-0.026629484972482898,0.06151825369301225,-1.4662730656720064
1784201813572510464,0.7726345062255859,0.09376394003629684,0.3368014693260193,-1.9754561185836792,0.06355098634958267,0.026046784594655037,-0.9976386427879333,-0.06835750490427017,0.08863827586174011,-0.08750540018081665,0.7367392661450749,0.01187727374322833,0.03224306043887472,-0.6753033483834242,-0.02604973154502961,0.06361545055494953,-1.483005218796782
1784201813582430464,0.7825543880462646,-0.25381597876548767,0.5055882930755615,-2.249791383743286,0.06694453954696655,0.028082486242055893,-0.997361421585083,-0.04349178820848465,-0.4817415475845337,-0.04170107841491699,0.7294601977569738,0.012637655346661633,0.034052600528913575,-0.6830582549434601,-0.028086179057714215,0.06702111908312354,-1.5041773895832513
1784201813592349440,0.792473554611206,-0.8239415287971497,0.8653869032859802,-2.8188862800598145,0.07275815308094025,0.03531186655163765,-0.9967243075370789,-0.13051266968250275,-0.5335723757743835,-0.07160454988479614,0.7209187097640879,0.012460306133470692,0.03850444893891791,-0.691836982485144,-0.0353192105706972,0.0728680290853665,-1.5283444506522679
1784201813602269440,0.8023934364318848,-1.1944175958633423,1.2023746967315674,-3.3836090564727783,0.08154740184545517,0.04792055860161781,-0.9955167770385742,-0.22818437218666077,-0.285942405462265,-0.09632587432861328,0.7098910126692527,0.011669398646124454,0.04588507088416444,-0.702718325806203,-0.04793891755091238,0.08173215967542893,-1.5586805510111827
1784201813612189440,0.8123135566711426,-1.0993314981460571,1.586904764175415,-3.543618679046631,0.09327913075685501,0.06279619038105011,-0.9936577081680298,-0.2190420776605606,0.06440107524394989,-0.13233411312103271,0.697462929416817,0.011456858316204882,0.055135161928828565,-0.7144048891602613,-0.06283753532304938,0.09360020871967763,-1.5918506424801981
1784201813622108416,0.8222324848175049,-0.08932991325855255,2.003807783126831,-3.6879336833953857,0.10848449915647507,0.07321934401988983,-0.99139803647995,-0.17246460914611816,0.355308473110199,-0.21928006410598755,0.6840041930198638,0.014429189514237354,0.06397489503780499,-0.7265240516462406,-0.07328492834597591,0.10899213387949368,-1.6270677827153506
1784201813632028416,0.8321523666381836,0.9968493580818176,2.1879918575286865,-3.160914182662964,0.12661851942539215,0.07243648916482925,-0.9893031120300293,0.009718745946884155,0.583447277545929,-0.22180217504501343,0.6706213359234101,0.022565976897249766,0.06956440583379471,-0.7381860034077661,-0.07249998659295515,0.12729553333451313,-1.6620176916884553
1784201813641947392,0.842071533203125,1.268370270729065,2.4604902267456055,-2.40983247756958,0.14734366536140442,0.06518831849098206,-0.9869348406791687,-0.03453543782234192,0.47343167662620544,-0.1183508038520813,0.6594547822020808,0.03378768880030542,0.07342332454605001,-0.7473866437109613,-0.0652345766104095,0.1481996231503147,-1.6907955491579967
1784201813651867392,0.8519914150238037,1.5063034296035767,2.7860960960388184,-2.0743980407714844,0.17150896787643433,0.05484585836529732,-0.9836547374725342,-0.17945879697799683,0.10027499496936798,-0.09050297737121582,0.6499120464934951,0.04727537045461719,0.07705634506454924,-0.7546135364256699,-0.05487339054926575,0.17262355715276959,-1.7148633817279808
1784201813661787392,0.8619115352630615,1.0850201845169067,2.7274675369262695,-1.9076594114303589,0.19769886136054993,0.045392803847789764,-0.9792112112045288,-0.12341909110546112,-0.05149632319808006,-0.016027987003326416,0.6410204003300561,0.06128513250741636,0.08147707426205059,-0.7607222254120334,-0.045408405322922896,0.1992179960092597,-1.736633964823651
1784201813671706368,0.8718304634094238,0.3237660527229309,2.437343120574951,-1.9410977363586426,0.2218986302614212,0.04254070296883583,-0.9741412997245789,-0.06833420693874359,-0.18460002541542053,-0.07123827934265137,0.6324850471428629,0.07249134606331582,0.08760337208914401,-0.7661810528741847,-0.04255354438689437,0.22396742591370075,-1.7566077248681373
1784201813681626624,0.8817505836486816,-0.3857102394104004,2.324730396270752,-2.21309232711792,0.24375799298286438,0.047695085406303406,-0.9686626195907593,-0.05462530255317688,-0.3686789870262146,0.024341940879821777,0.6235554528705066,0.08044333121856188,0.09590398413478024,-0.7716928604428437,-0.04771318553239464,0.24652522549446673,-1.7764370155489064
1784201813691545600,0.891669511795044,-1.2213146686553955,2.318100690841675,-2.5225636959075928,0.26470687985420227,0.061394717544317245,-0.9623725414276123,-0.04842880368232727,-0.34658148884773254,0.1974952220916748,0.6135749550482448,0.08569951175878925,0.1070948645665908,-0.7776323691426337,-0.06143335323218006,0.2684187880612645,-1.7972637710804888
1784201813701465344,0.9015893936157227,-1.939612865447998,2.3093249797821045,-2.5813663005828857,0.2848295271396637,0.08378912508487701,-0.9549091458320618,-0.030572354793548584,-0.12356879562139511,0.11515700817108154,0.6030020284224614,0.08830774635676844,0.12143787539573744,-0.7834813775458882,-0.08388748039544476,0.2898773100146866,-1.8174303174663085
1784201813711385600,0.9115095138549805,-1.6748970746994019,2.2700417041778564,-2.4797563552856445,0.3040897250175476,0.10855288058519363,-0.9464384317398071,-0.03162878751754761,-0.015428505837917328,0.1135527491569519,0.5925509112827616,0.09017651643393827,0.13656126675499597,-0.7887347515413661,-0.10876721104545103,0.31088082723103827,-1.8359079672674812
1784201813721304320,0.9214284420013428,-1.556710958480835,2.1903655529022217,-2.794100761413574,0.32181718945503235,0.13160978257656097,-0.9376100301742554,-0.02286699414253235,-0.014788493514060974,0.05659806728363037,0.581392916814867,0.09242160553052162,0.1505098997141127,-0.7942212364096785,-0.1319927144606103,0.33063218606774014,-1.855739974327779
1784201813731225600,0.931349515914917,-1.8546723127365112,2.027836322784424,-3.074141263961792,0.3371722996234894,0.1568700224161148,-0.9282815456390381,0.09709283709526062,-0.1584111750125885,0.11604094505310059,0.568825494457414,0.09367305420502134,0.16457395999224878,-0.8003613333545719,-0.1575206377281073,0.3484050140629245,-1.878058735164783
1784201813741144576,0.9412686824798584,-2.2610318660736084,1.9889144897460938,-3.0271565914154053,0.350159227848053,0.18630057573318481,-0.9179763793945312,0.19833320379257202,-0.3728697896003723,0.07463836669921875,0.5558940479252688,0.09319067076627455,0.17979797443322537,-0.8062072306036938,-0.18739544746649056,0.3644107237262348,-1.8996552803660085
1784201813751064576,0.9511885643005371,-2.5496559143066406,2.1906633377075195,-3.053649425506592,0.36295825242996216,0.2188006192445755,-0.9057524800300598,0.21957650780677795,-0.5206042528152466,0.04505002498626709,0.5428981656531887,0.09217668422865505,0.19653806919816466,-0.8112568850044043,-0.22058513560901677,0.3811317786428927,-1.919355898916033
1784201813760984576,0.9611086845397949,-3.0395827293395996,2.453376531600952,-3.186237335205078,0.37617814540863037,0.25504162907600403,-0.8907546401023865,0.25005781650543213,-0.48302316665649414,0.16785424947738647,0.5292006287777412,0.09090050077082872,0.21531323197674893,-0.8156740253356399,-0.2578907432422538,0.39959338589276966,-1.9380436364136577
1784201813770903552,0.9710276126861572,-3.4501333236694336,2.718782424926758,-3.0401172637939453,0.39033252000808716,0.29558077454566956,-0.8719360828399658,0.45958200097084045,-0.6251553297042847,0.19780278205871582,0.5149813739457438,0.08946034608041477,0.23670404672911924,-0.8190007527591384,-0.30006338600201815,0.4209078303789521,-1.9543876918749383
1784201813780823552,0.9809474945068359,-3.663510322570801,2.6850013732910156,-2.5040183067321777,0.4048682451248169,0.33702772855758667,-0.8499964475631714,0.6876610517501831,-0.9551918506622314,0.10284990072250366,0.501886785866804,0.08811741741221375,0.2593011597710342,-0.8204314696267407,-0.3437581352899357,0.4445228140504692,-1.9651636355656978
1784201813790742528,0.9908666610717773,-3.4694721698760986,2.5406134128570557,-2.291231155395508,0.41812410950660706,0.3766935467720032,-0.8266040086746216,0.5096102952957153,-0.9796140789985657,-0.014780879020690918,0.49035339571688247,0.08664436239346075,0.2814085326228911,-0.8202776295681445,-0.3862242991376421,0.46830364310475237,-1.970787384634072
1784201813800662528,1.000786542892456,-2.9613165855407715,2.3834128379821777,-2.590688943862915,0.4283149838447571,0.4127639830112457,-0.8038483262062073,-0.05751118063926697,-0.3116897940635681,-0.33541858196258545,0.47841693371641225,0.08532450699024807,0.30132303069419697,-0.8203909440077893,-0.42548654382744533,0.48956584720457835,-1.9778947816270644
1784201813810581760,1.0107057094573975,-1.2919081449508667,2.6118595600128174,-2.6086511611938477,0.4375718832015991,0.4420168101787567,-0.7830401659011841,-0.4567979872226715,0.5835721492767334,-0.39130669832229614,0.46468920828099,0.08651349733906796,0.3177976086394647,-0.8219391327519974,-0.45784580270063363,0.5095831305191615,-1.991252048627644
1784201813820501504,1.0206255912780762,0.7349992990493774,2.87322998046875,-3.0515670776367188,0.44706541299819946,0.45620882511138916,-0.7694193124771118,-0.41586118936538696,0.9169143438339233,-1.0168355703353882,0.44907000168664557,0.09303311339625983,0.3265504520097575,-0.8264658595245714,-0.47373018239872805,0.526363622162008,-2.016231119285987
1784201813830421760,1.030545711517334,2.957157850265503,1.9323318004608154,-3.487945079803467,0.45016202330589294,0.4572688043117523,-0.7669807076454163,0.44659700989723206,0.2902287542819977,-1.6772027015686035,0.43038500327577184,0.1015077892252163,0.32589233499300885,-0.8356190282941901,-0.4749216977931279,0.53075187036258,-2.0589938059275377
1784201813840340736,1.0404646396636963,5.4327850341796875,0.931911051273346,-2.9116737842559814,0.4466525614261627,0.4393731653690338,-0.7793925404548645,1.0445430278778076,-0.10758605599403381,-2.0291860103607178,0.4125396107396609,0.11105405388599843,0.31300274551806906,-0.8482378775851854,-0.45490076949929376,0.5203884953191645,-2.1131733248319606
1784201813850260480,1.050384521484375,6.749198913574219,0.06000729650259018,-2.664212942123413,0.4389110505580902,0.4027082920074463,-0.8032329678535461,0.9924548864364624,0.1745774745941162,-2.193974733352661,0.3965377485336103,0.12144344338314647,0.28919719777289965,-0.862771329871309,-0.41447373688322364,0.5000986544510994,-2.172667129196488
1784201813860179712,1.0603036880493164,4.454480171203613,-0.33998724818229675,-2.823014259338379,0.427311509847641,0.3662382662296295,-0.8266041278839111,0.8187822699546814,0.1579926609992981,-0.8282725811004639,0.38138043008900274,0.12852516793624943,0.26491360247506324,-0.8762710562946521,-0.37496319003585815,0.47711403758625565,-2.228378889653994
1784201813870099456,1.0702235698699951,-0.8261164426803589,-0.681678831577301,-3.0608108043670654,0.41234254837036133,0.36420539021492004,-0.8350617289543152,0.7513079643249512,-0.7255945205688477,0.13402718305587769,0.368005697312694,0.1256807592558895,0.25821210048330406,-0.8843657318036099,-0.37277945691796943,0.45866481116082664,-2.2649491623965483
1784201813880019712,1.080143690109253,-3.7417407035827637,-0.31300923228263855,-2.9893975257873535,0.3965057134628296,0.3967389166355133,-0.8278777003288269,0.9352203607559204,-1.6371105909347534,-0.39758622646331787,0.35684084506307484,0.11493708044726106,0.26990855375386097,-0.8869066904126772,-0.4079614609348113,0.4466600636602436,-2.2826498311679067
1784201813889938688,1.0900626182556152,-4.169442176818848,-0.43617698550224304,-2.8358094692230225,0.38206052780151367,0.4413525462150574,-0.8119345307350159,0.9900860786437988,-0.7535931468009949,-0.9524545073509216,0.3465831590792899,0.10250027131113543,0.2890093958601563,-0.8864803301441836,-0.4571054183491697,0.4398160546908909,-2.292308134937369
1784201813899858432,1.099982500076294,-2.5779268741607666,-1.173514723777771,-2.075406074523926,0.3643224239349365,0.4785430431365967,-0.7989153265953064,1.215282678604126,0.15741273760795593,-1.2870678901672363,0.33846573427747434,0.08938676287051887,0.3042241550775278,-0.8859450070107552,-0.49899466242163965,0.42784994979186636,-2.301137017747955
1784201813909777664,1.1099016666412354,-0.6335907578468323,-1.6965773105621338,-1.2761341333389282,0.3447188436985016,0.4967007637023926,-0.7965282797813416,1.2861862182617188,0.31666895747184753,-1.0366778373718262,0.3339792226713736,0.07785502982522266,0.3093128915763643,-0.8869735103152228,-0.519793310098041,0.40843908375272275,-2.3113231987495686
1784201813919697408,1.119821548461914,0.7045820951461792,-2.044346570968628,-0.33808526396751404,0.3255799412727356,0.49874013662338257,-0.8032782673835754,1.0319640636444092,0.07975107431411743,-0.5330407023429871,0.33319898185606717,0.06838387363928626,0.30607925482347115,-0.8891667774359743,-0.5221446188995716,0.3850790007780382,-2.3204437814245775
1784201813929617664,1.1297416687011719,1.395806074142456,-2.0107290744781494,0.8975551128387451,0.31073737144470215,0.4895937144756317,-0.814702570438385,0.8035814762115479,-0.3878938853740692,-0.415522038936615,0.3371735936759302,0.06158105908461693,0.2980880512273599,-0.890878926720671,-0.5116237393390622,0.3643803045512565,-2.321673782450514
1784201813939536640,1.1396605968475342,2.467048406600952,-2.1558923721313477,1.3232380151748657,0.29988187551498413,0.470209002494812,-0.8300447463989258,0.6748952865600586,-0.7144259214401245,-0.41443151235580444,0.3448099486927362,0.057616045885670375,0.28575864692786074,-0.8922602787285012,-0.4895275848519693,0.3466917697823797,-2.3166423599745984
1784201813949456640,1.149580717086792,2.5861973762512207,-3.0821096897125244,0.9672754406929016,0.28351253271102905,0.44519707560539246,-0.8493645787239075,0.979213297367096,-0.5318059921264648,-0.6141515970230103,0.35267267691630094,0.052245340320712826,0.26942184147162435,-0.8945972593767776,-0.4613943367581791,0.3221647964242485,-2.314262397991056
1784201813959375616,1.1594996452331543,2.5463473796844482,-4.117362022399902,1.551079511642456,0.2578636705875397,0.4203558564186096,-0.8699467182159424,1.5236914157867432,-0.3759985566139221,-0.9288814067840576,0.3619902786004255,0.04226981012305805,0.25147543812437506,-0.8966250951385214,-0.43383747371409637,0.28816288871131873,-2.3102367882089325
1784201813969295616,1.169419527053833,2.384565830230713,-5.149034023284912,2.5010077953338623,0.225604847073555,0.393753319978714,-0.8911008834838867,1.6869012117385864,-0.4743044674396515,-1.0479707717895508,0.3762013499502959,0.02864116018550748,0.23157987753772136,-0.8966733232166799,-0.4047112036349935,0.24796506613464722,-2.295973441273952
1784201813979215616,1.1793396472930908,2.3596725463867188,-5.789851665496826,2.992405414581299,0.18674199283123016,0.3671749234199524,-0.9112135171890259,1.459910273551941,-0.5988948941230774,-1.1407731771469116,0.39429607636686026,0.01165009722111853,0.21037474069671455,-0.8945039868454475,-0.3759699616165433,0.20213879834108478,-2.2726614773141143
1784201813989134592,1.1892585754394531,2.793260097503662,-6.043630123138428,3.3951849937438965,0.14376568794250488,0.33859437704086304,-0.9298845529556274,1.3671901226043701,-0.690858781337738,-1.2463239431381226,0.41421851844785235,-0.0063208099662377774,0.1871303568749051,-0.8907106153408406,-0.3454226405963064,0.1533914810167649,-2.2441970658296224
1784201813999054592,1.199178695678711,3.505931854248047,-6.1568732261657715,3.8746113777160645,0.09861286729574203,0.3051246404647827,-0.9471929669380188,1.4089401960372925,-0.7245887517929077,-1.0628015995025635,0.4357291253381474,-0.023444408690038034,0.16079143981926167,-0.8852890628590488,-0.31006929695961133,0.10373692108439996,-2.2106077792338397
1784201814008974592,1.2090985774993896,3.6047420501708984,-6.159681797027588,4.179507732391357,0.051590126007795334,0.2678108811378479,-0.9620893001556396,1.4891356229782104,-0.7824440598487854,-0.9991228580474854,0.45844353361062773,-0.03948868363080032,0.13189390059585157,-0.8779943897224454,-0.2711201871078206,0.05357170518641052,-2.1718657691279266
1784201814018893568,1.219017505645752,3.4151527881622314,-6.171288967132568,4.457509994506836,0.0031036916188895702,0.23299822211265564,-0.9724721908569336,1.6134123802185059,-1.133907675743103,-0.9194039702415466,0.481545160395414,-0.05551586489372966,0.10335319886164804,-0.8685334718931426,-0.23515962218200553,0.003191537108958662,-2.128732375328802
1784201814028813568,1.2289376258850098,2.678873062133789,-6.061303615570068,4.735814571380615,-0.04632789269089699,0.20410221815109253,-0.9778527617454529,1.778047800064087,-1.5206305980682373,-0.7065039277076721,0.5049349808047139,-0.07217338191019008,0.0765808393519828,-0.8567187721370194,-0.2055465300621203,-0.04734176676763029,-2.0813244911755873
1784201814038732544,1.238856554031372,1.6811467409133911,-5.869805812835693,5.035176753997803,-0.09478685259819031,0.186283141374588,-0.9779130816459656,1.9864799976348877,-1.7310981750488281,-0.46633124351501465,0.5283108214258015,-0.0901331029385671,0.05403211540081964,-0.8425226286512884,-0.18737770836451667,-0.09662584161641825,-2.030522971919102
1784201814048652544,1.2487766742706299,0.5579681396484375,-5.8786797523498535,5.257846832275391,-0.14206252992153168,0.18162508308887482,-0.9730522036552429,2.207354784011841,-1.689178228378296,-0.10617142915725708,0.5514722131600429,-0.11024333834101786,0.03633604330756121,-0.8260778609741447,-0.18263876297536463,-0.14497257604491992,-1.977623737016044
1784201814058572544,1.2586965560913086,-0.034720197319984436,-6.183468341827393,5.558936595916748,-0.19021297991275787,0.18841560184955597,-0.9634929299354553,2.361828565597534,-1.459152340888977,0.24222522974014282,0.5743344132551343,-0.13332899569751278,0.021838593377279544,-0.8073948736804587,-0.18954859864714574,-0.19491377769776974,-1.9235833892305683
1784201814068491520,1.268615484237671,0.17024466395378113,-6.373205661773682,6.021359443664551,-0.23870059847831726,0.20053738355636597,-0.9501614570617676,2.376411199569702,-1.2312991619110107,0.6500363349914551,0.5976610007845256,-0.1576716198412632,0.00767696370841525,-0.7860547438821361,-0.20190641646763957,-0.2461276045537645,-1.8664909227804967
1784201814078411520,1.2785356044769287,0.6158800721168518,-6.288946628570557,6.496052265167236,-0.28530076146125793,0.2130889594554901,-0.9344498515129089,2.322791576385498,-1.1591339111328125,0.8074814677238464,0.6220472631889163,-0.18086942120166305,-0.007830322457590477,-0.7617625286821594,-0.21473545276527653,-0.2963249896184211,-1.8042143527497267
1784201814088330496,1.288454532623291,0.8817386627197266,-5.949920654296875,6.938786506652832,-0.32690930366516113,0.22635214030742645,-0.9175483584403992,2.2914326190948486,-1.3570894002914429,0.9241554141044617,0.6472298715441227,-0.20166413352819082,-0.023609148326890338,-0.7347568650227708,-0.22833097669736663,-0.3422634839832221,-1.7369234975075527
1784201814098250752,1.2983746528625488,0.43138962984085083,-5.534707069396973,7.358405113220215,-0.3620441257953644,0.24448378384113312,-0.8995286226272583,2.351851224899292,-1.7387617826461792,1.0116654634475708,0.6726572695161237,-0.22098357225696594,-0.03744270133913009,-0.705192497209588,-0.24698728976027343,-0.3826442480216003,-1.6660882927096308
1784201814108170496,1.3082945346832275,-0.6107814311981201,-5.111045837402344,7.544158458709717,-0.3898933231830597,0.27294614911079407,-0.879479169845581,2.448227643966675,-2.056805372238159,1.104607343673706,0.6970023595534817,-0.24098769320840155,-0.04674780846492579,-0.6737411552175725,-0.2764541257358048,-0.4172874615658801,-1.5957507849174046
1784201814118089728,1.318213701248169,-1.5745686292648315,-4.897137641906738,7.5965800285339355,-0.4108581244945526,0.31266066431999207,-0.8564105033874512,2.6033477783203125,-2.0697407722473145,1.2623095512390137,0.7190788849105916,-0.2630171493023168,-0.05115409681837593,-0.6411948370617981,-0.31799285097867486,-0.4473122253314476,-1.52932346939594
1784201814128009472,1.3281335830688477,-2.2145018577575684,-4.861541748046875,7.701530933380127,-0.4261900782585144,0.3603573143482208,-0.829761803150177,2.7356841564178467,-1.7668819427490234,1.5435526371002197,0.7388754894772898,-0.2869937728880905,-0.05247548603773424,-0.6074075873703374,-0.36865091249654336,-0.4744916192187533,-1.4662107330458634
1784201814137928448,1.33805251121521,-2.5795462131500244,-4.807962417602539,8.0056791305542,-0.43515893816947937,0.4134695529937744,-0.7997997999191284,2.7706692218780518,-1.5300467014312744,1.7968090772628784,0.7569437713684218,-0.3121401284353813,-0.051659004207285725,-0.5717832801369428,-0.42626129523502343,-0.49829048422617345,-1.4038919692714922
1784201814147848704,1.3479726314544678,-2.6140835285186768,-4.707584857940674,8.43907356262207,-0.4362427890300751,0.4692615866661072,-0.7677798271179199,2.7416627407073975,-1.558525562286377,1.826037883758545,0.7741014805249485,-0.33714928033238334,-0.04940087184375764,-0.5335325051082579,-0.4884543766652578,-0.516699308232276,-1.338435625894564
1784201814157768448,1.3578925132751465,-2.614353656768799,-4.529706001281738,8.787817001342773,-0.4280611574649811,0.5257769227027893,-0.7350661754608154,2.6411654949188232,-1.650212287902832,1.8619887828826904,0.7904147552485722,-0.3610802299552079,-0.0456942622679092,-0.49272471606725776,-0.5536281847543651,-0.5273357235982583,-1.2679515951587657
1784201814167687680,1.367811679840088,-2.2848708629608154,-4.26592493057251,9.112496376037598,-0.4104121923446655,0.5806602239608765,-0.703132688999176,2.59507417678833,-1.726061224937439,1.7837600708007812,0.8058381615271101,-0.383095670640662,-0.040882300402522206,-0.4496568140974628,-0.6195393821073291,-0.5283412357478752,-1.1906515216981943
1784201814177607424,1.3777315616607666,-2.1013619899749756,-3.8179378509521484,9.313963890075684,-0.3825555145740509,0.6317217350006104,-0.6742246747016907,2.6168999671936035,-1.8122637271881104,1.6746366024017334,0.820411960871313,-0.4021040492393072,-0.03464099422339808,-0.4050142361300473,-0.6837722622021047,-0.5161043955482968,-1.1044444209905837
1784201814187526400,1.387650489807129,-2.4080796241760254,-3.503973960876465,9.50711727142334,-0.34520021080970764,0.6803498864173889,-0.6464989185333252,2.701767683029175,-2.0047059059143066,1.7667229175567627,0.8331500409956041,-0.4195998410551514,-0.026201438866311908,-0.35931942411357953,-0.7482399251560446,-0.490439846831383,-1.0102303944726503
1784201814197446656,1.3975706100463867,-2.9818389415740967,-3.3472421169281006,9.675670623779297,-0.29963719844818115,0.7278686165809631,-0.6167858242988586,2.774475574493408,-2.154824733734131,1.916056513786316,0.8430716208005922,-0.4374519720998473,-0.015583556081741043,-0.31244697604296884,-0.815208543739904,-0.452226667295161,-0.9078375961799036
1784201814207366400,1.4074904918670654,-3.6220784187316895,-3.2456910610198975,9.897629737854004,-0.24630150198936462,0.7741119265556335,-0.5831692218780518,2.8187501430511475,-2.0759613513946533,2.0849850177764893,0.8495648037821927,-0.4565157216109891,-0.002965910792111161,-0.2642428610176876,-0.8853110547610841,-0.39962392914129646,-0.7945046602588091
1784201814217285632,1.4174096584320068,-3.886566162109375,-3.1877686977386475,10.130205154418945,-0.1852961927652359,0.8167910575866699,-0.5463676452636719,2.7903072834014893,-1.9039950370788574,2.1282615661621094,0.8527627237532962,-0.47612338139378463,0.011077163113007235,-0.2144282251182576,-0.9558268479679978,-0.326969186676513,-0.6631566449361059
1784201814227205632,1.4273295402526855,-4.021796226501465,-2.940513849258423,10.31413459777832,-0.1165698766708374,0.8528001308441162,-0.509061336517334,2.658104181289673,-1.8179032802581787,2.1639227867126465,0.8531359549161449,-0.49474360392953864,0.0264217429209121,-0.16337003071882372,-1.0213238936410984,-0.22510878513691415,-0.5048848038548084
1784201814237125632,1.4372496604919434,-4.42161226272583,-2.7379701137542725,10.317549705505371,-0.04148327186703682,0.8813437223434448,-0.47065114974975586,2.4951727390289307,-1.8682669401168823,2.107064723968506,0.8501809916876203,-0.5126592173176818,0.043069153630895037,-0.11188370367662355,-1.0786986908704719,-0.08791298363604638,-0.31433764071408166
1784201814247044608,1.4471685886383057,-5.311652660369873,-2.2892251014709473,10.04304027557373,0.03757808357477188,0.9031099677085876,-0.4277620315551758,2.359714984893799,-1.9432862997055054,2.0623903274536133,0.8426889255236261,-0.531417346029922,0.060947441547327036,-0.061290231856287174,-1.1269577267606574,0.08762316224304792,-0.08982567783183669
1784201814256964608,1.4570887088775635,-6.319127082824707,-1.9649206399917603,9.605855941772461,0.11804584413766861,0.9187670946121216,-0.3767389953136444,2.3002891540527344,-1.9027148485183716,2.1746363639831543,0.8295824776912194,-0.5525292009756521,0.07963661534392867,-0.012745423092469106,-1.1649461813101045,0.3036462093481462,0.17016229920604364
1784201814266883584,1.4670076370239258,-7.396909236907959,-0.8405881524085999,10.34730339050293,0.20114190876483917,0.927129864692688,-0.31618353724479675,2.416076183319092,-1.662344217300415,2.3776307106018066,0.8105097838418693,-0.5761468869892774,0.09981480475396581,0.034140741211944714,-1.1866798199166622,0.5665811000040127,0.47192895472413643
1784201814276803584,1.4769275188446045,-6.856586933135986,-3.0784389972686768,8.088558197021484,0.284951776266098,0.9237224459648132,-0.25600665807724,2.406118869781494,-0.7662059664726257,2.4604897499084473,0.788054809427078,-0.5985148027147014,0.11737418300911286,0.08350436840312433,-1.1776869028304322,0.8388542839254436,0.790009881085695
1784201814286723584,1.4868476390838623,-3.9352777004241943,1.6105260848999023,9.707000732421875,0.3546290695667267,0.9117439389228821,-0.20727097988128662,1.2055211067199707,-1.1176612377166748,1.8211473226547241,0.7676120400017847,-0.6149670146171837,0.13483352790182118,0.1200303387309518,-1.1475099104685085,1.0418722713320192,1.0204592112319166
1784201814296642560,1.4967665672302246,-1.4789031744003296,-10.590529441833496,10.963589668273926,0.4763582646846771,0.850250244140625,-0.22395837306976318,7.676534652709961,6.509368896484375,2.4278311729431152,0.7593718111238823,-0.6006726287675958,0.16496426940433997,0.1879724597340654,-1.0164605201663766,1.1313151100911347,1.1651463516149387
1784201814306562560,1.5066866874694824,-0.8358415961265564,-2.125972032546997,2.9428110122680664,0.507198691368103,0.826393187046051,-0.24458932876586914,0.7034184336662292,2.7387619018554688,2.5890870094299316,0.7541200204349287,-0.5950734441628559,0.15359991504909654,0.231511880885551,-0.9726718899850888,1.121460868844224,1.2368268867607606
1784201814316482560,1.5166065692901611,-2.900963544845581,-2.753885507583618,4.263247013092041,0.5317162275314331,0.8107007741928101,-0.24503476917743683,0.3502569794654846,1.933607578277588,0.7222991585731506,0.747269002663488,-0.5947128020012483,0.15427020334827152,0.2531924416001912,-0.9453481071176248,1.1389665937767226,1.2861275287647582
1784201814326401536,1.5265254974365234,-2.39719820022583,0.7166486382484436,3.881242036819458,0.5670065879821777,0.791631281375885,-0.22764797508716583,-1.1004691123962402,2.3276619911193848,1.3158743381500244,0.7328485604693756,-0.6005266199494131,0.15982424642954818,0.27705070864352777,-0.9134742822199183,1.1890053640090998,1.3643886063344588
1784201814336321536,1.5364456176757812,-5.916170120239258,5.43149995803833,0.06892544776201248,0.5905749797821045,0.7862379550933838,-0.1817989945411682,-0.22561532258987427,0.7692276239395142,1.774877667427063,0.7162276403915289,-0.6159902947641582,0.17221051656436287,0.27913681537487883,-0.9046970003009884,1.2721680796927066,1.4323484381920712
1784201814346240512,1.5463645458221436,-10.578533172607422,9.053116798400879,-0.8456131219863892,0.5956660509109497,0.799868643283844,-0.07343073189258575,1.3935307264328003,0.14944159984588623,1.7899224758148193,0.6842609241390041,-0.6551165632975928,0.18468059585759647,0.2617294473481131,-0.9270762990537016,1.4481401477166047,1.5630652222026122
1784201814356160768,1.5562846660614014,-8.420916557312012,4.1768293380737305,0.7296651601791382,0.5991727709770203,0.7988227009773254,0.053613174706697464,3.861398696899414,0.47784966230392456,0.22470712661743164,0.6419634095175956,-0.6983321251612332,0.19783536091159365,0.24713643457852053,-0.9253355978703974,1.660037324974923,1.733571638403803
1784201814366080512,1.56620454788208,-5.906384468078613,-3.836353302001953,-2.107541799545288,0.595389723777771,0.7962561845779419,0.10717884451150894,4.5274128913879395,2.460930824279785,0.620451807975769,0.6189171334972814,-0.7198253512958452,0.18825749452447765,0.2516986497313603,-0.9210812067815056,1.7489034063328215,1.8436097880769116
1784201814375999744,1.5761237144470215,-1.38370943069458,-3.4787378311157227,0.14617550373077393,0.5889250636100769,0.7998558282852173,0.11575090140104294,4.03999662399292,3.1429543495178223,-0.07000504434108734,0.6101746172298673,-0.7279132534820945,0.16738502278613898,0.26421890863390396,-0.9270549324166399,1.7648685915973168,1.9093514318852698
1784201814385919488,1.5860435962677002,1.1622110605239868,-1.7701658010482788,-0.37997138500213623,0.5952271819114685,0.7974784970283508,0.09865548461675644,2.121554374694824,2.3420021533966064,0.22733332216739655,0.6121653790770692,-0.7235872230050917,0.16046580020419665,0.27554656163407526,-0.9231044048608877,1.735047393282964,1.906931448435775
1784201814395839744,1.595963716506958,2.0420515537261963,-4.758133411407471,1.2385655641555786,0.6020734310150146,0.795537531375885,0.06802669167518616,-1.5431592464447021,1.7074074745178223,0.28680121898651123,0.6195304193945521,-0.7140167605531543,0.15554231247749176,0.28665086958930613,-0.9198942134842866,1.683306535787311,1.8793079395168495
1784201814405758720,1.6058826446533203,3.797027826309204,-3.509856939315796,-0.9505435228347778,0.6053754091262817,0.7957456111907959,0.017584998160600662,-3.243269205093384,1.562957763671875,0.29616618156433105,0.6330065892273706,-0.6981152544637289,0.14638166025451121,0.30084883276994334,-0.9202377131571668,1.5998362474131067,1.8308885409773235
1784201814415678464,1.615802526473999,1.344438076019287,0.7393472790718079,-3.3527724742889404,0.5856396555900574,0.8104664087295532,-0.013055621646344662,-1.916648507118225,1.3777660131454468,1.6524293422698975,0.6471990264841706,-0.688932689173445,0.1372732269723191,0.2960764058966161,-0.9449478806634641,1.548507090945333,1.7851030776521837
1784201814425597696,1.6257216930389404,1.7233531475067139,3.5855202674865723,-3.198626756668091,0.55865877866745,0.8293582201004028,-0.008091983385384083,0.0608939528465271,0.39595311880111694,0.9682970643043518,0.6544225606896669,-0.690945174800418,0.13619388244213476,0.275276580919023,-0.9779580873842202,1.5563126768406854,1.7623386983511327
1784201814435517440,1.6356415748596191,1.7378596067428589,1.6775610446929932,-1.859691858291626,0.5383731126785278,0.8426645994186401,-0.008425873704254627,0.8638333678245544,0.5807669162750244,0.39097899198532104,0.6623030274980931,-0.6901410092801884,0.13961536693939328,0.25606199250374306,-1.0022129429270754,1.555146984323931,1.7269250990682568
1784201814445437696,1.645561695098877,-0.37741172313690186,-0.016555575653910637,-1.0222398042678833,0.5272493958473206,0.84963458776474,-0.011358186602592468,0.8865383863449097,1.3392233848571777,0.5187587141990662,0.6659860839302033,-0.6894478601051642,0.13777719231406169,0.2492821035374998,-1.0152920069034432,1.5492573166244572,1.713417865699884
1784201814455356672,1.6554806232452393,-0.3823125660419464,0.4466765224933624,-2.016456365585327,0.5139576196670532,0.8577975034713745,-0.005547414533793926,0.2763866186141968,1.0780391693115234,0.2804344892501831,0.6660240052253757,-0.6925083568089243,0.1328851705699924,0.2432809403957949,-1.0309691445555962,1.5600032204723853,1.7221690084721588
1784201814465276416,1.665400505065918,-0.5599289536476135,-0.2928318977355957,-1.86514413356781,0.4969896376132965,0.8677558302879333,-0.0009370245970785618,0.4599042534828186,0.9670981168746948,0.2660432457923889,0.6667853029669265,-0.695423533829505,0.12616495674248457,0.23635937958387038,-1.050668869414223,1.5689109283685263,1.730347261486883
1784201814475196672,1.6753206253051758,-0.9434046745300293,0.7168152928352356,-2.3447272777557373,0.4794650077819824,0.8775397539138794,0.0061074839904904366,-0.03624296188354492,1.1692742109298706,0.2901114225387573,0.6665868632639085,-0.6991992077467507,0.11905549122036634,0.2293647835173014,-1.07070701375168,1.5835337609582383,1.7447162092447657
1784201814485115648,1.685239553451538,-0.07802459597587585,0.0995299443602562,-1.9330737590789795,0.45976224541664124,0.8879262804985046,0.014337409287691116,-0.14825406670570374,0.7310312390327454,0.09912693500518799,0.6662102866238578,-0.7033982141214657,0.11135374616630987,0.22134846921119566,-1.0928171588598956,1.6019706211901388,1.7622487594770273
1784201814495035648,1.695159673690796,1.4393223524093628,0.39312636852264404,-1.2057373523712158,0.44557493925094604,0.8952156901359558,0.007206113543361425,-0.10710448026657104,0.4442923665046692,-0.19998562335968018,0.6708807881313058,-0.7015310696718132,0.1070383814396308,0.21521139019628016,-1.1089149445338133,1.5869675357365465,1.74428157988887
1784201814504954624,1.7050786018371582,1.679689645767212,0.4189084470272064,-1.3703618049621582,0.43498513102531433,0.9004281163215637,-0.004123695194721222,-0.3470640182495117,0.7465444207191467,0.051197052001953125,0.6770211312692813,-0.6976679829044238,0.10581842012768883,0.2090553970041495,-1.1207526656755524,1.5613165276097236,1.711231957090598
1784201814514874368,1.714998483657837,1.8305495977401733,-0.006170503795146942,-1.6556847095489502,0.42117682099342346,0.9067622423171997,-0.019812090322375298,-0.29111090302467346,0.7578191161155701,0.02992868423461914,0.6847083644743375,-0.6925130034145712,0.10256556309491992,0.20268342074044665,-1.1355405213020162,1.5237911338647863,1.668926918591635
1784201814524794624,1.7249186038970947,1.973567008972168,1.0209726095199585,-1.6601669788360596,0.40746450424194336,0.9125115871429443,-0.03598777949810028,-0.19393301010131836,0.5690556764602661,0.19596093893051147,0.6927702481700769,-0.6869351931491723,0.10062877682428016,0.19509791878526708,-1.1493826793230617,1.482703648564095,1.6194312749789572
1784201814534713600,1.734837532043457,2.259085178375244,1.0704859495162964,-1.7875412702560425,0.39170947670936584,0.9187728762626648,-0.049193039536476135,-0.543030858039856,0.28264302015304565,0.12832510471343994,0.700507551901948,-0.682156166287344,0.10033167528605652,0.18408048511910713,-1.16496085584151,1.4458648563999696,1.566858288829657
1784201814544633600,1.7447576522827148,2.27732515335083,-0.49745115637779236,-1.17460036277771,0.3785047233104706,0.9230650067329407,-0.06844660639762878,-0.18770888447761536,0.16651922464370728,0.05895561724901199,0.7092349819052204,-0.6753140364635948,0.09862884976409368,0.17666052262772006,-1.1759742825304618,1.3918954716045793,1.5044941710556163
1784201814554553600,1.7546775341033936,2.797262191772461,-0.7007308006286621,-0.9102336168289185,0.3683147728443146,0.9249470233917236,-0.09389950335025787,-0.28312498331069946,0.2512308955192566,0.11773372441530228,0.7188884281629613,-0.6663190954626407,0.09523187984774022,0.17363496335991455,-1.1808961488763592,1.3211702796067784,1.4342501118838118
1784201814564472576,1.764596700668335,2.767874002456665,-0.440830260515213,-0.7356162667274475,0.36079728603363037,0.9246967434883118,-0.12149616330862045,-0.27727067470550537,0.685929536819458,0.15888017416000366,0.7288223946190632,-0.6562464959321176,0.09269550437020091,0.1719477158412232,-1.1802382060183483,1.2459797249992464,1.3602930154908415
1784201814574392576,1.7745165824890137,1.950790524482727,0.8033403754234314,-2.0518558025360107,0.3475770354270935,0.9268091917037964,-0.14217902719974518,-0.201046884059906,0.8995762467384338,0.3969244956970215,0.737586903034165,-0.6485614501289344,0.09098642104539033,0.16448421121455867,-1.1858250071518894,1.1825061163993005,1.2884529673641156
1784201814584311552,1.784435510635376,2.285583734512329,0.7306914925575256,-1.7748175859451294,0.3296104073524475,0.9306287169456482,-0.15901924669742584,0.6862434148788452,0.12044239044189453,0.0020520836114883423,0.745492955846727,-0.6424167818611067,0.0882669742393437,0.15410991366394786,-1.1961271423180224,1.1212902337038066,1.2160998724517775
1784201814594231552,1.7943556308746338,3.4979591369628906,0.7589544653892517,-1.0189976692199707,0.3182896077632904,0.9299575090408325,-0.18404030799865723,1.0501643419265747,0.04897010326385498,-0.3716084957122803,0.7555351152380244,-0.6325332236167491,0.08877818446179789,0.14555719698490086,-1.1942972790770818,1.046548091653658,1.1283126251333204
1784201814604151552,1.8042755126953125,5.033083915710449,1.0588994026184082,-0.89875727891922,0.31265032291412354,0.9240131974220276,-0.22011196613311768,1.109178900718689,0.29820048809051514,-0.4624441862106323,0.7690503078129483,-0.6173799192205334,0.09373392908071343,0.13644604317880657,-1.1784466468033932,0.9573776782415203,1.0189727056571756
1784201814614070528,1.814194679260254,6.152728080749512,-0.015936847776174545,-0.8242807388305664,0.30729323625564575,0.9129237532615662,-0.26859116554260254,1.072742223739624,0.23353010416030884,-0.23623061180114746,0.7859135807833049,-0.5968143261039308,0.09755552426448573,0.12897880658344715,-1.1503914628865075,0.8525018311445831,0.8979451605051538
1784201814623990528,1.8241145610809326,5.2874226570129395,-0.5489027500152588,-0.43890485167503357,0.3016432821750641,0.897616982460022,-0.3213953971862793,1.4451066255569458,-0.13898056745529175,0.2772364914417267,0.8032028752040574,-0.5740892223335443,0.09860968598426992,0.12475073162939662,-1.1143329486469686,0.7537058952432417,0.7916613928206588
1784201814633910528,1.8340346813201904,5.517262935638428,-0.9129562377929688,-0.38850611448287964,0.295138955116272,0.8808653950691223,-0.3700934052467346,1.0835689306259155,0.040872275829315186,0.08609682321548462,0.8184142487279492,-0.5527751304087825,0.09691727621994935,0.12346973784302247,-1.077687250619617,0.673197315431321,0.7119215678191471
1784201814643829504,1.8439536094665527,5.970783710479736,-0.8672603964805603,-0.3753162622451782,0.29065555334091187,0.8584364056587219,-0.4226183593273163,0.40320736169815063,0.5164415240287781,-0.017979204654693604,0.8347527523677692,-0.5283061993942184,0.09789473621625051,0.1204034241427669,-1.032213393967455,0.6024567250305216,0.6354804484644088
1784201814653749504,1.8538734912872314,5.717556953430176,-1.3491066694259644,-0.833382785320282,0.2804642617702484,0.8355957269668579,-0.47235530614852905,0.20175927877426147,0.5714476704597473,0.04637569189071655,0.8497101570469907,-0.5049055706224703,0.09430116674919546,0.11903902479912906,-0.9892163580643164,0.5358163828004058,0.5723361242252768
1784201814663669504,1.8637936115264893,6.5072431564331055,-0.5157268047332764,-0.3281553089618683,0.2722111642360687,0.805353581905365,-0.5265990495681763,0.1707667112350464,-0.26903772354125977,-0.026303112506866455,0.8658427808804412,-0.4775798860658512,0.09283274483822646,0.11668629251343594,-0.9362716822122072,0.4770941803482051,0.5126020479230318
1784201814673588480,1.8737125396728516,4.608724117279053,-0.8028165698051453,-0.4019666016101837,0.26777806878089905,0.774849534034729,-0.5726283192634583,-0.06024327874183655,-0.2241750955581665,0.15087538957595825,0.879280025052794,-0.4527787716015399,0.09315165704101695,0.11480802987545312,-0.8864770499892238,0.4374177622206036,0.4699305432178827
1784201814683508736,1.8836326599121094,4.1270246505737305,-0.09605063498020172,0.07834115624427795,0.26263612508773804,0.7509148120880127,-0.6059284806251526,-0.06668278574943542,-0.5855247974395752,0.1921406388282776,0.8888871883565099,-0.43416832397878036,0.09237762112748568,0.11333111774971709,-0.8494462183964687,0.4090010870642708,0.44067284798712714
1784201814693427456,1.8935515880584717,3.559516429901123,-1.0369062423706055,0.32179561257362366,0.2630271315574646,0.7248973250389099,-0.6366637349128723,-0.03829571604728699,-0.30317485332489014,-0.12934273481369019,0.8974021344255527,-0.4157944014483334,0.09371842331606807,0.11402378211516823,-0.8108853074068305,0.3917768457615398,0.4226994746577953
1784201814703347712,1.9034717082977295,2.2501578330993652,-0.07902374863624573,-1.870117425918579,0.2523767054080963,0.7103621363639832,-0.6570324897766113,0.2704504430294037,0.3407548666000366,0.27487611770629883,0.9034676864338486,-0.4041781598569012,0.09013189932685525,0.11073604096611232,-0.7900125627489959,0.36673872403216007,0.3982494558572325
1784201814713267456,1.9133915901184082,3.6163442134857178,-0.2678808569908142,-0.7497740387916565,0.24126969277858734,0.6935760974884033,-0.678779125213623,0.713365912437439,-0.02238774299621582,-0.24012035131454468,0.910449312759506,-0.3908526021475988,0.08857017216788965,0.10233062847660042,-0.7664414054864713,0.34151869926843736,0.36266666229650724
1784201814723186432,1.9233105182647705,2.590919256210327,-0.6281653046607971,-0.152438223361969,0.23716133832931519,0.6732617616653442,-0.7003377676010132,0.3951476216316223,-0.016691386699676514,0.12631738185882568,0.9166486296758427,-0.3768489528047037,0.08840798487213121,0.09961977357975746,-0.7386113473392214,0.3265175715185173,0.3438527515224126
1784201814733105664,1.933229684829712,1.6049137115478516,-1.6514613628387451,-0.18873803317546844,0.2276570349931717,0.6597113013267517,-0.7162075042724609,0.5154154896736145,-0.3547186851501465,-0.05256074666976929,0.9208922073460335,-0.36729725918945094,0.08360005242755834,0.10030534872461253,-0.7204345444461734,0.30776472384716363,0.3336993515599656
1784201814743025664,1.9431495666503906,1.7420358657836914,-1.2134730815887451,-0.3330712616443634,0.21436364948749542,0.6473560929298401,-0.7314221262931824,0.12447302043437958,-0.4337483048439026,-0.12297844886779785,0.924898299743008,-0.35835674728149935,0.07661181044688611,0.10136181403276746,-0.7041104325278575,0.28509418315163215,0.32366318900618596
1784201814752944640,1.953068733215332,1.2483329772949219,-0.10015037655830383,-0.9174895286560059,0.20484702289104462,0.639049768447876,-0.7413859367370605,-0.0048653483390808105,0.08816885948181152,0.07201337814331055,0.9279432612823396,-0.3520688109472159,0.07317497629867402,0.09805267250775715,-0.6932622100942835,0.2695770273089185,0.3084431700652217
1784201814762864640,1.9629886150360107,1.0402368307113647,-0.38016048073768616,0.18524959683418274,0.20073726773262024,0.6308942437171936,-0.749451220035553,0.11132021248340607,-0.18968629837036133,-0.17661994695663452,0.9302252900714018,-0.3465902652394624,0.07176060939578799,0.09698800995763358,-0.682705215793392,0.26170280649732053,0.30121379694473405
1784201814772784640,1.9729087352752686,0.8579487800598145,-0.683708131313324,-0.1860329955816269,0.19621530175209045,0.6233869791030884,-0.7568938732147217,-0.024737045168876648,-0.2807966470718384,-0.08929753303527832,0.9321465678186824,-0.3416613565665987,0.06943046930206002,0.09772330640423654,-0.67306690796747,0.2536537462455322,0.2980689052357559
1784201814782703616,1.9828276634216309,0.8958452939987183,-0.5664017796516418,0.005620316136628389,0.18998685479164124,0.6176502108573914,-0.763159990310669,0.14332614839076996,-0.06470221281051636,-0.08379435539245605,0.9337223898613071,-0.33772676115350386,0.06603517530141009,0.09870377602158051,-0.665751383515024,0.24398793748360945,0.2953646084692782
1784201814792623616,1.9927475452423096,1.2277216911315918,-0.4905828535556793,-0.3862532079219818,0.18467476963996887,0.6097829937934875,-0.7707527875900269,0.13238760828971863,-0.07574069499969482,-0.10124117136001587,0.9358826875972376,-0.33244911323150633,0.06404048032117123,0.097467569770447,-0.6557867676615894,0.23516967042346074,0.2878677897937881
1784201814802542592,2.002666711807251,1.754394292831421,-0.4964340925216675,0.29456767439842224,0.18089786171913147,0.5995512008666992,-0.7796244621276855,0.44486507773399353,-0.02112102508544922,-0.16255998611450195,0.9381603526999118,-0.3260584230255488,0.06223872819618617,0.09832293447255128,-0.6429402036251911,0.22799746937292478,0.28506735747204776
1784201814812462592,2.0125865936279297,2.0183331966400146,-0.7079471945762634,-0.1628953516483307,0.17601585388183594,0.5832525491714478,-0.7929911613464355,0.21099279820919037,-0.13980162143707275,-0.15459489822387695,0.941620907078562,-0.3160461844952276,0.06016014061282446,0.09922563860388815,-0.6227271098225894,0.21842331536179888,0.2805271040019452
1784201814822382592,2.0225067138671875,1.277758240699768,-0.8492422699928284,-0.05148175358772278,0.16792400181293488,0.570242166519165,-0.8041302561759949,0.21256914734840393,-0.26070237159729004,0.030418097972869873,0.9444949270905575,-0.30783729582825686,0.05631231819892745,0.09997262812164301,-0.6068005962740807,0.20586835269571138,0.27556653155671007
1784201814832301568,2.03242564201355,1.243390440940857,-0.10247896611690521,-0.10282496362924576,0.1651396006345749,0.5607503056526184,-0.8113495111465454,0.062048494815826416,-0.3245289921760559,-0.08376151323318481,0.9464597829687855,-0.30206723870076335,0.055503408286777765,0.09944162172895621,-0.5952916842225038,0.20079414270902646,0.2711491889109649
1784201814842221568,2.0423455238342285,0.07544785737991333,-1.3341081142425537,0.3327217102050781,0.15976734459400177,0.5543837547302246,-0.8167821168899536,0.17697887122631073,-0.11671590805053711,-0.10165965557098389,0.9477122234538824,-0.29808624025762903,0.052474127859360065,0.1011562851037166,-0.5876223564170356,0.19316684104749404,0.27128124149175187
1784201814852141568,2.0522656440734863,-0.2513035535812378,-0.6450812816619873,-0.09280133247375488,0.15292960405349731,0.5554776787757874,-0.8173476457595825,0.012918174266815186,-0.09675270318984985,-0.01605701446533203,0.9475506207006895,-0.2983755325306885,0.04793989420539206,0.10402772850119157,-0.588937320737365,0.18496608372722226,0.27493931593268495
1784201814862060544,2.0621845722198486,0.7471104264259338,-0.6839410662651062,-0.30398812890052795,0.14635932445526123,0.5539451241493225,-0.8195875287055969,0.22542108595371246,-0.01085430383682251,-0.18599718809127808,0.9482377130937697,-0.2969727794934006,0.044870937933950236,0.10314529534854334,-0.5870953966110394,0.17671406391903188,0.27024341833442667
1784201814871980544,2.0721046924591064,0.3937825560569763,-1.2240941524505615,0.20003123581409454,0.13894414901733398,0.5487303733825684,-0.8243721723556519,0.2775750160217285,0.19119876623153687,-0.14709383249282837,0.9493298754472129,-0.29350998552248125,0.04081418974327165,0.10468449833300456,-0.580844782350665,0.16697608905961558,0.2696669826237702
1784201814881900544,2.082024574279785,1.26792573928833,-0.8314027190208435,-0.06534264236688614,0.1305108368396759,0.542948305606842,-0.8295626044273376,0.0484442412853241,-0.10793548822402954,-0.11356788873672485,0.9505047509684873,-0.28966592820807663,0.03622644030051883,0.10640537408691368,-0.5739440065432244,0.15604582711008128,0.26910151621794703
1784201814891819776,2.0919437408447266,1.658341884613037,-0.4664129316806793,-0.5359407067298889,0.12371651083230972,0.5298672914505005,-0.8390082716941833,0.12919792532920837,-0.12076383829116821,0.00935739278793335,0.953037424678213,-0.2817225888984149,0.03358933858467212,0.105942374263051,-0.5584440544434559,0.1464006644696718,0.26346048696016944
1784201814901739520,2.1018636226654053,1.7780259847640991,-0.5400136709213257,-0.18550622463226318,0.11792390048503876,0.516667366027832,-0.8480263948440552,0.23614105582237244,0.020106256008148193,0.04199618101119995,0.9555929799766271,-0.2738110332142628,0.03184840125761661,0.1041880614967669,-0.5429539296558359,0.13817082508800996,0.2557177617116108
1784201814911659776,2.111783742904663,1.5591707229614258,-0.8664039969444275,0.7725898623466492,0.11232903599739075,0.5020669102668762,-0.8575027585029602,0.28394171595573425,-0.1579355001449585,0.03532874584197998,0.9577850622332271,-0.2653375301760239,0.029062267204093245,0.10676631908605089,-0.5259870786110614,0.1302538702529091,0.2571418181926976
1784201814921578752,2.1217026710510254,1.8758010864257812,-0.6839455366134644,-0.6019362807273865,0.10771969705820084,0.48714911937713623,-0.8666499853134155,-0.09688595682382584,0.09762871265411377,-0.07016336917877197,0.9600519147663853,-0.25677168327863503,0.027263642272059276,0.10782082547330497,-0.5088223437182918,0.12366013601120221,0.2558728970127756
1784201814931498496,2.131622552871704,1.467645287513733,-0.829221785068512,0.3774321675300598,0.10068052262067795,0.4727814495563507,-0.8754091262817383,0.31965333223342896,0.1505553424358368,-0.09036540985107422,0.9623859506401982,-0.24837427666376286,0.02461014116651016,0.1073211311379747,-0.49244462458647414,0.11450658284489913,0.2509211810743025
1784201814941417728,2.1415417194366455,1.7977393865585327,-0.4773758351802826,-0.15460218489170074,0.09617476165294647,0.45835810899734497,-0.8835486769676208,0.13925310969352722,-0.06947261095046997,-0.10992056131362915,0.964199041661677,-0.24025144263357204,0.022470149051257802,0.10997513309106119,-0.47614693401821795,0.10842367973991943,0.25347158758286575
1784201814951337472,2.151461601257324,1.3247551918029785,-0.639918863773346,-0.0650935024023056,0.08931479603052139,0.4447844624519348,-0.8911731839179993,0.1289621889591217,0.050500571727752686,-0.0014964938163757324,0.9662595326921751,-0.23241246599485768,0.01994620952513512,0.10922040055407181,-0.46093358615420854,0.09988804538794825,0.2485687047349359
1784201814961257728,2.161381721496582,1.7260680198669434,-0.4384355843067169,0.5344482064247131,0.08525657653808594,0.4311826825141907,-0.8982275724411011,0.24621009826660156,0.02754226326942444,-0.05578237771987915,0.9678489248433343,-0.22484483075704942,0.018193571736903624,0.11127522161976217,-0.445803144247745,0.09463294274658332,0.2504036092627135
1784201814971176704,2.1713006496429443,1.8097926378250122,-0.5893642902374268,-0.10273534804582596,0.08160564303398132,0.4147478938102722,-0.9062696695327759,0.059843339025974274,0.011399567127227783,0.03278028964996338,0.9697925329052813,-0.2158105793146651,0.017057710156229585,0.11241516739158919,-0.4276657177439129,0.08980346197790912,0.25031691004335543
1784201814981096448,2.181220531463623,1.584713101387024,-0.6282943487167358,-0.013104536570608616,0.07604019343852997,0.3993409276008606,-0.9136436581611633,0.2564946115016937,-0.13807997107505798,0.05223923921585083,0.9716297645933295,-0.20724871656918362,0.01503824485978766,0.11294877700585393,-0.4107978661096114,0.08303603470318319,0.24876360329937589
1784201814991016704,2.191140651702881,1.6100831031799316,-0.6199015974998474,0.2623980939388275,0.07030601799488068,0.38530823588371277,-0.9201057553291321,0.17850378155708313,-0.17554569244384766,0.08775413036346436,0.9732264193644076,-0.19945369163914023,0.012858446210008046,0.11350418839922793,-0.39554181890033463,0.07626260772956511,0.24749380130139387
1784201815000935680,2.201059579849243,1.3063589334487915,-0.29725801944732666,0.4740285873413086,0.06774011254310608,0.3712652027606964,-0.9260526299476624,0.10424169898033142,-0.05868890881538391,0.07891517877578735,0.9744080325320774,-0.1919213339724395,0.01182796473412523,0.11642682035665958,-0.38037123237400366,0.07301925786154029,0.25190486215739316
1784201815010855680,2.210979700088501,0.993556559085846,-0.25296568870544434,-0.06122243031859398,0.06592001020908356,0.36083757877349854,-0.9302961230278015,0.020063258707523346,0.15074387192726135,0.09036082029342651,0.9754414990769692,-0.1863345897609091,0.011461766594148834,0.11688501749789489,-0.36916580728421305,0.0707409306943934,0.2517316220610632
1784201815020775680,2.2208995819091797,1.0558586120605469,-0.7542828321456909,0.2963111996650696,0.062185317277908325,0.35134243965148926,-0.9341796040534973,0.22803685069084167,0.29164770245552063,-0.010629355907440186,0.9763266485287083,-0.18113633527833853,0.00999190822717367,0.11779685990823945,-0.3590045618269198,0.06646870671259032,0.2522108656046658
1784201815030694656,2.230818748474121,1.291014313697815,-0.34748750925064087,-0.1043972596526146,0.057884667068719864,0.34050852060317993,-0.9384579658508301,0.13526107370853424,0.10472768545150757,-0.0007815361022949219,0.9772885373452034,-0.17522034445935902,0.008297854909314938,0.11889564372653451,-0.3474576745179843,0.06160257666956892,0.25294196103794325
1784201815040614656,2.2407386302948,1.3155156373977661,-0.35269689559936523,0.05848752334713936,0.05338019132614136,0.32774174213409424,-0.9432581067085266,0.18273431062698364,-0.009275555610656738,0.02852421998977661,0.978516589069106,-0.1682982790946357,0.006828153016690866,0.1188879366358425,-0.3339123057841478,0.05653099093334052,0.2513403985322311
1784201815050534656,2.2506587505340576,1.2225236892700195,-0.38822633028030396,-0.06887229532003403,0.050148941576480865,0.316304087638855,-0.947331428527832,0.12540343403816223,-0.08060160279273987,0.04054737091064453,0.979497791110586,-0.16217350773708858,0.005835016070926831,0.11937267975140207,-0.32183102087884463,0.05288769739145278,0.2511331617855886
1784201815060453632,2.26057767868042,1.1245520114898682,-0.183664932847023,0.09310968220233917,0.046410806477069855,0.30481278896331787,-0.9512808322906494,0.10155366361141205,-0.11986100673675537,0.08294892311096191,0.9804922163723251,-0.15600609371502955,0.004656590353114711,0.11948028838950861,-0.30974184821667006,0.048749050144650814,0.25013147646580214
1784201815070373632,2.2704975605010986,0.8922902345657349,-0.05808285251259804,0.1380912810564041,0.04568660631775856,0.29539602994918823,-0.9542818665504456,0.03762638196349144,-0.09535330533981323,0.11613184213638306,0.9812266209925096,-0.1511145843786877,0.004841208336570144,0.11973020351115052,-0.2998700187208836,0.04783884921068598,0.2500697315556791
1784201815080293632,2.2804176807403564,0.6091198325157166,-0.22384518384933472,0.30374255776405334,0.04442151263356209,0.2883474826812744,-0.9564948678016663,0.12885728478431702,-0.0612356960773468,0.07592546939849854,0.9815828867886321,-0.14742208538232338,0.004391825777506809,0.12141881738197884,-0.29250057754040243,0.04640862984412859,0.25298088701664034
1784201815090212608,2.2903366088867188,0.6667461395263672,-0.18092073500156403,0.2074185460805893,0.04277535527944565,0.2822988033294678,-0.9583724141120911,0.11669424176216125,0.12454628944396973,-0.0041062235832214355,0.9818622398986454,-0.14422208325252145,0.003713498066492204,0.12301538028108759,-0.2861895323153901,0.04460373126717859,0.2557042919047372
1784201815100132608,2.3002567291259766,0.9412631392478943,-0.2144635170698166,0.11727853864431381,0.04159139096736908,0.27496299147605896,-0.9605547785758972,0.15681864321231842,0.22044411301612854,-0.03424197435379028,0.9823467517438832,-0.14039337973434268,0.0035076349126423245,0.12358119246166796,-0.27855122474612004,0.043272312397287994,0.25635616216147944
1784201815110051584,2.310175657272339,0.8819410800933838,-0.45285582542419434,0.24993011355400085,0.03812715783715248,0.265625536441803,-0.9633220434188843,0.18364408612251282,0.13613837957382202,-0.06377756595611572,0.9829512471677907,-0.13540255411215746,0.0022621487724632954,0.12436986565149953,-0.2688527057646617,0.03955818153684114,0.25706703136408854
1784201815119971584,2.3200955390930176,1.3717803955078125,-0.01605638489127159,-0.03299505263566971,0.036885086447000504,0.2550053298473358,-0.966235876083374,0.0935623049736023,-0.10185286402702332,-0.05115914344787598,0.9835783215042672,-0.12991227570426922,0.0022051538593832742,0.12526607753168992,-0.25785321979491566,0.03815547016637627,0.2582983742009779
1784201815129891584,2.3300156593322754,0.8889599442481995,-0.31892848014831543,-0.05756201595067978,0.03416794165968895,0.24361580610275269,-0.9692697525024414,0.14193373918533325,-0.09269113838672638,0.027131080627441406,0.9843494097568526,-0.12394599606924288,0.0015827593963845736,0.1252640899706194,-0.24609224786474876,0.03523662870022578,0.2575089576288019
1784201815139810560,2.3399345874786377,1.0447615385055542,-0.06357181817293167,-0.3179131746292114,0.032950837165117264,0.23472662270069122,-0.9715027809143066,0.10251668840646744,-0.03790351748466492,-0.02115774154663086,0.9850419690761989,-0.11935588646477376,0.0016676513631136516,0.12427298661910663,-0.23693732818213928,0.03390439224806671,0.2550300555255992
1784201815149730560,2.3498547077178955,0.8955433368682861,-0.5011159777641296,0.3996935784816742,0.030291162431240082,0.22518660128116608,-0.9738446474075317,0.23435726761817932,-0.10645797848701477,-0.043245136737823486,0.9855652579846621,-0.11435420324917234,0.0008830264255630457,0.12483407279181065,-0.22713454696269397,0.031094690738357692,0.25552989326316394
1784201815159650560,2.359774589538574,0.7471546530723572,0.11114931106567383,-0.05409148335456848,0.027678633108735085,0.21726097166538239,-0.9757210612297058,-0.007720138877630234,-0.043585434556007385,0.06867760419845581,0.9859115622088968,-0.1101792842730311,-2.745227585320224e-05,0.12585289616756565,-0.21900753372661044,0.028359757353595354,0.257047491075527
1784201815169569792,2.3696937561035156,1.043116807937622,0.042176902294158936,0.010042528621852398,0.02867020107805729,0.20872732996940613,-0.9775535464286804,0.13391219079494476,0.09316782653331757,-0.06590348482131958,0.986420092552898,-0.10593450302247417,0.0010537927602477177,0.12550791103966238,-0.21027344109722643,0.029320117781804413,0.2562057650150997
1784201815179489536,2.3796136379241943,1.0341792106628418,-0.31849178671836853,0.05254258215427399,0.027062775567173958,0.19849061965942383,-0.9797291159629822,0.2415834665298462,0.15729855000972748,-0.09406238794326782,0.9869123133240117,-0.1006713231220474,0.0008610094646763558,0.1259708007072179,-0.19981765032610943,0.027615691388421126,0.2566781219568812
1784201815189409792,2.389533758163452,0.8915868401527405,-0.15126918256282806,0.0571414977312088,0.02433665655553341,0.18947064876556396,-0.9815847277641296,0.13379016518592834,0.06811296939849854,-0.04862767457962036,0.9873766129762279,-0.0959563637972441,7.734572289897825e-05,0.12601518851596608,-0.19062299853646394,0.02478815274929662,0.2562499317465918
1784201815199328768,2.3994526863098145,1.0689985752105713,-0.2210216373205185,0.08532333374023438,0.022495264187455177,0.17976200580596924,-0.9834529161453247,0.17106246948242188,-0.03446783125400543,-0.07884871959686279,0.9877847326484192,-0.09095870422639485,-0.00026388271773121713,0.12652215493100502,-0.18074451760850202,0.022869770519993837,0.2568587727039454
1784201815209248512,2.409372568130493,1.052492618560791,-0.44945448637008667,-0.12711672484874725,0.019135313108563423,0.16925862431526184,-0.9853858947753906,0.06754986941814423,-0.01888325810432434,-0.059490203857421875,0.9882618442599428,-0.08547188025921894,-0.0012693196035125848,0.12661563647760218,-0.17007739455397564,0.01941666522257341,0.2565058964695659
1784201815219168768,2.419292688369751,0.9743552803993225,-0.18519195914268494,0.038958799093961716,0.01581607758998871,0.15945689380168915,-0.9870781898498535,0.0022045504301786423,-0.026018783450126648,-0.013059139251708984,0.9887577131655838,-0.08034831860067645,-0.0022479098421976733,0.12608449578513528,-0.16014048196528768,0.01602175483618431,0.25495279138182386
1784201815229087488,2.4292116165161133,0.7931594252586365,0.017301000654697418,-0.04085543751716614,0.015453848987817764,0.1505621075630188,-0.988479733467102,0.04964014142751694,0.0256921648979187,-0.04165637493133545,0.9890928211131352,-0.07587238785834462,-0.0018712572927018557,0.12623527498442966,-0.15113683543213552,0.015632682567090748,0.25506575605995374
1784201815239007744,2.439131736755371,0.6749334931373596,-0.5504702925682068,-0.07525070011615753,0.011289453133940697,0.14398585259914398,-0.9895153641700745,0.09529319405555725,-0.06688319146633148,-0.06253236532211304,0.9893782373367591,-0.07231887138789281,-0.0035082535142104657,0.1260489263943686,-0.14448807519141535,0.011408578030653548,0.2542646295802998
1784201815248927488,2.44905161857605,0.6377465128898621,-0.061187151819467545,-0.028977008536458015,0.008040332235395908,0.13750849664211273,-0.9904679656028748,0.05192670598626137,-0.05549250543117523,-0.040827810764312744,0.9896572295621829,-0.06887693169089776,-0.00468949471890574,0.12574832270601882,-0.13794557690934814,0.008117532654481051,0.2533312987573769
1784201815258846464,2.458970546722412,0.7191321849822998,-0.31115731596946716,0.07400130480527878,0.006252223625779152,0.13103275001049042,-0.9913583397865295,0.1400032639503479,-0.09374026954174042,-0.07478851079940796,0.9898579308455239,-0.06552873792372237,-0.005178988094775864,0.12593824640432016,-0.13141063715149304,0.006306640855549578,0.2535124007789531
1784201815268766720,2.46889066696167,0.17105306684970856,-0.31955686211586,-0.2033030390739441,0.0022052042186260223,0.1262742131948471,-0.9919929504394531,0.04503600671887398,-0.0782700628042221,0.024356842041015625,0.9900336380771564,-0.06289840143191004,-0.006879639175177811,0.12581681201535636,-0.12661222337771683,0.0022230003976556577,0.2529524908421299
1784201815278686464,2.4788105487823486,0.3139748275279999,0.16327506303787231,0.029773889109492302,0.0025578681379556656,0.12432366609573364,-0.9922384023666382,0.08272349834442139,-0.14005547761917114,-0.06548559665679932,0.9901957380395624,-0.061952703591174704,-0.006530849222999814,0.12502687868121712,-0.12464618331470778,0.002577870861115949,0.25136120351531405
1784201815288605696,2.48872971534729,-0.09759269654750824,-0.6256382465362549,0.35695603489875793,-0.00017333180585410446,0.12285810708999634,-0.9924242496490479,0.17552733421325684,-0.08896834403276443,-0.10550665855407715,0.9900738859429339,-0.06103956320751728,-0.00787756630341486,0.1263558644626821,-0.1231692992678138,-0.0001746549563506654,0.25386216430496344
1784201815298525696,2.4986495971679688,-0.4907703399658203,-0.47527140378952026,0.07427028566598892,-0.006218553986400366,0.12616512179374695,-0.99198979139328,0.076790452003479,-0.060842230916023254,-0.05181819200515747,0.9898119055943797,-0.06229278931984951,-0.011168082689689747,0.1275432411437065,-0.12650224479852806,-0.006268686113573009,0.25590274933754725
1784201815308445696,2.5085697174072266,-0.5185428261756897,-0.24638080596923828,-0.2292356640100479,-0.010141677223145962,0.1311020702123642,-0.9913169741630554,0.13788825273513794,-0.05579996109008789,-0.011734724044799805,0.9896580608319314,-0.06450704323959197,-0.013429119922899552,0.12741861725661507,-0.13148056358104174,-0.010230151663719475,0.25541795779121496
1784201815318364672,2.518488645553589,0.11277251690626144,-0.13358396291732788,-0.23826617002487183,-0.011553364805877209,0.13277733325958252,-0.9910785555839539,0.18890626728534698,0.0033768415451049805,-0.10306817293167114,0.9897811058668696,-0.06527363384320099,-0.014144832307355776,0.12598663614959382,-0.1331706068152551,-0.011656836964856252,0.2524357441983776
1784201815328284416,2.5284085273742676,0.3954233229160309,-0.17976605892181396,-0.11209336668252945,-0.013007717207074165,0.13034652173519135,-0.9913831949234009,0.20847280323505402,0.09125688672065735,-0.06978929042816162,0.9899048470666637,-0.06397394830096913,-0.014688440691263259,0.12561832188927033,-0.13071847099467584,-0.0131200238929882,0.2515906952252258
1784201815338204672,2.5383286476135254,0.5549359917640686,-0.16606809198856354,-0.22359353303909302,-0.01564818248152733,0.1256347894668579,-0.9919531345367432,0.10781127214431763,-0.007638588547706604,0.0005286335945129395,0.9901585624305552,-0.06147044624991922,-0.01564652945581914,0.12475025246277394,-0.1259676695976908,-0.015773814669299408,0.24966481455862063
1784201815348123648,2.5482475757598877,0.8054359555244446,-0.15901848673820496,0.2193429321050644,-0.016720598563551903,0.11846854537725449,-0.9928170442581177,0.031170671805739403,-0.22180107235908508,-0.07178866863250732,0.9903882194007166,-0.05783043200947075,-0.01572047007573768,0.12465873868317183,-0.11874742367687044,-0.0168399800180087,0.24941917765783084
1784201815358043648,2.5581676959991455,0.6184327602386475,-0.04318962246179581,0.24461525678634644,-0.017948247492313385,0.11154067516326904,-0.9935977458953857,0.009403325617313385,-0.18339431285858154,-0.025674045085906982,0.9903735800990392,-0.05427350455830371,-0.015984334803379113,0.12632939221088016,-0.11177326273862649,-0.018061932815230396,0.2527338462511627
1784201815367963648,2.568087577819824,0.20107895135879517,-0.27855634689331055,0.3200586140155792,-0.019230065867304802,0.1074451431632042,-0.9940250515937805,0.07967013120651245,-0.05248298496007919,-0.06153219938278198,0.9903661398841104,-0.05213745078907595,-0.016406542512667648,0.12723006064585377,-0.10765295664431362,-0.019343243292477132,0.2544935514500631
1784201815377882624,2.5780067443847656,-0.39714425802230835,-0.39062508940696716,-0.013099109753966331,-0.02277805656194687,0.10857332497835159,-0.9938274621963501,0.11077548563480377,0.05716764181852341,-0.017616629600524902,0.9901698759153904,-0.052452942551465334,-0.018302049151514493,0.1283647625394723,-0.10878777658878587,-0.0229155164525066,0.2565925276098774
1784201815387802624,2.5879266262054443,-0.02234135940670967,-0.2353874146938324,-0.44611990451812744,-0.02578292414546013,0.11076169461011887,-0.9935125112533569,0.08251510560512543,-0.010313086211681366,-0.10035955905914307,0.9902233632081423,-0.053371015008347865,-0.0198817719308897,0.12733377219128725,-0.1109894270524823,-0.02594546031780588,0.2543368537321013
1784201815397721600,2.5978455543518066,-0.055224206298589706,-0.48227789998054504,0.2195417284965515,-0.02859015204012394,0.11060627549886703,-0.9934529662132263,0.2805737853050232,-0.05733785033226013,-0.0665292739868164,0.9902617966065319,-0.053124196031911444,-0.021244340842578296,0.12691737597164182,-0.11083304780894743,-0.028770623616754556,0.2533449719096429
1784201815407641600,2.6077656745910645,-0.5718345046043396,-0.22773869335651398,0.04527568072080612,-0.032218046486377716,0.11387208849191666,-0.9929729104042053,0.07219607383012772,-0.09884218126535416,0.04231983423233032,0.9900327864705951,-0.05450202165756376,-0.02330425655784831,0.12775590890226315,-0.1141196306265075,-0.03243466904478754,0.2548129384070935
1784201815417561600,2.617685556411743,-0.6819540858268738,-0.035472046583890915,-0.09705322980880737,-0.033282678574323654,0.11998097598552704,-0.9922181367874146,0.13077108561992645,-0.18142811954021454,0.02633678913116455,0.9898895908846415,-0.05748774563687369,-0.024209326473523196,0.12738751265608525,-0.12027071771458184,-0.03353113890866536,0.2539513276431999
1784201815427480576,2.6276047229766846,-1.1353721618652344,-0.2154683619737625,0.2805635929107666,-0.03422638028860092,0.12863129377365112,-0.9911016821861267,0.2791909873485565,-0.12542694807052612,-0.02775818109512329,0.9895570950598471,-0.06173193745756955,-0.02526512585354011,0.12777978925746572,-0.12898868826532955,-0.03451995457607767,0.2546056850781263
1784201815437400576,2.6375246047973633,-1.4433971643447876,-0.3361777663230896,0.21280290186405182,-0.03653186187148094,0.14151449501514435,-0.9892618656158447,0.20813219249248505,-0.08754417300224304,-0.15887045860290527,0.9889289293809124,-0.06798188732858107,-0.02734083640688466,0.1290375177180607,-0.14199114205028296,-0.03691162887395683,0.25687288716857376
1784201815447320576,2.647444725036621,-1.5488184690475464,-0.2638542652130127,-0.020970381796360016,-0.03949643298983574,0.15654005110263824,-0.9868815541267395,0.13332273066043854,0.01919540762901306,-0.2545582056045532,0.9882603233214863,-0.07528668145039166,-0.029851770829192097,0.12954621546631812,-0.1571865328272185,-0.04000010331441948,0.2575331973607235
1784201815457239552,2.6573636531829834,-1.1693377494812012,-0.4570194482803345,-0.11220282316207886,-0.04302644729614258,0.16995184123516083,-0.9845126271247864,0.11825227737426758,0.04672296345233917,-0.3480221629142761,0.9877309568076802,-0.08179126907463818,-0.032463502072137704,0.12901110245412123,-0.17078079929270526,-0.04367550570462708,0.25601758052724255
1784201815467159552,2.667283535003662,-1.1408865451812744,-0.6111388802528381,0.12059830129146576,-0.049127791076898575,0.18097689747810364,-0.9822595715522766,0.04027769714593887,-0.009544402360916138,-0.3388006091117859,0.9871901251315001,-0.08693702118357559,-0.036224033446493074,0.12878417126115385,-0.1819796646268634,-0.04997344005719065,0.2548847727578507
1784201815477079552,2.67720365524292,-0.9280074834823608,-0.6579285264015198,0.33355849981307983,-0.05465785413980484,0.1912606656551361,-0.98001629114151,-0.024199560284614563,-0.1488107293844223,-0.295648992061615,0.986404646006275,-0.09168157729898815,-0.03982910359090389,0.13043718129681775,-0.19244635621240413,-0.05571467342624032,0.25756531550071404
1784201815486998528,2.6871225833892822,-1.0161387920379639,-0.40949714183807373,0.09488660842180252,-0.05997173488140106,0.20082952082157135,-0.9777888059616089,-0.07891376316547394,-0.14173224568367004,-0.2052403688430786,0.985739737730642,-0.09611630194036644,-0.04321188398141093,0.131193183618081,-0.20220462527684466,-0.06125730196964949,0.2584106982891977
1784201815496918784,2.69704270362854,-1.0579216480255127,-0.672478437423706,0.1524503082036972,-0.06469260901212692,0.21094964444637299,-0.9753538370132446,0.15748131275177002,-0.12847588956356049,-0.18774735927581787,0.9850324868498019,-0.1008739090292211,-0.046341497896535334,0.13186338527211275,-0.21254636858066991,-0.06623031646554689,0.2590840938384288
1784201815506838528,2.7069625854492188,-0.5954126119613647,-0.6373127698898315,0.11058235168457031,-0.07048884779214859,0.2190975546836853,-0.9731534123420715,0.2114953100681305,-0.0772823691368103,-0.18271511793136597,0.9843439938307338,-0.10455565033765843,-0.04991396443566341,0.13282960202457572,-0.22088945850168273,-0.07230716198964618,0.26024203720016004
1784201815516757760,2.71688175201416,-0.7752798199653625,-0.7197927236557007,0.3171173930168152,-0.07701604068279266,0.22564660012722015,-0.9711602330207825,0.19235722720623016,-0.06274376809597015,-0.13157719373703003,0.9836915796087055,-0.10737516196099393,-0.053763097066139375,0.133906993888859,-0.2276066976580451,-0.07913750622248383,0.26154097248166425
1784201815526677504,2.726801633834839,-1.216625690460205,-0.7060184478759766,0.12154075503349304,-0.08390267193317413,0.23531848192214966,-0.9682900309562683,0.10172493010759354,-0.03855639696121216,-0.10116797685623169,0.9827899923491421,-0.11173560721349682,-0.05805293112266663,0.13516287203682112,-0.23754623173252132,-0.0864344555682956,0.26302381381413203
1784201815536597760,2.7367217540740967,-1.311748743057251,-0.556104838848114,-0.34492653608322144,-0.08980809897184372,0.24779772758483887,-0.9646402597427368,0.04453526437282562,0.021199464797973633,-0.12427270412445068,0.9819625728050455,-0.11770895033892739,-0.06184238852443388,0.13442361128549693,-0.25040641755223236,-0.09283249876243894,0.260402086634766
1784201815546516736,2.746640682220459,-1.1444823741912842,-0.6862149238586426,-0.09895699471235275,-0.09599271416664124,0.2591727375984192,-0.9610488414764404,0.15075650811195374,0.01414269208908081,-0.1932021975517273,0.9812063316632236,-0.12315334622005852,-0.06564163592337062,0.13326174968606885,-0.2621655617966788,-0.09955309155597251,0.2568409495994319
1784201815556436480,2.7565605640411377,-1.2716573476791382,-0.7917647957801819,0.17714357376098633,-0.1033928245306015,0.27062660455703735,-0.9571160674095154,0.1187431588768959,-0.01578959822654724,-0.11978822946548462,0.9801658581848617,-0.12848079033983048,-0.07024707907352772,0.13354040127933522,-0.27404387533266095,-0.10760809508012856,0.25596621046005186
1784201815566356736,2.7664806842803955,-1.22536301612854,-0.7379897832870483,0.15647822618484497,-0.11010146886110306,0.28269287943840027,-0.9528706073760986,0.03476881980895996,-0.12381836771965027,-0.08420825004577637,0.97897954271517,-0.13414338795999875,-0.07463404707962684,0.1342926547647774,-0.2866003382365465,-0.11503698356557157,0.25603414248676776
1784201815576275712,2.776399612426758,-1.0655075311660767,-0.6959339380264282,0.12743379175662994,-0.11651285737752914,0.2938331365585327,-0.9487290978431702,0.09743936359882355,-0.13375318050384521,-0.06994765996932983,0.9778141732067366,-0.13936095049514302,-0.07882886235711188,0.13507047763811353,-0.2982345302896838,-0.12219752747584252,0.2561525105988871
1784201815586195712,2.7863197326660156,-0.7775888442993164,-0.8528609275817871,0.1319892406463623,-0.12333787232637405,0.3027443587779999,-0.9450574517250061,0.15750229358673096,-0.08817529678344727,-0.03568589687347412,0.976792900384466,-0.14343336225967862,-0.08305500991248661,0.1356630537944635,-0.30757084458073636,-0.12977485327247498,0.25586288757021103
1784201815596115712,2.7962396144866943,-0.4602094888687134,-0.8477393984794617,0.35731157660484314,-0.1306528002023697,0.3089134395122528,-0.942073404788971,0.1787332445383072,-0.09446641802787781,0.0015521645545959473,0.9758307014907512,-0.1459971335056112,-0.08745355358616727,0.1370811766539377,-0.31405038636327615,-0.13780739828099434,0.25727373733518244
1784201815606034432,2.8061585426330566,-0.17762908339500427,-0.8739290833473206,0.4444378614425659,-0.13775308430194855,0.31227660179138184,-0.9399507641792297,0.11881691217422485,-0.12958312034606934,0.027353107929229736,0.9749530810512917,-0.14703851591147063,-0.09167495218436647,0.13943447479704968,-0.31758854093931355,-0.145517599951625,0.2607629604687135
1784201815615954688,2.8160786628723145,-0.4574732482433319,-0.8498892188072205,0.34538906812667847,-0.14424876868724823,0.31535574793815613,-0.9379462003707886,0.07434825599193573,-0.021685123443603516,0.10814273357391357,0.974094440412084,-0.14795500697588765,-0.09558360696722559,0.14182065287537052,-0.32083151845190455,-0.1525965824595879,0.2644151368131357
1784201815625874432,2.825998544692993,-0.9695349931716919,-0.6625545620918274,0.02800881303846836,-0.1511012315750122,0.32265225052833557,-0.9343789219856262,0.017235875129699707,0.15760287642478943,0.23306971788406372,0.9729973738589425,-0.15112008074151848,-0.09986622993403176,0.14305816436351576,-0.32853025982793954,-0.16032507582358937,0.2653340383081243
1784201815635793664,2.8359177112579346,-1.1796263456344604,-0.6392982602119446,-0.06514909863471985,-0.15714667737483978,0.3324225842952728,-0.9299463033676147,0.030956491827964783,0.16397634148597717,0.19499146938323975,0.9719348791691226,-0.15580456453097918,-0.10369078072273752,0.1425333591414826,-0.33887106570484704,-0.1674031860395178,0.2625186100069519
1784201815645713664,2.8458375930786133,-1.164862036705017,-0.8206398487091064,-0.033153943717479706,-0.1637050211429596,0.3433293104171753,-0.9248381853103638,0.10173909366130829,0.05631363391876221,0.18895256519317627,0.9706517380506213,-0.16102921274406715,-0.10793752137260772,0.14231721450145415,-0.35045938524005926,-0.17519466681102952,0.2600713757396141
1784201815655633664,2.855757713317871,-1.3410577774047852,-0.6416663527488708,-0.06456167250871658,-0.17125694453716278,0.3546735644340515,-0.9191722869873047,0.012962251901626587,-0.045805156230926514,0.2175731658935547,0.9692585437713502,-0.16646548645693177,-0.11270797019013717,0.1418593847286764,-0.36256490314639866,-0.18420437376559454,0.2567974612800906
1784201815665552640,2.8656766414642334,-1.4606860876083374,-0.7008548974990845,-0.031320422887802124,-0.17767299711704254,0.3671751320362091,-0.9130250215530396,0.03807032108306885,-0.2075987160205841,0.17222607135772705,0.9677932376963062,-0.17265469330721744,-0.11695226616953973,0.14102783360494184,-0.3759702039664827,-0.19219612368020272,0.2527345448320448
1784201815675472384,2.875596523284912,-1.4951132535934448,-0.45009222626686096,0.1640794277191162,-0.18254978954792023,0.38081836700439453,-0.9064507484436035,0.07811863720417023,-0.31699085235595703,0.17013788223266602,0.9661089270900588,-0.17948884981599011,-0.12065809309780282,0.14092220515131473,-0.39068119396761547,-0.19873139599972722,0.2502419917805142
1784201815685392640,2.88551664352417,-1.5212836265563965,-0.43336519598960876,-0.011796757578849792,-0.18595314025878906,0.39437976479530334,-0.8999366760253906,0.03728674352169037,-0.29376333951950073,0.14253616333007812,0.9644769128394893,-0.18644591339001243,-0.1235701169665802,0.14054452636952847,-0.4053928126826634,-0.20376153052262838,0.2473888907499698
1784201815695311616,2.8954355716705322,-1.5446304082870483,-0.45553627610206604,0.10483824461698532,-0.1898469179868698,0.40824446082115173,-0.8929135799407959,0.14381113648414612,-0.25370344519615173,0.1200406551361084,0.962724608756842,-0.19358302962426,-0.1267628561487142,0.14006529280278449,-0.4205301239325173,-0.20949552288912762,0.2440824267984152
1784201815705231616,2.90535569190979,-1.4204126596450806,-0.2983699440956116,0.2255392074584961,-0.19263584911823273,0.42191746830940247,-0.8859328627586365,0.12485630810260773,-0.17289403080940247,0.13942712545394897,0.9608980681137913,-0.20065521837644504,-0.12950306844243273,0.14014747066838718,-0.4355592233637526,-0.21410568216022594,0.24210648855699743
1784201815715151616,2.9152755737304688,-0.8893315196037292,-0.15816916525363922,0.29801660776138306,-0.1935267150402069,0.43245068192481995,-0.8806439638137817,0.03741404414176941,-0.15922680497169495,0.01791203022003174,0.959460902677115,-0.2061621367551011,-0.13105410971601428,0.14055897392024247,-0.44720898518967483,-0.21631746205102007,0.241551435186839
1784201815725070592,2.92519474029541,-0.2830141484737396,-0.2338835597038269,0.4080980718135834,-0.19373822212219238,0.43822532892227173,-0.8777380585670471,0.10024760663509369,-0.10537010431289673,0.04680544137954712,0.9584798929466761,-0.20903054057179715,-0.13204999074176824,0.14207566590941767,-0.4536233659205208,-0.21724116563224705,0.24399435173174402
1784201815734990592,2.935114622116089,0.1360483467578888,-0.1413182020187378,0.39892643690109253,-0.19332104921340942,0.43920469284057617,-0.8773404359817505,0.07512646913528442,-0.026851177215576172,0.10651218891143799,0.9581125416211664,-0.20933859192891358,-0.13231455838229422,0.14384216126632735,-0.45471321153350214,-0.2168831250474297,0.24767130152178385
1784201815744910592,2.9450347423553467,0.2609351575374603,0.09182819724082947,0.4486742913722992,-0.1917295604944229,0.4381893575191498,-0.8781969547271729,0.0001096874475479126,-0.012926876544952393,0.18907952308654785,0.9580130111360515,-0.20860581216654595,-0.13185273025053906,0.14597795248685647,-0.45358334546516305,-0.21494904549685528,0.25264163816994356
1784201815754829568,2.954953670501709,0.23686178028583527,0.41369834542274475,0.3543006479740143,-0.18749134242534637,0.4366063177585602,-0.8798987865447998,-0.08237560093402863,-0.02066698670387268,0.2666633129119873,0.9582072398704198,-0.2078218352500488,-0.12984868521841791,0.1476085574519942,-0.45182300333545317,-0.2099429862612146,0.25726948559607005
1784201815764749824,2.964873790740967,0.17260003089904785,0.2919512391090393,0.31530147790908813,-0.18350104987621307,0.4353128671646118,-0.8813796639442444,-0.05299490690231323,-0.0813395082950592,0.24058681726455688,0.958432599453818,-0.20726315878676438,-0.1278755872932852,0.14864970462754237,-0.45038577604104224,-0.20526521565719022,0.2605625203164801
1784201815774669568,2.9747936725616455,0.0481577068567276,0.43338480591773987,0.34940192103385925,-0.17840248346328735,0.4348885118961334,-0.8826349973678589,0.07140785455703735,-0.15020528435707092,0.2708948850631714,0.9585831125070738,-0.20723852788952987,-0.12543799689595028,0.14978634402923327,-0.44991445537071445,-0.19943786982637532,0.2642279288498641
1784201815784588800,2.984712839126587,-0.24402548372745514,0.6948809623718262,0.31650519371032715,-0.17252038419246674,0.43638667464256287,-0.8830648064613342,0.044987425208091736,-0.17169246077537537,0.28740745782852173,0.958565199641493,-0.20834156045813415,-0.12272491108958945,0.15061630642287127,-0.451578874809763,-0.19293535634326373,0.26725602047528413
1784201815794508800,2.9946327209472656,-0.834054708480835,0.9046861529350281,0.3525572121143341,-0.1635991930961609,0.4413870871067047,-0.8822770118713379,0.07146663963794708,-0.1970633864402771,0.26882797479629517,0.9583197955423493,-0.21160958768554902,-0.11867128214650036,0.15086955902921573,-0.4571438971332047,-0.18334592639756078,0.2695328859703566
1784201815804428800,3.0045528411865234,-1.5723602771759033,0.844904363155365,0.2706448435783386,-0.15497525036334991,0.4525592029094696,-0.8781644701957703,0.11206752061843872,-0.2176959216594696,0.22662943601608276,0.957294577456408,-0.21824435562827185,-0.11526994534156167,0.15056367232443874,-0.46963317902203355,-0.17467776630470674,0.2701163055588612
1784201815814347776,3.0144717693328857,-1.6695648431777954,1.0154542922973633,0.2827257215976715,-0.14552615582942963,0.46741488575935364,-0.8719779253005981,0.11897586286067963,-0.25225070118904114,0.19480812549591064,0.9558076637684711,-0.22701563569240127,-0.11169129079209651,0.14973555234468017,-0.48636429523847186,-0.16536793752521356,0.2696768820300945
1784201815824267520,3.0243916511535645,-2.135284185409546,1.1838574409484863,-0.140827015042305,-0.13540421426296234,0.48332202434539795,-0.8649078011512756,0.06750258803367615,-0.02664172649383545,0.24788814783096313,0.9542821768995313,-0.2365980950828632,-0.10755201172219282,0.1476464221544882,-0.5044454408070276,-0.15529284400658863,0.2669095806974185
1784201815834187776,3.0343117713928223,-2.338212013244629,0.9690260887145996,-0.16923575103282928,-0.1269071400165558,0.502892255783081,-0.8549818396568298,0.10667398571968079,0.18581318855285645,0.27131789922714233,0.9522442402098868,-0.24830854552837744,-0.10417264861973666,0.14395087237426163,-0.5269416925514757,-0.14735664859313866,0.2602532274425559
1784201815844106752,3.0442306995391846,-1.9065122604370117,0.8534058332443237,-0.025607144460082054,-0.11982941627502441,0.5206003785133362,-0.8453497290611267,0.08641266077756882,0.3190450072288513,0.10880798101425171,0.9501238372176751,-0.2588744937816868,-0.10153390185364809,0.14120770871119065,-0.547554001898423,-0.1408131495890198,0.25547606403467565
1784201815854026752,3.0541508197784424,-1.7879235744476318,1.03323495388031,-0.16117189824581146,-0.11219887435436249,0.535817563533783,-0.8368458151817322,-0.003767922520637512,0.5054116249084473,0.12915843725204468,0.9482929528785029,-0.26816626923403536,-0.09830532128439456,0.13843204301649087,-0.5654757631797445,-0.13327873270060991,0.2511398985418458
1784201815863946752,3.064070701599121,-1.072083830833435,0.9413691163063049,-0.13074401021003723,-0.1049920916557312,0.5480911135673523,-0.8298028707504272,0.012417010962963104,0.3814285397529602,0.035140395164489746,0.946896668044641,-0.27586971108877856,-0.0948391758547741,0.13523359650946046,-0.5800803038195433,-0.1258577744550788,0.24610847997338922
1784201815873865728,3.0739896297454834,-0.10046844929456711,1.288171648979187,0.18188312649726868,-0.09592816978693008,0.5524296164512634,-0.8280212879180908,0.08649825304746628,0.0443415641784668,-0.029797255992889404,0.9466558761534195,-0.2790685583118297,-0.09005603842108184,0.13361588183599535,-0.5852761791075901,-0.11533812173283461,0.24565269101813147
1784201815883785728,3.083909749984741,-0.24665534496307373,1.2249330282211304,-0.01680806092917919,-0.0845954567193985,0.5538874864578247,-0.8282827138900757,0.036041997373104095,-0.024422764778137207,0.10864770412445068,0.9469708509301049,-0.2807883276733351,-0.08376493761915654,0.13186170088882884,-0.5870261788553112,-0.10178063247582358,0.2459256714190397
1784201815893705728,3.09382963180542,-0.07234347611665726,0.8125194311141968,-0.17871253192424774,-0.07650212943553925,0.5550959706306458,-0.8282607793807983,0.19355231523513794,-0.13552504777908325,-0.08949434757232666,0.9472790702720996,-0.2821901248528333,-0.0789832659936735,0.1295868503962198,-0.5884783562002057,-0.0921034637827317,0.24398172088267872
1784201815903624704,3.1037487983703613,-0.1833195835351944,0.5171217918395996,0.09956618398427963,-0.07204723358154297,0.5563278794288635,-0.8278336524963379,0.26662731170654297,-0.15595251321792603,-0.04358053207397461,0.9473724371321287,-0.28329842283974477,-0.07632290202858603,0.12807200299483218,-0.5899601246705163,-0.0868123118038918,0.24235142124397482
1784201815913544704,3.11366868019104,0.15181712806224823,0.9139825701713562,0.37790539860725403,-0.0647323802113533,0.5569102168083191,-0.8280463814735413,0.06351165473461151,-0.18703711032867432,-0.07695239782333374,0.9474402740985095,-0.28410344538023846,-0.07253995117529483,0.12798536145237055,-0.5906610517110806,-0.07801615355642971,0.2447996982791261
1784201815923464704,3.123588800430298,0.6473633646965027,0.7459038496017456,0.2481197863817215,-0.05570906400680542,0.5535620450973511,-0.8309426307678223,-0.037461113184690475,-0.07083499431610107,-0.12282323837280273,0.9481826806045605,-0.2827718607379119,-0.06759267405794664,0.12814454520759813,-0.5866353168487282,-0.06694303501172733,0.24844162993061109
1784201815933383680,3.13350772857666,0.542879045009613,0.629101037979126,0.03804882988333702,-0.04946810007095337,0.5486190915107727,-0.8346076607704163,0.015318937599658966,0.17821800708770752,-0.00523608922958374,0.9491825867794178,-0.28039410049730995,-0.06383814592261075,0.12789144310657008,-0.5807116904938284,-0.059201820859366934,0.2501695656765446
1784201815943303680,3.143427610397339,1.210201621055603,0.4119946360588074,-0.020815052092075348,-0.044658079743385315,0.5417717695236206,-0.8393384218215942,0.07982958108186722,0.2148200273513794,-0.10775935649871826,0.9505481847682612,-0.27689784695160374,-0.0604843788282648,0.1269936789548976,-0.5725435989082693,-0.053156162673471175,0.24997772536907775
1784201815953223680,3.1533477306365967,1.7251343727111816,0.1649254560470581,0.008009138517081738,-0.042534347623586655,0.5290945172309875,-0.8474962115287781,0.09667254239320755,0.3213692903518677,-0.042320072650909424,0.9526905417040492,-0.2699120859585799,-0.058304140866399054,0.12699924205671398,-0.5575331660531386,-0.05014616974520708,0.25069352447996257
1784201815963142656,3.163266658782959,1.5992435216903687,0.22339843213558197,-0.24628309905529022,-0.041558828204870224,0.514585554599762,-0.8564313054084778,0.031320180743932724,0.26718324422836304,0.11647158861160278,0.9551444999217377,-0.26193308634644824,-0.0563507882529945,0.12615333338088974,-0.5405242480634546,-0.04848754750027731,0.2491999225696384
1784201815973062656,3.173186779022217,1.4900124073028564,-0.048080481588840485,-0.14679458737373352,-0.04136745631694794,0.501461386680603,-0.8641905188560486,0.06855861842632294,0.027392983436584473,0.11032998561859131,0.9573273839576292,-0.2547447252984713,-0.0548623631532311,0.12497811208500366,-0.5252870693929309,-0.047831934020027056,0.24676755386634533
1784201815982982656,3.1831066608428955,1.4219117164611816,0.09336243569850922,-0.11557302623987198,-0.041894618421792984,0.48875629901885986,-0.8714138269424438,0.09494943916797638,-0.09041038155555725,0.04013031721115112,0.959259539054992,-0.2477397959678525,-0.054019200179094035,0.1246110788893765,-0.5106636160403344,-0.04803961628215028,0.24581799338286706
1784201815992901888,3.193025827407837,1.051461935043335,-0.10655626654624939,-0.1758057326078415,-0.042740192264318466,0.47804540395736694,-0.8772946000099182,0.0017856098711490631,-0.05855080485343933,-0.00019252300262451172,0.9608715211842725,-0.24185919560531616,-0.053449239050235096,0.12398848393992352,-0.4984280223282286,-0.04867968694756911,0.24426528807219727
1784201816002821632,3.2029457092285156,0.8450530171394348,-0.4125623404979706,-0.24247324466705322,-0.04601701721549034,0.4697844982147217,-0.8815809488296509,-0.11099591851234436,0.07504585385322571,0.008625626564025879,0.9620932074950171,-0.23719908633853948,-0.05427819844493292,0.1231546756709909,-0.4890466330469303,-0.05215096132652516,0.241613983905728
1784201816012741888,3.2128658294677734,0.5485745072364807,-0.25685715675354004,-0.38389483094215393,-0.05030263215303421,0.46343129873275757,-0.8847039341926575,-0.2345179319381714,0.25597482919692993,0.02856379747390747,0.963042727521572,-0.23354530675849802,-0.05571906496434082,0.12206849739837002,-0.48186351770094205,-0.056796998769763594,0.2382023928545554
1784201816022660608,3.2227847576141357,0.5935038924217224,-0.21476700901985168,-0.4765978455543518,-0.05451159551739693,0.4585305452346802,-0.8870052099227905,-0.3458332419395447,0.4014090299606323,-0.016589760780334473,0.9639210171120921,-0.23076525431789668,-0.056963161716766124,0.11982822262750444,-0.47634096512825896,-0.061378587130169096,0.23245182148751273
1784201816032580608,3.2327046394348145,0.9589439034461975,-0.2745227515697479,-0.8369611501693726,-0.05960865318775177,0.45119550824165344,-0.8904321193695068,-0.38468149304389954,0.43114393949508667,-0.01906794309616089,0.9651803377772834,-0.22667970475707092,-0.058311578549691274,0.11680296971602139,-0.4681045156734314,-0.06684377678230595,0.22491957519329622
1784201816042500608,3.2426247596740723,1.2732619047164917,-0.43237200379371643,-0.8180638551712036,-0.06627792119979858,0.44065630435943604,-0.8952258229255676,-0.24873977899551392,0.36929547786712646,0.05257445573806763,0.9668790648170738,-0.2208576869001763,-0.06007470717437891,0.11295063161276223,-0.45632965225227495,-0.07390004237045053,0.21541784124972138
1784201816052419584,3.2525436878204346,1.4717565774917603,-0.3499724566936493,-0.6466856598854065,-0.07319149374961853,0.4276804029941559,-0.9009619951248169,-0.09470095485448837,0.23232325911521912,0.030066609382629395,0.9687168593243366,-0.21371316756777778,-0.06201367952369684,0.10985729456079557,-0.4419250943935506,-0.08105904771342394,0.2076272456524172
1784201816062339840,3.2624638080596924,1.1881300210952759,-0.14585945010185242,-0.9082643389701843,-0.07867711782455444,0.4148699641227722,-0.9064727425575256,-0.13717371225357056,0.15556460618972778,0.09969478845596313,0.970530212042495,-0.20680997966853307,-0.0631922956963827,0.10633660638809501,-0.42779989539591334,-0.08657783053835469,0.1994424632561816
1784201816072259584,3.272383689880371,0.9654248952865601,-0.4966960847377777,-1.058316946029663,-0.08498198539018631,0.4042259156703949,-0.9107027649879456,-0.03795807808637619,-0.023061364889144897,0.025616705417633057,0.9720960798555959,-0.20112387572462406,-0.06479055385522944,0.10188572152648727,-0.41613237550512683,-0.09304529037805243,0.18920073251827646
1784201816082178560,3.2823026180267334,0.05247202888131142,-0.2332230508327484,-0.9880341291427612,-0.09275113791227341,0.39871928095817566,-0.9123706221580505,0.05661831796169281,-0.01613566279411316,0.18663209676742554,0.9730377764321582,-0.19817527910934407,-0.06738874870477655,0.09686491229114506,-0.4101198873691019,-0.10131144194933157,0.17735579361847267
1784201816092098816,3.292222738265991,-0.78423672914505,-0.1138007864356041,-0.7953711748123169,-0.09819819033145905,0.40133756399154663,-0.9106510281562805,0.13365960121154785,-0.16519254446029663,0.2521732449531555,0.973057068639516,-0.19965899059619086,-0.06935976325611579,0.09211663133159731,-0.4129767089486461,-0.10741788618285514,0.16624995473520018
1784201816102018560,3.30214262008667,-1.644155502319336,-0.027008788660168648,-0.6585778594017029,-0.10173043608665466,0.4116135835647583,-0.9056628346443176,0.17628487944602966,-0.2034837305545807,0.3463214039802551,0.9721554778453073,-0.2052826452572643,-0.07090571561374209,0.08800628243305195,-0.4242238918569497,-0.11185817153258276,0.15644896116388413
1784201816111937792,3.3120617866516113,-2.228654146194458,0.2533424496650696,-0.7162704467773438,-0.10365776717662811,0.4287257492542267,-0.8974682688713074,0.2073259949684143,-0.21369889378547668,0.3172222971916199,0.9704481827563212,-0.2147101517884317,-0.07187087787265646,0.0834524052452621,-0.4430818518514493,-0.11499067592378388,0.14563785392399464
1784201816121857536,3.32198166847229,-2.436572313308716,0.36097025871276855,-0.6469663381576538,-0.10374657809734344,0.44846683740615845,-0.8877579569816589,0.31880393624305725,-0.11454349756240845,0.19813698530197144,0.9683770247691316,-0.22575217433892245,-0.07181213950174047,0.07826252866750086,-0.46504926732150387,-0.11633590086951541,0.1337073307690025
1784201816131777792,3.331901788711548,-1.8563873767852783,0.26226818561553955,-0.15696866810321808,-0.10251285880804062,0.46798068284988403,-0.877772867679596,0.48976564407348633,0.019186705350875854,0.12314945459365845,0.9660521124882001,-0.23666435949558345,-0.07143908192190096,0.07503218917419795,-0.48700440689728214,-0.11626079342140745,0.12611310716065294
