time,seconds_elapsed,rotationRateX,rotationRateY,rotationRateZ,gravityX,gravityY,gravityZ,accelerationX,accelerationY,accelerationZ,quaternionW,quaternionX,quaternionY,quaternionZ,pitch,roll,yaw
1783116246684973824,0.24945878982543945,2.8224217891693115,0.8760020732879639,-0.8905829191207886,-0.026855643838644028,0.6765775084495544,-0.7358815670013428,-0.23167401552200317,0.6228914856910706,0.3308522701263428,0.5867407626177584,-0.23988376778375675,0.2729743563738607,-0.7236546500279718,-0.7431048532627427,-0.03647833087068543,-1.7932217480113146
1783116246694893824,0.25937891006469727,3.0188851356506348,1.1675429344177246,-1.079487681388855,-0.034687530249357224,0.6693411469459534,-0.7421450018882751,-0.25281858444213867,0.6180733442306519,0.28268760442733765,0.5819078381893483,-0.23810085891335803,0.2687666056963637,-0.7296956425472906,-0.7333216421089285,-0.04670556820763898,-1.813143133569039
1783116246704813824,0.269298791885376,2.8484506607055664,1.4035688638687134,-1.314464807510376,-0.037271320819854736,0.6543673276901245,-0.7552577257156372,-0.20361919701099396,0.407903790473938,0.3391200304031372,0.577598728759017,-0.2309928113135801,0.2627041056263246,-0.7375693473338715,-0.7133456079455662,-0.04930913639845463,-1.8312535420556224
1783116246714732544,0.2792177200317383,2.4053955078125,1.3464020490646362,-1.461984634399414,-0.03977794945240021,0.640561580657959,-0.7668758630752563,-0.08111744374036789,0.056856632232666016,0.34825098514556885,0.5722031675936448,-0.22423334828092356,0.25745188133923363,-0.7456685537400604,-0.69522939240254,-0.05182368333034588,-1.851323388540623
1783116246724652800,0.2891378402709961,1.733156442642212,1.1090078353881836,-1.6426787376403809,-0.045530419796705246,0.6330378651618958,-0.77278071641922,0.06205568462610245,-0.11484938859939575,0.35415583848953247,0.5653069145723517,-0.22120013767524205,0.2543229064362432,-0.7528734347053206,-0.6854712094665748,-0.058849612995325006,-1.8744865000812534
1783116246734572544,0.2990577220916748,1.252224326133728,0.8068439960479736,-1.850404143333435,-0.060695432126522064,0.6404396891593933,-0.7656063437461853,0.15427759289741516,-0.1420723795890808,0.2934688925743103,0.5551422648463886,-0.22742583850808196,0.255879475835586,-0.758037117470591,-0.6950706106587694,-0.07911213283628554,-1.906055595651188
1783116246744492800,0.3089778423309326,1.0828145742416382,0.5210357308387756,-1.9464547634124756,-0.08044639974832535,0.654140055179596,-0.7520831823348999,0.22781580686569214,-0.029292643070220947,0.2005237340927124,0.543725192371057,-0.23797955635522397,0.25946895801546194,-0.7618427966753173,-0.7130451532455419,-0.10655960179249707,-1.9415922149704108
1783116246754411776,0.3188967704772949,1.3007802963256836,0.4422224164009094,-2.0041298866271973,-0.09382032603025436,0.653657853603363,-0.7509521842002869,0.21683666110038757,0.19344907999038696,0.11205142736434937,0.5210885151833708,-0.23617142157259713,0.26219642052413433,-0.7771376562208328,-0.7124077877688305,-0.12429113938968182,-2.0065547648003377
1783116246764331776,0.32881689071655273,1.9504121541976929,0.5905173420906067,-2.159666061401367,-0.10570324212312698,0.6490607261657715,-0.7533571720123291,0.11478221416473389,0.344973087310791,0.009933710098266602,0.5097914481644719,-0.23606185984658623,0.2599927242022471,-0.7853606166083313,-0.7063490967488438,-0.13939957522784546,-2.041542208826638
1783116246774251776,0.33873677253723145,2.82297420501709,0.8064205646514893,-2.3470077514648438,-0.11664070934057236,0.6422513127326965,-0.7575672268867493,0.046999625861644745,0.3899751901626587,-0.07394516468048096,0.4941060110669375,-0.2334257786388515,0.2583191523481264,-0.7966446701950278,-0.6974318201000721,-0.15276783900421564,-2.086899552435845
1783116246784170752,0.34865570068359375,3.7668440341949463,1.0144879817962646,-2.5753111839294434,-0.1254412680864334,0.6206111311912537,-0.7740195393562317,0.0572497695684433,0.39513587951660156,-0.12885820865631104,0.4807532862548855,-0.22544945796039215,0.24932463162259214,-0.8098678693667525,-0.6695218758242504,-0.16066780925966234,-2.1261579150930676
1783116246794090752,0.35857582092285156,4.776483058929443,1.077161192893982,-2.744366407394409,-0.1332421898841858,0.5866271257400513,-0.7988210320472717,0.1609063744544983,0.32870185375213623,-0.1623910665512085,0.4681401493700582,-0.21376150037877337,0.23429786825247415,-0.8247758912273357,-0.6268877777838422,-0.16527698312419442,-2.162767500233215
1783116246804010752,0.3684957027435303,5.78870153427124,1.0807591676712036,-2.794799566268921,-0.1397932767868042,0.5420511960983276,-0.8286364078521729,0.3214644193649292,0.2457905411720276,-0.16878479719161987,0.45442782597024567,-0.1990190890824796,0.21464664914740306,-0.8413165353493941,-0.5728760636338228,-0.16712911627439034,-2.2004416658913706
1783116246813930752,0.3784158229827881,6.648824691772461,0.9383277893066406,-2.7595598697662354,-0.14508070051670074,0.4874972105026245,-0.8609866499900818,0.48132339119911194,0.1759244203567505,-0.1481381058692932,0.44175911471239737,-0.18257309795539056,0.19019393250153518,-0.8575209521250304,-0.5092209926277987,-0.1669369597160485,-2.233732439797728
1783116246823849728,0.3883347511291504,6.769561767578125,0.8400723338127136,-2.7699503898620605,-0.14915110170841217,0.42596927285194397,-0.8923587203025818,0.588695764541626,0.07372555136680603,-0.07079130411148071,0.4286892851983254,-0.16531801198981752,0.16275931394080942,-0.8731578910394315,-0.4400329533089531,-0.16561165597666047,-2.2659242189273443
1783116246833769728,0.3982548713684082,5.377363681793213,0.8536866903305054,-2.9007184505462646,-0.15176792442798615,0.36790066957473755,-0.9173961281776428,0.5844003558158875,-0.11236172914505005,0.18404346704483032,0.41468989523929284,-0.14977578801600835,0.1373650673927364,-0.886978248768838,-0.376750333146106,-0.1639484657172263,-2.2982412277707707
1783116246843689728,0.4081747531890869,3.308332920074463,0.9178228378295898,-3.013883113861084,-0.15208977460861206,0.32609546184539795,-0.9330222010612488,0.5022942423820496,-0.521102786064148,0.5180594325065613,0.39820106478064843,-0.13789742093520885,0.1203045863545722,-0.8988587284815094,-0.33217029514322854,-0.1615864684310916,-2.3346893391614447
1783116246853608960,0.4180939197540283,1.7861781120300293,0.7480504512786865,-2.9530129432678223,-0.14827993512153625,0.304440975189209,-0.9409191012382507,0.47300225496292114,-1.0706915855407715,0.5649425387382507,0.3801622997255084,-0.12906016484597416,0.11350739416716214,-0.9088102648261358,-0.30935150422773444,-0.15630505897387395,-2.373635297431039
1783116246863528704,0.42801380157470703,0.5039868950843811,0.3993140459060669,-2.8928558826446533,-0.1490912288427353,0.2919810116291046,-0.9447321891784668,0.5362982749938965,-1.2044107913970947,0.5266871452331543,0.3619115260330353,-0.1246589972749797,0.10997292739182953,-0.9172710099259787,-0.29629745441110505,-0.15652234348566738,-2.413396286826865
1783116246873448960,0.43793392181396484,0.28943121433258057,0.16884513199329376,-2.6911652088165283,-0.15366128087043762,0.2852287292480469,-0.9460617303848267,0.5993857383728027,-0.8127708435058594,0.40004122257232666,0.3437758627051203,-0.1233912509237109,0.10836854535598281,-0.9245803857686644,-0.28924506350437507,-0.16101595614810274,-2.4531359911168393
1783116246883368704,0.44785380363464355,1.0437679290771484,0.3025406301021576,-2.2686455249786377,-0.15782801806926727,0.2757716476917267,-0.9481773376464844,0.5756136775016785,-0.3872371315956116,0.12028127908706665,0.3280382447443137,-0.1218460323409414,0.10518965722440984,-0.930848838867235,-0.2793923973254742,-0.16494185397248096,-2.4872009305799567
1783116246893287680,0.45777273178100586,2.3296570777893066,0.6449342370033264,-1.8677756786346436,-0.15806572139263153,0.2569429278373718,-0.9534125924110413,0.4671477675437927,-0.14404314756393433,-0.14805835485458374,0.31433007492327264,-0.11716259587289249,0.09780916461111812,-0.9369647681913368,-0.2598576022953912,-0.1642950240752197,-2.515750762194097
1783116246903207680,0.46769285202026367,3.7140743732452393,0.8107354640960693,-1.5291411876678467,-0.15416842699050903,0.2255917489528656,-0.9619461894035339,0.44184237718582153,-0.0641232430934906,-0.31139975786209106,0.3021884765440036,-0.10886396397467489,0.08470857635240095,-0.9432154291382684,-0.2275503943693016,-0.1589157893204949,-2.539692264852591
1783116246913127680,0.4776127338409424,4.455275058746338,0.751542329788208,-1.2430669069290161,-0.14837750792503357,0.18400609493255615,-0.971661388874054,0.5502177476882935,-0.10192908346652985,-0.28778374195098877,0.2925454272782573,-0.09870497961964689,0.06653291981875367,-0.9488138688652235,-0.18506059579608997,-0.15153431948984292,-2.557522793978232
1783116246923046912,0.4875319004058838,4.337607383728027,0.4908345639705658,-1.0386013984680176,-0.14281365275382996,0.139659583568573,-0.9798466563224792,0.6131200790405273,-0.2898213267326355,-0.05186110734939575,0.2846985551101866,-0.0888512403790173,0.0467132983863363,-0.9533467196755133,-0.14011761615309082,-0.1447319094484672,-2.5713665692980965
1783116246932966656,0.4974517822265625,3.7948098182678223,0.1442262977361679,-0.9206153750419617,-0.1395982801914215,0.09865883737802505,-0.9852810502052307,0.5749315023422241,-0.5340378880500793,0.1882839798927307,0.2778270701209795,-0.08108510474041296,0.028012103102123178,-0.9567929738788555,-0.09881959655578744,-0.14074690252906466,-2.5833608198025546
1783116246942886912,0.5073719024658203,3.384302854537964,-0.3285375237464905,-1.0713154077529907,-0.13910028338432312,0.06258603185415268,-0.9882985949516296,0.5080882906913757,-0.7347662448883057,0.17820948362350464,0.2701120131259994,-0.0756484476491745,0.011314464610637285,-0.9597858690002917,-0.06262696602714114,-0.13982871956916712,-2.597312327710903
1783116246952805632,0.5172908306121826,3.1137163639068604,-0.9786369204521179,-0.8682699203491211,-0.1448410153388977,0.029129082337021828,-0.9890260696411133,0.5307815670967102,-0.8504028916358948,0.13706690073013306,0.26257557944956533,-0.07390295238723545,-0.005031442441566186,-0.9620640250322632,-0.029133202485881537,-0.1454144313331903,-2.610834390099497
1783116246962725632,0.5272107124328613,3.9624741077423096,-0.01903635635972023,-1.014499306678772,-0.14762209355831146,-0.007216035854071379,-0.9890174865722656,0.29473209381103516,-0.7290968298912048,0.3174934983253479,0.25471465953500977,-0.07063546454875144,-0.02240252663250031,-0.9641727683472833,0.0072160982612357125,-0.1481674704784838,-2.624499251585524
1783116246972645632,0.5371308326721191,3.9062302112579346,-0.5408274531364441,-0.7953869104385376,-0.1494491845369339,-0.04867216944694519,-0.9875707626342773,0.2567337155342102,-0.7251467704772949,0.48317623138427734,0.24767641879725966,-0.06654239467022313,-0.042269874096749496,-0.9656301739269914,0.04869140547816245,-0.15019053655866926,-2.635769708440707
1783116246982565632,0.5470507144927979,3.29060959815979,-0.574442982673645,-0.41811150312423706,-0.1543237417936325,-0.08501856029033661,-0.984355628490448,0.3019830584526062,-0.6443820595741272,0.7019155025482178,0.24586284850118312,-0.06453471565465786,-0.06047686314524356,-0.9652612196282689,0.08512131914586572,-0.15551056621359655,-2.6361410394971587
1783116246992484864,0.5569698810577393,3.2928102016448975,-0.22931669652462006,-0.4767170548439026,-0.1571400761604309,-0.11861737817525864,-0.9804269075393677,0.3134968876838684,-0.44261616468429565,0.5575295686721802,0.2421647577315925,-0.06207918131787545,-0.07702416450398367,-0.9651786350026188,0.11889731154363661,-0.15892552716867347,-2.640459878979844
1783116247002404608,0.566889762878418,3.531097173690796,-0.21468263864517212,-0.5378925204277039,-0.15790772438049316,-0.15264664590358734,-0.9755840301513672,0.18831849098205566,-0.16078414022922516,0.3452739715576172,0.23802354546078078,-0.05873718271088131,-0.09358385988203176,-0.96495435424613,0.15324574776786412,-0.16046800396552063,-2.6455659360266814
1783116247012324864,0.5768098831176758,4.5684638023376465,-0.24992434680461884,-0.42359572649002075,-0.15892070531845093,-0.19301269948482513,-0.9682408571243286,0.2735905051231384,0.031651005148887634,0.1305028200149536,0.23466102730418031,-0.05481397869285135,-0.1134681183247915,-0.9638747623947044,0.19423166244853476,-0.16268292248514432,-2.6480887272809954
1783116247022243840,0.5867288112640381,5.493155479431152,-0.2636055648326874,-0.44771838188171387,-0.15994223952293396,-0.24257642030715942,-0.956856906414032,0.29743918776512146,0.15732556581497192,0.08266562223434448,0.23205446507141508,-0.04982560924972992,-0.13816277645816596,-0.96155035038601,0.2450207159209924,-0.16562258064848814,-2.6475427126396593
1783116247032163584,0.5966486930847168,6.263016700744629,-0.2507406771183014,-0.6623863577842712,-0.1604783684015274,-0.2995678782463074,-0.9404816627502441,0.2328050434589386,0.19957703351974487,0.15215158462524414,0.2287920332717201,-0.043912042255253865,-0.1668259422849746,-0.9580684029664549,0.30423969861996697,-0.1690065153171425,-2.6467923512115887
1783116247042083840,0.6065688133239746,6.763415813446045,-0.22287896275520325,-0.8400650024414062,-0.15980741381645203,-0.3615899384021759,-0.9185392260551453,0.17314359545707703,0.1311822235584259,0.22228068113327026,0.22403142311215937,-0.03719596920379946,-0.19836040159762872,-0.9534566182980742,0.3699726617089659,-0.1722557605639224,-2.6477195096783155
1783116247052003584,0.6164886951446533,7.067913055419922,-0.22560779750347137,-0.9726597666740417,-0.15781554579734802,-0.42575880885124207,-0.890967845916748,0.17914733290672302,0.09357497096061707,0.33789777755737305,0.2180126778651237,-0.02999835078292067,-0.23155167456338213,-0.9476045646806613,0.4398003312909243,-0.17530989932184465,-2.650048409303203
1783116247061922816,0.6264078617095947,7.231883525848389,-0.2599327266216278,-1.0812671184539795,-0.15482908487319946,-0.4898485839366913,-0.857948899269104,0.20675474405288696,0.17982050776481628,0.4177480936050415,0.21124227902019,-0.022672559389486303,-0.26554003466569914,-0.9403994342488903,0.511916071383968,-0.17854256550837447,-2.652827205620961
1783116247071842560,0.6363277435302734,7.537573337554932,-0.33545443415641785,-1.107085943222046,-0.15121276676654816,-0.5533626675605774,-0.8190998435020447,0.25324830412864685,0.3259609341621399,0.5062336325645447,0.20419244367521033,-0.01532377201839339,-0.3003585709356395,-0.9315876117686073,0.58639593358243,-0.18255317661109088,-2.654790096117775
1783116247081762816,0.6462478637695312,7.471921920776367,-0.44347065687179565,-1.245684266090393,-0.14716407656669617,-0.6150709986686707,-0.7746162414550781,0.28742289543151855,0.47125697135925293,0.5986519455909729,0.19666216288056104,-0.008231729838902172,-0.3355951606046702,-0.9212122708535248,0.6624760368131973,-0.1877457401824817,-2.6562080889978645
1783116247091681792,0.6561667919158936,6.695356369018555,-0.4048713445663452,-1.5274851322174072,-0.141352578997612,-0.6705912351608276,-0.7282354831695557,0.2479962855577469,0.5099619626998901,0.7772467136383057,0.18772390540412362,-0.001623175346309252,-0.3686185292176724,-0.910427145555875,0.7350054695105038,-0.19171884836091058,-2.660902353909775
1783116247101601792,0.6660869121551514,5.277461528778076,-0.27411916851997375,-1.8157182931900024,-0.13176913559436798,-0.7152699828147888,-0.6863132119178772,0.18128392100334167,0.26290786266326904,0.9778476357460022,0.17738744591670194,0.004841329768753928,-0.39600497711088944,-0.9009386483221267,0.7970103227194721,-0.18968733454186826,-2.6727204551236747
1783116247111521792,0.6760067939758301,3.432744026184082,-0.14868292212486267,-1.7105402946472168,-0.1198803186416626,-0.746917188167572,-0.6540209650993347,0.1772686243057251,-0.15336662530899048,0.9380938410758972,0.16684029456910066,0.010548221245917193,-0.4157863041737056,-0.8939657980518636,0.8434135684548536,-0.18128497648797678,-2.691072527977595
1783116247121441792,0.6859269142150879,1.644904375076294,-0.17066651582717896,-1.537830114364624,-0.10852626711130142,-0.7649399042129517,-0.6348928809165955,0.2516994774341583,-0.49177396297454834,0.8125967383384705,0.1572059898307907,0.014451216242773606,-0.42701841079499436,-0.8903553534871451,0.8709480040943611,-0.16930006129512137,-2.713147441045595
1783116247131360768,0.6958458423614502,0.6333775520324707,-0.5558865070343018,-1.871315360069275,-0.09799906611442566,-0.773710310459137,-0.6259141564369202,0.34165140986442566,-0.5320299863815308,0.5272813439369202,0.14748248862202257,0.016568394135998064,-0.4321671160657743,-0.8894976145774236,0.8846769043850383,-0.15530861985423716,-2.7392984434202647
1783116247141280768,0.7057657241821289,0.9611272215843201,-0.33485645055770874,-1.3150497674942017,-0.088255375623703,-0.7795652151107788,-0.6200717687606812,0.3063492476940155,0.11515182256698608,0.4249271750450134,0.1374463141538341,0.017683465814209452,-0.435489857486552,-0.8894629291764367,0.8939713409836182,-0.14138130738529642,-2.7671060801655964
1783116247151200768,0.7156858444213867,1.9201347827911377,-0.5728096961975098,-1.2566121816635132,-0.08140377700328827,-0.7900159358978271,-0.6076579093933105,0.4589977562427521,0.16451245546340942,-0.06488841772079468,0.12867032166786022,0.01830199565709409,-0.44253371471902364,-0.8872839268519478,0.9108350155881954,-0.13317031565086848,-2.7882743797609653
1783116247161119744,0.725604772567749,2.7107045650482178,-0.5730871558189392,-1.3822989463806152,-0.07418857514858246,-0.8048849701881409,-0.5887752175331116,0.37484776973724365,0.5125723481178284,0.026748239994049072,0.11947545394467614,0.01928382661374596,-0.4530348017006425,-0.8832402084623471,0.9354816430045068,-0.12534433572653658,-2.809309299142082
1783116247171039744,0.7355248928070068,4.084209442138672,-0.6316465735435486,-1.6316955089569092,-0.06519445031881332,-0.8255805373191833,-0.5605056285858154,0.2953580617904663,0.6165961623191833,0.06184840202331543,0.10926659390788468,0.021187453409676923,-0.4682929266717829,-0.8765351172048097,0.9712302567259583,-0.11579332559088958,-2.8323960560272914
1783116247180959744,0.7454447746276855,4.522166728973389,-0.662473201751709,-1.7228487730026245,-0.054531339555978775,-0.8504130840301514,-0.5232818126678467,0.2728540897369385,0.5041912198066711,0.039196789264678955,0.09835959933633394,0.023868798550753214,-0.4876365336602327,-0.8671598529419156,1.016769986065411,-0.10383548419056848,-2.857806264437363
1783116247190879744,0.7553648948669434,4.362174034118652,-0.768800675868988,-1.9328960180282593,-0.04228837788105011,-0.8737326264381409,-0.4845646321773529,0.3110719323158264,0.36743080615997314,0.2674016058444977,0.08657684313944382,0.026536766538680964,-0.50696496608969,-0.8571969981303212,1.062824115874863,-0.08705032183344173,-2.8890847382962135
1783116247200798720,0.7652838230133057,4.3925933837890625,-0.7583043575286865,-2.043647050857544,-0.02805761620402336,-0.8947405815124512,-0.4457038938999176,0.30323460698127747,0.15650516748428345,0.2937264144420624,0.07413906362170328,0.029446779676761955,-0.5256243350515865,-0.8469682616564177,1.107849950864871,-0.06286829009304731,-2.9280752817149254
1783116247210718720,0.7752037048339844,4.280736923217773,-0.6345679759979248,-2.088129997253418,-0.012345558032393456,-0.9136576652526855,-0.406296968460083,0.3222057819366455,0.05402332544326782,0.2351391613483429,0.061363324584515856,0.032525557061466606,-0.5438690995639597,-0.8362912006004478,1.1521931955091433,-0.03037620518866477,-2.975370675305252
1783116247220638720,0.7851238250732422,4.9534430503845215,-0.7430680990219116,-2.0839970111846924,0.004429637920111418,-0.9314168691635132,-0.3639275133609772,0.3379928767681122,0.11406445503234863,0.2844902575016022,0.04852589698074271,0.03581535557275944,-0.5628085798769692,-0.8243841149275608,1.198286589333589,0.012171157805578623,-3.0323134529534173
1783116247230557696,0.7950427532196045,5.207545280456543,-0.7335579991340637,-2.2120983600616455,0.022255094721913338,-0.948375940322876,-0.31636667251586914,0.3677442967891693,0.12568306922912598,0.11012887954711914,0.035217808919581706,0.03907568040552621,-0.5833436040528468,-0.8105202737481509,1.2480752809135864,0.0702301992984125,-3.1053228399184625
1783116247240477696,0.8049628734588623,5.900205135345459,-0.6784415245056152,-2.2617299556732178,0.04172181710600853,-0.9638091325759888,-0.26330843567848206,0.29893064498901367,0.20202934741973877,0.08934301137924194,0.021480278775758168,0.04262608052211348,-0.6054162195196477,-0.7944764635699979,1.3009396464655618,0.15714579269326734,3.075970482727501
1783116247250397696,0.814882755279541,5.9746832847595215,-0.6098027229309082,-2.2191853523254395,0.06231795251369476,-0.9766163229942322,-0.20575933158397675,0.27169692516326904,0.16048479080200195,0.10227419435977936,0.007945835980724684,0.04656358884566788,-0.6284521972287311,-0.776412554580438,1.3541150851327164,0.2940860624638041,2.9250684612045927
1783116247260317696,0.8248028755187988,5.583563327789307,-0.6464518308639526,-2.2634034156799316,0.08335597813129425,-0.9852498173713684,-0.14944757521152496,0.33256810903549194,0.1520741581916809,0.25958549976348877,-0.005352332302978642,0.05038738435824043,-0.6501825309338298,-0.7580864957013608,1.3988277726192964,0.5087819524187313,2.6967469063923915
1783116247270236672,0.8347218036651611,5.282567977905273,-0.6240206360816956,-2.211367130279541,0.104891337454319,-0.9897735714912415,-0.09667585790157318,0.2409186065196991,0.11448365449905396,0.3220481872558594,-0.01721280213973178,0.05527075885985074,-0.6697814675665329,-0.7402983899032246,1.427660566487368,0.8261336447370172,2.369426347312722
1783116247280156928,0.844641923904419,4.77007532119751,-0.6482548713684082,-2.207852602005005,0.1262904405593872,-0.990851879119873,-0.047574128955602646,0.2552708387374878,0.04192304611206055,0.35807520151138306,-0.0288343560057944,0.05990716831519252,-0.6874765937535368,-0.7231567415832352,1.4354295330901177,1.2105324623133236,1.9751085859618274
1783116247290076672,0.8545618057250977,3.9193344116210938,-0.6348958611488342,-2.211904764175415,0.14824526011943817,-0.9889359474182129,-0.005391688086092472,0.26856380701065063,-0.02122640609741211,0.48160320520401,-0.04040658737590794,0.0646286332618286,-0.702230229794112,-0.7078581369265964,1.4219034562696862,1.5344422961936484,1.6415022056359074
1783116247299995648,0.86448073387146,2.8507988452911377,-0.6307117938995361,-2.0132787227630615,0.16950127482414246,-0.9851552248001099,0.027174081653356552,0.29280948638916016,-0.04218846559524536,0.5416735410690308,-0.05124953433514112,0.06929035617353736,-0.7132922876061567,-0.6955475571167324,1.3982758661301693,1.7297615051556823,1.4374401786273603
1783116247309915904,0.8744008541107178,2.1020114421844482,-0.6849521994590759,-1.9679721593856812,0.18920913338661194,-0.9806428551673889,0.05039259046316147,0.3366544842720032,-0.0018552541732788086,0.544440746307373,-0.06134274127156823,0.07340240157253473,-0.7209773799903195,-0.6863240743550874,1.3737180816096077,1.83108695723256,1.3276436028184064
1783116247319835648,0.8843207359313965,1.5495798587799072,-0.7253065705299377,-2.1184210777282715,0.20977307856082916,-0.9754322171211243,0.06728342175483704,0.28120893239974976,0.04720968008041382,0.4334794282913208,-0.07157108959783967,0.07789426025231579,-0.7263430292452842,-0.6791434345335713,1.3486746702390624,1.881173881295167,1.2694160093658264
1783116247329754880,0.8942399024963379,1.0217481851577759,-0.6991860866546631,-1.9158165454864502,0.23036719858646393,-0.9699330925941467,0.07849185913801193,0.29073575139045715,0.13848155736923218,0.36549317836761475,-0.08164367786517304,0.0825239827522384,-0.7296819308467912,-0.6738608870830385,1.3249557847035922,1.8991845300085304,1.243663408264512
1783116247339674624,0.9041597843170166,0.6822710633277893,-0.6730858087539673,-1.7123316526412964,0.2485758662223816,-0.964802622795105,0.0858251079916954,0.3837178349494934,0.10167396068572998,0.26057982444763184,-0.09062134988687612,0.08653652193781637,-0.7317267140742133,-0.6699815150769941,1.3046918217939305,1.903248689047017,1.232515719744564
1783116247349594880,0.9140799045562744,-0.08604639023542404,-0.7895092964172363,-1.6028902530670166,0.26538005471229553,-0.9601653814315796,0.08749772608280182,0.40391620993614197,0.01361691951751709,0.24555587768554688,-0.09900295286333355,0.09014714084327859,-0.7318622512259866,-0.6681688081543838,1.2875934955173054,1.8892798390155736,1.2396621218230954
1783116247359514624,0.9239997863769531,-0.7049900889396667,-0.8516249060630798,-1.584861159324646,0.28150469064712524,-0.9560710787773132,0.08175147324800491,0.36833661794662476,-0.04373055696487427,0.24442040920257568,-0.10723555651518803,0.09345536435337282,-0.7294805222560946,-0.6690477284826718,1.273292210288041,1.8534309039662065,1.268456106814486
1783116247369433600,0.9339187145233154,-1.347296118736267,-0.7655341029167175,-1.5734394788742065,0.2974954843521118,-0.9521041512489319,0.0706702470779419,0.25360623002052307,-0.049833714962005615,0.1151360273361206,-0.11508921356469494,0.09717066815236781,-0.725184794473913,-0.6718775502075655,1.2600452366846429,1.8040240915602883,1.311918819799824
1783116247379353856,0.9438388347625732,-2.0154340267181396,-0.6827236413955688,-1.6011669635772705,0.3133350610733032,-0.9481680393218994,0.05290326848626137,0.21713680028915405,0.07481586933135986,0.12850844860076904,-0.12225143790274183,0.10165415355163322,-0.7184135767520735,-0.6772023926894919,1.2474203876992949,1.7380581595444144,1.3740203114935736
1783116247389273600,0.953758716583252,-2.116144895553589,-0.5685441493988037,-1.4027739763259888,0.32821759581565857,-0.9440633058547974,0.03190497308969498,0.24783223867416382,0.10827827453613281,0.06752133369445801,-0.12863586179104555,0.1063687905677055,-0.7103788893140446,-0.6837400587822617,1.2347425165616053,1.6676986425044664,1.4419532723501332
1783116247399193856,0.9636788368225098,-1.965428113937378,-0.5661265254020691,-1.1796772480010986,0.3407881557941437,-0.9400703310966492,0.011461432091891766,0.3873307406902313,0.10022658109664917,0.030347585678100586,-0.13397879117073824,0.11051507237678755,-0.7025077470237907,-0.69015872185069,1.2228365517418813,1.6044157847735114,1.5034844988140783
1783116247409112576,0.9735977649688721,-1.8276386260986328,-0.5623209476470947,-1.1677879095077515,0.35198503732681274,-0.9359769225120544,-0.007341440767049789,0.41927045583724976,0.13605016469955444,0.030672132968902588,-0.13891432779357785,0.11411250240699196,-0.6952032914138627,-0.6959695340389191,1.211023703520304,1.549942098488214,1.5559986916532231
1783116247419032832,0.9835178852081299,-1.7943696975708008,-0.49187183380126953,-1.1269869804382324,0.36296793818473816,-0.9314562678337097,-0.025365252047777176,0.36730241775512695,0.171766996383667,0.004369201138615608,-0.14383387654885477,0.11763529609537754,-0.6880983294020488,-0.7014231198929589,1.1983949207060625,1.5010268534739664,1.6028612167996465
1783116247428952576,0.9934377670288086,-1.8569031953811646,-0.31656283140182495,-1.02669358253479,0.373170405626297,-0.9267705082893372,-0.04289882257580757,0.338194340467453,0.16599780321121216,-0.028909027576446533,-0.14800263802145078,0.12137961650474334,-0.6810415391827294,-0.7067847349590916,1.1857220123501984,1.456341023549913,1.6468899993906625
1783116247438871552,1.003356695175171,-1.9943422079086304,-0.15597184002399445,-0.8964719772338867,0.38236701488494873,-0.9219943284988403,-0.061008721590042114,0.35399162769317627,0.13172638416290283,-0.035319983959198,-0.15109628755216825,0.12547627194815258,-0.6736106777512435,-0.7125127111054174,1.173199937959083,1.4125746053176367,1.6920562969197854
1783116247448791808,1.0132768154144287,-1.7764778137207031,-0.18443037569522858,-0.7952429056167603,0.3902392089366913,-0.9173697233200073,-0.07839944213628769,0.4525190591812134,0.006130039691925049,-0.04376239329576492,-0.15352553590471352,0.1292478144959097,-0.6664047429795634,-0.7180736941717292,1.1614212683443594,1.372534580752617,1.7339913640907278
1783116247458711552,1.0231966972351074,-1.5157649517059326,-0.12529301643371582,-0.6874951124191284,0.3974554240703583,-0.9128621816635132,-0.09333710372447968,0.5001275539398193,-0.12826025485992432,-0.02600187063217163,-0.1557847895123486,0.13267608357759572,-0.6600973458366106,-0.722772182319355,1.1502405288739468,1.3401391658422372,1.7680351067713058
1783116247468631808,1.0331168174743652,-1.4162260293960571,-0.17162418365478516,-0.5365895628929138,0.4031926989555359,-0.9089030027389526,-0.10644741356372833,0.5625208020210266,-0.21325886249542236,0.03773707151412964,-0.15754416412281266,0.13547317760504307,-0.6545405358574635,-0.7269137227730291,1.1406457737337634,1.312674694395721,1.7969675013610567
1783116247478550784,1.0430357456207275,-1.2220267057418823,-0.2492031306028366,-0.40757861733436584,0.40780767798423767,-0.9053072929382324,-0.11879324167966843,0.541579008102417,-0.26229536533355713,0.07608388364315033,-0.159165214820062,0.13758650760247898,-0.6493637908685274,-0.7307962535852859,1.1321025873406363,1.2873427300420945,1.8229831075730418
1783116247488470784,1.0529558658599854,-0.8586868047714233,-0.2472885698080063,-0.27432361245155334,0.411028116941452,-0.9025475382804871,-0.12831184267997742,0.48046666383743286,-0.32518988847732544,-0.01679927110671997,-0.16065739897528294,0.138772476055056,-0.6454349539567096,-0.7337200713500488,1.1256496345059592,1.2682094735917369,1.8416492331887773
1783116247498390784,1.062875747680664,-0.8677202463150024,-0.23240843415260315,-0.11922616511583328,0.4130464494228363,-0.9004696607589722,-0.13618698716163635,0.4289334714412689,-0.33006006479263306,-0.06718210875988007,-0.16165820483015753,0.13950871473444096,-0.6422178968400833,-0.7361793734527505,1.1208482387886907,1.252307177322121,1.8571500029643646
1783116247508309760,1.0727949142456055,-0.5819007158279419,-0.33142292499542236,0.03403289616107941,0.4135449528694153,-0.8991134762763977,-0.1434410661458969,0.38682425022125244,-0.30041033029556274,-0.1218329519033432,-0.16228572221727883,0.13948258713020875,-0.6393935213497517,-0.7385010206745976,1.117739930251812,1.2369240166731588,1.8715726189965023
1783116247518229760,1.0827147960662842,0.08997005224227905,-0.3270241618156433,0.1118219643831253,0.41300731897354126,-0.8989015221595764,-0.14629074931144714,0.33720627427101135,-0.3516172170639038,-0.31510454416275024,-0.16303764367305734,0.1385175775747256,-0.6384884528605405,-0.739299738254725,1.1172559791619074,1.2303771145018791,1.8756259206670594
1783116247528149760,1.092634916305542,0.610893964767456,-0.3417935371398926,0.22689849138259888,0.4117429256439209,-0.89989173412323,-0.14374540746212006,0.340103417634964,-0.3630934953689575,-0.38191986083984375,-0.1639071136290061,0.13680397077926446,-0.6398530819693409,-0.7382460380348456,1.1195211613729605,1.2349106116706456,1.867353221214554
1783116247538069760,1.1025547981262207,1.151721477508545,-0.48514455556869507,0.4759964346885681,0.40879252552986145,-0.9023211002349854,-0.13676801323890686,0.3943844437599182,-0.3452680706977844,-0.321346640586853,-0.1647560771520881,0.1337841845796744,-0.643208977545996,-0.7356898582152968,1.1251241741366924,1.2479369348821527,1.8487411972493888
1783116247547988736,1.112473726272583,1.3654403686523438,-0.5990655422210693,0.7196317911148071,0.4034026265144348,-0.9061985015869141,-0.12676985561847687,0.4563996195793152,-0.33940696716308594,-0.22561663389205933,-0.16531670386430022,0.12916986036119527,-0.648020229732351,-0.7321579829485084,1.1342054844192666,1.2663166324469222,1.8229080066255137
1783116247557908736,1.1223938465118408,1.3407166004180908,-0.6902164220809937,0.8936325311660767,0.3961060643196106,-0.9108206033706665,-0.11621477454900742,0.4596221148967743,-0.363578200340271,-0.06730270385742188,-0.16551410452355464,0.12346160612959702,-0.6531843876651017,-0.7285001814995727,1.1452676363196408,1.2854119008615315,1.7953284081292429
1783116247567828736,1.1323137283325195,0.9195314049720764,-0.8195362687110901,0.9774959087371826,0.38764113187789917,-0.9154806733131409,-0.10783994942903519,0.43836286664009094,-0.43985074758529663,0.02307736873626709,-0.16557820995852207,0.11706656843374404,-0.6575526180216692,-0.725605814037945,1.1567008970076122,1.2994618949191075,1.7720131632103289
1783116247577747712,1.142232894897461,0.21438521146774292,-0.7407658100128174,1.1708590984344482,0.37812671065330505,-0.9198112487792969,-0.10472476482391357,0.41638311743736267,-0.5118292570114136,0.05911625921726227,-0.16489614096625332,0.11075182770363179,-0.6598269842429811,-0.724687223701387,1.1675992095278538,1.3006118017090518,1.7628061532056782
1783116247587667712,1.1521527767181396,-0.5434170365333557,-0.7055078744888306,1.2960779666900635,0.36709028482437134,-0.9239124059677124,-0.10784508287906647,0.45384782552719116,-0.6052166223526001,0.05085355043411255,-0.16297381945869024,0.10471348845512739,-0.6596306109324134,-0.7261969882847434,1.1781831716113542,1.2850524117157927,1.7725094678967555
1783116247597587712,1.1620728969573975,-1.27500581741333,-0.6976379752159119,1.3259341716766357,0.3557615876197815,-0.9271457195281982,-0.11762087047100067,0.4915894865989685,-0.7020962238311768,0.055761754512786865,-0.16044441990556818,0.09931055896506145,-0.6567548843548685,-0.7301151422711546,1.1867221094971108,1.2514923674583431,1.801996915722756
1783116247607507712,1.1719927787780762,-1.7233595848083496,-0.6380831599235535,1.589213490486145,0.34342074394226074,-0.9297974705696106,-0.13243429362773895,0.5405972003936768,-0.7130858302116394,0.06499046087265015,-0.1570931443435989,0.09418313027889558,-0.6518530433329397,-0.7358932553932986,1.1938622098747562,1.202736513738661,1.8482531188862834
1783116247617426688,1.1819117069244385,-1.7556706666946411,-0.5801021456718445,1.6860772371292114,0.3300996720790863,-0.9322024583816528,-0.148434117436409,0.5819333791732788,-0.6244991421699524,0.053493931889534,-0.15298545886411155,0.08914381424112544,-0.6464026004097342,-0.7421674204580686,1.2004511985805217,1.148221398002531,1.9014827421819933
1783116247627346688,1.1918318271636963,-1.6287829875946045,-0.5140195488929749,1.7080694437026978,0.31954267621040344,-0.9337203502655029,-0.16142773628234863,0.5616981983184814,-0.48450779914855957,0.030980348587036133,-0.14940021136327047,0.08548321389344804,-0.6418557084529455,-0.7472573509524503,1.2046678915282172,1.1030103934532913,1.9466220190271548
1783116247637266688,1.201751708984375,-1.6437469720840454,-0.4881836771965027,1.7880053520202637,0.3261888325214386,-0.9310888648033142,-0.16332267224788666,0.564558207988739,-0.3970818519592285,0.00518055260181427,-0.15052011213955746,0.0891694286309854,-0.6406149188803107,-0.7476663625930573,1.1973864607614622,1.1065890377417034,1.9466772097323974
1783116247647185920,1.2116708755493164,-1.857996940612793,-0.43410366773605347,1.8644002676010132,0.3138996958732605,-0.9325679540634155,-0.178280770778656,0.564869225025177,-0.449466347694397,0.051052987575531006,-0.14600745218822156,0.08518685426628403,-0.6352974200790465,-0.7535398176883707,1.2014623223892398,1.0542729625380405,1.999790919974267
1783116247657105664,1.2215907573699951,-2.2760701179504395,-0.3840266466140747,1.9522536993026733,0.2979821264743805,-0.9339423179626465,-0.1973791867494583,0.5580207109451294,-0.5818352699279785,0.0979834794998169,-0.14001758875806333,0.08016587410779984,-0.6283978328872578,-0.7609761758810051,1.205288283203441,0.9857631308749121,2.0697267131983113
1783116247667025920,1.231510877609253,-2.6406285762786865,-0.3007909953594208,2.047147035598755,0.28042474389076233,-0.9342134594917297,-0.22047050297260284,0.5608991384506226,-0.6371824145317078,0.15389639139175415,-0.13301106994840106,0.07505413028254249,-0.6197835287466421,-0.7697683902296245,1.2060477531052685,0.9045255585921538,2.1536975387135167
1783116247676945664,1.2414307594299316,-2.9050750732421875,-0.20214858651161194,2.244112968444824,0.2611667513847351,-0.9333204030990601,-0.2463838905096054,0.5828121900558472,-0.6057420969009399,0.1994020938873291,-0.1248676215195609,0.06982968620773644,-0.6098621704868032,-0.7794870770284315,1.203552360092527,0.8145158080144055,2.24789021284657
1783116247686865152,1.2513501644134521,-3.0095605850219727,-0.1595119684934616,2.3432424068450928,0.24030454456806183,-0.9312958717346191,-0.27375471591949463,0.6014617681503296,-0.5478453040122986,0.277142196893692,-0.11568855690979125,0.06438291995063342,-0.5991472921851909,-0.7896160245001096,1.197954329391677,0.7204190991667062,2.347320141571789
1783116247696784896,1.2612700462341309,-3.1122212409973145,-0.17408132553100586,2.407609224319458,0.21876013278961182,-0.9279177188873291,-0.3018489181995392,0.6258138418197632,-0.4998013973236084,0.2729029655456543,-0.1061082082520157,0.0587646413105589,-0.5878964729805345,-0.7997909342317903,1.1887876871760352,0.6271337525689084,2.446251712902249
1783116247706705152,1.2711901664733887,-3.323894500732422,-0.23547236621379852,2.55751633644104,0.19604773819446564,-0.9228948354721069,-0.33140674233436584,0.6483736634254456,-0.47748053073883057,0.26004141569137573,-0.09607461210298557,0.052708939878773516,-0.5757763406291442,-0.8102302675713502,1.175532099070081,0.5341922012234092,2.5448445542902234
1783116247716624128,1.281109094619751,-3.536210775375366,-0.3698522746562958,2.620119333267212,0.17192776501178741,-0.9158400297164917,-0.36287474632263184,0.6437765955924988,-0.4964982271194458,0.30231261253356934,-0.08577191041910921,0.04593488078814308,-0.5625412083523972,-0.8210241724440531,1.1575949213575518,0.44246362627737607,2.6415591964044505
1783116247726544128,1.2910292148590088,-3.710029363632202,-0.43085023760795593,2.66847562789917,0.14711955189704895,-0.9063804745674133,-0.3960179090499878,0.5973872542381287,-0.5226508378982544,0.3539952337741852,-0.07547511628084914,0.0386829652601875,-0.5481739461545544,-0.8320531140256135,1.1346360404917206,0.35569620221865733,2.732595754788631
1783116247736464128,1.3009490966796875,-3.757629632949829,-0.3933856785297394,2.757842540740967,0.12166488915681839,-0.894749104976654,-0.4296761453151703,0.5505458116531372,-0.5080523490905762,0.4248696267604828,-0.06477919795405919,0.031197164933853792,-0.5330934796780269,-0.8429956625453223,1.107869108838624,0.2759317865847517,2.816862557630586
1783116247746384128,1.3108692169189453,-3.5451951026916504,-0.3783861994743347,2.7390952110290527,0.09617165476083755,-0.8815340399742126,-0.4622214138507843,0.49696797132492065,-0.4550137519836426,0.530229926109314,-0.05381283468112812,0.023683635800029905,-0.5180042274792013,-0.8533550377491129,1.0791017216172214,0.20513727832301595,2.8925217464778825
1783116247756303104,1.3207881450653076,-3.075242280960083,-0.3751547038555145,2.7378761768341064,0.07122509926557541,-0.8682389259338379,-0.4910072982311249,0.470828115940094,-0.4166884422302246,0.5795235633850098,-0.04292191039199837,0.01620050019675325,-0.5042161191547876,-0.862358032386107,1.0516417187476415,0.14405435286433432,2.958436145089128
1783116247766222848,1.3307080268859863,-2.6569621562957764,-0.3858911097049713,2.8018360137939453,0.04611405357718468,-0.8557944893836975,-0.5152565836906433,0.4749735891819,-0.366327702999115,0.5580880045890808,-0.03185624800825856,0.008479905742519046,-0.492239570957934,-0.869835328290917,1.0270846319287696,0.08925945462719245,3.0180119716122276
1783116247776143104,1.3406281471252441,-2.4506680965423584,-0.5250657796859741,2.791860580444336,0.020594945177435875,-0.8435875177383423,-0.5365965962409973,0.4897352457046509,-0.27549201250076294,0.4426482915878296,-0.020915243615759974,0.0002622879211674219,-0.4813539616475858,-0.8762766896594788,1.0039293879002877,0.03836185508829698,3.0728081439235537
1783116247786062080,1.3505470752716064,-2.1556966304779053,-0.7256872653961182,2.8482253551483154,-0.005691553466022015,-0.8314208388328552,-0.555614173412323,0.5016937851905823,-0.20994573831558228,0.3548389673233032,-0.010237444018494654,-0.00869808071720852,-0.47129318615948745,-0.8818743663510867,0.9816599438720063,-0.010243357795439044,3.1238508772232483
1783116247795982080,1.3604671955108643,-1.86898934841156,-0.9838924407958984,2.8254971504211426,-0.03315939009189606,-0.8199730515480042,-0.5714409351348877,0.47992148995399475,-0.23123544454574585,0.3247673511505127,7.565737783175061e-06,-0.018700396280778717,-0.4625255020686682,-0.8864087971831109,0.9613639610022156,-0.0579626807127605,-3.1113431752524754
1783116247805902080,1.370387077331543,-1.670998215675354,-1.0441794395446777,2.852820634841919,-0.06155872344970703,-0.8086709380149841,-0.5850314497947693,0.37428760528564453,-0.2594594955444336,0.3570651412010193,0.009811194035270253,-0.029566785113741587,-0.4545438194805627,-0.8901794051935782,0.941889262262274,-0.10483714990215358,-3.0661357529652657
1783116247815822080,1.3803071975708008,-1.397803783416748,-0.8458290696144104,2.9580955505371094,-0.08989305794239044,-0.7977017760276794,-0.5963146686553955,0.20618030428886414,-0.25184351205825806,0.380357027053833,0.02013406301081293,-0.04023565741603988,-0.44746369568225264,-0.8931696394993004,0.9234745420702227,-0.1496211066729182,-3.021957529376617
1783116247825741056,1.390226125717163,-1.1934309005737305,-0.5999482870101929,2.876173734664917,-0.11682499945163727,-0.7873473763465881,-0.605339527130127,0.10240545123815536,-0.2119811773300171,0.45728355646133423,0.031153270115031582,-0.049879745488979804,-0.44140937434036126,-0.89537656706927,0.9064944654716455,-0.19064700972058832,-2.978960945512675
1783116247835661056,1.4001460075378418,-1.4527242183685303,-0.46570682525634766,2.7650866508483887,-0.14153219759464264,-0.776384711265564,-0.614162266254425,0.12438131868839264,-0.18865734338760376,0.5015067458152771,0.04206744371855906,-0.058450924119483,-0.4353186795809519,-0.8973914097328426,0.8889092038966264,-0.22649342799637343,-2.939684616342655
1783116247845581056,1.4100661277770996,-2.3508827686309814,-0.4733131229877472,2.6878395080566406,-0.16461952030658722,-0.7610095739364624,-0.6275068521499634,0.15320594608783722,-0.1440044641494751,0.3994032144546509,0.05246913592732324,-0.06655549673903018,-0.4263999767419059,-0.9005555947045807,0.8648678673703364,-0.25655771319690257,-2.9062652120602555
1783116247855500032,1.419985055923462,-3.3056302070617676,-0.35885125398635864,2.652820348739624,-0.1866912990808487,-0.7388007640838623,-0.647549033164978,0.1325226128101349,-0.07618635892868042,0.2983822226524353,0.06248567535882622,-0.07458247946531016,-0.4131136925456793,-0.9054667918774133,0.8312891689532456,-0.28069272146500074,-2.8792476718310325
1783116247865420032,1.4299051761627197,-3.876676559448242,-0.3233449459075928,2.6499500274658203,-0.20748546719551086,-0.7102686166763306,-0.6726576685905457,0.06606701016426086,0.027941346168518066,0.25520771741867065,0.07223133912125293,-0.08241442467961653,-0.3960795880428978,-0.9116531870580511,0.7898797487756387,-0.2991966657452535,-2.8579693850890293
1783116247875340032,1.4398250579833984,-3.933089017868042,-0.13981029391288757,2.57513689994812,-0.22679348289966583,-0.6783179640769958,-0.6988915205001831,0.0041830092668533325,0.20366287231445312,0.2658624053001404,0.08190905358015807,-0.08984540796854881,-0.3774679317040983,-0.9180068271074064,0.7454710140486842,-0.3137837131669524,-2.8400611015590016
1783116247885260032,1.4497451782226562,-3.7074999809265137,-0.04620508849620819,2.4320390224456787,-0.24357645213603973,-0.6459720134735107,-0.723457396030426,-0.06443746387958527,0.373678982257843,0.3101121187210083,0.09124816882311589,-0.09635959088376007,-0.35914638118139364,-0.9237977878354311,0.7022959045434096,-0.3247630148021074,-2.8247977622598652
1783116247895179008,1.4596641063690186,-3.5989646911621094,0.12072371691465378,2.233583688735962,-0.2576366066932678,-0.6142738461494446,-0.7458491921424866,-0.12308540940284729,0.3401344418525696,0.2953181862831116,0.10018711701855779,-0.10183053622695262,-0.34162251058558285,-0.9289171846848601,0.6614653720509877,-0.3325952813375423,-2.8115843268317033
1783116247905099008,1.4695839881896973,-4.35331392288208,0.33930832147598267,1.9030207395553589,-0.2677381932735443,-0.580138623714447,-0.7692564725875854,-0.2014390528202057,0.16886848211288452,0.25233447551727295,0.1079605775389962,-0.10599014153873995,-0.3227039902597598,-0.9343301445698562,0.6188988644418998,-0.33493480774625534,-2.8035228582331757
1783116247915019008,1.479504108428955,-5.676069736480713,0.390280157327652,1.7141094207763672,-0.2743319571018219,-0.5369420051574707,-0.7977688908576965,-0.2552700638771057,0.18550163507461548,0.2455686330795288,0.11406222635626191,-0.1095574028909635,-0.2985175429406991,-0.9412089174430772,0.5668080806223376,-0.3312069418011519,-2.8031182696020016
1783116247924939008,1.4894239902496338,-6.636910438537598,0.43898504972457886,1.3888264894485474,-0.27844133973121643,-0.483317106962204,-0.8299849033355713,-0.27621564269065857,0.4186351001262665,0.2558424472808838,0.11847714714989253,-0.1131325235780325,-0.2687165160423662,-0.949186817515268,0.5044398232698388,-0.3236791290128825,-2.809136806730241
1783116247934857984,1.4993431568145752,-6.898514747619629,0.4548439085483551,1.0211364030838013,-0.2797987461090088,-0.42375195026397705,-0.8614795207977295,-0.3615434169769287,0.685257077217102,0.2786853313446045,0.12067507979327913,-0.11640153624021533,-0.23603162132252392,-0.9571715015844606,0.4375835687676736,-0.3140406949356498,-2.8203888457192305
1783116247944777984,1.509263038635254,-6.544801235198975,0.6130146980285645,0.5813113451004028,-0.2776317596435547,-0.3635696470737457,-0.8892343640327454,-0.4475116729736328,0.7319320440292358,0.29896336793899536,0.12106622422412834,-0.11841655566146636,-0.20337242640736872,-0.9643444144217597,0.37209690387910904,-0.3026246382737905,-2.8344298222637256
1783116247954697984,1.5191831588745117,-5.7637834548950195,0.6323622465133667,0.2595263421535492,-0.2729225158691406,-0.3083101809024811,-0.9112947583198547,-0.4809532165527344,0.5498415231704712,0.27593404054641724,0.11984685567724772,-0.1192065491344418,-0.17361570619241046,-0.9701980272892989,0.313416157060025,-0.29098767057356256,-2.8494854416782296
1783116247964616960,1.529102087020874,-4.659936904907227,0.6430503129959106,0.14588505029678345,-0.26703035831451416,-0.2612744867801666,-0.9275938868522644,-0.43630826473236084,0.4447003901004791,0.2721983790397644,0.11806928769812529,-0.11900891765469278,-0.14845852023454006,-0.9746058554942313,0.26434232046304196,-0.2802954298303374,-2.862970547096842
1783116247974537216,1.5390222072601318,-3.5289738178253174,0.733207643032074,0.023819074034690857,-0.25970399379730225,-0.2242594063282013,-0.9392877817153931,-0.42903193831443787,0.4442300796508789,0.21008551120758057,0.11666196412927385,-0.11744940134446465,-0.12869242168107478,-0.9777699284106971,0.22618301744524252,-0.2697512438485221,-2.873264832351554
1783116247984456960,1.5489420890808105,-2.7266716957092285,0.27725285291671753,-0.35063448548316956,-0.25390514731407166,-0.19675947725772858,-0.9470046758651733,-0.48639026284217834,0.5124332904815674,0.12498319149017334,0.1140132037392897,-0.11628490722258428,-0.11390995732461068,-0.980052661857063,0.19805169276889495,-0.26195308028141034,-2.883792673711263
1783116247994377216,1.5588622093200684,-2.6804258823394775,0.15622147917747498,-0.29892680048942566,-0.24984905123710632,-0.17404340207576752,-0.9525147676467896,-0.3732283413410187,0.6555650234222412,0.02499401569366455,0.1112983210128612,-0.11570886710734353,-0.1017550123278194,-0.981768846306349,0.17493425548356878,-0.2565255623903203,-2.8932081653075943
1783116248004296192,1.5687811374664307,-2.7993886470794678,0.17193838953971863,-0.23762431740760803,-0.24685150384902954,-0.1494114249944687,-0.9574657082557678,-0.34608978033065796,0.6977207660675049,0.12055164575576782,0.10818621474668168,-0.11575354929091906,-0.08870324062242033,-0.9833761765243884,0.1499729948771092,-0.25232275497766127,-2.9033868341496962
1783116248014215936,1.5787010192871094,-2.6917552947998047,0.0871441438794136,-0.5879748463630676,-0.24414028227329254,-0.12617504596710205,-0.9614964127540588,-0.44934117794036865,0.5910645723342896,-0.05060380697250366,0.10487928012231608,-0.11582277505922965,-0.07639939841241469,-0.9847581709700014,0.1265122540033711,-0.248661826602514,-2.9135557239384715
1783116248024136192,1.5886211395263672,-2.1700687408447266,0.05231151729822159,-1.1617928743362427,-0.24169093370437622,-0.1051921620965004,-0.9646347165107727,-0.6586386561393738,0.5333232879638672,0.006672680377960205,0.09853827425838033,-0.11604816754629164,-0.06492669753432939,-0.9862086095131529,0.10538713502601428,-0.24549791202103974,-2.929407754175134
1783116248034054912,1.5985400676727295,-0.5976647138595581,-0.054038092494010925,-0.7260935306549072,-0.23900415003299713,-0.09503430873155594,-0.9663568139076233,-0.5733127593994141,0.38122814893722534,-0.2510961890220642,0.09313093927082146,-0.1154862415739068,-0.05902983824474886,-0.9871701850088151,0.09517794361594922,-0.24245939563837296,-2.9418629204000495
1783116248043975168,1.6084601879119873,1.3887817859649658,-0.1839039921760559,-0.027338851243257523,-0.2393263280391693,-0.10076480358839035,-0.9656963348388672,-0.4720689356327057,0.31885868310928345,-0.3642444610595703,0.09115125905605038,-0.11551895605337538,-0.061702657401677664,-0.9871876554159532,0.10093611069406747,-0.24293313228502547,-2.9451148721899862
1783116248053894912,1.618380069732666,2.538940191268921,-0.45302173495292664,-0.13245968520641327,-0.24140402674674988,-0.12130477279424667,-0.9628131985664368,-0.3184104263782501,0.5198795795440674,-0.33996695280075073,0.09179205948337944,-0.11564299501302101,-0.07225024571533038,-0.9863979751570595,0.12160425905603814,-0.24566352874779415,-2.940980796839217
1783116248063815168,1.6283001899719238,3.479340076446533,-0.8748458623886108,-0.41897818446159363,-0.2469342201948166,-0.1519564986228943,-0.9570437669754028,-0.3869768977165222,0.7311343550682068,-0.26362884044647217,0.0922844768640256,-0.11710491543008066,-0.08811678322198632,-0.9848886265290789,0.15254746390494242,-0.252510378246812,-2.9353374988842242
1783116248073734144,1.6382191181182861,3.382326602935791,-0.707239031791687,-0.629091739654541,-0.2536236047744751,-0.18586158752441406,-0.9492789506912231,-0.5534290075302124,0.6626071929931641,-0.07092362642288208,0.09106880638765613,-0.11922005164888132,-0.10557981316303819,-0.9830290137443735,0.1869486518433314,-0.26107690425414937,-2.9322239375121257
1783116248083653888,1.6481389999389648,3.2088937759399414,-0.48502588272094727,-0.3540356159210205,-0.25750142335891724,-0.21854129433631897,-0.9412400126457214,-0.39790934324264526,0.41402164101600647,0.11572426557540894,0.09050267529636313,-0.1199435874336676,-0.1224481174034198,-0.9810347863509515,0.22031938022981934,-0.2670425959191286,-2.927897376917633
1783116248093574144,1.6580591201782227,3.00211763381958,-0.9544663429260254,-1.2928951978683472,-0.2610221803188324,-0.2503175139427185,-0.9323135614395142,-0.4540504515171051,0.3640565276145935,0.08996737003326416,0.08819369133499738,-0.1208168191941154,-0.13873181998990705,-0.9789681675004072,0.2530081905643411,-0.2729832275885599,-2.926968332512952
1783116248103493888,1.6679790019989014,2.618466377258301,-0.4804171323776245,-1.0800799131393433,-0.2639518678188324,-0.2785201966762543,-0.923447847366333,-0.6473182439804077,0.05499419569969177,0.273789644241333,0.08232177249941545,-0.12218119685287011,-0.15279997503551393,-0.9772139817443148,0.28225299521514763,-0.27840941956639476,-2.933700838762241
1783116248113413120,1.6778981685638428,2.090470790863037,0.33768466114997864,-0.49065473675727844,-0.2617850601673126,-0.30396172404289246,-0.916010856628418,-0.015604466199874878,-0.25003913044929504,0.17562389373779297,0.07955617159254524,-0.12066711353657897,-0.16563221347706802,-0.9755389594452015,0.3088484001330903,-0.27836797595461155,-2.9352439856170953
1783116248123332864,1.6878180503845215,1.2125825881958008,0.14494451880455017,-0.5715376734733582,-0.25693148374557495,-0.3202790319919586,-0.9118155241012573,0.31303805112838745,-0.16491994261741638,0.24425876140594482,0.07842041826630866,-0.11783432911349687,-0.17380247590793282,-0.9745553568012169,0.3260240216091489,-0.2746586301212448,-2.9355511097925095
1783116248133253120,1.6977381706237793,0.9264432191848755,0.17286136746406555,-1.2038516998291016,-0.2524322271347046,-0.3327578902244568,-0.9085978865623474,0.5639404058456421,0.22751805186271667,0.2506236433982849,0.07478893576950851,-0.11578458262817273,-0.17970804954144878,-0.9740151243796035,0.33922664136506275,-0.2709917179754828,-2.9416376944883993
1783116248143172096,1.7076570987701416,1.1830089092254639,0.31083205342292786,-1.9029231071472168,-0.24122272431850433,-0.346179336309433,-0.9066264033317566,0.6471065282821655,0.05984818935394287,0.33481860160827637,0.06872542396079943,-0.11074481031686603,-0.18553270073077585,-0.9739558055267451,0.3534955540051453,-0.26004179465024563,-2.9539982802872347
1783116248153092096,1.7175772190093994,0.3707500994205475,0.8305756449699402,-1.0678058862686157,-0.22997649013996124,-0.35756808519363403,-0.9051275849342346,1.1268576383590698,-0.24939599633216858,0.3843908905982971,0.06196361152029438,-0.10594911710361568,-0.19029189817479056,-0.9740248441189604,0.3656625213704339,-0.24881670662143987,-2.9682959924954355
1783116248163012096,1.7274971008300781,-1.0653722286224365,-0.03781738504767418,-0.9212523102760315,-0.22154080867767334,-0.3580872118473053,-0.9070243835449219,1.0768264532089233,-0.4692290723323822,0.4641990661621094,0.05641766473654186,-0.10265534043687273,-0.18960403029645326,-0.9748483605720752,0.36621844432288025,-0.2395597318186978,-2.9814065731298713
1783116248172931840,1.7374169826507568,-1.0125713348388672,-0.12131255120038986,-1.2197164297103882,-0.21373677253723145,-0.3539676070213318,-0.910507321357727,0.8559486865997314,-0.4678555130958557,0.28810131549835205,0.04998941500398329,-0.09993785737774151,-0.18643704496931707,-0.9760916085499406,0.36180996965788903,-0.23057000896877475,-2.99690055916471
1783116248182851072,1.7473361492156982,-0.5698833465576172,-0.3569749891757965,0.030224908143281937,-0.20945116877555847,-0.3502263128757477,-0.9129467606544495,0.6072936058044434,-0.29892832040786743,-0.023897111415863037,0.046708760650630156,-0.09840823352554608,-0.1839631816776682,-0.9768785570179498,0.3578127176968702,-0.22552050855721997,-3.0050857336855805
1783116248192771072,1.757256031036377,-0.48663586378097534,-0.9742445945739746,-0.6298086643218994,-0.21011239290237427,-0.3488888144493103,-0.9133068323135376,0.25381356477737427,0.00011867284774780273,-0.1057513952255249,0.04422290949324875,-0.09923608300337923,-0.18302671674349014,-0.9770863580810653,0.3563851362890473,-0.22612227567945573,-3.0102404365046085
1783116248202691072,1.7671761512756348,0.5253105163574219,-0.09651733934879303,-0.041096508502960205,-0.21091574430465698,-0.3503245413303375,-0.9125717878341675,0.18338888883590698,0.2742442190647125,-0.0054579973220825195,0.041034028029114634,-0.10023013103365613,-0.18348847110391037,-0.9770375108305643,0.35791758590204725,-0.22713408471301186,-3.0163862902926017
1783116248212611072,1.7770960330963135,0.49762779474258423,-0.1122417077422142,-0.12513229250907898,-0.20718461275100708,-0.35845959186553955,-0.9102643728256226,0.2955177426338196,0.02851882576942444,-0.26371628046035767,0.04040150949046541,-0.09832561090603387,-0.1876163125170515,-0.9764731838141958,0.36661730480446564,-0.2237965873094439,-3.017232336846016
1783116248222530048,1.7870151996612549,-0.740675687789917,-0.32849597930908203,-0.807166576385498,-0.20404109358787537,-0.36022743582725525,-0.9102765917778015,-0.047988325357437134,-0.23726096749305725,-0.046724140644073486,0.037843992112294875,-0.09717428208463472,-0.18819902795801952,-0.9765788056318244,0.36851168838641746,-0.220507973314267,-3.0228707298405646
1783116248232450048,1.7969350814819336,-1.0294209718704224,-0.059043999761343,-0.4792824685573578,-0.20224133133888245,-0.353047251701355,-0.9134856462478638,0.27873367071151733,-0.26847371459007263,-0.036221325397491455,0.03329996267669746,-0.09717745202336113,-0.18388504149693108,-0.9775652701400205,0.360826091588924,-0.2178806961153065,-3.033597300224692
1783116248242370048,1.8068552017211914,-0.9612376093864441,-0.5648012757301331,-0.5899605751037598,-0.2026449739933014,-0.3470381498336792,-0.9156962037086487,0.6592336893081665,-0.0741654634475708,-0.3391408324241638,0.03070424455992937,-0.09791474141013355,-0.18045665058669738,-0.9782153557280684,0.35441111277820914,-0.21779141685751244,-3.039684338670111
1783116248252289024,1.8167741298675537,-0.8140039443969727,-0.41064074635505676,-0.8308616280555725,-0.2019212394952774,-0.33912575244903564,-0.9188152551651001,0.2856004536151886,0.2583152651786804,-0.16950255632400513,0.02571813108356904,-0.09849342942874978,-0.17575950986301797,-0.9791558352691137,0.34598743760883904,-0.2163238639088348,-3.051129428453596
1783116248262209024,1.8266940116882324,-0.5018904209136963,-0.055639561265707016,-0.3595243990421295,-0.20218652486801147,-0.3356139659881592,-0.9200455546379089,0.4953383803367615,0.15218809247016907,-0.45525962114334106,0.02230176868277569,-0.09925169755504422,-0.1735693419632574,-0.979553619524815,0.34225693556456466,-0.21631858592866854,-3.058539974016054
1783116248272129024,1.8366141319274902,-0.23364004492759705,0.19860069453716278,-0.6047142148017883,-0.19882163405418396,-0.33321818709373474,-0.9216483235359192,0.27938804030418396,-0.10818806290626526,-0.1832711100578308,0.019025325674986725,-0.09809907895864767,-0.17190817048855322,-0.9800317213532732,0.33971478056411164,-0.21246804562146773,-3.0661975628105864
1783116248282049024,1.846534013748169,0.07259877771139145,-0.45844921469688416,-0.08524596691131592,-0.19907964766025543,-0.3327033519744873,-0.9217786192893982,0.6059705018997192,0.09451362490653992,-0.2075091004371643,0.01701568080920433,-0.09858428036535631,-0.17144047212142588,-0.9801019996069777,0.3391687813723082,-0.21270635927173528,-3.070318529936265
1783116248291968000,1.8564531803131104,0.4955921173095703,-0.29289567470550537,-0.2817683517932892,-0.2009132355451584,-0.3371204435825348,-0.9197736978530884,0.4944313168525696,-0.00917777419090271,-0.20998704433441162,0.015142265531617584,-0.09986284693631614,-0.1736103426080638,-0.9796211972363831,0.343856613946184,-0.2150596158546462,-3.073196878831471
1783116248301888000,1.866373062133789,0.08853946626186371,-0.33018404245376587,-0.07444028556346893,-0.20228569209575653,-0.33984774351119995,-0.9184682965278625,0.39337149262428284,-0.10683804750442505,0.05959683656692505,0.01446011301053317,-0.10069688383768748,-0.17500282608171863,-0.9792982459559944,0.34675500170744394,-0.21678152622784358,-3.0739522245447914
1783116248311808000,1.8762931823730469,0.08367094397544861,-0.4524258077144623,-0.6103566884994507,-0.20320391654968262,-0.3421192765235901,-0.9174216985702515,0.1574580818414688,-0.1643199324607849,0.06518781185150146,0.011943691856275718,-0.10162795654648837,-0.1759571044787569,-0.9790650537997282,0.349171349269023,-0.21797541774510373,-3.078600766098817
1783116248321726976,1.8862121105194092,0.13825330138206482,-0.2327556014060974,0.10974849760532379,-0.20392769575119019,-0.3437057137489319,-0.9166678190231323,0.4669434428215027,-0.10175937414169312,0.06426608562469482,0.010493575762336494,-0.10226909645284936,-0.1766553775719711,-0.9788890967192914,0.3508601787447903,-0.2189015277535588,-3.081202188474191
1783116248331646976,1.896131992340088,0.12640249729156494,-0.49046143889427185,-0.5202882885932922,-0.20693330466747284,-0.3459400534629822,-0.9151524901390076,0.45876437425613403,-0.00020557641983032227,-0.08214670419692993,0.009473918923982126,-0.10401751349899813,-0.17777545138990736,-0.9785123623081177,0.35324050828426024,-0.2223792046022164,-3.0823799837602697
1783116248341566976,1.9060521125793457,-0.37876132130622864,-0.4364059865474701,-0.11322053521871567,-0.2085629403591156,-0.34506234526634216,-0.9151139259338379,0.1577053964138031,-0.18939200043678284,-0.02319478988647461,0.00667673398084978,-0.10536202598204865,-0.1770363867070088,-0.9785256466856289,0.3523052050023652,-0.2240817887766474,-3.0878979714923527
1783116248351486976,1.9159719944000244,-0.3511132001876831,-0.39251816272735596,0.17154967784881592,-0.2107638269662857,-0.34213271737098694,-0.9157094955444336,0.4863375425338745,-0.24771103262901306,-0.1073465347290039,0.0065691094638791895,-0.10649971283860632,-0.175508057398981,-0.9786785268154662,0.34918565202597407,-0.22622463418460997,-3.0880992454167204
1783116248361406208,1.9258911609649658,-0.4270142912864685,-0.6776816248893738,0.0481225810945034,-0.21543188393115997,-0.3380325734615326,-0.9161458015441895,0.3231131434440613,-0.1341048777103424,-0.12575483322143555,0.005941764433690045,-0.10899739491272696,-0.17333977085608063,-0.9787939957262615,0.3448256336121796,-0.2309543108150175,-3.089058795734434
1783116248371325952,1.9358110427856445,-1.003401279449463,-0.6862090826034546,-0.14112962782382965,-0.22086654603481293,-0.33255186676979065,-0.9168572425842285,0.3190873861312866,-0.14585694670677185,-0.09400701522827148,0.005307814268305158,-0.11188034028424351,-0.1704528051450044,-0.9789793455116124,0.3390081649164773,-0.2363912893916495,-3.09010783999208
1783116248381246208,1.9457311630249023,-1.019841194152832,-0.6543251872062683,0.14583724737167358,-0.22568866610527039,-0.3236173689365387,-0.9188777804374695,0.24737142026424408,-0.1316438615322113,-0.010306119918823242,0.0036840127417242905,-0.11458281814551644,-0.16562570391692097,-0.9795026091468915,0.32955009785314354,-0.24084582598752594,-3.0938327017902973
1783116248391165952,1.955651044845581,-1.0712900161743164,-0.41132909059524536,-0.4794900119304657,-0.22915981709957123,-0.3138108551502228,-0.9214165806770325,0.2735934257507324,-0.12843462824821472,-0.06808537244796753,0.002295402954370043,-0.1165242970306782,-0.1603552018971587,-0.9801546314143696,0.319203976349859,-0.24375834872454336,-3.0974805226318156
1783116248401085184,1.9655702114105225,-0.9311700463294983,-0.6233453750610352,-0.13830944895744324,-0.2314625233411789,-0.30627450346946716,-0.9233748316764832,0.2293415665626526,0.007583707571029663,-0.08431559801101685,-0.0006986950228868842,-0.11812527158626401,-0.15607373316326234,-0.9806564717237021,0.3112769818436891,-0.24560931704181307,-3.104289626117199
1783116248411004928,1.9754900932312012,-1.0572725534439087,-0.4094591736793518,-0.23467805981636047,-0.2347293347120285,-0.29757875204086304,-0.9253913164138794,0.3447604775428772,-0.10514649748802185,-0.013497233390808105,-0.001961198475458215,-0.11991985481902966,-0.1514053534883001,-0.9811686319116089,0.3021554937321103,-0.2484148805076674,-3.1075811003643774
1783116248420925184,1.985410213470459,-0.6317387223243713,-0.08426009863615036,-0.009220501407980919,-0.2361661195755005,-0.2906346619129181,-0.9272308349609375,0.17206396162509918,-0.06430000066757202,0.009796202182769775,-0.0036670214376843266,-0.12084388227912936,-0.14758499988421847,-0.9816322834067954,0.2948900783317725,-0.24939770318708995,-3.1118337220785137
1783116248430844928,1.9953300952911377,-0.3899977505207062,-0.1842716485261917,-0.08958671241998672,-0.23706570267677307,-0.2858765423297882,-0.9284796714782715,0.38393154740333557,0.013430863618850708,0.034436702728271484,-0.004333441389380769,-0.12135202289999593,-0.14503054976412763,-0.9819476190165995,0.28992102803198616,-0.24998576244441714,-3.113737641744273
1783116248440763904,2.0052490234375,-0.5841588973999023,-0.2451823353767395,-0.13820281624794006,-0.23875491321086884,-0.2820022702217102,-0.9292312860488892,0.33578556776046753,0.0750473141670227,0.00529634952545166,-0.005177631618438969,-0.12230239332048864,-0.14292119869815587,-0.9821348969522464,0.285880440281624,-0.2514978870529462,-3.1157521885661277
1783116248450684160,2.015169143676758,-0.3678971827030182,-0.13424089550971985,-0.042123425751924515,-0.23965784907341003,-0.2783205509185791,-0.9301084876060486,0.2908816337585449,-0.0693509578704834,0.012444913387298584,-0.006228909407105358,-0.12287496004635429,-0.14088116558717623,-0.9823520079453242,0.282045122936285,-0.2521811339911766,-3.1182861766375916
1783116248460603904,2.0250890254974365,-0.7346310019493103,-0.2292841374874115,0.15318864583969116,-0.24060261249542236,-0.2726733982563019,-0.9315361380577087,0.35220539569854736,-0.21348688006401062,-0.03956371545791626,-0.006351246479074275,-0.12330884341384402,-0.1379378704974703,-0.9827144364567341,0.27617063895084537,-0.2527617796869135,-3.119207612310398
1783116248470523136,2.035008192062378,-0.8859971165657043,-0.2344682365655899,-0.06795012205839157,-0.24215546250343323,-0.26561540365219116,-0.9331715703010559,0.4125351011753082,-0.10247236490249634,-0.08719891309738159,-0.006772986764271193,-0.12408041279862378,-0.1342321211211131,-0.9831276471275902,0.26884220475395687,-0.253897090516122,-3.1208524833406113
1783116248480442880,2.0449280738830566,-0.7695427536964417,-0.3976662755012512,0.14849252998828888,-0.24523335695266724,-0.25845062732696533,-0.9343788623809814,0.38347798585891724,-0.09239473938941956,-0.10006022453308105,-0.007137495472041422,-0.12562947285212828,-0.1304905866032442,-0.983432069531122,0.26141798022766993,-0.25666717487931806,-3.122183605838044
1783116248490363136,2.0548481941223145,-0.6444319486618042,-0.3181259036064148,0.13685426115989685,-0.2478088140487671,-0.25065943598747253,-0.9358208179473877,0.3170989751815796,-0.14454320073127747,-0.1097266674041748,-0.007434847155091559,-0.12690068233261,-0.12643494415477913,-0.9837963478412932,0.25336138897299965,-0.2588622870079172,-3.1235552625707834
1783116248500282880,2.064768075942993,-0.512951135635376,-0.4443334937095642,0.09437496215105057,-0.25122472643852234,-0.24573713541030884,-0.9362154603004456,0.30453893542289734,-0.08576005697250366,-0.20488256216049194,-0.007316080086438224,-0.12858960769788927,-0.12392327100250404,-0.9838975143077673,0.24828007798515855,-0.26216464419470586,-3.123564975802254
1783116248510201856,2.0746870040893555,-0.23145531117916107,-0.2115415334701538,-0.01467189285904169,-0.25490108132362366,-0.2424718737602234,-0.9360730648040771,0.26634517312049866,-0.03812198340892792,-0.15389275550842285,-0.007363197346120144,-0.13045613224838878,-0.1222483440772967,-0.9838608909551975,0.24491295466043075,-0.2658626639420737,-3.1236488780188214
1783116248520122112,2.0846071243286133,-0.09599143266677856,-0.4578220546245575,0.17450179159641266,-0.2566964030265808,-0.2403123676776886,-0.9361394047737122,0.2651650607585907,-0.1274244487285614,-0.07525897026062012,-0.008056428021146915,-0.1314432978101055,-0.12104945892462923,-0.9838724099818955,0.24268764115983335,-0.26762925888736394,-3.125140532691012
1783116248530041856,2.094527006149292,-0.120493583381176,-0.18156838417053223,0.1635255664587021,-0.2611379027366638,-0.23822084069252014,-0.935445249080658,0.4444569945335388,-0.11495909094810486,-0.13585907220840454,-0.006808507702478289,-0.13356342461774479,-0.12015900426922198,-0.9837053230425906,0.24053353917625675,-0.2722286101956929,-3.1223345050344817
1783116248539961088,2.1044461727142334,0.46591344475746155,-0.5522313714027405,0.24292398989200592,-0.2651812732219696,-0.2396494448184967,-0.933941662311554,0.2615191638469696,0.00541175901889801,-0.13945311307907104,-0.0064758556741166895,-0.13563563099700351,-0.12096336531816601,-0.9833255208346321,0.2420047548267505,-0.2766564052865269,-3.120910401643528
1783116248549881088,2.114366054534912,0.5653417706489563,-0.48049378395080566,0.18141749501228333,-0.27004578709602356,-0.24406465888023376,-0.9314009547233582,0.38311341404914856,0.057419151067733765,-0.14947062730789185,-0.005359886547700906,-0.13807510770340953,-0.12342932386254005,-0.9826859394702634,0.24655506343164346,-0.2821975326232682,-3.117304985571428
1783116248559801088,2.12428617477417,0.6895374655723572,-0.501099705696106,0.2798883616924286,-0.27481165528297424,-0.24975161254405975,-0.9284948706626892,0.23001185059547424,-0.03671689331531525,-0.10667663812637329,-0.004388868730789223,-0.14049700840930615,-0.12654313366397174,-0.981951228199439,0.25242373466869905,-0.2877604454097629,-3.113768890121555
1783116248569721088,2.1342060565948486,0.3809489607810974,-0.4714432656764984,0.45653235912323,-0.2797427475452423,-0.2535713315010071,-0.9259836077690125,0.3479953110218048,-0.14860457181930542,-0.09791171550750732,-0.0024226994320389484,-0.14285222650863572,-0.1288466207643466,-0.9813184921811247,0.25637046419454046,-0.293385362840147,-3.108446280090791
1783116248579639808,2.144124984741211,0.5031269788742065,-0.3845556676387787,0.36521413922309875,-0.2840222716331482,-0.2567516565322876,-0.9238018989562988,0.3250073790550232,-0.1666492223739624,-0.13984251022338867,-0.00034601804478993323,-0.14484239433413054,-0.13084241175634753,-0.9807654543377075,0.2596596963645688,-0.29827696699732986,-3.1030676591769786
1783116248589560064,2.1540451049804688,-0.12024684250354767,-0.3194035589694977,0.6293965578079224,-0.287470281124115,-0.25768646597862244,-0.9224741458892822,0.32387775182724,-0.31666961312294006,-0.15015769004821777,0.002021787233709786,-0.14633332506257185,-0.13171746755969224,-0.9804248873083352,0.260627030059874,-0.3020917409863133,-3.0975787807932895
1783116248599479808,2.1639649868011475,-0.8647411465644836,-0.3432302474975586,0.7468979358673096,-0.29158538579940796,-0.25081467628479004,-0.923076331615448,0.19556182622909546,-0.45211195945739746,-0.10319924354553223,0.004925265703812023,-0.14803573232153205,-0.12863608693642903,-0.9805681515279551,0.25352173353478547,-0.30596514908164724,-3.0922514972358495
1783116248609400064,2.1738851070404053,-0.6740569472312927,-0.22625330090522766,0.7528806924819946,-0.2965866029262543,-0.24180381000041962,-0.9238870739936829,0.3089004456996918,-0.3081534504890442,-0.25514429807662964,0.0077594264482365345,-0.15021826742661915,-0.12446260639082665,-0.9807565323023394,0.24422439989339895,-0.3106283030296731,-3.0873436840791535
1783116248619319040,2.1838040351867676,-0.7607347965240479,-0.6275564432144165,0.7830643653869629,-0.30154845118522644,-0.2330269068479538,-0.9245361089706421,0.27508971095085144,-0.032949045300483704,-0.2054687738418579,0.01057168049331551,-0.1524128718145369,-0.1204253671748673,-0.9808956366940288,0.2351891310963235,-0.31528242850005034,-3.082483748977456
1783116248629239040,2.1937241554260254,-0.5037360191345215,-0.38723891973495483,0.5834977030754089,-0.3078906238079071,-0.22505204379558563,-0.9244214296340942,0.1748492419719696,0.09037797152996063,-0.10907161235809326,0.01308833663094134,-0.1553945745072973,-0.1167981839225231,-0.9808361325520795,0.22699645113690708,-0.32150727668521434,-3.0779433558523763
1783116248639159040,2.203644037246704,-0.4918297231197357,-0.4420710504055023,0.3361693322658539,-0.31175580620765686,-0.21951469779014587,-0.9244574904441833,0.24710431694984436,-0.10571113228797913,-0.14171987771987915,0.01461225138166924,-0.15722347132873393,-0.11424553412448583,-0.9808237991361484,0.22131700970126605,-0.325254435103499,-3.075341221752077
1783116248649079040,2.213564157485962,-0.5589344501495361,-0.49566689133644104,0.36465343832969666,-0.31696903705596924,-0.21355247497558594,-0.9240811467170715,0.26305973529815674,-0.24854469299316406,-0.15412014722824097,0.015620503670035254,-0.15982674952312048,-0.11142188602435442,-0.9807122987224458,0.2152098880670146,-0.3304341034639759,-3.0737212430596985
1783116248658998016,2.223483085632324,-0.910378634929657,-0.3752630650997162,0.6914059519767761,-0.3218587040901184,-0.2056727409362793,-0.924178421497345,0.3131459653377533,-0.4317326545715332,-0.20779484510421753,0.017419973496376938,-0.16218152478655626,-0.10774022150097058,-0.9807067743492467,0.20715108883797892,-0.3351280517688958,-3.070909201294129
1783116248668918016,2.233403205871582,-1.5082218647003174,-0.38255825638771057,0.7292054891586304,-0.3260977864265442,-0.1920592188835144,-0.9256206154823303,0.2037833333015442,-0.3075745701789856,-0.14228099584579468,0.019649546111099064,-0.1641748891000193,-0.10117462982341703,-0.9810322378488406,0.19326000341967922,-0.33872393301296727,-3.0683914158806584
1783116248678838016,2.2433230876922607,-1.6978386640548706,-0.696522057056427,0.7469442486763,-0.33238112926483154,-0.1748560667037964,-0.9267945885658264,0.28066912293434143,-0.11310781538486481,-0.19640487432479858,0.02173131309966082,-0.16730457975336843,-0.09280030483324295,-0.9812875398401876,0.17575958341459105,-0.34434683131405297,-3.0666682328544277
1783116248688758016,2.2532432079315186,-1.6834882497787476,-0.655941903591156,0.6625798344612122,-0.339408814907074,-0.15706661343574524,-0.9274328947067261,0.3898085951805115,0.10074642300605774,-0.21674740314483643,0.023379728731343856,-0.1709153062254952,-0.08409235831404903,-0.9814121256999376,0.1577196931984181,-0.3508269526468309,-3.065946859991211
1783116248698678016,2.2631630897521973,-1.937166452407837,-0.6390696167945862,0.5780121684074402,-0.3456415832042694,-0.13797765970230103,-0.9281670451164246,0.2587427794933319,0.19779212772846222,-0.16356879472732544,0.024522321688878787,-0.1742008490284915,-0.07463609233530492,-0.9815712495070712,0.13841925937976313,-0.35648187906381096,-3.0666623830566966
1783116248708598016,2.273083209991455,-2.0145468711853027,-0.5187061429023743,0.7224084734916687,-0.35173898935317993,-0.11784284561872482,-0.9286510348320007,0.22847849130630493,0.2512809634208679,-0.03732186555862427,0.025455829722473258,-0.17747747898300087,-0.06462376366201186,-0.9816707435564387,0.11811730792612576,-0.3620659814831176,-3.068097854433682
1783116248718518016,2.283003091812134,-2.453436851501465,-0.2722053825855255,0.7825611233711243,-0.35598915815353394,-0.09483903646469116,-0.9296651482582092,0.29795998334884644,0.08199113607406616,0.02425438165664673,0.027124353226904954,-0.17980721912648912,-0.0532615410298629,-0.9818843188662689,0.09498178406666324,-0.36569774904814095,-3.068780857028589
1783116248728437248,2.292922258377075,-3.5588791370391846,-0.5179304480552673,0.6317551136016846,-0.3598196804523468,-0.06513377279043198,-0.9307456016540527,0.2981589436531067,-0.3200285732746124,0.00760418176651001,0.027906043174512098,-0.18209274175317008,-0.03833309879515305,-0.9821375080668564,0.06517991458124772,-0.3688953980486696,-3.0726161201677993
1783116248738356992,2.302842140197754,-4.510056972503662,-0.5693880319595337,0.4373713433742523,-0.364568829536438,-0.025661515071988106,-0.9308227896690369,0.337835431098938,-0.6101264357566833,0.13095706701278687,0.026706236610549453,-0.18509763865469223,-0.01809630581124725,-0.9821904538501783,0.025664332210871544,-0.373298707208446,-3.0823781691825443
1783116248748277248,2.3127622604370117,-4.810396671295166,-0.66246098279953,0.7617693543434143,-0.37000131607055664,0.01969476044178009,-0.9288224577903748,0.24422311782836914,-0.5393022894859314,-0.005335867404937744,0.02524699051604379,-0.1885787199107222,0.0051810457483270865,-0.9817198202578606,-0.019696034342589774,-0.37908770836648353,-3.0939485202593273
1783116248758196992,2.3226821422576904,-4.406240463256836,-0.5242826342582703,0.7943384051322937,-0.3749929666519165,0.06485060602426529,-0.9247565865516663,0.2612234354019165,-0.1319587677717209,-0.10809558629989624,0.024879247289881393,-0.1919029613403813,0.028195257962136552,-0.9806933404673033,-0.06489614809954171,-0.38524262119525715,-3.103527044285648
1783116248768115968,2.3326010704040527,-3.551058530807495,-0.2794339656829834,0.45912739634513855,-0.3776482939720154,0.10391136258840561,-0.9201000928878784,0.16933530569076538,0.3439646065235138,-0.22556030750274658,0.0242234899273812,-0.19396481432331186,0.04824514056831532,-0.979522031361089,-0.10409927853563998,-0.3894760811641282,-3.112693049423482
1783116248778036224,2.3425211906433105,-3.4149346351623535,-0.4909053146839142,-0.0532909594476223,-0.38069796562194824,0.13602596521377563,-0.9146398305892944,0.16326022148132324,0.39949649572372437,-0.36076605319976807,0.021901609934071045,-0.1960531307617112,0.06514033021796627,-0.978182053672047,-0.1364489769161331,-0.3944165885537305,-3.1241238096513815
1783116248787955968,2.3524410724639893,-3.0609729290008545,-0.39163145422935486,0.15615548193454742,-0.3848291337490082,0.16574512422084808,-0.9079840779304504,0.2662378251552582,0.2485462725162506,-0.27953118085861206,0.019005537054573328,-0.19861341874787816,0.08099800731339087,-0.976540167447414,-0.1665135386872381,-0.40087760020939334,-3.1365785208764567
1783116248797875200,2.3623602390289307,-2.99287748336792,-0.21191301941871643,0.27492794394493103,-0.3868398070335388,0.19283939898014069,-0.9017582535743713,0.29601946473121643,0.02847406268119812,-0.35521501302719116,0.01713317105575841,-0.2000595436492242,0.09537842579966666,-0.9749798860716409,-0.19405504450693145,-0.40524021361342955,3.136747969377964
1783116248807794944,2.3722801208496094,-3.052476167678833,-0.083029605448246,0.09033198654651642,-0.387413889169693,0.22077910602092743,-0.8950793743133545,0.200005441904068,0.05621369183063507,-0.182572603225708,0.01519725731803816,-0.20074322975218029,0.11028361839574298,-0.9732978544624309,-0.22261322163388206,-0.40848087973637814,3.1265258426204534
1783116248817715200,2.382200241088867,-2.816375732421875,0.0027710157446563244,-0.11825680732727051,-0.38769733905792236,0.24627627432346344,-0.8882785439491272,0.18852436542510986,0.010239243507385254,-0.2743496298789978,0.012491094997963567,-0.20111352171998484,0.12415345531147956,-0.9715879889792902,-0.24883629953078423,-0.41153651574405387,3.11510844794263
1783116248827634944,2.392120122909546,-2.9948248863220215,0.12672758102416992,-0.17435124516487122,-0.386963427066803,0.2707938849925995,-0.8814363479614258,0.12861686944961548,-0.2782096564769745,-0.12246990203857422,0.008472657127827004,-0.20069680455317776,0.13785002352377804,-0.9698693162403574,-0.27421763541944943,-0.41368102083808284,3.1011745653447647
1783116248837554176,2.4020392894744873,-3.5214242935180664,0.1951749622821808,0.19941146671772003,-0.3851276636123657,0.2991889417171478,-0.873019278049469,0.24932444095611572,-0.3828071057796478,-0.032284677028656006,0.005169847222228851,-0.19980717595897532,0.15351695383481773,-0.9677204711577405,-0.30384254872992356,-0.41546535219398645,3.0877603556488697
1783116248847474176,2.411959171295166,-3.5258283615112305,0.18096540868282318,-0.028273889794945717,-0.3832148611545563,0.32997453212738037,-0.8627068996429443,0.2937525808811188,-0.07774674892425537,-0.025446176528930664,0.002137380364100287,-0.1989213763098997,0.17051933846519118,-0.9650641593224177,-0.3362766100496362,-0.4180206278601361,3.0740464326732733
1783116248857394176,2.421879291534424,-3.5579497814178467,0.2601747512817383,-0.22545848786830902,-0.38187506794929504,0.35974425077438354,-0.8513256907463074,0.12893018126487732,0.28515318036079407,-0.10820794105529785,-0.0023342255565636915,-0.1980021494331319,0.18743610021011217,-0.9621108756240596,-0.3679937863471463,-0.42166009475097393,3.0571269979455136
1783116248867314176,2.4317991733551025,-3.196765899658203,0.03720477223396301,-0.40702006220817566,-0.38127464056015015,0.38713884353637695,-0.8394957780838013,0.11627525091171265,0.18353986740112305,-0.19135749340057373,-0.007163653330718561,-0.19726718737911098,0.2033169288295035,-0.9590080766992974,-0.3975264319678837,-0.42631711784983206,3.0395137836472172
1783116248877233152,2.441718101501465,-2.422473430633545,0.012316165491938591,-0.08497115969657898,-0.3819648325443268,0.4093359112739563,-0.8285813331604004,0.24523082375526428,-0.1706884503364563,-0.2728438377380371,-0.011254102036976988,-0.197200537487555,0.2163822894313022,-0.9561192383150171,-0.4217260801823322,-0.4319526842019454,3.0241993123438857
1783116248887153152,2.4516382217407227,-1.9510891437530518,0.11912649869918823,0.41102156043052673,-0.3799806237220764,0.42802608013153076,-0.8200051188468933,0.3350129723548889,-0.19529902935028076,-0.2411368489265442,-0.012629181163632331,-0.19617612038381152,0.22696335932459777,-0.9538569488739429,-0.4423075261429285,-0.43393154240310855,3.0160733965165676
1783116248897073152,2.4615581035614014,-1.6150418519973755,0.37483200430870056,0.2711571156978607,-0.37605345249176025,0.443571001291275,-0.8135284781455994,0.26031553745269775,-0.14234724640846252,-0.19591671228408813,-0.012830106121110152,-0.19430089483219712,0.2355481375158737,-0.9521552558156563,-0.45957918135124154,-0.4329941153858288,3.0118360152009434
1783116248906992128,2.4714772701263428,-1.9490779638290405,0.5040754675865173,-0.24504497647285461,-0.3726472854614258,0.4576030671596527,-0.8073000907897949,0.15054038166999817,-0.1444469392299652,-0.11620759963989258,-0.015066636209273992,-0.19216587326368104,0.24376677869220517,-0.9504856369566821,-0.47529757388866567,-0.43245603860809967,3.003576688680695
1783116248916912128,2.4813971519470215,-2.3473052978515625,0.8718051314353943,-0.22232632339000702,-0.36815404891967773,0.4736003875732422,-0.8001032471656799,0.14282751083374023,-0.3937053680419922,-0.013220667839050293,-0.019138126249069104,-0.18895401060816872,0.25346546993572566,-0.9485174193773726,-0.4933742051137317,-0.43124864064810325,2.991045772474208
1783116248926832128,2.4913172721862793,-2.5279111862182617,0.9394499659538269,0.06736355274915695,-0.3608354926109314,0.4929744303226471,-0.7916905879974365,0.2120775580406189,-0.7240992784500122,0.11697745323181152,-0.022919097133535335,-0.18425552592287317,0.2649615442754409,-0.9462134775250802,-0.5155051652890121,-0.42764886895016285,2.9787976455383736
1783116248936752128,2.501237154006958,-2.0983870029449463,1.1731376647949219,0.3821990489959717,-0.3511747121810913,0.5118269324302673,-0.7840341329574585,0.2094815969467163,-0.8294233679771423,0.1361764669418335,-0.025506144940465207,-0.17852632649832542,0.27588271755191035,-0.9441221407125643,-0.5373100339062847,-0.4211123826452766,2.970028939335084
1783116248946671104,2.5111560821533203,-0.9863032102584839,0.9211419224739075,0.771977424621582,-0.33953145146369934,0.5262625217437744,-0.7795935869216919,0.21538594365119934,-0.5208761692047119,0.1296912431716919,-0.025527990366776762,-0.17235677996452073,0.28371877515841687,-0.9429449445407052,-0.5541991928643961,-0.4107504018071768,2.9691040401576974
1783116248956591104,2.521076202392578,0.05637813359498978,0.8585686087608337,0.7508705258369446,-0.3283260762691498,0.5317545533180237,-0.7806658148765564,0.2396419644355774,0.04283034801483154,-0.045857012271881104,-0.023475501920403357,-0.16691564802642106,0.28601792410705534,-0.9432825539928904,-0.5606709907550927,-0.3981139885663956,2.975796946681212
1783116248966511104,2.530996084213257,0.2706264853477478,0.8606448173522949,0.640100359916687,-0.3177211880683899,0.5327283143997192,-0.7843811511993408,0.1932552456855774,0.39276301860809326,0.03639531135559082,-0.021272472398337624,-0.16179146501540084,0.2857147920115267,-0.9443188773445021,-0.5618211966360981,-0.38486055464862406,2.984225827417436
1783116248976431104,2.5409162044525146,1.331578016281128,0.7776290774345398,0.6677516102790833,-0.30737772583961487,0.528718113899231,-0.7911865711212158,0.20702064037322998,-0.023285984992980957,0.14282536506652832,-0.018649928581991847,-0.1568637675107097,0.28248979897488485,-0.9461741632157934,-0.5570896020741308,-0.37055535892713115,2.9950778247163177
1783116248986350080,2.550835132598877,0.8836441040039062,0.8359555006027222,0.4979947507381439,-0.29746007919311523,0.520392656326294,-0.8004429936408997,0.23465487360954285,-0.48566365242004395,0.015591919422149658,-0.015949913853628532,-0.15212368258302456,0.27683366770102824,-0.9486659587574302,-0.5473106846983391,-0.3558034721544266,3.0071151372343192
1783116248996270080,2.5607552528381348,-0.7539506554603577,0.8059917688369751,0.13205300271511078,-0.2889271080493927,0.5210425853729248,-0.803141176700592,0.1293201744556427,-0.1837470531463623,0.28429657220840454,-0.01557905974741093,-0.14762299864827513,0.27683362495178876,-0.9493829119635372,-0.5480719762537016,-0.34533102344914113,3.010802991162115
1783116249006190080,2.5706751346588135,-1.1755375862121582,0.7495250701904297,0.25302761793136597,-0.28121015429496765,0.5296941995620728,-0.8002155423164368,0.14035630226135254,-0.06312620639801025,0.26977425813674927,-0.016647052240877407,-0.1432808625599616,0.2817140984818732,-0.948594050268035,-0.5582400240399099,-0.33793754291537476,3.008789808927085
1783116249016110080,2.5805952548980713,-0.6436914205551147,0.6489439606666565,0.40719354152679443,-0.2733650207519531,0.5381991863250732,-0.7972535490989685,0.22557446360588074,-0.308005154132843,0.16624152660369873,-0.016634876915955023,-0.1391824283761228,0.28635901716993806,-0.9478133193446242,-0.5682990247578579,-0.330320863253246,3.0092136383340864
1783116249026029056,2.5905141830444336,-0.07156478613615036,0.6718112230300903,0.5429585576057434,-0.2647749185562134,0.5421565771102905,-0.797471284866333,0.18359819054603577,-0.3591121435165405,0.03624081611633301,-0.0154097728937612,-0.13498039825317099,0.2881746869234923,-0.9478913883918928,-0.5730014924607048,-0.32056640788363155,3.0138957221265716
1783116249035949312,2.6004343032836914,0.6434526443481445,0.3818187117576599,0.3496350049972534,-0.2575647830963135,0.5409732460975647,-0.8006299734115601,0.19123482704162598,-0.2658725380897522,0.02253854274749756,-0.013841839420557224,-0.1315517813678363,0.28701766974182574,-0.9487483814040467,-0.5715938920092842,-0.31124667482014484,3.0202782120081237
1783116249045869056,2.61035418510437,1.1920294761657715,0.27592581510543823,0.32949724793434143,-0.25261595845222473,0.534294843673706,-0.8066686391830444,0.20871642231941223,-0.15244364738464355,-0.026964783668518066,-0.012188301627200164,-0.12927891994843863,0.28275900181854297,-0.9503609006341737,-0.5636732868429318,-0.3034856096995742,3.0274489303247085
1783116249055788032,2.6202731132507324,1.6463873386383057,0.22356684505939484,0.4201681911945343,-0.2478928565979004,0.5237999558448792,-0.8149740695953369,0.2055954933166504,-0.21857839822769165,-0.030271291732788086,-0.00977390716976743,-0.1272833516692855,0.27624610176017783,-0.9525709815292063,-0.5513057057957987,-0.29528054489878197,3.0369884771348863
1783116249065708288,2.6301932334899902,2.330667495727539,0.3052753210067749,0.6015459895133972,-0.24231548607349396,0.5087267160415649,-0.8261237144470215,0.20674723386764526,-0.25038015842437744,-0.037279605865478516,-0.006376834799732122,-0.12501538196296752,0.26703799612895807,-0.9555214974504442,-0.5337051424521583,-0.28531365796881203,3.049755497328756
1783116249075628032,2.640113115310669,2.0804660320281982,0.3082743287086487,0.645064651966095,-0.23588766157627106,0.4912526309490204,-0.8384675979614258,0.19362081587314606,-0.22982379794120789,-0.04965496063232422,-0.002304284829694805,-0.12240009668717881,0.2564847479967621,-0.9587640830513398,-0.5135273043583677,-0.27424332737839957,3.064357782712587
1783116249085548288,2.6500332355499268,1.568134069442749,0.7874425053596497,0.553668200969696,-0.22806119918823242,0.4773106575012207,-0.8486239314079285,0.11586332321166992,-0.2220463752746582,0.20867037773132324,0.0010291877298887208,-0.11887315594249054,0.24810722880495464,-0.9614108795655893,-0.49759169485518207,-0.2625392648054103,3.0766723668987064
1783116249095467008,2.659952163696289,0.9326702356338501,0.7658981680870056,0.37755531072616577,-0.21767841279506683,0.46706095337867737,-0.8570123910903931,0.010403022170066833,-0.38849344849586487,0.29623663425445557,0.0030484186528841875,-0.11371789679117394,0.2419959894778287,-0.9635854675805867,-0.4859639858836517,-0.24873682480663417,3.085963058982051
1783116249105387264,2.669872283935547,0.6501056551933289,0.37800687551498413,0.5332367420196533,-0.20992764830589294,0.4614010751247406,-0.8619973659515381,0.09034450352191925,-0.2669125497341156,0.4409768581390381,0.005070375040400413,-0.11003894461757865,0.23852200358135697,-0.9648694598493204,-0.47957377134260354,-0.2388859813827839,3.093434602243344
1783116249115307008,2.6797921657562256,0.8169010877609253,0.21871240437030792,0.7465575933456421,-0.20191144943237305,0.45553115010261536,-0.8670197129249573,0.38257554173469543,-0.14925676584243774,0.4233704209327698,0.008429604359990864,-0.10654197750651138,0.2348168740364812,-0.9661463360723624,-0.47296876048734476,-0.22880186698589014,3.1036746752291635
1783116249125227264,2.6897122859954834,0.8799107074737549,0.22449252009391785,0.7879548072814941,-0.18785488605499268,0.4472668468952179,-0.8744500875473022,0.21431362628936768,0.014967650175094604,0.41789186000823975,0.013208361452518226,-0.10016472330525417,0.2296562609787012,-0.9680137028498105,-0.46370713780167927,-0.2116101424720179,3.1187427773964322
1783116249135146240,2.6996312141418457,0.7006176114082336,0.25340187549591064,0.3347000181674957,-0.1790608912706375,0.4399968981742859,-0.8799658417701721,0.0832051932811737,0.16870668530464172,0.3635474443435669,0.01649814403391162,-0.09619238766980112,0.22530888476255218,-0.9693867478837551,-0.4555952055416798,-0.2007454010017288,3.128942153945562
1783116249145065984,2.7095510959625244,0.1682264357805252,0.3915421664714813,0.1069539412856102,-0.174146369099617,0.4358237087726593,-0.8830236792564392,-0.05459815263748169,0.2322671115398407,0.2628301978111267,0.017524975248153035,-0.09377848774567116,0.22292098850060493,-0.9701571281591309,-0.45095326757189647,-0.1947171805654968,3.132919048959273
1783116249154986240,2.7194712162017822,-0.44256794452667236,0.52217036485672,-0.015733495354652405,-0.16800238192081451,0.4367682933807373,-0.8837469816207886,-0.0005919784307479858,0.1602470874786377,0.050022006034851074,0.017318422549521394,-0.09055609039245237,0.22344153077397433,-0.9703471634153898,-0.4520030361486932,-0.18786073784621116,3.1339687299118646
1783116249164905984,2.729391098022461,-0.9667766094207764,0.47754189372062683,0.30227401852607727,-0.16176427900791168,0.44264084100723267,-0.8819872140884399,0.12358677387237549,0.005464017391204834,-0.17305123805999756,0.01723088373943495,-0.08741902185125686,0.22663696221652507,-0.9698952548231429,-0.4585416112678688,-0.181392856216904,3.134677840199777
1783116249174825216,2.7393102645874023,-1.9557349681854248,0.23770907521247864,0.3015827536582947,-0.1550685614347458,0.455323725938797,-0.876717746257782,0.20560568571090698,-0.1861129105091095,-0.12003213167190552,0.017967384544995992,-0.08438583738691122,0.23349551452593065,-0.9685225508515451,-0.4727357867907789,-0.1750633893293507,3.1364217197331654
1783116249184744960,2.749230146408081,-3.064634084701538,-0.021953657269477844,0.14093154668807983,-0.15108373761177063,0.4769030809402466,-0.8658736348152161,0.08080175518989563,-0.24873840808868408,0.021772682666778564,0.01809774193175454,-0.08282179076210096,0.24536448767146482,-0.9657169990020134,-0.4971279322751529,-0.17274791462510988,3.1351207727479986
1783116249194665216,2.759150266647339,-2.798691511154175,-0.3355300724506378,0.14772090315818787,-0.15069052577018738,0.5027143359184265,-0.8512171506881714,-0.016377955675125122,-0.10651987791061401,0.03793895244598389,0.01779387856115379,-0.08313320615378389,0.2597696908653094,-0.9619209736957487,-0.5267358857851755,-0.17521415749410124,3.1312294192012162
1783116249204584192,2.769069194793701,-2.0033247470855713,0.015370696783065796,0.38946110010147095,-0.14996406435966492,0.5225805640220642,-0.8392975330352783,0.012741774320602417,0.10304504632949829,-0.11243891716003418,0.01838640702278971,-0.08339866478238134,0.27091676482629024,-0.9588069279554822,-0.5498748666873385,-0.17681219896811767,3.129945332972495
1783116249214503936,2.77898907661438,-1.5442731380462646,0.12798570096492767,0.2112010270357132,-0.1460392326116562,0.5371547937393188,-0.8307449817657471,-0.022448301315307617,0.5459597706794739,-0.027683913707733154,0.01948355676351091,-0.08202119816025374,0.27910575354875405,-0.956552572685571,-0.5670602979363837,-0.1740150855718231,3.1315020852056823
1783116249224424192,2.7889091968536377,-0.9531887769699097,-0.14508391916751862,-0.31539833545684814,-0.14369240403175354,0.5472330451011658,-0.8245535492897034,-0.12327538430690765,0.7989888787269592,-0.09083646535873413,0.018968432515204862,-0.0808955472933661,0.28491953204345105,-0.954943487615056,-0.5790547511193795,-0.1725342723763364,3.1298001333732226
1783116249234343936,2.7988290786743164,-0.3127891719341278,-0.14302009344100952,-0.31280672550201416,-0.14266224205493927,0.5507850050926208,-0.8223645091056824,0.13340015709400177,0.6604118943214417,-0.2888415455818176,0.017750995316254323,-0.08007887928822843,0.28706291154407676,-0.9543936803128925,-0.5833044837361652,-0.17176862573467153,3.1271040212268604
1783116249244263168,2.808748245239258,-0.3861787021160126,-0.4866032898426056,-0.0905105322599411,-0.14518289268016815,0.5528830885887146,-0.8205134272575378,0.29027873277664185,0.3593330979347229,-0.20358026027679443,0.017213888241921133,-0.08130119031486034,0.2883286560979641,-0.9539184730350678,-0.5858202897152984,-0.17512888421736955,3.1247403919432877
1783116249254183168,2.8186681270599365,-0.4063480496406555,-0.7317386269569397,-0.053620755672454834,-0.15012185275554657,0.556003212928772,-0.817510724067688,0.29886454343795776,0.020443260669708252,-0.11771565675735474,0.01765553308790848,-0.08412667789634531,0.29011606123795924,-0.9531230931827315,-0.5895694839052464,-0.18160956345616855,3.1233558731500013
1783116249264103168,2.8285882472991943,-0.2634771764278412,-0.8221439123153687,0.06635917723178864,-0.15595297515392303,0.5584930777549744,-0.8147172331809998,0.23938803374767303,-0.28400272130966187,-0.13410478830337524,0.01875160616694703,-0.08761554741397773,0.2914873925118733,-0.9523691310404115,-0.5925680146754702,-0.18913187547994742,3.123073711862166
1783116249274023168,2.838508129119873,-0.4563775956630707,-0.6964972019195557,0.15313126146793365,-0.16076990962028503,0.5614225268363953,-0.8117621541023254,0.2900881767272949,-0.30412888526916504,-0.06363457441329956,0.02029980917514139,-0.09072891743106927,0.293065179243033,-0.9515612867491395,-0.5961037932006812,-0.19552036464658748,3.1240141815267495
1783116249283942144,2.8484272956848145,-0.6406803131103516,-0.6651208996772766,0.08702254295349121,-0.16461296379566193,0.5659977197647095,-0.8078051805496216,0.28312796354293823,-0.04973185062408447,0.05670654773712158,0.021826538503354642,-0.09338190771096844,0.2955963983027511,-0.9504873888871428,-0.601642961298422,-0.2010256410470895,3.1249556713450843
1783116249293862144,2.858347177505493,-0.9027372002601624,-0.34824517369270325,0.002956036012619734,-0.16766823828220367,0.5721914172172546,-0.8027978539466858,0.2511643171310425,0.18853551149368286,0.1883416771888733,0.02246670491361191,-0.09540631676247521,0.29916335123165,-0.9491544818083847,-0.6091754228055025,-0.20589517523283465,3.1239901798331307
1783116249303782144,2.868267297744751,-1.392931342124939,-0.04030333086848259,-0.21050883829593658,-0.1688528209924698,0.5808329582214355,-0.7963176369667053,0.1927175670862198,0.24700212478637695,0.2927013635635376,0.021805755554149646,-0.0961116517139462,0.30430859536707155,-0.9474615345507577,-0.619751571313126,-0.20894718757439143,3.120492202550788
1783116249313701120,2.8781862258911133,-1.6469682455062866,0.12359962612390518,-0.24698352813720703,-0.1688828021287918,0.5924715399742126,-0.7876903414726257,0.2491898089647293,0.19442421197891235,0.33766287565231323,0.020076713447953507,-0.09594860394149317,0.31136583777163107,-0.9452207080607412,-0.6341233749908892,-0.21120502148635378,3.1145329802818376
1783116249323621120,2.888106107711792,-1.6535369157791138,0.26105839014053345,-0.36115962266921997,-0.16774563491344452,0.6049425005912781,-0.7783995866775513,0.3423977494239807,0.09319281578063965,0.11540526151657104,0.017758297858665686,-0.0949699166907982,0.3190312173333388,-0.9428066616191693,-0.6496936813956731,-0.21225466386211173,3.1075379655241506
1783116249333541120,2.89802622795105,-1.2503172159194946,0.17473375797271729,-0.40943947434425354,-0.16689468920230865,0.6153886914253235,-0.7703524827957153,0.38286757469177246,0.1345807909965515,-0.04046905040740967,0.015086212242240273,-0.09392737711264233,0.32557857350355607,-0.9407171380254202,-0.6628790113105985,-0.2133500283224431,3.099996329654042
1783116249343461120,2.9079461097717285,-0.859382152557373,0.01795240491628647,-0.37708818912506104,-0.1674831062555313,0.6227278709411621,-0.7643032073974609,0.3881251811981201,0.1404862403869629,-0.16028785705566406,0.012797574277151856,-0.09366861829546146,0.3302644165628858,-0.9391420277734664,-0.6722242309608152,-0.21572199434004233,3.0932206606171038
1783116249353380096,2.91786527633667,-0.5586249232292175,-0.012903856113553047,-0.42340797185897827,-0.16899985074996948,0.6272110342979431,-0.7602929472923279,0.3405391573905945,0.08838033676147461,-0.14910036325454712,0.010800231113534385,-0.0939119884945783,0.33321774006522914,-0.9380990956359863,-0.6779671838974268,-0.21872642089353173,3.0872255868762637
1783116249363300096,2.9277851581573486,-0.6884459853172302,0.035300157964229584,-0.42136162519454956,-0.17069880664348602,0.631147027015686,-0.7566474676132202,0.23951593041419983,0.033876776695251465,-0.042287468910217285,0.008705060434561648,-0.09419326123100136,0.3358629048808613,-0.9371488712625585,-0.6830310586661373,-0.22188436623432667,3.0810188270789705
1783116249373220096,2.9377052783966064,-0.8204271793365479,0.03827936202287674,-0.4898466169834137,-0.1726684272289276,0.6359883546829224,-0.752133309841156,0.20057673752307892,0.08588969707489014,0.019741952419281006,0.006266474802371227,-0.09451148093336531,0.33911787102124497,-0.9359634178113815,-0.689288592290888,-0.2256614552119498,3.073676320288099
1783116249383140096,2.947625160217285,-0.7907726168632507,0.09602441638708115,-0.5594989657402039,-0.17475482821464539,0.6411952972412109,-0.7472143173217773,0.18400168418884277,0.1920413374900818,-0.02933591604232788,0.00348807923588856,-0.09476423554405922,0.3426551746071174,-0.9346629904560565,-0.6960549101588666,-0.2297456674176079,3.065386170981066
1783116249393059072,2.9575440883636475,-0.3828422427177429,0.28533604741096497,-0.532157838344574,-0.17641489207744598,0.6445591449737549,-0.7439228892326355,0.14476817846298218,0.21022295951843262,-0.1061747670173645,0.00034971063414610584,-0.09459113951692959,0.34509573372620445,-0.9337886558390728,-0.7004464956473061,-0.23284029551694177,3.0569549540229874
1783116249402979072,2.9674642086029053,-0.4165024757385254,0.5559127330780029,-0.5885238647460938,-0.17619431018829346,0.6463583111763,-0.7424126267433167,0.13252365589141846,0.09846895933151245,-0.24829477071762085,-0.0030840973641277193,-0.09324007227999363,0.3465544366103719,-0.933379259267146,-0.7028021054401055,-0.23301571773725593,3.049220666902056
1783116249412899072,2.977384090423584,-0.31592872738838196,0.4538593590259552,-0.5527878403663635,-0.1757717728614807,0.6481266021728516,-0.740969717502594,0.1226712018251419,0.05606651306152344,-0.24233710765838623,-0.0066438065019001485,-0.09172158169783784,0.3479975299231033,-0.9329741092409903,-0.7051218277058829,-0.2329133755420045,3.0413176497918024
1783116249422819072,2.987304210662842,-0.42923957109451294,0.42806771397590637,-0.4630739390850067,-0.17532595992088318,0.6499469876289368,-0.7394794225692749,0.20617923140525818,0.04701346158981323,-0.2559124231338501,-0.009952767294049893,-0.09027448952720739,0.3494435832680638,-0.9325453008862407,-0.707514670963545,-0.23279523261734658,3.0339418683179953
1783116249432738048,2.997223138809204,-0.10018883645534515,0.309950590133667,-0.31211724877357483,-0.1748770773410797,0.6514195203781128,-0.7382890582084656,0.23972691595554352,0.1894465684890747,-0.2305830717086792,-0.01240209498799656,-0.08913411609843022,0.35058607181249885,-0.9321967598349793,-0.7094538583503984,-0.23258149399596437,3.028502511918305
1783116249442658304,3.007143259048462,0.4153887629508972,0.14868579804897308,-0.38115864992141724,-0.17485223710536957,0.6496270298957825,-0.7398726344108582,0.22278007864952087,0.28859013319015503,-0.24396836757659912,-0.014203623188452717,-0.08841990190843842,0.3496363980700856,-0.9325956727063908,-0.7070937311217449,-0.23206960893747122,3.025155157406237
1783116249452578048,3.0170631408691406,0.8819453716278076,0.25156185030937195,-0.510496199131012,-0.176235169172287,0.6443090438842773,-0.7441820502281189,0.1275443732738495,0.33088016510009766,-0.13385438919067383,-0.01635777279003775,-0.08830152669654519,0.34657149448995966,-0.9337148539552386,-0.7001194880028441,-0.23253342725677942,3.0213281125488622
1783116249462497024,3.026982069015503,1.5207072496414185,0.349703311920166,-0.5939751267433167,-0.17697787284851074,0.634324848651886,-0.7525362968444824,0.06139253079891205,0.2738019824028015,-0.13283967971801758,-0.018764979821822753,-0.08771925147795222,0.3406423072096732,-0.9359038955021702,-0.6871348339333184,-0.23097797835956313,3.018542373230842
1783116249472417024,3.0369021892547607,1.335618257522583,0.48632651567459106,-0.6274047493934631,-0.17779594659805298,0.6220930814743042,-0.7624885439872742,0.08754022419452667,0.1283799409866333,-0.08927232027053833,-0.021722110265436963,-0.08700618140567332,0.3334451342982865,-0.9384947399713229,-0.6714132384873533,-0.22908511260642644,3.015070285380018
1783116249482337024,3.0468220710754395,0.830918550491333,0.35022807121276855,-0.6149778962135315,-0.17801281809806824,0.6128634214401245,-0.7698765397071838,0.19429393112659454,-0.04403102397918701,0.06917768716812134,-0.024717640478187884,-0.08602427720894756,0.328118199943998,-0.9403868389824824,-0.6596792613547547,-0.22722919722302018,3.010948013521975
1783116249492257024,3.0567421913146973,0.5532627701759338,0.3531201183795929,-0.6609354019165039,-0.17871201038360596,0.6065272688865662,-0.7747171521186829,0.22514450550079346,-0.12029069662094116,0.00025731325149536133,-0.027974211402577283,-0.08525574393922099,0.32461189253956085,-0.9415816676667988,-0.6516854309891201,-0.22671444751453948,3.0052948844537335
1783116249502176000,3.0666611194610596,0.23058675229549408,0.4027217626571655,-0.900477945804596,-0.180500790476799,0.6019644737243652,-0.777854859828949,0.2046707272529602,-0.1259360909461975,-0.03302764892578125,-0.032045721019610444,-0.08481724460316795,0.3223020389650457,-0.9422846895657692,-0.6459589941530401,-0.22801398551083457,2.996990746634592
1783116249512096256,3.0765812397003174,0.18469828367233276,0.14716143906116486,-1.0129588842391968,-0.183957040309906,0.5990440249443054,-0.7792984843254089,0.09988109767436981,-0.02821272611618042,-0.0008376240730285645,-0.03694955213943738,-0.08500143272833371,0.32113163401389694,-0.9424882345981465,-0.6423066983524728,-0.23181119918772689,2.985799208993414
1783116249522016000,3.086501121520996,0.2052709460258484,0.3351622521877289,-0.7219418287277222,-0.1870260089635849,0.5956729650497437,-0.7811498641967773,0.1872396171092987,-0.05812108516693115,-0.062081336975097656,-0.04136817921843765,-0.08516149564547472,0.3196444906938499,-0.9427956865233196,-0.6381031867209204,-0.2350002605357696,2.9759434784632264
1783116249531936256,3.096421241760254,-0.020326698198914528,0.3826793134212494,-0.6449456214904785,-0.18836018443107605,0.593693733215332,-0.782335102558136,0.16159628331661224,-0.07579517364501953,0.027787983417510986,-0.044989680235846895,-0.0846659148943229,0.3188481444962193,-0.9429440382133106,-0.6356413549249681,-0.23626974249796684,2.9681908891911064
1783116249541854976,3.106340169906616,-0.33355891704559326,0.40064817667007446,-1.0340356826782227,-0.18980535864830017,0.5933815240859985,-0.7822226881980896,0.05772528052330017,-0.21389544010162354,0.0615043044090271,-0.049283994721683565,-0.08398794034168709,0.3191154679397108,-0.9426995533360847,-0.6352533941419658,-0.2380479626698066,2.958537227739852
1783116249551775232,3.116260290145874,-0.761013388633728,0.5689319372177124,-0.9288402795791626,-0.19189342856407166,0.5957280397415161,-0.7799263596534729,-0.06880299746990204,-0.2314244508743286,0.08723831176757812,-0.0552563530504087,-0.08303691407777343,0.3211568228813777,-0.9417590160715799,-0.6381717754162061,-0.24124858067528065,2.9443313752399836
1783116249561694976,3.1261801719665527,-0.8289852738380432,0.655112624168396,-0.6394984722137451,-0.191011443734169,0.6008328795433044,-0.776218056678772,0.015016570687294006,-0.25651830434799194,0.05737650394439697,-0.05979846365957441,-0.08091160486539824,0.32456783935037165,-0.9404962412100232,-0.644542623922962,-0.24128549357648085,2.9336828344380566
1783116249571615232,3.1361002922058105,-0.853399395942688,0.6312283277511597,-0.698457658290863,-0.18959923088550568,0.6061121821403503,-0.7724507451057434,-0.06589391827583313,-0.3430202007293701,-0.024103820323944092,-0.06446510155949965,-0.0784201100620958,0.3280623807961568,-0.9391855914275858,-0.6511634524137648,-0.24069320570782907,2.9229226535053314
1783116249581534208,3.146019220352173,-0.9040253162384033,0.6007234454154968,-0.5100882649421692,-0.18849323689937592,0.6116380095481873,-0.7683548927307129,0.006059169769287109,-0.26103681325912476,-0.04406881332397461,-0.06843575701987521,-0.07629327186350657,0.33166534798192365,-0.9378133918739288,-0.6581294172028315,-0.24056965360562166,2.913401948541318
1783116249591453952,3.1559391021728516,-0.7914801239967346,0.8397220969200134,-0.37649527192115784,-0.18551112711429596,0.6175790429115295,-0.7643178701400757,0.01269008219242096,-0.15838104486465454,-0.030039429664611816,-0.07207733490403152,-0.0732356342839481,0.3353768226663321,-0.9364634701437341,-0.6656608445780392,-0.2381101801372312,2.9053039536325342
1783116249601374208,3.1658592224121094,-0.7235231995582581,0.8223638534545898,-0.3644524812698364,-0.18102222681045532,0.6221021413803101,-0.7617216110229492,-0.08144418895244598,-0.25084060430526733,-0.1299256682395935,-0.07529813919117447,-0.06953773849718942,0.3380882790822795,-0.9355163947306883,-0.6714247818889717,-0.23332064148506124,2.89922620112849
1783116249611293184,3.1757781505584717,-0.5731273293495178,0.824669361114502,-0.36355060338974,-0.1763657033443451,0.6268911361694336,-0.758882462978363,-0.07706749439239502,-0.25514131784439087,-0.03549003601074219,-0.07859864706079624,-0.06568854585816498,0.34094542410461437,-0.9344856275473697,-0.677556481692998,-0.22834838011701428,2.8930006108651294
1783116249621213184,3.1856982707977295,-0.26997706294059753,0.5288392901420593,-0.3997275233268738,-0.17302535474300385,0.6293182969093323,-0.7576415538787842,0.057165369391441345,-0.20147711038589478,-0.17204594612121582,-0.08166409501535728,-0.06269426963291393,0.3424159025848056,-0.9338906660065502,-0.6806757035096177,-0.22452318712478853,2.8873455419944665
1783116249631133184,3.195618152618408,0.0018205493688583374,0.6037795543670654,-0.18729214370250702,-0.170260488986969,0.6301247477531433,-0.7575976252555847,0.1261778622865677,-0.2223030924797058,-0.11264163255691528,-0.08410041004384236,-0.060293728605369,0.34287878830759266,-0.9336626229878872,-0.681713876039623,-0.2210644552543529,2.8832337813345674
1783116249641053184,3.205538272857666,0.03541019931435585,0.790743887424469,-0.20068597793579102,-0.1656925082206726,0.6292667388916016,-0.7593216300010681,0.1552097201347351,-0.23276710510253906,-0.10539394617080688,-0.08589948681932325,-0.05723601523194268,0.34214503059419155,-0.9339604282487796,-0.6806093869720806,-0.2148434807733107,2.8818333589173877
1783116249650972160,3.2154572010040283,0.4314589500427246,0.5194260478019714,-0.14715181291103363,-0.16104432940483093,0.627486526966095,-0.7617908716201782,-0.0035827159881591797,-0.047149062156677246,0.009166419506072998,-0.08766734973287033,-0.054194243533517185,0.3408336003805331,-0.9344569403434118,-0.6783208993257724,-0.2083348681944165,2.880774902869146
1783116249660891904,3.225377082824707,0.3811987042427063,0.5967147350311279,-0.3331983685493469,-0.15807625651359558,0.6240541934967041,-0.7652243375778198,0.08390328288078308,0.011581182479858398,-0.06497585773468018,-0.08960343614011375,-0.052069408985091985,0.3386393461011399,-0.9351916626561109,-0.6739205136701362,-0.20370965066564362,2.8789691430051576
1783116249670812160,3.235297203063965,0.8361067771911621,0.6849654912948608,-0.2444019615650177,-0.1545286327600479,0.6192308068275452,-0.7698532938957214,0.07837201654911041,0.16233962774276733,-0.05927872657775879,-0.09193959395257777,-0.04957368514121802,0.33558276099337553,-0.9362018337406075,-0.6677627424744311,-0.1980923627652263,2.8769006318556403
1783116249680732160,3.2452173233032227,1.0558772087097168,0.32903778553009033,-0.10607337951660156,-0.15171927213668823,0.6116019487380981,-0.7764819860458374,0.07785147428512573,0.057938456535339355,-0.1685100793838501,-0.09308295316470816,-0.04805077381963371,0.3308324668212963,-0.9378574120466763,-0.6580838028970548,-0.1929620101024548,2.8776703605666665
1783116249690651136,3.255136251449585,1.414536476135254,0.24547941982746124,-0.2777405381202698,-0.15015451610088348,0.6019785404205322,-0.7842674851417542,-0.002509668469429016,0.020412206649780273,-0.10293954610824585,-0.0943234107356577,-0.04726621820367342,0.32501101502181473,-0.9398068144338777,-0.6459765486713155,-0.18916906207596768,2.87804846173173
1783116249700571392,3.2650563716888428,1.7111127376556396,0.23670083284378052,-0.4502848982810974,-0.15011213719844818,0.5891993641853333,-0.7939209342002869,-0.04100421071052551,0.10466355085372925,-0.17669063806533813,-0.09607259876655919,-0.04728687200848592,0.31749563698392536,-0.9421945705675374,-0.630067607514736,-0.1868708818343877,2.8773038014701733
1783116249710491136,3.2749762535095215,1.9140228033065796,0.3581444025039673,-0.42386025190353394,-0.15055792033672333,0.5738317370414734,-0.8050151467323303,-0.009735658764839172,0.2173364758491516,-0.1746448278427124,-0.0978973528768192,-0.04769630720534995,0.3085732911550053,-0.9449464033453386,-0.6111769634494402,-0.18488899700634448,2.8766502999737322
1783116249720410368,3.284895420074463,1.9602382183074951,0.4644668698310852,-0.5285730957984924,-0.14860549569129944,0.5576887130737305,-0.8166393041610718,0.004348888993263245,0.20494556427001953,-0.14925730228424072,-0.10015517248808466,-0.046784211544782815,0.29915143880899475,-0.9477809431017082,-0.5915986612431624,-0.1800024011918671,2.876038917343469
1783116249730330112,3.2948153018951416,2.026984453201294,0.3056110441684723,-0.3749384880065918,-0.1480569988489151,0.5407770276069641,-0.828033447265625,0.0330667644739151,0.13082337379455566,-0.2290802001953125,-0.10249394006908437,-0.046665778480009405,0.2894919552256725,-0.9505323186602089,-0.5713605530501568,-0.17693577004582228,2.874673980285026
1783116249740250368,3.3047354221343994,2.1119062900543213,0.2466534525156021,-0.49901145696640015,-0.14747856557369232,0.5231192708015442,-0.8394023180007935,0.16008234024047852,0.07305687665939331,-0.25924575328826904,-0.10428171491148704,-0.04677773056424957,0.27948287934341626,-0.9533238895621745,-0.5505068775148513,-0.17391967131170252,2.8744509926366653
1783116249750170112,3.314655303955078,2.0625548362731934,0.34075838327407837,-0.28191643953323364,-0.14694789052009583,0.5050861835479736,-0.8504670858383179,0.05655483901500702,0.08201098442077637,-0.18972456455230713,-0.10607322345417161,-0.04696630619438952,0.26937080241776146,-0.9560240597949863,-0.529481840004457,-0.17109561443542687,2.8741017548166297
1783116249760089088,3.3245742321014404,2.263807535171509,0.2678322494029999,-0.583751380443573,-0.14617648720741272,0.4861905574798584,-0.8615399599075317,0.08656042814254761,0.1922151744365692,-0.12434560060501099,-0.1079557031903927,-0.0470863428106432,0.25886847031183136,-0.9587050856026721,-0.5077250777620973,-0.16806827970332386,2.8736227916292014
1783116249770009344,3.3344943523406982,2.685675621032715,0.41993963718414307,-0.532969057559967,-0.14551445841789246,0.46396586298942566,-0.873819887638092,-0.015435263514518738,0.25624898076057434,-0.14917504787445068,-0.11058190228177629,-0.047294301687876766,0.24668459837650655,-0.9616037165947131,-0.48246686563581725,-0.16501261288113225,2.8719199390546475
1783116249779929088,3.344414234161377,2.9759438037872314,0.32932931184768677,-0.4308432340621948,-0.14350862801074982,0.4384629428386688,-0.8872178792953491,0.07461519539356232,0.13633564114570618,-0.10252821445465088,-0.11252814847219979,-0.047225965862996454,0.23272469191548112,-0.9648555959032964,-0.45388773914985375,-0.16036237039022855,2.872281292818703
1783116249789849344,3.3543343544006348,3.3041205406188965,0.263474702835083,-0.6340439915657043,-0.14306795597076416,0.4103158712387085,-0.9006510972976685,0.05757296085357666,0.096748948097229,-0.018401026725769043,-0.11447182499374037,-0.0481597023296784,0.21761222379883366,-0.9681021572833314,-0.42280040381474754,-0.15753325633514897,2.8723240382602113
1783116249799768320,3.364253282546997,3.5363640785217285,0.15780127048492432,-0.49955618381500244,-0.1428452581167221,0.3787301778793335,-0.9144171476364136,0.08208474516868591,0.1061636209487915,0.006824374198913574,-0.11688559692855745,-0.04935523514280169,0.20088676412223383,-0.9713631497349735,-0.38842387113695914,-0.1549621262937233,2.871542788016455
1783116249809688320,3.374173402786255,3.7066972255706787,0.08338475227355957,-0.22967146337032318,-0.14270921051502228,0.3448980450630188,-0.9277280569076538,0.12268969416618347,0.058605343103408813,0.09142440557479858,-0.11767196315002283,-0.051102732408753904,0.18309688068686647,-0.974688300272156,-0.3521301759771976,-0.15263017645621468,2.8740948185759163
1783116249819608320,3.3840932846069336,3.426596164703369,0.2742351293563843,-0.48584091663360596,-0.14213746786117554,0.31128159165382385,-0.9396279454231262,0.03332705795764923,0.04478222131729126,0.165152907371521,-0.11835415430609256,-0.05264912588593458,0.1655720062881307,-0.9776534151957172,-0.3165413254368008,-0.15013171053923854,2.876640465463188
1783116249829527040,3.394012212753296,3.3722939491271973,0.21807575225830078,-0.3757382333278656,-0.14059776067733765,0.27847692370414734,-0.9500962495803833,0.06729453802108765,0.11017969250679016,0.2203599214553833,-0.12004583235684786,-0.05352187844759242,0.1486179192269921,-0.9801209737254345,-0.2822079364063707,-0.1469164022710718,2.8769393860345294
1783116249839447296,3.4039323329925537,2.947641372680664,0.16641202569007874,-0.34793800115585327,-0.1392984688282013,0.24854162335395813,-0.9585525393486023,0.2456217259168625,0.047295764088630676,0.20762181282043457,-0.12073854717400649,-0.05453470929465716,0.13322796232473694,-0.9821906268197503,-0.2511743477405129,-0.1443114578901545,2.8787135602958642
1783116249849367040,3.4138522148132324,2.739712953567505,0.11835814267396927,-0.3398602604866028,-0.13879357278347015,0.2210506796836853,-0.9653356671333313,0.17509424686431885,-0.05593530833721161,0.1937139630317688,-0.12171328160304772,-0.05578676034075599,0.11924767528898897,-0.9837954962393635,-0.22289166210039868,-0.14279891988003082,2.8794000072976167
1783116249859287296,3.4237723350524902,2.524350881576538,-0.1539628654718399,-0.3570818305015564,-0.139102503657341,0.19528363645076752,-0.9708319902420044,0.2283816784620285,-0.04619000852108002,0.1028052568435669,-0.12253790437119667,-0.057386274839620534,0.10625822504007777,-0.985089023756857,-0.19654664454096757,-0.14231313473786775,2.880024322636261
1783116249869206272,3.4336912631988525,2.4430103302001953,-0.048914968967437744,-0.3331708312034607,-0.14062055945396423,0.17074885964393616,-0.9752285480499268,0.20133528113365173,-0.03274835646152496,0.04323697090148926,-0.11783029354019023,-0.06006487346074896,0.09369069589180685,-0.9867776902741826,-0.17158963393490753,-0.14320537782145937,2.891562321167766
1783116249879126272,3.4436113834381104,2.105847120285034,-0.03425586223602295,-0.38268139958381653,-0.1413007527589798,0.14833390712738037,-0.9787906408309937,0.1344342976808548,-0.08308732509613037,0.03851354122161865,-0.11341167775344052,-0.062063247249125146,0.08217557427391654,-0.9881969079739414,-0.14888332422596295,-0.1433720841505427,2.9023490978613133
1783116249889046272,3.453531265258789,1.5736491680145264,0.08404502272605896,-0.3350343704223633,-0.14132538437843323,0.13007192313671112,-0.9813808798789978,0.14086762070655823,-0.14243154227733612,0.1208462119102478,-0.10915907921373498,-0.06339971222120386,0.07273263453033038,-0.9893304857418209,-0.13044151243980623,-0.14302340783018322,2.912451824265544
1783116249898966272,3.463451385498047,1.244687557220459,0.008775302208960056,-0.3055555820465088,-0.14132541418075562,0.11571504175662994,-0.9831770658493042,0.2686600089073181,-0.14020541310310364,0.1470412015914917,-0.10477829322318276,-0.06445421940581883,0.06524657972042221,-0.9902576544992805,-0.11597484916773544,-0.14276568117031604,2.922456952781059
1783116249908885248,3.473370313644409,1.1782015562057495,-0.015884239226579666,-0.2857776880264282,-0.1410517543554306,0.1037352904677391,-0.9845523834228516,0.2526240348815918,-0.1038878858089447,0.14719581604003906,-0.10071096564433595,-0.06517275044469345,0.058960336403005055,-0.9910265185231395,-0.10392224875641755,-0.1422965881223563,2.9316292346363757
1783116249918805248,3.483290195465088,1.0456784963607788,-0.06966864317655563,-0.33090975880622864,-0.14179827272891998,0.09235884249210358,-0.9855775237083435,0.2503187656402588,-0.08582808822393417,0.0816163420677185,-0.09665158995867665,-0.06632487128427154,0.05303055919061203,-0.9916890953613937,-0.09249065851551877,-0.14289273220144133,2.940659085598697
1783116249928725248,3.4932103157043457,1.0803195238113403,0.03191976994276047,-0.14859724044799805,-0.14167150855064392,0.08184479176998138,-0.9865245223045349,0.18692907691001892,-0.048000797629356384,0.09649461507797241,-0.09244546588104818,-0.06696041941834484,0.047476794833948247,-0.9923286393027012,-0.08193644247594087,-0.14263152643365884,2.949952075859086
1783116249938645248,3.5031301975250244,1.1181228160858154,-0.059859953820705414,-0.15784773230552673,-0.14140711724758148,0.07084012776613235,-0.9874136447906494,0.18397913873195648,-0.007210977375507355,0.032228708267211914,-0.0879366621269637,-0.06751612478915658,0.041650329199659,-0.9929622882528818,-0.07089951105163739,-0.14224244565853747,2.9598806275556715
1783116249948564224,3.513049364089966,0.9953912496566772,-0.066599041223526,-0.1254824995994568,-0.14191187918186188,0.06033221259713173,-0.9880390167236328,0.22543849050998688,-0.02368060126900673,0.03967475891113281,-0.0835452378312675,-0.06838336733723037,0.03611399805878228,-0.9934987176798483,-0.06036887352927389,-0.14265421457335642,2.969488973014946
1783116249958484224,3.5229692459106445,1.1956367492675781,-0.16971930861473083,-0.06975318491458893,-0.14249223470687866,0.04970376193523407,-0.988547146320343,0.21468155086040497,-0.08041970431804657,0.11788064241409302,-0.07919737166049404,-0.06924572110591853,0.030519608597621595,-0.9939825875600241,-0.04972424883857689,-0.14315703980073513,2.9790089423872463
1783116249968404224,3.5328893661499023,1.1880053281784058,-0.09011144191026688,0.0764537900686264,-0.1437455266714096,0.03800043836236,-0.9888848066329956,0.2154008001089096,-0.1578429639339447,0.1929863691329956,-0.07421611362887676,-0.07045543776079013,0.024364325464875002,-0.9944518202268442,-0.03800958966274764,-0.144350208657208,2.989860048635503
1783116249978323200,3.5428082942962646,0.9747300744056702,0.04384768754243851,-0.32305818796157837,-0.14320755004882812,0.02695874683558941,-0.9893254637718201,0.18060684204101562,-0.16999463737010956,0.35524648427963257,-0.0701985680255041,-0.07066624975848003,0.018535422087529944,-0.9948542233356322,-0.026962013363228274,-0.14375423117191363,2.998761440074052
1783116249988243456,3.5527284145355225,0.870394766330719,-0.05736430734395981,-0.06563976407051086,-0.14326442778110504,0.017689364030957222,-0.9895263314247131,0.23896756768226624,-0.09203018993139267,0.4018951654434204,-0.06651258575126259,-0.07106925278849803,0.013637716052895007,-0.9951579728007007,-0.017690286851296068,-0.1437817389987293,3.006844767193918
