time,seconds_elapsed,rotationRateX,rotationRateY,rotationRateZ,gravityX,gravityY,gravityZ,accelerationX,accelerationY,accelerationZ,quaternionW,quaternionX,quaternionY,quaternionZ,pitch,roll,yaw
1784028446041917440,0.2500936985015869,7.327284812927246,1.2511162757873535,-1.3325605392456055,0.09979277104139328,0.34951603412628174,-0.9316007494926453,0.02308625727891922,0.16620051860809326,0.5128385424613953,-0.4371669994191031,0.03363172068674187,-0.18184756347575737,0.8801621630218696,-0.3570545228898436,0.10671275629322467,-2.2003279988546063
1784028446051837696,0.2600138187408447,8.431035995483398,1.0985193252563477,-1.3228859901428223,0.10677935928106308,0.2772868871688843,-0.9548351764678955,0.11346600204706192,0.24969065189361572,0.483689546585083,-0.43122256301932754,0.01257233633531639,-0.14974766157618227,0.889643045529738,-0.28096910430194555,0.11136743493585531,-2.223138974778769
1784028446061756672,0.26993274688720703,9.814085960388184,0.8060514330863953,-1.2556651830673218,0.1128976121544838,0.19150444865226746,-0.9749770164489746,0.1778433620929718,0.36722663044929504,0.4561476707458496,-0.4249331794990647,-0.010145895945260353,-0.11139368538636106,0.8982875048151895,-0.19269474366209988,0.11528172636328353,-2.246729859606082
1784028446071676416,0.27985262870788574,11.523002624511719,0.4997812807559967,-1.21201491355896,0.11756166815757751,0.08898819237947464,-0.989070475101471,0.19278684258460999,0.48066818714141846,0.45678287744522095,-0.4179552449991815,-0.034817124413952565,-0.06521152531744648,0.9054549093901416,-0.08910606054980318,0.1183057124857925,-2.2714000812393893
1784028446081596672,0.28977274894714355,13.026905059814453,0.2917610704898834,-1.3342342376708984,0.12100967019796371,-0.03058304823935032,-0.9921801090240479,0.1984788477420807,0.6103712320327759,0.5234453678131104,-0.4092521245813732,-0.06157495660784736,-0.010884782014488576,0.9102761678699733,0.030587817816726495,0.12136401636485851,-2.298423401394915
1784028446091516416,0.29969263076782227,14.095044136047363,0.1664431244134903,-1.5350749492645264,0.12456844747066498,-0.1618167757987976,-0.978926956653595,0.25783205032348633,0.6720554232597351,0.6501764059066772,-0.3976784017234078,-0.08991144499746545,0.04952213750700084,0.9117649926831208,0.1625314218212578,0.12656975096023929,-2.329339015152188
1784028446101436672,0.3096127510070801,14.556140899658203,-0.11624952405691147,-1.5564548969268799,0.1285824328660965,-0.297902911901474,-0.9458966255187988,0.3966708481311798,0.6496179699897766,0.7910809516906738,-0.3831499056837376,-0.1187181605096014,0.11383185524525764,0.9089248141416251,0.3024950532475363,0.13510893221921555,-2.364339411071962
1784028446111355648,0.3195316791534424,12.978472709655762,-0.5013559460639954,-1.4313305616378784,0.13112282752990723,-0.4232870638370514,-0.8964568376541138,0.5132100582122803,0.3387991487979889,1.1157408952713013,-0.3671341947783015,-0.14430283153331916,0.1759212078858668,0.9019095949443151,0.4370703755516087,0.14523796135915953,-2.4007404605698386
1784028446121275648,0.3294517993927002,10.005525588989258,-0.8212965726852417,-2.038959503173828,0.13357804715633392,-0.5199928879737854,-0.8436612486839294,0.5525791645050049,-0.7665213942527771,0.9925870299339294,-0.3502415734373703,-0.16355300663652564,0.22675932539089072,0.8939583116891923,0.5468426293183537,0.15702787550193903,-2.438900824296027
1784028446131195648,0.3393716812133789,8.656373977661133,-1.839095950126648,-1.513029932975769,0.13419216871261597,-0.594031035900116,-0.7931706309318542,0.7902920842170715,-1.3375790119171143,0.5550419092178345,-0.33199777270966674,-0.17634389180485743,0.26891918413489346,0.8867710170101761,0.6360605948106628,0.16759744594221967,-2.4804113063225235
1784028446141115648,0.3492918014526367,6.882360935211182,-2.164553642272949,-2.353476047515869,0.13012130558490753,-0.6507234573364258,-0.7480825185775757,0.5107631087303162,-0.7197141647338867,0.7302602529525757,-0.31413226832008295,-0.1824805605522195,0.30440036325044073,0.8805465571222276,0.7085368131269922,0.1722167597782754,-2.5200817841641605
1784028446151034624,0.359210729598999,5.676556587219238,-2.6832849979400635,-1.8651371002197266,0.127163827419281,-0.692458987236023,-0.7101619243621826,0.5927916765213013,-0.15632641315460205,0.9987819194793701,-0.2949908826157891,-0.18461076481973104,0.3329232602834393,0.8763911363180318,0.7648918453851975,0.1771853275933643,-2.5636519797780135
1784028446160954368,0.36913061141967773,6.416170597076416,-2.464773178100586,-1.4548195600509644,0.1203785315155983,-0.7316611409187317,-0.6709553599357605,0.1434917002916336,0.10463172197341919,0.5016743540763855,-0.27809116776109594,-0.1844955109562725,0.36122533277757735,0.8707140833416496,0.8207556086411515,0.17752491051076694,-2.600709029711018
1784028446170874624,0.37905073165893555,6.932128429412842,-1.8931736946105957,-1.7821495532989502,0.11842165142297745,-0.7728102803230286,-0.6234906911849976,-0.14324769377708435,0.18113547563552856,0.33393990993499756,-0.26098061419494634,-0.1871328841312949,0.3914536209405963,0.8623424643356132,0.8832574441764912,0.18769758100185793,-2.6427767235677853
1784028446180794368,0.38897061347961426,7.211302757263184,-1.630232572555542,-1.9516205787658691,0.122765451669693,-0.8126504421234131,-0.5696735978126526,-0.1016472727060318,0.21960234642028809,0.28915607929229736,-0.24266914195927394,-0.19227214515639726,0.4221310367665537,0.8520261932060421,0.9486859353863589,0.21225534428933843,-2.6959409616385615
1784028446190713600,0.39888978004455566,7.084733963012695,-1.3272452354431152,-1.902780294418335,0.1306815892457962,-0.8487198948860168,-0.5124420523643494,0.022089391946792603,0.33767253160476685,0.38095706701278687,-0.2243966215737935,-0.19851550749593502,0.4520736333662719,0.8401590119945564,1.0135599889408584,0.24969523589273815,-2.758716151801006
1784028446200633600,0.4088096618652344,6.679125785827637,-1.2511776685714722,-2.0129787921905518,0.14134985208511353,-0.8791902661323547,-0.45502153038978577,0.11441794037818909,0.4229220151901245,0.42853227257728577,-0.20654515383879424,-0.2051980032517761,0.4799823103089406,0.8275565123495299,1.0741601146733302,0.3011933847074149,-2.832647477972147
1784028446210553600,0.4187297821044922,6.261638641357422,-1.4542818069458008,-2.305968999862671,0.15469911694526672,-0.9034439921379089,-0.39982137084007263,0.16544553637504578,0.49502724409103394,0.4179641008377075,-0.18778672913895286,-0.21129453400312326,0.5054146230896939,0.8152587562005145,1.1277362292786788,0.3691804342237215,-2.9238616454497617
1784028446220473600,0.4286496639251709,6.145182132720947,-1.538316011428833,-2.4796745777130127,0.170960932970047,-0.9224273562431335,-0.3462662696838379,0.1046433299779892,0.511126697063446,0.2810654640197754,-0.16762640423696232,-0.21684326335418727,0.5290045912468974,0.803140495744638,1.174319679657848,0.4586164510507853,-3.038260447769734
1784028446230393600,0.4385697841644287,5.843624114990234,-1.4114056825637817,-2.558807134628296,0.18936537206172943,-0.9370792508125305,-0.2932971715927124,0.022441864013671875,0.5054844617843628,0.2144855558872223,-0.1471796044675496,-0.22239578928528997,0.5512635781990883,0.7905610150817752,1.2141679462014507,0.5733064733171415,3.1058133600830446
1784028446240312576,0.448488712310791,5.447696208953857,-1.1677296161651611,-2.7486560344696045,0.2107074111700058,-0.9467750191688538,-0.24335090816020966,-0.06442134082317352,0.3760504126548767,0.24136725068092346,-0.12692222583229257,-0.2285238327818443,0.571052888771282,0.7781814432215741,1.24306491690561,0.7136288772698611,2.9431444656559202
1784028446250232576,0.45840883255004883,5.3059401512146,-1.1417161226272583,-2.679701328277588,0.23403781652450562,-0.9524579644203186,-0.19506438076496124,-0.007017552852630615,0.2078595757484436,0.19665127992630005,-0.10701361119711772,-0.23521383766478118,0.5891878000940617,0.7655588105167106,1.2612044338770279,0.8759752091321314,2.7604915665574787
1784028446260152576,0.46832871437072754,4.892817497253418,-1.048466444015503,-2.531841993331909,0.2567545771598816,-0.9549431800842285,-0.14886531233787537,0.005757689476013184,0.12137067317962646,0.30040037631988525,-0.08783536550767818,-0.24125042543842437,0.6061068999771315,0.7528065960155731,1.2694682829341968,1.0453650876794944,2.571416726792377
1784028446270072576,0.47824883460998535,4.363249778747559,-1.2202043533325195,-2.5187323093414307,0.2788735032081604,-0.9542504549026489,-0.10786860436201096,-0.009357541799545288,0.2278100848197937,0.3775218725204468,-0.06966483931596157,-0.24653012895297524,0.620716194841579,0.7410000661819787,1.2671428737555452,1.20171975330846,2.396192731789952
1784028446279991552,0.48816776275634766,3.6568381786346436,-0.9374132752418518,-2.9438021183013916,0.30478736758232117,-0.9496479034423828,-0.07261816412210464,-0.39980390667915344,0.5853443741798401,0.36992037296295166,-0.05060048400785121,-0.2523960100869855,0.6324453905828608,0.7305809871546063,1.2521101261677743,1.3368987004102928,2.242173579660866
1784028446289911552,0.49808764457702637,2.818199872970581,-0.4704674184322357,-2.4287095069885254,0.3293693959712982,-0.9431219100952148,-0.045130401849746704,0.0902625322341919,0.5441961884498596,0.3089090585708618,-0.03505922998854736,-0.2591846180954091,0.6405139602742954,0.7220359995807952,1.2318992460008802,1.4346236740266203,2.132338292926606
1784028446299831552,0.5080077648162842,3.126971483230591,-0.7978991866111755,-2.6042752265930176,0.35280561447143555,-0.9354947209358215,-0.019434181973338127,0.13018077611923218,0.3260892629623413,0.014230968430638313,-0.020299342247199263,-0.26560992192390936,0.6478690290469906,0.7136560397415387,1.2096565574708127,1.5157672703785865,2.039793844753693
1784028446309751552,0.5179276466369629,3.237609386444092,-0.9522796869277954,-2.4007585048675537,0.37610363960266113,-0.9265527129173279,0.006789830047637224,0.21883651614189148,0.44443607330322266,-0.023421883583068848,-0.004348113262038482,-0.2709041419888753,0.655748321224084,0.70468869198013,1.185142535416515,1.5888474482128165,1.952007931857741
1784028446319671552,0.5278477668762207,3.534104347229004,-1.0068209171295166,-2.3631510734558105,0.39798250794410706,-0.9167664647102356,0.033900659531354904,0.10595425963401794,0.4203065037727356,-0.13666856288909912,0.011610301512401127,-0.27525365387318423,0.66421815389887,0.6949207923808375,1.159908225723575,1.6557724766077149,1.8690178322339879
1784028446329590528,0.537766695022583,3.6355860233306885,-1.0675545930862427,-2.315293788909912,0.41972699761390686,-0.9055240750312805,0.06209215894341469,0.05424150824546814,0.411764919757843,-0.08113515377044678,0.02792271424742923,-0.2792451438776709,0.6731034312833799,0.6842325995819813,1.1326132210794733,1.7176657410974019,1.79009716223447
1784028446339510016,0.5476861000061035,3.770343780517578,-1.1312745809555054,-2.348085641860962,0.44141077995300293,-0.8927146792411804,0.09064893424510956,0.06556257605552673,0.33872896432876587,-0.08523201197385788,0.0446388606693001,-0.28277192087934705,0.682176303173107,0.6728172078455024,1.1033339661876596,1.7733421608182933,1.7161873715868043
1784028446349430016,0.5576062202453613,3.5033986568450928,-1.2535743713378906,-2.4104228019714355,0.4635787606239319,-0.8782293796539307,0.11750640720129013,0.04508817195892334,0.32772284746170044,-0.0022263675928115845,0.061632730128655895,-0.28610147415932935,0.6905788514493396,0.6613986074905465,1.0721470901261823,1.819044480990999,1.6516060255177352
1784028446359350016,0.56752610206604,3.370285987854004,-1.2218300104141235,-2.2230727672576904,0.4852612614631653,-0.8628076314926147,0.14171917736530304,0.07954272627830505,0.1683344841003418,0.025379881262779236,0.07847467065513618,-0.2888229621875853,0.6981696665528718,0.6503707220389922,1.0407974663806694,1.8549410607122518,1.59612196760358
1784028446369268992,0.5774450302124023,3.1336963176727295,-1.4167163372039795,-2.16279935836792,0.5058760046958923,-0.8471903800964355,0.1623508781194687,0.07150125503540039,0.13989979028701782,0.08360551297664642,0.09472266064558414,-0.29082841476275517,0.7046944533216495,0.6401969315074769,1.010674460180232,1.8813428348584815,1.5498392725664945
1784028446379188992,0.5873651504516602,3.1373019218444824,-1.3766452074050903,-2.018233060836792,0.5256860852241516,-0.8311231136322021,0.18135233223438263,0.11196345090866089,0.06781744956970215,0.11257767677307129,0.11081393237640301,-0.29211874831311324,0.7108746732098897,0.6301144115823457,0.9811242864767431,1.9029939370215565,1.50737375242143
1784028446389108992,0.5972850322723389,3.174065113067627,-1.2214041948318481,-1.8960907459259033,0.5441513061523438,-0.8147507905960083,0.200201153755188,0.06461328268051147,0.0615922212600708,0.1309908628463745,0.1260902750727647,-0.2931566977535911,0.7170493185601928,0.6196778781685655,0.952299241104992,1.923340601952796,1.466925998072297
1784028446399028992,0.6072051525115967,2.9325382709503174,-1.157363772392273,-1.835115671157837,0.5616304278373718,-0.7981002330780029,0.21819104254245758,-0.014190852642059326,-0.01855015754699707,0.1541997194290161,0.14050879715873352,-0.2942179749387958,0.7228632677688172,0.6092304740077299,0.9241355932394419,1.9413460990724625,1.4300087771002714
1784028446408948992,0.6171250343322754,2.4792635440826416,-1.0859534740447998,-1.7372506856918335,0.5782759189605713,-0.78180992603302,0.2331743836402893,-0.03448319435119629,-0.21469581127166748,0.16878795623779297,0.15409073568741283,-0.29516001707946676,0.727645351243136,0.5997240281726813,0.897563372635348,1.9540784070308586,1.3992742158767126
1784028446418867968,0.6270442008972168,1.7718214988708496,-0.9281906485557556,-1.612586259841919,0.59341961145401,-0.7671199440956116,0.24367955327033997,-0.06821221113204956,-0.4048311710357666,0.2242310643196106,0.16568884000109063,-0.2965980739422383,0.7306636429728534,0.5922054085081662,0.8743394755011116,1.9604380638073777,1.3784288994360074
1784028446428787968,0.6369640827178955,0.8874511122703552,-0.848823070526123,-1.583809733390808,0.6077225804328918,-0.7542937397956848,0.24842385947704315,-0.06209874153137207,-0.47797566652297974,0.11722257733345032,0.17561115007188807,-0.2986620953450902,0.7314457495082874,0.5873234784985488,0.8545777121751132,1.9588473079411834,1.3688216312272548
1784028446438707968,0.6468842029571533,-0.008263538591563702,-0.7303230166435242,-1.437843918800354,0.6209452152252197,-0.7440506815910339,0.24660751223564148,-0.029835104942321777,-0.4597455859184265,0.01759834587574005,0.1835102631057741,-0.30148139248884415,0.7296661767083149,0.5856791506024754,0.8391128298076996,1.948842191249975,1.3716480203323704
1784028446448627968,0.656804084777832,-0.8518088459968567,-0.6906501650810242,-1.3924766778945923,0.6330452561378479,-0.7362285256385803,0.23920947313308716,0.042125582695007324,-0.4592212438583374,0.0056787580251693726,0.1895341618296789,-0.30495231433162345,0.7256781825600597,0.586917386859086,0.8274802655577668,1.9320817121997624,1.3849221323789502
1784028446458547200,0.6667232513427734,-1.5341414213180542,-0.7239272594451904,-1.3165130615234375,0.6443081498146057,-0.7305659055709839,0.22614222764968872,0.1717318296432495,-0.43761640787124634,0.043083757162094116,0.1940136979782344,-0.3089067887680301,0.7194773863297601,0.5910055291652824,0.8191503695985153,1.9083479975051563,1.4081420168507792
1784028446468466944,0.6766431331634521,-1.6934882402420044,-0.7487817406654358,-1.2051924467086792,0.6551782488822937,-0.7258529663085938,0.20947308838367462,0.2158239483833313,-0.47992706298828125,0.016341805458068848,0.19786791543254595,-0.312899237078072,0.7119203681760639,0.5967510090892614,0.8122736174371287,1.8802445533202217,1.4366961288421052
1784028446478387200,0.68656325340271,-1.6290245056152344,-0.8067126274108887,-1.0046296119689941,0.6645864844322205,-0.7219927310943604,0.19248782098293304,0.22927343845367432,-0.4258802533149719,0.03961363434791565,0.2012071869574085,-0.31614339105684763,0.7044836895700303,0.6027203765379231,0.8066780523416776,1.8527174712452423,1.4642748277423423
1784028446488306944,0.6964831352233887,-1.2014074325561523,-0.8926531076431274,-0.7220714092254639,0.6723579168319702,-0.718876838684082,0.17649686336517334,0.15961235761642456,-0.33962541818618774,-0.019255027174949646,0.20453683163147068,-0.3180270590035181,0.6979306717207663,0.608207478054681,0.802185189784239,1.8275087056841324,1.4874286415919031
1784028446498227200,0.7064032554626465,-0.5697725415229797,-0.807030439376831,-0.49759483337402344,0.6780945062637329,-0.7163634300231934,0.1643507480621338,0.021948158740997314,-0.23305362462997437,-0.06721331179141998,0.20788669906121207,-0.31844307592174687,0.6933753520806787,0.6120520488409908,0.7985762814379939,1.8085823855300738,1.5019865297407193
1784028446508145920,0.7163221836090088,0.04813462495803833,-0.7383012175559998,-0.5039706826210022,0.6830170154571533,-0.7132142186164856,0.1575217992067337,-0.0790589451789856,-0.20559370517730713,-0.09798194468021393,0.21175976737306945,-0.3181198243643198,0.6910576504766269,0.6135118887871442,0.794073106246501,1.7974596245617047,1.5068307072745342
1784028446518065920,0.7262420654296875,0.31336989998817444,-0.7739959359169006,-0.23717303574085236,0.6868528127670288,-0.7103388905525208,0.15379191935062408,0.005438446998596191,-0.30180710554122925,-0.11065530776977539,0.21583905106164472,-0.316873641833483,0.6902804174736542,0.6136102719781023,0.7899795762302125,1.7910712645674116,1.505186414779843
1784028446527986176,0.7361621856689453,0.12673741579055786,-0.738467276096344,0.005249992944300175,0.6887804269790649,-0.7091693878173828,0.15053457021713257,0.06433248519897461,-0.40878111124038696,-0.07167719304561615,0.21908945716823297,-0.3147765762776429,0.6900601359123781,0.6137855051608799,0.7883193608565292,1.7859653850170603,1.5021417084998283
1784028446537905920,0.746082067489624,-0.19403713941574097,-0.8450804948806763,0.21837851405143738,0.6890460848808289,-0.7101128101348877,0.1447606235742569,0.08182799816131592,-0.4895790219306946,-0.07847641408443451,0.22139616522823227,-0.3119115273986644,0.6892688255813849,0.615307712316327,0.7896584269129738,1.777873241162481,1.5022637132250316
1784028446547825152,0.7560012340545654,-0.599604070186615,-0.522979199886322,0.19976115226745605,0.688383936882019,-0.7122143507003784,0.13739877939224243,-0.0003193020820617676,-0.5414325594902039,-0.08942507207393646,0.22236254476109962,-0.30954435618007436,0.6876639296798007,0.6179446515456617,0.7926477024445664,1.7678035236184646,1.5071410885112413
1784028446557744896,0.7659211158752441,-1.0492843389511108,-0.4245777130126953,0.3689318895339966,0.6871584057807922,-0.7150697708129883,0.12840662896633148,0.022497236728668213,-0.5758541822433472,-0.08714690804481506,0.22189719306648056,-0.30812605623972616,0.6850267500077711,0.6217380552607881,0.7967239289219169,1.7555318580707502,1.517842473335232
1784028446567665152,0.775841236114502,-1.4957512617111206,-0.36978957056999207,0.4322139024734497,0.6845012903213501,-0.7196139097213745,0.11667762696743011,0.11331969499588013,-0.574316143989563,-0.04453408718109131,0.21992461698919677,-0.30680957695607236,0.6813271573826356,0.6271318090306871,0.8032461302004099,1.7396300214535454,1.5345728465922386
1784028446577584896,0.7857611179351807,-1.7015811204910278,-0.3774797022342682,0.5718136429786682,0.6815513968467712,-0.7245664596557617,0.1024257019162178,0.15443181991577148,-0.498104989528656,-0.034417279064655304,0.2173188186417973,-0.3057447028400248,0.6765597000563501,0.6336873263108249,0.8104051418374937,1.7199631985997597,1.5564008378320144
1784028446587505152,0.7956812381744385,-1.7720850706100464,-0.3660409152507782,0.6893567442893982,0.677187442779541,-0.7305960655212402,0.08744332939386368,0.1775335669517517,-0.4992164969444275,-0.028727538883686066,0.21393486151558955,-0.3041797827208986,0.6717114888969947,0.6407106424601567,0.8191945240250623,1.6992129533880929,1.5796875513917772
1784028446597424128,0.8056001663208008,-1.731502890586853,-0.1798677295446396,0.7302306294441223,0.672387421131134,-0.7366318106651306,0.07258392870426178,0.1368013620376587,-0.4583296775817871,0.011751405894756317,0.2099377461575407,-0.30290636367471996,0.666738103043285,0.6477916775674297,0.8280764211821052,1.6783294769293038,1.6044754041182403
1784028446607343872,0.8155200481414795,-1.4673442840576172,0.15172219276428223,0.9624257683753967,0.666210412979126,-0.7432804107666016,0.060809943825006485,0.15533798933029175,-0.5179347395896912,-0.061282992362976074,0.20495096182106803,-0.3016444479814973,0.6628843024499221,0.6539037624720817,0.8379607356421921,1.6618214726512242,1.6263706996845881
1784028446617264128,0.8254401683807373,-1.8415876626968384,0.12286007404327393,1.1727100610733032,0.6581069231033325,-0.7512872815132141,0.04962710663676262,0.22723853588104248,-0.5251561999320984,0.039209604263305664,0.19840382094037676,-0.30030649310514307,0.6592644105164425,0.6601685034367667,0.8500104276140823,1.6460627532765961,1.6496884730413715
1784028446627183872,0.835360050201416,-2.0494601726531982,-0.08372319489717484,1.4061005115509033,0.6484864950180054,-0.7604194283485413,0.03503584861755371,0.33671241998672485,-0.5891441106796265,-0.01165938749909401,0.19128136949986554,-0.2980156740688756,0.6547553607426336,0.66775257049954,0.8639587549107539,1.624770960082988,1.6778845209796238
1784028446637104128,0.8452801704406738,-2.19863224029541,-0.053521960973739624,1.492052674293518,0.6374478340148926,-0.770270049571991,0.01855519227683544,0.2677493095397949,-0.586114227771759,-0.026459217071533203,0.18343694850172934,-0.2951410037653127,0.6497456299263293,0.6760719412206988,0.8792645041176552,1.5998966751233448,1.7098048082813588
1784028446647022848,0.8551990985870361,-2.2113211154937744,-0.1313621699810028,1.6675550937652588,0.6254010796546936,-0.7803027629852295,0.0011296948650851846,0.23520994186401367,-0.5701916217803955,-0.0495152473449707,0.17513462004990624,-0.29186045701560964,0.6445016067261652,0.684662746360628,0.8951497433343184,1.5726026775379558,1.7441786528474792
1784028446656943104,0.865119218826294,-2.098747730255127,0.052887529134750366,1.8171478509902954,0.6117616295814514,-0.7908841371536255,-0.01580112800002098,0.23705416917800903,-0.5118653774261475,-0.07579737901687622,0.1661988956286422,-0.2879695215065628,0.6396663119809691,0.6930211687788669,0.9122524337693945,1.5449731709624623,1.7788574154851546
1784028446666862848,0.8750391006469727,-1.9504295587539673,0.15250413119792938,1.824105143547058,0.5974113345146179,-0.8013260364532471,-0.03124256059527397,0.2485053539276123,-0.4895673990249634,-0.05664801225066185,0.15672039113255107,-0.28417748060123554,0.6353124267581923,0.7007566661278551,0.9295085263424859,1.5185473624459478,1.813263500660569
1784028446676783104,0.8849592208862305,-1.959459900856018,0.14303408563137054,1.946324110031128,0.5823565721511841,-0.8116238713264465,-0.04612557590007782,0.3370465040206909,-0.5633456110954285,-0.00020015239715576172,0.14691996000470753,-0.2802268036970166,0.6311973946171878,0.7081506553043336,0.9469265221843368,1.4917562976300482,1.8482453168138095
1784028446686702080,0.8948781490325928,-1.916644811630249,0.1670810878276825,2.1759743690490723,0.5658324956893921,-0.8222689032554626,-0.06088851019740105,0.35561519861221313,-0.7780117988586426,0.0037748850882053375,0.1365980352771617,-0.2756854612200013,0.6273382425468177,0.7153916755180051,0.9653864886885906,1.463600101971118,1.8844274764225275
1784028446696621824,0.9047980308532715,-2.0294976234436035,0.24169757962226868,2.3285088539123535,0.5474531054496765,-0.8333929181098938,-0.07583671063184738,0.43600624799728394,-0.9244805574417114,0.027802057564258575,0.12527419229368944,-0.27068701817440277,0.6235464562435401,0.7226511431178273,0.9852185950394153,1.4331459497739245,1.9236470137347264
1784028446706542080,0.9147181510925293,-2.6291403770446777,0.3568321466445923,2.4724624156951904,0.5278438329696655,-0.8442029356956482,-0.09328524023294449,0.5851779580116272,-0.8996171951293945,0.1286245584487915,0.11258100306450633,-0.26586911687220893,0.6186040690139524,0.7307311741888138,1.0050764192210542,1.3958736720280913,1.9719541461327064
1784028446716461824,0.924638032913208,-3.1265552043914795,0.17856071889400482,2.5722038745880127,0.5067731142044067,-0.8541901707649231,-0.11636151373386383,0.621110737323761,-0.8289456963539124,0.19325055181980133,0.09872777636349375,-0.26063702460344923,0.6114634776859829,0.7405629765689128,1.0239914129933585,1.345095868746177,2.0348674522334647
1784028446726382080,0.9345581531524658,-3.7091758251190186,0.00048527028411626816,2.610856771469116,0.48456311225891113,-0.8626047968864441,-0.1452990621328354,0.7226361036300659,-0.754018247127533,0.2537432909011841,0.08456797248002224,-0.2544668919755009,0.6021603357263468,0.7519959498630469,1.040396288988071,1.2794718208676845,2.1117464562485955
1784028446736301056,0.9444770812988281,-4.295867919921875,0.06341446936130524,2.653459310531616,0.46214228868484497,-0.8684322237968445,-0.17958341538906097,0.6479651927947998,-0.7262791991233826,0.32535064220428467,0.06978644440882727,-0.2482591342149321,0.5904029936945949,0.76480174980022,1.0520314803016282,1.2001655509657347,2.203309148102513
1784028446746221056,0.9543972015380859,-4.49364709854126,-0.002654825337231159,2.767003297805786,0.43927133083343506,-0.871684193611145,-0.21727290749549866,0.5550066232681274,-0.6708115339279175,0.35124504566192627,0.05405987776395185,-0.24214069372814032,0.5768287699993507,0.7782763613259578,1.0586285526413304,1.1114610256807294,2.305958368872212
1784028446756141056,0.9643170833587646,-4.786546230316162,0.21543405950069427,2.8428549766540527,0.41502848267555237,-0.8728417158126831,-0.2567077875137329,0.53321373462677,-0.571112871170044,0.436441034078598,0.03740196676492587,-0.23551661949030092,0.5622971025140626,0.7918049526912233,1.0609954377021484,1.0168627625295716,2.415282802674654
1784028446766061056,0.9742372035980225,-4.740780353546143,0.32088086009025574,2.7197725772857666,0.3917931914329529,-0.8707019686698914,-0.29728126525878906,0.4818182587623596,-0.44558221101760864,0.42782020568847656,0.020130615863716558,-0.22964716355981468,0.5464627645333395,0.8051306348716198,1.0566277928310084,0.9217054698287526,2.52746793471997
1784028446775981056,0.9841570854187012,-4.544571399688721,0.12497606873512268,2.67413592338562,0.36965179443359375,-0.8662433624267578,-0.3361247777938843,0.5214462280273438,-0.3093242049217224,0.38505974411964417,0.0035790582469775968,-0.22380543761878416,0.5308942785443033,0.8173429327118755,1.0476336038617884,0.8328661905391783,2.632554235342142
1784028446785900032,0.9940762519836426,-3.979234218597412,-0.039950836449861526,2.763930082321167,0.34649816155433655,-0.8608630299568176,-0.37263089418411255,0.5200483798980713,-0.2466808557510376,0.39243683218955994,-0.012423973911853323,-0.21689484339731607,0.5163731064417131,0.8283483585705772,1.0369633153498512,0.7490747431361328,2.7303331925176786
1784028446795820032,1.0039961338043213,-3.4422032833099365,-0.1759205013513565,2.765859365463257,0.3224596083164215,-0.8558563590049744,-0.40438804030418396,0.4020582139492035,-0.26619869470596313,0.43315088748931885,-0.027538404057568706,-0.2090835891594567,0.5040734355170198,0.8375175754473985,1.0272043350353623,0.6731544342597497,2.817595642356086
1784028446805740032,1.013916254043579,-2.647714614868164,-0.3511165380477905,3.0875861644744873,0.2968885898590088,-0.8519760370254517,-0.4312702715396881,0.3317124843597412,-0.27041471004486084,0.4866138696670532,-0.04209383769703067,-0.20031533672331087,0.49420504648344266,0.8449042951405827,1.0197478257721029,0.6029016042653293,2.8968577930340067
1784028446815660032,1.0238361358642578,-1.6520206928253174,-0.3669024407863617,3.2887136936187744,0.26842591166496277,-0.8515617847442627,-0.4503220319747925,0.22408199310302734,-0.2174384593963623,0.5104569792747498,-0.05674130223578907,-0.1905732331233875,0.4883859344224016,0.8496713259495571,1.0189572058356142,0.5375288058513299,2.969600552405248
1784028446825579008,1.0337550640106201,-0.5624538064002991,-0.26276111602783203,3.385519504547119,0.2385842651128769,-0.8549037575721741,-0.4606704115867615,0.1628897488117218,-0.17243999242782593,0.4072341322898865,-0.07113078057275991,-0.18073600645836638,0.48682572857669887,0.8516312302201829,1.0253653297429373,0.4778700873085188,3.0357264266146284
1784028446835499008,1.043675184249878,0.1452612429857254,-0.2373931109905243,3.319668769836426,0.20908179879188538,-0.8616409301757812,-0.46244993805885315,0.1667727530002594,-0.2313920259475708,0.25656306743621826,-0.08481177553272162,-0.17161961568888187,0.4892052165244565,0.8509007517673111,1.0384940390558057,0.4246136045955768,3.0951114126797727
1784028446845419008,1.0535950660705566,0.30394914746284485,-0.2103596180677414,3.3007357120513916,0.17967446148395538,-0.8691244125366211,-0.4608035385608673,0.19686667621135712,-0.2948617935180664,0.23175382614135742,-0.0980291641946161,-0.16274755794025902,0.49306335139906365,0.8489947506222294,1.0534292315101408,0.37178278456231345,-3.1295364467746283
1784028446855339008,1.0635151863098145,0.5018251538276672,-0.1894039809703827,3.4933574199676514,0.1494116634130478,-0.8764789700508118,-0.45766890048980713,0.1627373844385147,-0.34434622526168823,0.21171247959136963,-0.11145485849877003,-0.15377399889340515,0.4975129210254515,0.8464114081301997,1.068499192672396,0.3155539842328945,-3.0674465340122437
1784028446865259008,1.0734350681304932,0.2541391849517822,-0.09053598344326019,3.2726736068725586,0.1188436970114708,-0.8829571604728699,-0.45416155457496643,0.02172025293111801,-0.21587401628494263,0.2703389525413513,-0.12513173819700413,-0.14491220083354966,0.501915998438595,0.8434587983711918,1.0821245172996081,0.2559383568303681,-3.0013550457983866
1784028446875177984,1.0833542346954346,-0.5469238758087158,0.2412891685962677,2.8246071338653564,0.0925658643245697,-0.8855143785476685,-0.4552974998950958,-0.0728362575173378,-0.05070382356643677,0.3278560936450958,-0.13804781428445978,-0.13754116546094503,0.5034219730156448,0.8417787753791978,1.0875999596866917,0.20057480140465342,-2.9380230598945607
1784028446885097984,1.0932741165161133,-1.2275500297546387,0.5300429463386536,2.9667274951934814,0.06962572783231735,-0.8836832642555237,-0.46287801861763,-0.06871021538972855,-0.06079000234603882,0.3794582486152649,-0.1515879162158783,-0.13163076072691693,0.5012328122728538,0.8417006792048074,1.0836734692539356,0.1492998654496885,-2.875193000447811
1784028446895017984,1.103194236755371,-2.224388837814331,0.7968984246253967,3.026066780090332,0.04612913727760315,-0.8776896595954895,-0.4770040810108185,-0.19757263362407684,-0.08242380619049072,0.39588841795921326,-0.166968195421977,-0.12554633173297391,0.49571773716505163,0.8429849248157115,1.0710197352138167,0.09640617391596483,-2.807749179430655
1784028446904937984,1.1131141185760498,-3.8093535900115967,1.4206693172454834,2.634442090988159,0.027205785736441612,-0.8640799522399902,-0.5026188492774963,-0.37831050157546997,-0.08889245986938477,0.21906477212905884,-0.1833393152923509,-0.12076763576704952,0.4838447585323937,0.8471695143257348,1.0433196959594042,0.054075293660649545,-2.7464239887744264
1784028446914857984,1.1230342388153076,-5.422766208648682,1.6032298803329468,2.487579345703125,0.013427099213004112,-0.840610682964325,-0.5414732694625854,-0.36837705969810486,-0.07950949668884277,-0.16638189554214478,-0.20044951026431465,-0.11675616291476625,0.46436123562549114,0.8547260325799082,0.9984097484139309,0.02479226322716554,-2.6943993925904173
1784028446924776960,1.13295316696167,-6.770824432373047,1.3779407739639282,2.3611950874328613,0.001971655758097768,-0.8064948320388794,-0.5912379622459412,-0.31964436173439026,0.1295386552810669,-0.35859113931655884,-0.21760201900203222,-0.11136009007126761,0.43815516142463645,0.8650251233151386,0.938199377017026,0.003334779835650961,-2.6503982576460388
1784028446934696960,1.1428730487823486,-8.015237808227539,1.0355424880981445,2.1202683448791504,-0.00802344549447298,-0.7607895135879517,-0.648949146270752,-0.38200643658638,0.34263765811920166,-0.24755048751831055,-0.2337526566879842,-0.10357915414211546,0.405951688522522,0.8774020580771439,0.8645287367766734,-0.012363120091008185,-2.6151548043701274
1784028446944616960,1.1527931690216064,-8.842000961303711,0.7923572659492493,1.8604968786239624,-0.01646818406879902,-0.7034978866577148,-0.7105065584182739,-0.5960043668746948,0.37395381927490234,0.019588589668273926,-0.24840109292257756,-0.09358605000001624,0.36876602706161987,0.8908143078905104,0.7803073152311998,-0.02317393950607802,-2.5881835273038565
1784028446954536960,1.1627130508422852,-9.039786338806152,0.7241730690002441,1.404571533203125,-0.02213509939610958,-0.6370366811752319,-0.7705156207084656,-0.7791497111320496,0.48171746730804443,0.24340075254440308,-0.26089567758978416,-0.08256933012348333,0.3285186437838993,0.9039863122419945,0.6906478200555973,-0.028719747271414128,-2.5693186749506047
1784028446964456960,1.172633171081543,-8.19904613494873,0.8112800121307373,1.243554949760437,-0.024279270321130753,-0.5681872963905334,-0.8225410580635071,-0.7822392582893372,0.5408130288124084,0.3184822201728821,-0.2713270353532563,-0.07239527461625726,0.2889436025256246,0.9152334357689536,0.6043013332677021,-0.029508828774702553,-2.5559886759519665
1784028446974375936,1.1825520992279053,-6.899562358856201,0.7176151275634766,1.2981586456298828,-0.0244083721190691,-0.5047030448913574,-0.8629478812217712,-0.6751765608787537,0.6118655204772949,0.361971378326416,-0.2806145942769158,-0.06392423348726811,0.2538498357556462,0.9234335567951678,0.5290379677128649,-0.028277334597098164,-2.5439044818813388
1784028446984296192,1.192472219467163,-5.4451069831848145,0.44043678045272827,1.2235081195831299,-0.025474239140748978,-0.4503527581691742,-0.8924872279167175,-0.7634051442146301,0.8170825242996216,0.35061711072921753,-0.28910836205681034,-0.05629650059170009,0.22491573819468635,0.9287948726608203,0.46716037916449726,-0.02853522573463844,-2.531270506343406
1784028446994215936,1.2023921012878418,-4.432812690734863,0.35668522119522095,0.6846563816070557,-0.026269417256116867,-0.4066368639469147,-0.9132121205329895,-1.0687775611877441,1.1163383722305298,0.317371666431427,-0.29533007510450426,-0.04996741380521952,0.20223055295020778,0.932408796930128,0.4187697896272161,-0.02875802188240195,-2.521997342528641
1784028447004136192,1.2123122215270996,-3.188549518585205,0.8254878520965576,0.09096669405698776,-0.023192746564745903,-0.3713652789592743,-0.9281971454620361,-1.2540441751480103,1.2502868175506592,0.20406079292297363,-0.2983400054792621,-0.04620750008263207,0.18375610091546662,0.9354633435458478,0.38047902969358105,-0.024981678676563136,-2.5193317833635054
1784028447014055936,1.2222321033477783,-2.1963326930999756,0.5295376181602478,-0.48751839995384216,-0.015094922855496407,-0.34620270133018494,-0.9380382895469666,-1.0543326139450073,0.8914145231246948,0.11861079931259155,-0.29918368511808197,-0.0461404008716055,0.16985852695704295,0.9378210341974414,0.3535204699725486,-0.016090622942059683,-2.5210909498721534
1784028447023974912,1.2321510314941406,-1.3385423421859741,0.08426721394062042,-0.755951464176178,-0.011786178685724735,-0.33161962032318115,-0.9433395266532898,-0.713494598865509,0.7722781896591187,-0.0681656002998352,-0.29602102632671595,-0.0448118367385654,0.16224094648881054,0.9402346647524539,0.3380198200643808,-0.012493449662004334,-2.5294349408071737
1784028447033894912,1.2420711517333984,-0.5704603791236877,0.6400265097618103,0.11028929054737091,-0.007710764650255442,-0.32331183552742004,-0.9462610483169556,-0.5597025752067566,0.5077905654907227,-0.027264952659606934,-0.29449544694995244,-0.04519139304454845,0.15756650610501485,0.9414898133718282,0.32922721020478407,-0.008148485096454104,-2.533927765685836
1784028447043814912,1.2519910335540771,0.2987986207008362,-0.25198596715927124,-0.30285194516181946,-0.005304873455315828,-0.3220676779747009,-0.9467017650604248,-0.7088064551353455,0.23556563258171082,-0.12943953275680542,-0.294749239835327,-0.04619840784768994,0.15657207799803338,0.9415273419196906,0.3279127277543453,-0.005603473266746543,-2.533885921752536
1784028447053734912,1.261911153793335,1.2810769081115723,-0.24595753848552704,-0.008872251026332378,-0.008482741191983223,-0.3277665078639984,-0.9447206854820251,-0.6609203219413757,0.4648514688014984,-0.24506813287734985,-0.2932813583875703,-0.04532354686465223,0.15995447606746935,0.9414597584951087,0.33393851514388767,-0.00897885826006971,-2.5361000322641445
1784028447063654912,1.2718310356140137,2.9066660404205322,-0.8037203550338745,-0.2880682051181793,-0.012549519538879395,-0.34718891978263855,-0.937711238861084,-0.6231468915939331,0.45638081431388855,-0.4216179847717285,-0.2916685597322843,-0.046171123692590306,0.17033087747474682,0.9400984568616018,0.354571893071254,-0.013382339326692062,-2.5375216500127435
1784028447073574144,1.281750202178955,3.283615827560425,-0.08325406163930893,1.1540732383728027,-0.0179618988186121,-0.3757534623146057,-0.9265456199645996,-0.12629468739032745,0.5728970170021057,-0.1542191505432129,-0.29273827048718837,-0.04836161548935679,0.18544098192221017,0.9367909278322476,0.38520967006508894,-0.01938344956423237,-2.532059984709694
1784028447083493888,1.2916700839996338,3.476271152496338,-0.46229296922683716,-0.16590607166290283,-0.022609034553170204,-0.40935018658638,-0.912097156047821,-0.44206687808036804,0.148943692445755,-0.13422852754592896,-0.29383496910280155,-0.051878437191244776,0.20312567092514303,0.9325822128823441,0.4217417137651829,-0.02478289214564602,-2.5258262475877915
1784028447093414144,1.3015902042388916,2.601749897003174,-0.6076493859291077,-1.0664799213409424,-0.025012105703353882,-0.43858012557029724,-0.8983439803123474,-0.06312265992164612,0.20489177107810974,0.010480821132659912,-0.2893639875892008,-0.05459535754930299,0.21874040691679222,0.9302905260091022,0.454018119532419,-0.027835267888363956,-2.5320415653422774
1784028447103333888,1.3115100860595703,2.7002315521240234,-0.21143412590026855,-1.253383994102478,-0.021966762840747833,-0.46033820509910583,-0.8874717950820923,0.36560994386672974,-0.058369070291519165,-0.13064038753509521,-0.28197256694874084,-0.05795139330751791,0.23001248880454517,0.9296382273884757,0.4783761391389789,-0.024747015853287403,-2.5465682547378656
1784028447113254144,1.3214302062988281,1.3840147256851196,-0.7379235029220581,-1.201964259147644,-0.020885158330202103,-0.4806221127510071,-0.8766790628433228,0.927226722240448,-0.06820601224899292,-0.020614027976989746,-0.27477460892738226,-0.06003301892973939,0.2409491582346557,0.9288910077738902,0.5013639960830892,-0.023818532164429987,-2.560277830133712
1784028447123173120,1.3313491344451904,0.9360368847846985,-0.8914353251457214,-1.2245396375656128,-0.02173086628317833,-0.48920899629592896,-0.8718958497047424,0.951540470123291,-0.12094420194625854,0.08939462900161743,-0.26790369718999385,-0.05922319012812355,0.246058310327381,0.9296104759342705,0.511182572714755,-0.02491853628145478,-2.5739084628481224
1784028447133093120,1.3412692546844482,0.9015027284622192,-0.48396971821784973,-0.7549379467964172,-0.02321750484406948,-0.49874401092529297,-0.8664383292198181,0.862145721912384,-0.26329517364501953,0.10523837804794312,-0.2629811103253469,-0.05870992303301644,0.2516624338625926,0.9295483822754363,0.5221490987205079,-0.02679007739285275,-2.5830194072671238
1784028447143013120,1.351189136505127,0.6645903587341309,-1.6448967456817627,-1.147597074508667,-0.026454269886016846,-0.5048325061798096,-0.8628118634223938,0.47672587633132935,0.08314061164855957,0.1047552227973938,-0.25732526896334856,-0.0565272083435676,0.25573175765084083,0.930155759347492,0.5291879042594319,-0.030650927907580023,-2.5934928676023996
1784028447152932864,1.3611090183258057,1.342566967010498,-0.7725451588630676,-0.46969226002693176,-0.03275936841964722,-0.513990581035614,-0.857170045375824,0.3444659113883972,0.1649457812309265,-0.03993988037109375,-0.25204381920986785,-0.053349517779753546,0.26185644189899426,0.9300855189997476,0.5398304989692698,-0.03819945791441425,-2.6017544572908906
1784028447162853120,1.3710291385650635,2.3313827514648438,-0.6273365616798401,-0.14033406972885132,-0.037872154265642166,-0.5295196771621704,-0.8474518060684204,-0.08985917270183563,0.2265411615371704,-0.11447751522064209,-0.249299215827819,-0.05242653572820078,0.27115594343311944,0.9282110080819299,0.5580342154985246,-0.04465973159373078,-2.6040197242711205
1784028447172771840,1.3809480667114258,2.4653584957122803,-1.024645209312439,-0.46552371978759766,-0.04104556888341904,-0.5501399636268616,-0.8340631127357483,-0.10951291024684906,0.12420618534088135,0.07445013523101807,-0.2465080910732055,-0.05323295628074112,0.28308072740697754,0.9253460388560997,0.5825318409394417,-0.04917191782063301,-2.6061500253888537
1784028447182692096,1.3908681869506836,1.8069449663162231,-0.7776676416397095,-0.9141480922698975,-0.04508339241147041,-0.5677323341369629,-0.8219777345657349,0.1905912160873413,0.053343355655670166,0.12423914670944214,-0.2409803251474807,-0.05223786618531169,0.29373852946514506,0.9235352328643949,0.6037486076736005,-0.0547925613157591,-2.614044293028599
1784028447192611840,1.4007880687713623,1.2147060632705688,-1.1190733909606934,-0.5748279690742493,-0.04780258610844612,-0.5802538394927979,-0.8130316138267517,0.4149138033390045,-0.04265570640563965,0.1265539526939392,-0.23624682691526855,-0.051291491401964484,0.3014189382995459,0.9223357242286337,0.6190402997049878,-0.05872787219399564,-2.62130901236542
1784028447202532096,1.4107081890106201,0.8275068402290344,-0.7205041646957397,-1.14972984790802,-0.05016573145985603,-0.5880686044692993,-0.8072538375854492,0.12475068867206573,-0.13029992580413818,0.04487895965576172,-0.22988870934710506,-0.04920097472951853,0.30651649008874315,0.9223763481138421,0.6286688354305745,-0.06206387762305749,-2.6328915331105427
1784028447212451840,1.4206280708312988,0.5340594053268433,-0.44401809573173523,-0.21792180836200714,-0.050908125936985016,-0.5953808426856995,-0.8018291592597961,0.09686760604381561,-0.024248063564300537,-0.10797613859176636,-0.22604165274592258,-0.04864549437377042,0.3109968391646084,0.9218567215918584,0.6377396112652353,-0.0634048886971626,-2.639737477113089
1784028447222371072,1.4305472373962402,-0.12175088375806808,-0.5942310690879822,-0.6102941036224365,-0.052840959280729294,-0.596101701259613,-0.8011682629585266,0.2442014366388321,0.10977357625961304,-0.03888911008834839,-0.223557456937521,-0.046929907125164816,0.31179072314284884,0.9222831178635085,0.6386370889854872,-0.06585949810505622,-2.644192342741696
1784028447232291072,1.440467119216919,0.11885633319616318,-0.40973272919654846,-0.2779143452644348,-0.05440187826752663,-0.5960848331451416,-0.801076352596283,0.46449708938598633,0.0497591495513916,-0.13317352533340454,-0.22116711630225647,-0.04532313801302738,0.3121019675607919,0.9228344374528611,0.6386161165230297,-0.06780686735377549,-2.6487184500902625
1784028447242211072,1.4503872394561768,0.04216102138161659,-0.7734166383743286,-0.39254239201545715,-0.056663356721401215,-0.5975677967071533,-0.7998137474060059,0.2915113866329193,0.20531010627746582,-0.02438974380493164,-0.21848696662854938,-0.043478438502870496,0.3133732039665997,0.9231307404043071,0.6404643372231966,-0.07072751860628108,-2.6533197408098097
1784028447252131072,1.4603071212768555,0.15938298404216766,-0.7269314527511597,-0.8826510906219482,-0.05797748640179634,-0.5975972414016724,-0.7996975183486938,0.41326314210891724,0.12323200702667236,0.08074915409088135,-0.2147337492638084,-0.04153713456307693,0.31372901246086976,0.9239795626351441,0.6405010303617625,-0.07237264565419477,-2.660884637593865
1784028447262051072,1.4702272415161133,0.45343828201293945,-0.6546404957771301,-0.38315126299858093,-0.06010155752301216,-0.6014137864112854,-0.7966738939285278,0.44329553842544556,-0.0541495680809021,0.04603302478790283,-0.21035849486285782,-0.03949996815441641,0.3163902769332906,0.9241679143485395,0.6452695229521658,-0.07529797155079956,-2.6687964770571946
1784028447271970048,1.4801461696624756,0.12004722654819489,-0.49322226643562317,-0.05212904512882233,-0.0638449564576149,-0.603229820728302,-0.7950079441070557,0.2939627766609192,0.007816612720489502,0.26725220680236816,-0.20853342079518583,-0.03721012979859748,0.31798024634136873,0.9241308719062219,0.6475445457100055,-0.08013534481861671,-2.6708151708006422
1784028447281889792,1.4900660514831543,0.3771842122077942,-0.35777151584625244,-0.5170629620552063,-0.06505966931581497,-0.6054777503013611,-0.7931985855102539,0.16701889038085938,0.10390609502792358,0.1239023208618164,-0.20721775678725798,-0.03644586994194931,0.3194877403863741,0.9239372655916355,0.6503659867397991,-0.08183872431853333,-2.672734838497455
1784028447291810048,1.499986171722412,0.4074268639087677,-0.6266247630119324,-0.2872716188430786,-0.0671357810497284,-0.6087155938148499,-0.7905429601669312,0.2037782520055771,0.061733782291412354,0.10495030879974365,-0.20424296964042132,-0.03479412990321545,0.3217419594617105,0.923881203723663,0.6544407177188577,-0.08472035617001321,-2.6776790934684436
1784028447301729792,1.5099060535430908,0.7626827359199524,-0.22052331268787384,0.07057759910821915,-0.0688161849975586,-0.6136996746063232,-0.78653484582901,0.2559194564819336,-0.21112936735153198,-0.01653522253036499,-0.2031379484881699,-0.034225822878047846,0.3249018030720196,0.923039728754032,0.6607379645691737,-0.08727062947016229,-2.678403867006715
1784028447311650048,1.5198261737823486,-0.14424467086791992,-0.44339224696159363,-0.3869042694568634,-0.07195926457643509,-0.6168395280838013,-0.7837926149368286,0.1650683879852295,-0.19930732250213623,0.05550587177276611,-0.2021540648345297,-0.03269061047172899,0.32716206371780243,0.9225128976732268,0.6647209586629375,-0.09155240579201375,-2.6785240421473553
1784028447321569024,1.529745101928711,0.09684544056653976,-0.21570740640163422,0.03185916692018509,-0.07274220138788223,-0.6164608001708984,-0.784018337726593,0.23141837120056152,-0.21724891662597656,-0.11713528633117676,-0.20040421198024103,-0.031615982878997535,0.3270952033685246,0.9229557861576075,0.6642398420013693,-0.09251639151191253,-2.6820360179365887
1784028447331489024,1.5396652221679688,0.1094224825501442,-0.4653577506542206,0.14245638251304626,-0.07665631920099258,-0.6175368428230286,-0.782797634601593,0.17959213256835938,-0.15094155073165894,-0.09916037321090698,-0.20097272013071116,-0.029948707566277995,0.32818327414185516,0.9225014160494748,0.6656071769483267,-0.0976148693927684,-2.678818249615007
1784028447341408512,1.5495846271514893,0.11970095336437225,-0.4979223310947418,-0.1782209575176239,-0.07918959110975266,-0.6170787215232849,-0.7829066514968872,0.19256240129470825,0.03614610433578491,0.019021153450012207,-0.19954268585001314,-0.028074447501805013,0.3282658829781188,0.9228413277270883,0.6650249268672185,-0.10080534254506522,-2.680858930913683
1784028447351328256,1.559504508972168,0.6467257738113403,-0.44063064455986023,-0.11929167062044144,-0.08213423192501068,-0.6211076378822327,-0.7794095873832703,0.24171064794063568,-0.19101089239120483,-0.07528096437454224,-0.19843826763256697,-0.026701515399423805,0.33103208807818785,0.922131805163352,0.670155212927182,-0.10499256792685911,-2.681078556956616
1784028447361248512,1.5694246292114258,0.03443492576479912,-0.49876081943511963,-0.06924927234649658,-0.08595850318670273,-0.6240112781524658,-0.7766730785369873,0.18602566421031952,-0.22599482536315918,0.1517188549041748,-0.19724186036173882,-0.024685340431613467,0.3332477783505043,0.9216465366526877,0.6738656071601896,-0.11022667585950492,-2.6812871464658437
1784028447371167488,1.579343557357788,0.030818218365311623,-0.3217758238315582,0.2457209825515747,-0.08903686702251434,-0.6240630745887756,-0.7762845754623413,0.21209901571273804,-0.26988834142684937,0.1476377248764038,-0.19645894072910844,-0.0228210836735955,0.33367183955689395,0.9217083822340268,0.6739318838503475,-0.11419714355913786,-2.6815404437094896
1784028447381087232,1.5892634391784668,-0.4907373785972595,-0.4960229694843292,-0.009693469852209091,-0.09382573515176773,-0.6229696869850159,-0.7765986919403076,0.09559576213359833,-0.18179410696029663,0.20997881889343262,-0.1963508273369273,-0.02016802917886098,0.33360741593706783,0.921816543830875,0.6725333524433711,-0.120233507753424,-2.679785952404061
1784028447391007488,1.5991835594177246,-0.8004478812217712,0.020532747730612755,0.018528413027524948,-0.09535554051399231,-0.6172485947608948,-0.7809683084487915,0.02153351902961731,-0.054931581020355225,0.1873403787612915,-0.1962224406733465,-0.0185866194507698,0.3304094245873149,0.9230280916979753,0.6652407753149215,-0.12149773306878918,-2.6806405558388797
1784028447400927232,1.6091034412384033,-0.7281097769737244,-0.4267345070838928,0.07189789414405823,-0.09709542244672775,-0.6116698980331421,-0.785132110118866,-0.02627187967300415,-0.11776125431060791,-0.017968475818634033,-0.19588345709205304,-0.016849057085885494,0.32733783689393625,0.9242271155540983,0.6581697122362717,-0.1230429048734856,-2.6818215357589996
1784028447410847488,1.6190235614776611,-1.5516759157180786,-0.245399609208107,-0.010065414011478424,-0.10035868734121323,-0.6028663516044617,-0.7915050387382507,0.28650063276290894,-0.10205918550491333,0.10612607002258301,-0.19595989828168675,-0.014073193810428434,0.32256691091795414,0.9259331685491415,0.64708890239126,-0.1261217374459504,-2.682135393580573
1784028447420766464,1.6289424896240234,-1.2574865818023682,-0.36074164509773254,-0.3538765609264374,-0.10108902305364609,-0.5917752981185913,-0.7997393012046814,0.18205216526985168,-0.2132021188735962,-0.05966615676879883,-0.1942313318582184,-0.0117119358307929,0.31621696423243373,0.9285170168652996,0.6332594070902439,-0.12573564257299358,-2.6879245133705627
1784028447430686464,1.6388626098632812,-1.4913218021392822,-0.40424805879592896,0.05930190905928612,-0.10283679515123367,-0.5814698934555054,-0.8070423007011414,0.18943041563034058,-0.29446089267730713,0.002507448196411133,-0.19299078846491008,-0.00913320444510101,0.310476117778389,0.9307393366295214,0.6205342847766903,-0.1267412717069031,-2.691998083574588
1784028447440606464,1.64878249168396,-1.5217361450195312,-0.08783576637506485,-0.13551072776317596,-0.10484404861927032,-0.5685074329376221,-0.8159700036048889,0.062485650181770325,-0.31486964225769043,0.017279207706451416,-0.19282597682055896,-0.006490115999798711,0.30327031509201424,0.9331683235554143,0.6046904323294717,-0.12778989086873946,-2.694149128592057
1784028447450526464,1.6587026119232178,-1.6621071100234985,-0.1844741851091385,0.033611856400966644,-0.10526093095541,-0.5562543869018555,-0.8243186473846436,0.1686001718044281,-0.38388538360595703,0.039559125900268555,-0.19227045300282855,-0.004647172011125553,0.29634285000224636,0.9355166560928473,0.5898716558044022,-0.12700712874889314,-2.6975598033916324
1784028447460446464,1.6686224937438965,-1.948441982269287,0.020369496196508408,-0.01202353648841381,-0.10631154477596283,-0.5409867763519287,-0.834284782409668,0.21889087557792664,-0.2741681933403015,0.06148815155029297,-0.19243741961374897,-0.0023828363447426512,0.28784012134424336,0.9381418183482139,0.5716099929724034,-0.12674527993078258,-2.699663542817199
1784028447470365184,1.6785414218902588,-1.8407787084579468,-0.13361835479736328,0.13242821395397186,-0.10656943917274475,-0.5253542065620422,-0.8441835641860962,0.14421287178993225,-0.17474955320358276,-0.05419290065765381,-0.19239009228909396,-0.00044134874275039465,0.2791200665116448,0.9407857817186047,0.5531313353303144,-0.12557538721106387,-2.702470070874634
1784028447480285440,1.6884615421295166,-2.051886796951294,0.018173834308981895,0.39815229177474976,-0.10822407156229019,-0.5087976455688477,-0.8540565371513367,0.1732722967863083,0.08608341217041016,-0.03751450777053833,-0.19381973876986666,0.0018621401692020642,0.2701263950689949,0.9431130691787208,0.533787545068421,-0.1260459017456128,-2.701710232735081
1784028447490205184,1.6983814239501953,-1.8333868980407715,-0.029566258192062378,0.13161765038967133,-0.10941460728645325,-0.491384357213974,-0.8640427589416504,0.14980462193489075,0.1551721692085266,-0.09814596176147461,-0.19497773431107968,0.004101042209011599,0.26069485356267413,0.9455184088795231,0.513678517205031,-0.1259605878716601,-2.701745714688805
1784028447500125440,1.7083015441894531,-1.599315881729126,-0.4073657691478729,0.13149088621139526,-0.11213730275630951,-0.47661393880844116,-0.8719313740730286,0.2538304328918457,0.05304524302482605,-0.13496553897857666,-0.19538276389015108,0.0070141539312378745,0.2529527664256173,0.9475184586079718,0.49679899510390524,-0.12790583703525482,-2.7024005509087585
1784028447510045184,1.7182214260101318,-1.3494389057159424,-0.31660181283950806,0.12598279118537903,-0.11569476127624512,-0.4637415409088135,-0.8783840537071228,0.21484637260437012,-0.04046988487243652,-0.1065555214881897,-0.19542164017103306,0.010218175909689011,0.2463809569223045,0.9492114531957577,0.4822136591368832,-0.13095935017692611,-2.703265877663562
1784028447519964416,1.7281405925750732,-1.169911503791809,-0.33954575657844543,0.21813669800758362,-0.11981362104415894,-0.45222243666648865,-0.8838210105895996,0.14148110151290894,-0.06039658188819885,-0.07957315444946289,-0.19575046575143484,0.0134668005201611,0.2406411239852972,0.9505746405987915,0.46925555337601954,-0.13474182907049015,-2.703160126079166
1784028447529884416,1.738060474395752,-0.9193375110626221,-0.2938135266304016,0.3527010977268219,-0.12398767471313477,-0.4431439936161041,-0.8878346681594849,0.11764002591371536,-0.11663991212844849,-0.12037450075149536,-0.1966556044890673,0.016325828275864984,0.23625435244747345,0.9514430311165443,0.45910279226595985,-0.13875437736436586,-2.7014770636976513
1784028447539804416,1.7479805946350098,-1.0508781671524048,-0.1605662703514099,0.11466589570045471,-0.12715062499046326,-0.43438640236854553,-0.8917068839073181,-0.0015114843845367432,-0.03270038962364197,-0.11995083093643188,-0.19758901375722243,0.018634672180887962,0.23194676687761728,0.9522667825963395,0.4493569257424375,-0.1416375953971511,-2.6999914342119773
1784028447549724416,1.7579004764556885,-0.9574002623558044,-0.40456199645996094,-0.04802810773253441,-0.1296587437391281,-0.425439715385437,-0.8956503868103027,0.1762285828590393,-0.0252133309841156,-0.2384743094444275,-0.19709938390087822,0.02097597565459385,0.2274528669674834,0.9534028365905749,0.439447708369083,-0.1437661641527157,-2.7017113727169186
1784028447559644416,1.7678205966949463,-0.9556148648262024,-0.2724857032299042,0.13957853615283966,-0.13270102441310883,-0.4173475503921509,-0.8990058302879333,0.26099693775177,-0.05213487148284912,-0.29171377420425415,-0.19679730894469252,0.023438388656293004,0.22348988449348386,0.9543446820695723,0.4305245487438828,-0.1465503833485321,-2.7027718707237165
1784028447569563392,1.7777395248413086,-0.8445040583610535,-0.4441510736942291,0.013240541331470013,-0.13647693395614624,-0.4090223014354706,-0.902260959148407,0.14825671911239624,0.005290001630783081,-0.300284206867218,-0.19659620877059195,0.026261260054211494,0.2194991490524022,0.9552384204944562,0.42138239492121976,-0.15012301215022947,-2.70348015587566
1784028447579483392,1.7876594066619873,-0.7647602558135986,-0.34629401564598083,-0.013289869762957096,-0.139798104763031,-0.4022141695022583,-0.9048095345497131,0.0888337641954422,-0.0535963773727417,-0.22708743810653687,-0.19591885645034865,0.028796494264287258,0.2162544722979317,0.9560443248987832,0.41393398034795126,-0.153293429102168,-2.705088582266038
1784028447589403392,1.7975795269012451,-0.6904221773147583,-0.38347965478897095,-0.0731196478009224,-0.1424901932477951,-0.3958792984485626,-0.9071803092956543,0.1055791974067688,-0.05147787928581238,-0.1628727912902832,-0.19532043173326022,0.03094062632944318,0.21319594153746851,0.9567864284950963,0.40702517463667715,-0.1557964257809684,-2.706628299463364
1784028447599323392,1.8074994087219238,-0.3987436592578888,-0.5769199728965759,0.03246377035975456,-0.1464860737323761,-0.3905794620513916,-0.9088396430015564,0.2489793598651886,-0.0538327693939209,-0.1352582573890686,-0.194546760201132,0.03366258702518357,0.21082457551492859,0.9573773903316466,0.40126097724654,-0.15980484497645286,-2.7080707224265836
1784028447609243392,1.8174195289611816,0.03529699146747589,-0.5186907649040222,0.11230666935443878,-0.15193605422973633,-0.3889385163784027,-0.9086486101150513,0.14702273905277252,-0.06238594651222229,-0.11074531078338623,-0.19423222577421942,0.03663213392538933,0.21055588725688118,0.9573913952331446,0.3994790985993737,-0.16567826735784488,-2.7076594349971645
1784028447619163392,1.8273394107818604,0.1668395698070526,-0.4486381411552429,0.11880584806203842,-0.1573016494512558,-0.3901495337486267,-0.9072152376174927,0.08331179618835449,-0.1450372040271759,-0.02939969301223755,-0.19440215310384773,0.03916128838333804,0.21179888140282582,0.9569824331345426,0.40079399810006927,-0.17168264743511463,-2.7058101085529587
1784028447629082368,1.8372585773468018,-0.09609173238277435,-0.4607361853122711,0.09873796254396439,-0.16182152926921844,-0.39033180475234985,-0.9063414931297302,0.11264246702194214,-0.14401569962501526,-0.041717588901519775,-0.19435411047805265,0.04142091995849489,0.2123995619824133,0.9567638596811511,0.40099195032743823,-0.17668195794937894,-2.704776229449849
1784028447639002368,1.8471784591674805,-0.09040535241365433,-0.5617898106575012,0.31750786304473877,-0.16740682721138,-0.3889106810092926,-0.9059378504753113,0.2044246345758438,-0.018361657857894897,-0.11832362413406372,-0.19489300699329914,0.04424951494079777,0.2123041364199281,0.9565487858737937,0.3994488992642007,-0.18272717527136964,-2.702515604223712
1784028447648922368,1.8570985794067383,-0.1418789178133011,-0.604725182056427,0.17066209018230438,-0.17351485788822174,-0.38772591948509216,-0.9052962064743042,0.18259383738040924,-0.022354036569595337,-0.1771012544631958,-0.19558612324035984,0.047282920127835706,0.21240581488207344,0.9562395844913256,0.3981632528722284,-0.18936979040600943,-2.6997686606898914
1784028447658842368,1.867018461227417,0.06551741063594818,-0.5964259505271912,0.1959541290998459,-0.179584801197052,-0.3870672881603241,-0.9043938517570496,0.184345543384552,-0.0734124481678009,-0.19893866777420044,-0.19548970154212672,0.05042003301422728,0.21274610089619927,0.9560233350260059,0.3974488136777401,-0.19601945510229718,-2.698592887330707
1784028447668762368,1.8769385814666748,-0.0845036432147026,-0.6565684676170349,0.19192630052566528,-0.1861688494682312,-0.38649818301200867,-0.9033052325248718,0.1697046160697937,-0.17745140194892883,-0.11302167177200317,-0.19622313082111523,0.05362297795407691,0.21324156771928524,0.9555883597669471,0.396831686442006,-0.20325149593709224,-2.6955361474118904
1784028447678681344,1.886857509613037,-0.26173144578933716,-0.5937575697898865,0.07568997144699097,-0.1920425146818161,-0.38483926653862,-0.9027836918830872,0.0800887793302536,-0.3134486973285675,-0.06762951612472534,-0.19608839814910137,0.05677481039771485,0.21303700679565887,0.9554795754560763,0.3950336575213888,-0.20959838321363752,-2.694669300104706
1784028447688601600,1.896777629852295,-0.257886677980423,-0.5832834243774414,0.2144993543624878,-0.19821606576442719,-0.3820757269859314,-0.9026231169700623,0.13840162754058838,-0.3240094780921936,-0.057841360569000244,-0.19601528930601592,0.06017658729941529,0.21229038439791517,0.9554525611045506,0.39204138876699757,-0.21616876999864373,-2.69381313064347
1784028447698521344,1.9066975116729736,-0.30945613980293274,-0.6330350041389465,0.1709769070148468,-0.2041548788547516,-0.3794901669025421,-0.90239018201828,0.08673851191997528,-0.23881122469902039,-0.02424556016921997,-0.19599167819919067,0.0634317470213069,0.2116159911508595,0.9553964950385689,0.3892451760587289,-0.22249240866019243,-2.6928916295565797
1784028447708441344,1.9166173934936523,-0.4221416115760803,-0.4483521282672882,0.20321516692638397,-0.20973484218120575,-0.3757237195968628,-0.9026865363121033,0.11104097962379456,-0.10804092884063721,0.0006937384605407715,-0.19606355316047294,0.06660443396268315,0.21028690866034228,0.9554592230841163,0.3851775984498537,-0.22829456949527058,-2.692099255570789
1784028447718361344,1.9265375137329102,-0.20926740765571594,-0.5883741974830627,0.3478733003139496,-0.2157549411058426,-0.37236618995666504,-0.902658998966217,0.1520189791917801,-0.03550124168395996,-0.11804717779159546,-0.19676240643271664,0.06982062011927385,0.20927396574091653,0.9553083861487212,0.3815572719775597,-0.23461961306249363,-2.6898264197275727
1784028447728280320,1.9364564418792725,-0.34209996461868286,-0.5939487814903259,0.24024806916713715,-0.2217346876859665,-0.36931300163269043,-0.9024642109870911,0.11641852557659149,-0.12983250617980957,-0.06573647260665894,-0.19741390437537276,0.07299815058381275,0.20842065022116027,0.9551229808534073,0.3782696559282321,-0.2409267290488298,-2.687618854263955
1784028447738200320,1.9463765621185303,-0.48455750942230225,-0.6203593611717224,0.2640463411808014,-0.22784662246704102,-0.3649916350841522,-0.902699887752533,0.19883966445922852,-0.24438336491584778,-0.07670074701309204,-0.19800606927466707,0.0763846701428385,0.20691894910929312,0.95506210737452,0.3736238220770858,-0.24724160119337843,-2.685776013909198
1784028447748120320,1.956296443939209,-0.6990557312965393,-0.6441019177436829,0.34350305795669556,-0.23470322787761688,-0.3588774502277374,-0.903394341468811,0.15068833529949188,-0.2605683505535126,-0.041994452476501465,-0.19849124227197007,0.08035178593391183,0.20456394280632828,0.955143165250956,0.36706495116901416,-0.25418212760027115,-2.684370822526679
1784028447758040320,1.9662165641784668,-0.7877238392829895,-0.5784717798233032,0.3035404682159424,-0.24129779636859894,-0.3512953221797943,-0.9046363830566406,0.12726886570453644,-0.2000657618045807,-0.031826019287109375,-0.19907750799366772,0.08431421860322394,0.20142721083056,0.955346229342365,0.358954246714733,-0.26066578537330926,-2.6831544507747274
1784028447767960320,1.9761364459991455,-0.7936150431632996,-0.5470620393753052,0.3513994514942169,-0.24750225245952606,-0.34349825978279114,-0.9059534072875977,0.13432781398296356,-0.19738003611564636,-0.018546104431152344,-0.1996539325627931,0.08810554906175676,0.19814313613778028,0.9555705731539978,0.35063928223071583,-0.2666876601907477,-2.682131551741749
1784028447777879552,1.986055612564087,-0.8555747866630554,-0.5781887769699097,0.3925628662109375,-0.2537960708141327,-0.33520594239234924,-0.9073172211647034,0.1692013442516327,-0.19599828124046326,0.005339682102203369,-0.20046002665498264,0.09194714246513064,0.19464611491938105,0.9557585928146348,0.3418238085007141,-0.27275036844573747,-2.6807472223217226
1784028447787799296,1.9959754943847656,-0.9262477159500122,-0.40313243865966797,0.3431556224822998,-0.25971719622612,-0.32655131816864014,-0.9087965488433838,0.12132000923156738,-0.23291215300559998,0.008192360401153564,-0.20136529094815062,0.09562145530269757,0.19094043803189079,0.9559551543114844,0.33265254723444265,-0.27836175064256374,-2.6793506276232915
1784028447797719552,2.0058956146240234,-1.183685064315796,-0.4835125207901001,0.3968771696090698,-0.26495885848999023,-0.31597700715065,-0.9110188484191895,0.13098669052124023,-0.2147236466407776,-0.0010447502136230469,-0.20234509005562812,0.09913640722817915,0.1861788287176616,0.9563293386446237,0.3214862584002723,-0.28303019739569174,-2.678381091777009
1784028447807639296,2.015815496444702,-1.357533574104309,-0.3668452799320221,0.6371512413024902,-0.2704637348651886,-0.30317220091819763,-0.9137483239173889,0.1390550434589386,-0.20135965943336487,-0.038751065731048584,-0.20379983337975752,0.10292648991548704,0.1803662591746651,0.9567338482143314,0.3080197777759233,-0.2877772496004579,-2.676856443498142
1784028447817559552,2.02573561668396,-1.4524142742156982,-0.3450707495212555,0.5524216890335083,-0.2752528786659241,-0.28861740231513977,-0.9170255064964294,0.09428364038467407,-0.05336257815361023,-0.04407978057861328,-0.20553862536695666,0.10649573129226464,0.17362572204935778,0.9572181376769836,0.2927824790144997,-0.2916020673002054,-2.675270018076841
1784028447827479296,2.0356554985046387,-1.1853489875793457,-0.4307011663913727,0.5287216305732727,-0.280060738325119,-0.27516359090805054,-0.9197015762329102,0.13035675883293152,-0.06138426065444946,-0.10381221771240234,-0.2071590456167036,0.11000381655364033,0.16747649802068348,0.9575676549136111,0.2787598501752945,-0.29559165653149433,-2.6737147182340193
1784028447837398272,2.045574426651001,-0.9910492300987244,-0.360070139169693,0.428200900554657,-0.28514766693115234,-0.26379939913749695,-0.921466588973999,0.16417598724365234,-0.15282654762268066,-0.0487024188041687,-0.2084110520097144,0.11351923272843786,0.16241948511291324,0.9577567449610457,0.26695900906086767,-0.300103631855698,-2.672469416146682
1784028447847318528,2.055494546890259,-0.8655361533164978,-0.42424479126930237,0.38935011625289917,-0.28999239206314087,-0.25460702180862427,-0.9225397706031799,0.19750887155532837,-0.26420706510543823,-0.019614100456237793,-0.20953790825575036,0.11672180228580299,0.15844911681199092,0.957791079830068,0.25744130597064,-0.304561506860979,-2.67111151268449
1784028447857238272,2.0654144287109375,-0.7046841382980347,-0.5161603093147278,0.5648212432861328,-0.29558083415031433,-0.24581970274448395,-0.9231492877006531,0.18872353434562683,-0.22079406678676605,0.009300410747528076,-0.21084852851966773,0.12023818037991975,0.15481643125891392,0.9576625396143291,0.24836525707748577,-0.3098729869565589,-2.669180363084299
1784028447867158528,2.0753345489501953,-0.5135558843612671,-0.34787705540657043,0.5510432124137878,-0.3009985685348511,-0.2386598140001297,-0.9232774972915649,0.11642828583717346,-0.1615934669971466,0.0007616877555847168,-0.2128688808128357,0.1233973357199767,0.15209978699684779,0.9572489332409251,0.24098554920281864,-0.31514597967161073,-2.665490374911604
1784028447877078272,2.085254430770874,-0.37136489152908325,-0.33907583355903625,0.4914185106754303,-0.3053027093410492,-0.23314425349235535,-0.9232735633850098,0.1289568841457367,-0.13668301701545715,0.0015053749084472656,-0.21475863704812098,0.1258540375886665,0.15007995790638834,0.9568257476070766,0.23530979322661894,-0.3193553932221918,-2.661945098312321
1784028447886997504,2.0951735973358154,-0.4388108551502228,-0.38669833540916443,0.5633072853088379,-0.3098183572292328,-0.22814856469631195,-0.9230172038078308,0.22262966632843018,-0.13790977001190186,0.05100792646408081,-0.2168333717894161,0.12834321123287262,0.1483893743814545,0.9562906827306653,0.2301756759636769,-0.323841541016886,-2.6578828755378416
1784028447896917248,2.105093479156494,-0.6173899173736572,-0.2970682978630066,0.6881376504898071,-0.3142293393611908,-0.22137857973575592,-0.9231746792793274,0.1939748227596283,-0.08724568784236908,0.09985619783401489,-0.2190877243973972,0.13095258615930525,0.1458221169773159,0.9558179272854961,0.22322789888022462,-0.32807825584732014,-2.65384733709897
1784028447906837504,2.115013599395752,-1.093284010887146,-0.20248734951019287,0.5391373634338379,-0.31771743297576904,-0.2116604596376419,-0.9242594242095947,0.12406814098358154,-0.0522097647190094,0.13238930702209473,-0.22134356220665638,0.13343073579643794,0.14165638563989286,0.9555818252066198,0.21327360735717432,-0.3310992276746556,-2.6505910882668338
1784028447916757248,2.1249334812164307,-1.2090822458267212,-0.05670671910047531,0.5073989033699036,-0.31992870569229126,-0.19939099252223969,-0.9262229204177856,0.11707836389541626,-0.11693894863128662,0.13143837451934814,-0.22286978769828325,0.1356700185757086,0.13594925136881805,0.9557408051270943,0.20073639954616498,-0.3325818791792223,-2.6495973332600418
1784028447926677504,2.1348536014556885,-1.3260879516601562,-0.011393226683139801,0.47165411710739136,-0.32095569372177124,-0.18608492612838745,-0.9286333322525024,0.07815787196159363,-0.056270405650138855,0.21143972873687744,-0.22440510084639836,0.13744401974312936,0.12958582405015134,0.9560120148057846,0.187175965017041,-0.3327689061270931,-2.6489564288650955
1784028447936596480,2.144772529602051,-1.2224504947662354,0.2146710753440857,0.41480308771133423,-0.32056760787963867,-0.1730102002620697,-0.9312915205955505,0.03852415084838867,0.045370444655418396,0.25674623250961304,-0.2257711158468775,0.13852155715813286,0.12315041834408622,0.9563854529421167,0.173885146912154,-0.33151486664404833,-2.648785629136154
1784028447946516224,2.1546924114227295,-1.0944578647613525,0.35724687576293945,0.272299200296402,-0.31860655546188354,-0.161188006401062,-0.934081494808197,0.023516863584518433,0.0720309168100357,0.3287043571472168,-0.2267494143363658,0.13873250554263122,0.11710052066562379,0.9568831597652087,0.16189427912166235,-0.3287158866914223,-2.649334836743815
1784028447956436480,2.1646125316619873,-1.040258526802063,0.5059751272201538,0.3167763948440552,-0.3150913715362549,-0.1504947990179062,-0.9370532035827637,-0.0036036670207977295,-0.018938779830932617,0.36141544580459595,-0.22765729728789375,0.1380556187716657,0.11141830709383807,0.9574437911933221,0.15106874858258376,-0.32438018369971094,-2.6499453610930144
1784028447966356224,2.174532413482666,-1.1409406661987305,0.6207454204559326,0.3124006986618042,-0.31036925315856934,-0.1397031843662262,-0.940294623374939,-0.002969980239868164,-0.0952669084072113,0.40876996517181396,-0.22874399658231823,0.13677671448633666,0.10556906947068674,0.958031020241273,0.14016165081165466,-0.31881664257332953,-2.6502692145536333
1784028447976276480,2.184452533721924,-1.6457496881484985,0.8447822332382202,0.3078749179840088,-0.3039010763168335,-0.12574970722198486,-0.9443681240081787,0.024329543113708496,-0.10342204570770264,0.5497300624847412,-0.22960751563999188,0.13502265919387862,0.09790211395896806,0.9588870717284944,0.12608350192535492,-0.31133818034545346,-2.6517259344981707
1784028447986196224,2.1943724155426025,-1.75770103931427,0.9256017804145813,0.3589458167552948,-0.2958100140094757,-0.10899519920349121,-0.9490081667900085,0.06677559018135071,-0.1876356601715088,0.5403472781181335,-0.23033471314088422,0.13281069572762774,0.08864108460193537,0.9599218287037254,0.10921216862849872,-0.30215987956472296,-2.653951687324819
1784028447996115456,2.204291582107544,-2.0893657207489014,0.9316985607147217,0.2863384485244751,-0.2870977520942688,-0.09032147377729416,-0.9536335468292236,0.0991857647895813,-0.15575700998306274,0.6202290058135986,-0.23112918114411662,0.13052927226727104,0.07839225454410811,0.96093499051152,0.09044473278140472,-0.2924259643127794,-2.6561812831414544
1784028448006035200,2.2142114639282227,-2.418560028076172,0.9693173170089722,0.12217870354652405,-0.27860480546951294,-0.06817761063575745,-0.9579828977584839,0.03801947832107544,0.040437132120132446,0.6472834348678589,-0.2309275468244781,0.12885994933546796,0.06636021859413209,0.9621143305116482,0.06823053842839136,-0.2830177193485831,-2.6607393197906255
1784028448015955456,2.2241315841674805,-2.510329246520996,1.2327638864517212,0.0759425014257431,-0.26778876781463623,-0.044551752507686615,-0.9624470472335815,0.01563727855682373,0.19356907904148102,0.594664454460144,-0.23019722871696777,0.12624286483555286,0.05328425835722548,0.9634484165937733,0.04456650476205551,-0.2713734859714944,-2.6664402364276674
1784028448025875456,2.234051465988159,-2.3184821605682373,1.3084596395492554,-0.016378236934542656,-0.2558780908584595,-0.02092139609158039,-0.9664826393127441,0.021243691444396973,0.30061501264572144,0.5084595680236816,-0.22911554875712203,0.12309572520202292,0.040076436879272585,0.9647525064014398,0.0209229231286385,-0.2588138691142699,-2.6725360204909463
1784028448035795456,2.243971586227417,-1.7069065570831299,1.4525060653686523,-0.19574372470378876,-0.24240675568580627,-0.0020130337215960026,-0.970172643661499,0.047231584787368774,0.25990182161331177,0.3393895626068115,-0.2276158503034933,0.1186301804544336,0.028992550423037094,0.9660628610560303,0.002013034989968681,-0.24484633052854174,-2.6785616183384096
1784028448045714432,2.2538905143737793,-1.2956976890563965,1.432935118675232,-0.24349594116210938,-0.22865654528141022,0.011799436062574387,-0.973435640335083,0.09665276110172272,0.23566760122776031,0.307786226272583,-0.22592100822034356,0.11342967710975864,0.02039319852810818,0.9673043263921852,-0.011799709515599237,-0.23071378836668838,-2.6840712842858636
1784028448055634176,2.263810396194458,-0.8391475081443787,1.5224732160568237,-0.2812563478946686,-0.2145448476076126,0.021488044410943985,-0.9764777421951294,0.1751008778810501,0.1765710413455963,0.2771521806716919,-0.22407125293224892,0.10756803954544554,0.01379309005489729,0.9685199422631657,-0.021489699203638652,-0.21627653824811846,-2.6892171479330997
1784028448065554432,2.273730516433716,-0.6115837097167969,1.5000585317611694,-0.22039002180099487,-0.19971711933612823,0.027925608679652214,-0.9794555902481079,0.19932039082050323,0.11578166484832764,0.2403961420059204,-0.22262074064780904,0.10097070242205433,0.008782147712809014,0.9696225323571097,-0.02792923936112049,-0.20114873046598358,-2.6930434305697375
1784028448075474176,2.2836503982543945,-0.44087454676628113,1.362767219543457,-0.12655647099018097,-0.18578243255615234,0.0327913723886013,-0.9820435643196106,0.21991634368896484,0.0202786885201931,0.24837052822113037,-0.22156930290418364,0.09463616408256831,0.004711632935515176,0.9705302513089661,-0.03279725268136763,-0.18696982763393188,-2.6957669831166897
1784028448085394432,2.2935705184936523,-0.49547329545021057,1.402219295501709,-0.012625477276742458,-0.17254020273685455,0.03677899017930031,-0.9843155741691589,0.22052910923957825,-0.1256461888551712,0.2918107509613037,-0.2210369782996258,0.08854784018128657,0.0012178818842625185,0.9712366217652539,-0.03678728792257618,-0.17352656587866572,-2.697249587214552
1784028448095313408,2.3034894466400146,-0.6304875612258911,1.365674376487732,0.16342198848724365,-0.1589065045118332,0.042798954993486404,-0.986365556716919,0.1316848248243332,-0.1510753184556961,0.34177327156066895,-0.2211897891685693,0.08250283803635985,-0.003242355853131866,0.9717293456423479,-0.04281203231574439,-0.15973060247490087,-2.697396799194917
1784028448105233408,2.3134095668792725,-0.3062152564525604,1.3767112493515015,0.25266486406326294,-0.14554041624069214,0.047828059643507004,-0.988195538520813,0.03570765256881714,-0.0796731561422348,0.256414532661438,-0.22189944774271086,0.0764934175651167,-0.007139824209605975,0.972038252681914,-0.047846312154025905,-0.14622772289273162,-2.696224391304312
1784028448115153408,2.323329448699951,-0.12343800067901611,1.233488917350769,0.1363784819841385,-0.13225221633911133,0.0498519241809845,-0.9899616837501526,-0.025767803192138672,0.1350845992565155,0.2615070939064026,-0.22278446811057956,0.07019921041716648,-0.009551335322225523,0.972290049489853,-0.04987259600821228,-0.13280691040975562,-2.694418918800181
1784028448125073408,2.333249568939209,0.246385857462883,1.1253968477249146,0.025349967181682587,-0.12074311822652817,0.04981200024485588,-0.9914332628250122,-0.006179489195346832,0.382683128118515,0.2335139513015747,-0.22303579012361094,0.064549447372298,-0.01080510740527501,0.9726107184669195,-0.049832622797267676,-0.12118962559774321,-2.693778090261483
1784028448134993408,2.3431694507598877,0.9333831667900085,1.2355787754058838,0.20731604099273682,-0.10939943045377731,0.04380038008093834,-0.9930323958396912,-0.005438216030597687,0.40726467967033386,0.13475602865219116,-0.22367302445274434,0.05831765449668852,-0.009103019087826453,0.9728754362833699,-0.04381439673433606,-0.10972455721025665,-2.6920349128147825
1784028448144913408,2.3530895709991455,1.409623146057129,1.3961776494979858,0.1702810525894165,-0.09606657177209854,0.0324147492647171,-0.9948469996452332,-0.17431917786598206,0.3762919306755066,0.14992207288742065,-0.225055760394366,0.05051519518104629,-0.004972790596302845,0.9730228709845656,-0.03242042842628341,-0.09626569406948456,-2.6885577329862995
1784028448154832384,2.363008499145508,1.0308098793029785,1.5717889070510864,0.001673134509474039,-0.08154217153787613,0.019369442015886307,-0.9964816570281982,-0.11595233529806137,0.06264655292034149,0.20033907890319824,-0.22569416590885563,0.04194185666913594,-0.00022468877663517204,0.9732949049340559,-0.01937065295863888,-0.08164815611828048,-2.686664750905095
1784028448164752384,2.3729286193847656,-0.345486044883728,1.3449761867523193,0.18966524302959442,-0.06678321957588196,0.016130924224853516,-0.9976370930671692,0.11376503109931946,-0.254793643951416,0.3427909016609192,-0.22617024894583235,0.03437087778383559,-0.0002997405675090032,0.9734811305201259,-0.016131623187065076,-0.06684166906644647,-2.685568897527574
1784028448174672384,2.3828485012054443,-0.9639465808868408,1.312780499458313,0.4747787415981293,-0.053884994238615036,0.02341204509139061,-0.9982726573944092,0.21028758585453033,-0.5884907841682434,0.14796137809753418,-0.22758024464677956,0.028912587749615512,-0.005266624590096892,0.9733157557193168,-0.02341418428394392,-0.05392590117631797,-2.68283817601629
1784028448184592384,2.392768621444702,-1.5401546955108643,1.2106947898864746,0.7045774459838867,-0.04126716032624245,0.035723354667425156,-0.9985093474388123,0.16226935386657715,-0.5757929086685181,0.07242292165756226,-0.23028612613329139,0.024202441659631552,-0.012632554792705926,0.9727399298862844,-0.035730956466353304,-0.04130525984715422,-2.6774108972727504
1784028448194512384,2.402688503265381,-2.2910921573638916,0.669421911239624,0.5959510803222656,-0.031244397163391113,0.05498173460364342,-0.9979984164237976,0.1496983766555786,-0.2896924316883087,-0.009600460529327393,-0.23321790466728273,0.021616364211919724,-0.023098383130592634,0.9719097610360731,-0.05500947369435571,-0.0312968397521653,-2.671442462680005
1784028448204431360,2.412607431411743,-2.3430707454681396,0.49066969752311707,0.6115712523460388,-0.025910986587405205,0.0787036120891571,-0.9965612888336182,0.25171053409576416,-0.058745115995407104,-0.31047606468200684,-0.2357507296983703,0.021893718696497786,-0.03521407151204296,0.9709285207393928,-0.07878509211960057,-0.025994537522137602,-2.6662175607568748
1784028448214351360,2.422527551651001,-2.000605821609497,0.48793917894363403,0.6464282870292664,-0.020448515191674232,0.10006309300661087,-0.9947709441184998,0.15545828640460968,0.11388038843870163,-0.5797529816627502,-0.2384304427061713,0.021901919930618987,-0.04620424819332363,0.9698125754998501,-0.1002308300126384,-0.02055310991761048,-2.660481700201707
1784028448224271360,2.4324474334716797,-1.5328940153121948,0.34150052070617676,0.5611230731010437,-0.01586289517581463,0.11799432337284088,-0.992887556552887,0.10634751617908478,0.2794055938720703,-0.6598071455955505,-0.24111838662083995,0.021986380620597396,-0.05543301417145852,0.9686617903123643,-0.11826985567464114,-0.015975168714080657,-2.6546163410747745
1784028448234191360,2.4423675537109375,-0.9324353337287903,0.13701637089252472,0.37865257263183594,-0.012854463420808315,0.1301443874835968,-0.9914117455482483,0.09937179833650589,0.2969033420085907,-0.6409429907798767,-0.242997626769582,0.022127753021568577,-0.06168064452511123,0.9678109687013392,-0.13051460848480687,-0.01296509125790148,-2.650450894997354
1784028448244111360,2.452287435531616,-0.49187493324279785,-0.15964044630527496,0.39056068658828735,-0.012893032282590866,0.13688813149929047,-0.9905025959014893,0.12484677135944366,0.35430753231048584,-0.5470797419548035,-0.2449438912660187,0.02310902553346404,-0.06492050017944226,0.9670851807374503,-0.13731929208609253,-0.013015921672693618,-2.6463599753077593
1784028448254031360,2.462207555770874,-0.8780573010444641,-0.027131404727697372,0.02372141182422638,-0.012760688550770283,0.14368775486946106,-0.9895408153533936,-0.04487175494432449,0.13690611720085144,-0.27902913093566895,-0.24556264466777433,0.023935093146631684,-0.06824010414536123,0.9666795432468096,-0.14418683954946485,-0.012894851493650196,-2.6449936577226376
1784028448263950336,2.4721264839172363,-1.3743053674697876,-0.3377329707145691,-0.10589805990457535,-0.014956045895814896,0.1544695794582367,-0.9878843426704407,-0.048093266785144806,-0.005299657583236694,-0.09027117490768433,-0.2454845810627442,0.026345343369877983,-0.07323765726570834,0.966270894400902,-0.1550905714959183,-0.015138313988741168,-2.645188627671892
1784028448273870592,2.482046604156494,-1.4930351972579956,-0.25251153111457825,0.13793537020683289,-0.017797689884901047,0.1689780354499817,-0.9854590892791748,-0.07134415209293365,-0.0005515366792678833,-0.05042952299118042,-0.24503941485458725,0.02951181851793919,-0.07999684601646044,0.9657563354542273,-0.16979270556426426,-0.018058340320957537,-2.646160961087721
1784028448283790336,2.491966485977173,-1.3693345785140991,-0.32011204957962036,0.7773081064224243,-0.019388437271118164,0.18294566869735718,-0.9829317927360535,-0.12621092796325684,0.09560351073741913,-0.019768953323364258,-0.2474738928881688,0.03226235500443381,-0.08656344095950454,0.9644804475223341,-0.18398186211403345,-0.019722551809037925,-2.6410736234521965
1784028448293710592,2.5018866062164307,-1.6691967248916626,-0.044977400451898575,-0.15122030675411224,-0.020938538014888763,0.19722548127174377,-0.9801345467567444,-0.38694414496421814,0.3701268136501312,-0.062452733516693115,-0.24916104977537573,0.03500339346934185,-0.09331398821141727,0.9633203284518504,-0.19852701055971872,-0.02135967415724294,-2.637517133797707
1784028448303630336,2.5118064880371094,-2.286576986312866,-0.07615494728088379,-0.6381438970565796,-0.021820446476340294,0.21663355827331543,-0.9760091304779053,-0.17306479811668396,0.32213902473449707,-0.04622292518615723,-0.24635360539614518,0.03764200016020734,-0.10285197631388289,0.9629716227768379,-0.21836480968807243,-0.022353081705138188,-2.643133385931077
1784028448313549312,2.5217254161834717,-2.273998737335205,-0.2818026542663574,0.2600913941860199,-0.024235155433416367,0.2391188144683838,-0.9706878066062927,0.10980644822120667,0.20773480832576752,-0.12762451171875,-0.24504227808874954,0.041562444183374,-0.11370422732330525,0.9619242008856037,-0.24145823067059044,-0.024961807135663906,-2.645748127174697
1784028448323469312,2.5316455364227295,-3.0652384757995605,0.2725798785686493,-0.7164270877838135,-0.023576296865940094,0.26448947191238403,-0.9641003608703613,-0.1624893844127655,-0.030846893787384033,-0.14710569381713867,-0.24337559274102047,0.04430450024050933,-0.12643946138343196,0.9606344080244431,-0.2676744938133667,-0.024449321216471,-2.64862870776928
1784028448333389312,2.541565418243408,-3.686826467514038,0.32805323600769043,-0.7262259125709534,-0.02302115224301815,0.29628923535346985,-0.9548207521438599,0.1154436394572258,-0.17513447999954224,-0.32209569215774536,-0.23887015941826326,0.04750306997158802,-0.1425940731573485,0.9593494703485086,-0.30080507560565234,-0.024105772860674803,-2.6571868654145145
1784028448343310592,2.5514867305755615,-4.734838485717773,0.2750397026538849,-0.48153865337371826,-0.02176661044359207,0.3354280889034271,-0.9418143033981323,0.392661988735199,-0.3085878789424896,-0.09883511066436768,-0.2346578237528641,0.05126206362193561,-0.16268080247473007,0.9569967445033299,-0.3420596046121444,-0.02310724664274279,-2.6646675407220544
1784028448353230592,2.5614068508148193,-5.0729899406433105,-0.08101081103086472,-0.5592092275619507,-0.022570177912712097,0.38146811723709106,-0.9241064190864563,0.4651818871498108,-0.17568808794021606,-0.1288263201713562,-0.23094246656281384,0.05696805640212574,-0.1862832039482933,0.9532674152264428,-0.3913839771101721,-0.024418932584657813,-2.671064087034357
1784028448363150592,2.571326732635498,-4.973564147949219,-0.12086079269647598,-0.49494606256484985,-0.02622433751821518,0.4267655313014984,-0.9039819836616516,0.4305975139141083,0.3045119345188141,-0.1884405016899109,-0.22683743119974334,0.06391467607928275,-0.20958032554164757,0.9489656388620834,-0.4409132335589012,-0.02900166661999636,-2.678824803681847
1784028448373069824,2.5812458992004395,-4.671367645263672,0.031552717089653015,-0.39234912395477295,-0.02833741530776024,0.46976375579833984,-0.882337212562561,0.29550355672836304,0.6071252822875977,-0.15315473079681396,-0.22329118477644996,0.06993817512107069,-0.23224993760422902,0.944091993307813,-0.48902316374423344,-0.032105273096207275,-2.685110793642306
1784028448382989568,2.591165781021118,-3.8725473880767822,0.2913224399089813,-0.6257956027984619,-0.0297203678637743,0.5065663456916809,-0.8616886138916016,0.13100822269916534,0.4860941767692566,-0.25465965270996094,-0.21925359285728596,0.07465832665559952,-0.25215440041969467,0.9395595267540394,-0.5311976867436328,-0.03447717800101606,-2.6924617935499153
1784028448392909824,2.601085901260376,-3.077483892440796,0.5830246210098267,-0.602846086025238,-0.028852617368102074,0.5356876850128174,-0.8439231514930725,0.15525643527507782,0.2646358013153076,-0.2901710867881775,-0.21442632282930493,0.07693913192133457,-0.2685494467096348,0.9359395858517139,-0.5653219056964924,-0.03417536868435739,-2.7010872621896547
1784028448402829568,2.6110057830810547,-2.5898659229278564,0.477634459733963,-0.7684149742126465,-0.027914974838495255,0.5589218735694885,-0.8287503123283386,0.29617974162101746,0.21396631002426147,-0.2845614552497864,-0.20952142618271294,0.07827781914535437,-0.2819528737011679,0.9329929746017758,-0.593085045751801,-0.03367048395029182,-2.710072993617007
1784028448412749824,2.6209259033203125,-2.31693172454834,0.45750975608825684,-0.7332891821861267,-0.02874363586306572,0.5784271359443665,-0.8152274489402771,0.3764609098434448,-0.026333630084991455,-0.22087478637695312,-0.20425146806439795,0.07982005015524397,-0.2932831779754902,0.9305348367242906,-0.6167992327029084,-0.03524382359163119,-2.7206763367112146
1784028448422669568,2.630845785140991,-2.500654458999634,0.3517090678215027,-0.5163195729255676,-0.028695130720734596,0.597463071346283,-0.801382839679718,0.37165167927742004,-0.24023956060409546,-0.08895224332809448,-0.199908944787946,0.08108228203403776,-0.304522960557144,0.9277542173919524,-0.6403337016494869,-0.03579172691821669,-2.728998895425276
1784028448432588800,2.6407649517059326,-2.7014544010162354,0.1856873482465744,-0.5434694290161133,-0.029695769771933556,0.6178838014602661,-0.785708487033844,0.2588522434234619,-0.09119617938995361,-0.043423593044281006,-0.19599654950074927,0.08318974355809781,-0.3165836782930854,0.9243590659754055,-0.6660483932670052,-0.03777691503870727,-2.7367803395457906
1784028448442508800,2.6506848335266113,-2.633305788040161,0.18332801759243011,-0.44941073656082153,-0.031230876222252846,0.6383388638496399,-0.7691217064857483,0.1774405837059021,0.1821414828300476,-0.03346008062362671,-0.19228461279050738,0.08563304800086359,-0.32879497154724535,0.9206451706421015,-0.6923382939859228,-0.04058360184485392,-2.7444352523640916
1784028448452428800,2.660604953765869,-2.457303762435913,0.1750791370868683,-0.5371986627578735,-0.03263247758150101,0.6573320031166077,-0.7528942823410034,0.09530031681060791,0.35884231328964233,-0.04538452625274658,-0.18886651942831167,0.08789461860172518,-0.34033422849480643,0.9169387364576616,-0.7172729041378509,-0.04331559878678781,-2.7515632591702843
1784028448462348800,2.670524835586548,-2.1444437503814697,0.26757338643074036,-0.8404385447502136,-0.035403575748205185,0.6741058230400085,-0.7377858757972717,-0.02946155145764351,0.43644410371780396,-0.09845679998397827,-0.1843355814031452,0.09012110595990942,-0.3506925291633646,0.9137359957269232,-0.7397534579510073,-0.047949464610680295,-2.762053817530983
1784028448472268800,2.6804449558258057,-1.5405820608139038,0.4672186076641083,-1.0804263353347778,-0.0390542596578598,0.6871109008789062,-0.7255021333694458,-0.0156637504696846,0.37265777587890625,-0.1687849760055542,-0.17858750319416725,0.09174600424437201,-0.35893118353361353,0.9115138609328233,-0.7575050558959749,-0.05377875672069697,-2.776052458183792
1784028448482187776,2.690363883972168,-1.0889018774032593,0.4723626375198364,-1.1011676788330078,-0.043084390461444855,0.6958158016204834,-0.7169268727302551,0.14280056953430176,0.2223665714263916,-0.20508551597595215,-0.1721312151914642,0.09260486918466446,-0.3646380557373119,0.9104033991830267,-0.7695551791879812,-0.06002374897009827,-2.792175159322782
1784028448492107520,2.7002837657928467,-0.914143443107605,0.21703234314918518,-1.0093977451324463,-0.04800838604569435,0.7023881077766418,-0.7101733684539795,0.34567683935165405,0.15764302015304565,-0.152085542678833,-0.1662831504972972,0.09382991024100441,-0.36892989062844606,0.9096355110671211,-0.7787470459375233,-0.06749824584939665,-2.8076862764172716
1784028448502027776,2.7102038860321045,-0.8418938517570496,-0.061663851141929626,-0.7867865562438965,-0.05391493812203407,0.708128035068512,-0.7040225863456726,0.38832658529281616,0.10550105571746826,-0.04423785209655762,-0.16172360906807143,0.09595948284360012,-0.3725325203640404,0.9087665976244004,-0.7868435003959418,-0.07643207684092095,-2.821097897080491
1784028448511947520,2.720123767852783,-0.5485259294509888,-0.1256902515888214,-0.7854880094528198,-0.05995795503258705,0.7125902771949768,-0.6990137696266174,0.17282719910144806,0.1177625060081482,0.004311621189117432,-0.15818764920977388,0.09838968212281292,-0.3752500394684052,0.908010848310534,-0.7931833828018754,-0.08556563480090058,-2.832479381687918
1784028448521867776,2.730043888092041,-0.42980319261550903,0.02193315327167511,-0.8414965271949768,-0.06616950035095215,0.7153012752532959,-0.6956763863563538,0.021079793572425842,0.2511293292045593,0.09225237369537354,-0.15442672835687854,0.10056535545005754,-0.376893108875971,0.9077392623165154,-0.7970551733187081,-0.09483006383184707,-2.844528187135737
1784028448531787520,2.7399637699127197,-0.4605110287666321,0.29420915246009827,-0.9918261170387268,-0.07137565314769745,0.7177194356918335,-0.6926646828651428,-0.046590037643909454,0.30683189630508423,0.10764271020889282,-0.1498781228951483,0.10182533033928509,-0.37854890398791124,0.9076722432592085,-0.8005216703149298,-0.10268262040137752,-2.8577752012509032
1784028448541706752,2.749882936477661,-0.5208355188369751,0.38309237360954285,-1.1740994453430176,-0.07687956094741821,0.7202874422073364,-0.6894023418426514,-0.00011628866195678711,0.22725284099578857,0.016077756881713867,-0.14408435499644798,0.10273848541490392,-0.38045189409479296,0.9077119113423344,-0.8042166147232864,-0.11105740288826832,-2.8740226215938733
1784028448551626752,2.75980281829834,-0.2927913963794708,0.3486614525318146,-1.149937391281128,-0.08285731822252274,0.7221827507019043,-0.686721682548523,0.13838407397270203,0.014206349849700928,-0.11514288187026978,-0.13797019223253246,0.10367319012260615,-0.38195683392282237,0.9079234224834807,-0.8069527369559184,-0.12007588919808665,-2.891285931123874
1784028448561546752,2.7697229385375977,-0.2150631844997406,0.3534788191318512,-1.1918545961380005,-0.08866868913173676,0.7228126525878906,-0.6853318810462952,0.09336838871240616,-0.10293960571289062,-0.11090230941772461,-0.13197518660179408,0.10439652330484654,-0.38266882991194334,0.9084319213583066,-0.8078638661878526,-0.12866590736906253,-2.9081137558015753
1784028448571466752,2.7796428203582764,-0.09460415691137314,0.48254039883613586,-1.278038740158081,-0.0948910266160965,0.7228131890296936,-0.6844974756240845,-0.0070071592926979065,-0.1226392388343811,-0.11558187007904053,-0.12551779322309578,0.10507168158497605,-0.38302900324591005,0.909117160812992,-0.8078646606329575,-0.13775080105977758,-2.9261521121874043
1784028448581386752,2.789562940597534,0.14313116669654846,0.586658239364624,-1.2372928857803345,-0.10010646283626556,0.7214627265930176,-0.6851789951324463,0.007714502513408661,-0.20949983596801758,-0.1438310146331787,-0.11879171915740123,0.10492741246562996,-0.38262351391514804,0.910207690018859,-0.8059124106236163,-0.14507619961798016,-2.9439708557561963
1784028448591306752,2.799482822418213,0.3457079827785492,0.49682268500328064,-1.1162042617797852,-0.10478051006793976,0.7184365391731262,-0.6876554489135742,0.08596642315387726,-0.2851784825325012,-0.12403583526611328,-0.11253541324960488,0.10450949838797972,-0.3811168487248772,0.91168169799363,-0.8015520509046294,-0.15121047210606828,-2.9601302732781156
1784028448601225728,2.809401750564575,0.5090501308441162,0.4553526043891907,-0.9366238713264465,-0.10864833742380142,0.7145025134086609,-0.6911451816558838,0.08804897964000702,-0.3229925036430359,-0.08468794822692871,-0.10721675844038951,0.10397262925747604,-0.3789684724146901,0.9132782408981537,-0.7959128126534005,-0.15592441217746428,-2.9735251333217625
1784028448611145728,2.819321870803833,0.9872707724571228,0.2918909788131714,-0.8528543710708618,-0.11232948303222656,0.7085242867469788,-0.6966888904571533,0.08817482739686966,-0.28649675846099854,-0.1212126612663269,-0.10285356078160628,0.1035480949462606,-0.3754108892273081,0.9152953521309569,-0.7874048023860816,-0.15985759370270025,-2.98430794890764
1784028448621065728,2.8292417526245117,1.6329643726348877,0.2587820589542389,-0.6946119070053101,-0.11591814458370209,0.6986103057861328,-0.7060500383377075,0.03521440178155899,-0.1690998077392578,-0.15703284740447998,-0.09949923799303856,0.10313258478965721,-0.3692406300501447,0.9182183715997393,-0.7734533607804847,-0.16272665730036287,-2.9921025971384956
1784028448630985728,2.8391618728637695,2.2437150478363037,0.14013130962848663,-0.6492055654525757,-0.1187870129942894,0.6840277910232544,-0.7197191715240479,-0.014895237982273102,-0.0661231279373169,-0.16823554039001465,-0.09713902512038942,0.10233606331660583,-0.36009409121765934,0.9221841471660952,-0.7532700571006918,-0.16357173148492293,-2.996512236567825
1784028448640905728,2.8490817546844482,2.994250774383545,-0.07924996316432953,-0.6614956259727478,-0.12319175153970718,0.6645562648773193,-0.7370133996009827,0.057166971266269684,-0.005864858627319336,-0.16635268926620483,-0.09543004560083075,0.10225718124051295,-0.34790339352111793,0.9270381802290936,-0.7268998378535234,-0.1656188579699543,-2.9995497147856103
1784028448650825728,2.859001874923706,3.6502044200897217,0.03130664303898811,-0.5103015303611755,-0.1273486465215683,0.638943612575531,-0.7586391568183899,0.06263615190982819,-0.03834247589111328,-0.1914798617362976,-0.09456009792400072,0.10191248712964682,-0.3321058236085739,0.932940431171756,-0.6931242149042559,-0.16631398961243976,-2.9997513204189
1784028448660744704,2.8689208030700684,3.8954389095306396,0.1728973686695099,-0.3959372937679291,-0.12951739132404327,0.609390377998352,-0.7822203040122986,0.004242748022079468,-0.07078564167022705,-0.12125259637832642,-0.09420228011672983,0.10046924873835675,-0.3143179748886511,0.9392741575323219,-0.655291469516801,-0.16408791407097056,-2.997559723361673
1784028448670664704,2.878840923309326,3.9301605224609375,0.17815418541431427,-0.41730809211730957,-0.13040879368782043,0.5776087641716003,-0.8058298230171204,0.007316142320632935,-0.14691418409347534,-0.08664149045944214,-0.09403070374709924,0.09836007783056651,-0.2956524758953297,0.9455544155080271,-0.6157963082883761,-0.1604407070521929,-2.9944749169604576
1784028448680584704,2.888760805130005,3.683459758758545,0.012776480987668037,-0.5202287435531616,-0.13226427137851715,0.5463577508926392,-0.8270425200462341,0.045121341943740845,-0.09611666202545166,0.03860563039779663,-0.0934756504972828,0.09681278794471541,-0.27767972290800863,0.9512010576538709,-0.5780093753158357,-0.15858153628048066,-2.9929205200015554
1784028448690504704,2.8986809253692627,3.6438064575195312,0.3376712203025818,-0.5370186567306519,-0.13356222212314606,0.5149825215339661,-0.8467314839363098,0.031099453568458557,-0.20915061235427856,-0.008249044418334961,-0.09251003699080672,0.09497179576057675,-0.260028132891294,0.9564557883495137,-0.5409872505789457,-0.15644952138277723,-2.9922127974247568
1784028448700424704,2.9086008071899414,3.293959617614746,0.3797012269496918,-0.4539375901222229,-0.13278181850910187,0.48490816354751587,-0.8644264340400696,0.005660846829414368,-0.26353365182876587,0.07948380708694458,-0.09128416523166338,0.09219596769021188,-0.24348857768182133,0.9611869500820831,-0.5062581417000876,-0.15241554643943092,-2.991717990797636
1784028448710343680,2.9185197353363037,2.92436146736145,0.38754770159721375,-0.34182223677635193,-0.13130898773670197,0.4577690064907074,-0.8793210387229919,0.10289712250232697,-0.2049003541469574,0.14398473501205444,-0.09037697067778264,0.08944887704875902,-0.22877583492106118,0.9651385721467514,-0.4754842149646698,-0.14823460372731098,-2.9908372814040414
1784028448720263680,2.9284398555755615,3.1100168228149414,0.3722513020038605,-0.10150658339262009,-0.12920241057872772,0.43050727248191833,-0.8932917714118958,0.056372225284576416,-0.17097055912017822,0.05250203609466553,-0.09017577612782328,0.08661564042783318,-0.21413042074596303,0.9687694360938804,-0.44505472953033914,-0.14364018995524758,-2.9885171983850083
1784028448730183680,2.9383597373962402,3.000579357147217,0.36036375164985657,-0.0808231383562088,-0.12547624111175537,0.403334379196167,-0.9064089059829712,-0.001797318458557129,-0.09179568290710449,0.1612154245376587,-0.09085460729014638,0.08320272055103148,-0.1996818940850848,0.9720853226448325,-0.41515785153562984,-0.13755802453816102,-2.9842220856987973
1784028448740103680,2.948279857635498,3.2314980030059814,0.10907451808452606,-0.12180466204881668,-0.12379328906536102,0.3753240704536438,-0.91858971118927,-0.06517153978347778,-0.0453832745552063,0.11786949634552002,-0.09117276484852418,0.08075749148249936,-0.184887472304848,0.9751831870584506,-0.3847463869989311,-0.1339574467068649,-2.981278777665629
1784028448750023680,2.9581997394561768,3.372875928878784,0.24085837602615356,-0.14055411517620087,-0.12274609506130219,0.3441959023475647,-0.9308397173881531,-0.15829028189182281,-0.1569247841835022,0.08356493711471558,-0.0918827212512722,0.07856804399454016,-0.1685443715454922,0.9782522225719025,-0.3513822245472141,-0.13110953879885318,-2.977598466713139
1784028448759943680,2.9681198596954346,2.982501983642578,0.2555135190486908,0.02339673973619938,-0.11985772848129272,0.3145938813686371,-0.9416288137435913,-0.14860540628433228,-0.3187137246131897,0.1611264944076538,-0.09251991888124392,0.07554488974438275,-0.15322717101415034,0.9809456481395069,-0.32002876717590684,-0.12660682542053545,-2.973975113454992
1784028448769862656,2.978038787841797,2.2241177558898926,0.12710921466350555,-0.19194887578487396,-0.11805722117424011,0.28973716497421265,-0.9497972726821899,-0.11447145789861679,-0.27205222845077515,0.17475759983062744,-0.09324840583645795,0.07337308636226579,-0.14041992772707224,0.9829563920520822,-0.2939522253972395,-0.12366302867053121,-2.9707586175211675
1784028448779782656,2.9879589080810547,1.567363977432251,0.052660055458545685,-0.5311857461929321,-0.11782924830913544,0.2715468108654022,-0.9551851153373718,-0.07084568589925766,-0.17883440852165222,0.17033404111862183,-0.09207035923507123,0.07211431874882686,-0.13117533302757753,0.9844367143230098,-0.27499986825165534,-0.12273743636849942,-2.972087840851187
1784028448789702656,2.9978787899017334,1.2776941061019897,0.2988778054714203,-0.2825930118560791,-0.11734020709991455,0.25730159878730774,-0.959180474281311,-0.11543262004852295,-0.25031307339668274,0.11718523502349854,-0.09044416947175175,0.07090827432209582,-0.12402332401673621,0.9856013493293887,-0.2602287335317756,-0.12172897544234773,-2.9745223258742373
1784028448799622656,3.007798910140991,0.9660640358924866,0.2159818708896637,-0.23104672133922577,-0.11489053070545197,0.2465163767337799,-0.9623044729232788,-0.16086632013320923,-0.3624679148197174,0.1841214895248413,-0.08943709768742847,0.06899312742796036,-0.11869172167841596,0.9864853193650416,-0.24908404156210365,-0.1188285671133247,-2.9756556905164087
1784028448809542656,3.01771879196167,0.6106180548667908,0.5008460879325867,-0.21138088405132294,-0.11175303161144257,0.2389509230852127,-0.9645795822143555,-0.17012257874011993,-0.2983991503715515,0.17484569549560547,-0.08863250411163592,0.06693241912281017,-0.11502292529084497,0.9871342607954268,-0.2412853268257249,-0.11534248706073592,-2.976495947202025
1784028448819462656,3.0276389122009277,0.5849141478538513,0.5113797187805176,-0.18851116299629211,-0.10731960833072662,0.23315295577049255,-0.9664999842643738,-0.13357089459896088,-0.17213305830955505,0.14724034070968628,-0.08768088462325274,0.0642986089049025,-0.11231963621684576,0.9877054892776307,-0.23531874761721175,-0.11058641502619104,-2.9775973172855084
1784028448829381632,3.03755784034729,0.8102647066116333,0.4372037649154663,-0.1752060055732727,-0.1031016856431961,0.2265692949295044,-0.9685227870941162,-0.0912342518568039,-0.10631479322910309,0.10855269432067871,-0.08642815656893364,0.061711356000027355,-0.10922596995324818,0.9883277070726252,-0.22855393662441065,-0.10605311605083453,-2.979322425918812
1784028448839301888,3.047477960586548,0.9980337619781494,0.4157792925834656,-0.08339821547269821,-0.09952744096517563,0.21734976768493652,-0.9710063934326172,-0.04863540083169937,-0.12469840049743652,0.04929924011230469,-0.08715660183002208,0.05954589289346337,-0.10464751262937869,0.9888917758668773,-0.21909850163065955,-0.10214256034645969,-2.977019975758206
1784028448849221632,3.0573978424072266,0.9096932411193848,0.5487048625946045,-0.023955930024385452,-0.09424436837434769,0.20850874483585358,-0.973469078540802,-0.09668885171413422,-0.07635238766670227,0.06476247310638428,-0.08834351125949902,0.05658391881119601,-0.10031802882936679,0.9894088848937053,-0.21004993975950703,-0.09651212536554195,-2.973668032600345
1784028448859141888,3.0673179626464844,0.8505333065986633,0.5685455799102783,-0.23917366564273834,-0.08950379490852356,0.19952790439128876,-0.9757959246635437,-0.12773558497428894,-0.13629548251628876,-0.0442693829536438,-0.08903416015670672,0.05383537740151879,-0.09593638443571263,0.9899347834810642,-0.20087611262010813,-0.09146794447532965,-2.9714207379292805
1784028448869061632,3.077237844467163,0.630815327167511,0.6494236588478088,-0.26798030734062195,-0.08401057869195938,0.19211454689502716,-0.9777700304985046,-0.05168583244085312,-0.25728482007980347,-0.05158787965774536,-0.088852140896118,0.050702569547799906,-0.0924350351515243,0.9904495987755028,-0.19331638104077073,-0.08571008987338861,-2.97096938641428
1784028448878981888,3.087157964706421,0.5286942720413208,0.5948242545127869,-0.32336482405662537,-0.07790078222751617,0.18610484898090363,-0.9794368147850037,0.009770289063453674,-0.25634104013442993,-0.09214216470718384,-0.08844485451926415,0.04731265871105751,-0.08968339497884906,0.9909065785334548,-0.18719624254364453,-0.07936921814941511,-2.9710059010835987
1784028448888900864,3.097076892852783,0.3865089416503906,0.5429109930992126,-0.2508411109447479,-0.07332253456115723,0.1813342571258545,-0.9806842803955078,0.028629541397094727,-0.149031400680542,-0.06336784362792969,-0.08826396574442695,0.04477509045566943,-0.0874816634033159,0.9912374662242628,-0.18234303372096192,-0.0746278572830608,-2.970798676081323
1784028448898820608,3.106996774673462,0.6743766665458679,0.5824339389801025,-0.3622543215751648,-0.0685829147696495,0.17596812546253204,-0.9820038676261902,-0.0630851686000824,-0.06279370188713074,-0.08704209327697754,-0.0879266822415453,0.04211854477449509,-0.08499465831623221,0.9916001424018828,-0.17688914638696673,-0.06972653977531289,-2.9708977995699994
1784028448908740864,3.1169168949127197,0.9661843180656433,0.5867568254470825,-0.4591883420944214,-0.06361249834299088,0.16777268052101135,-0.9837712049484253,-0.061250172555446625,0.05024489760398865,-0.013939976692199707,-0.08709298776135321,0.03917941807821975,-0.08111333187850062,0.9921191251163806,-0.16856988895127972,-0.06457198465449299,-2.9719291966494694
1784028448918660608,3.1268367767333984,1.6192107200622559,0.4166656732559204,-0.3613174557685852,-0.05930543690919876,0.15497633814811707,-0.9861364960670471,0.07053590565919876,0.14125779271125793,-0.06443113088607788,-0.08633677558290884,0.036380918316337926,-0.07488776756655358,0.9927810611717756,-0.1556035009789899,-0.06006683069011147,-2.9727841659693004
1784028448928580864,3.1367568969726562,2.3855912685394287,0.35248082876205444,-0.3303297162055969,-0.05591629818081856,0.13526305556297302,-0.9892306327819824,0.05182693526148796,0.19150391221046448,-0.05735445022583008,-0.08621808062491436,0.03379139603821972,-0.06513690751943282,0.9935702984455274,-0.13567894950614187,-0.05646494898875937,-2.9723117492485893
1784028448938500608,3.146676778793335,3.1438047885894775,0.2423373907804489,-0.017966413870453835,-0.05372735112905502,0.10820901393890381,-0.992675244808197,0.09851189702749252,0.1834474802017212,-0.021698474884033203,-0.08683252647860829,0.031526275199672174,-0.051657151776376496,0.9943831360118398,-0.10842130725910852,-0.0540710361152744,-2.970323354206709
1784028448948419840,3.1565959453582764,3.947795867919922,0.01185171864926815,0.026814905926585197,-0.0525730736553669,0.07292439788579941,-0.9959508776664734,0.1082676500082016,0.26637002825737,-0.03552800416946411,-0.0891189983837066,0.029464338368245826,-0.03400625462624851,0.9950042054289815,-0.0729891874751899,-0.052737868521819484,-2.9648624349324684
1784028448958339584,3.166515827178955,4.637410640716553,-0.1955689638853073,-0.07498722523450851,-0.05407390743494034,0.030740005895495415,-0.9980636835098267,0.020901300013065338,0.34128454327583313,-0.03375089168548584,-0.09061713538322565,0.028332788984329667,-0.012861736432901899,0.9953995937435276,-0.030744850135195984,-0.054125896617822904,-2.960853580773957
1784028448968259840,3.176435947418213,5.061939239501953,-0.1613454818725586,0.11554117500782013,-0.05598008632659912,-0.017904464155435562,-0.9982713460922241,0.05861985683441162,0.17435282468795776,-0.02103102207183838,-0.09260586529923469,0.02705196697883046,0.011511869153990545,0.9952687261450013,0.017905421820000576,-0.056018355085741864,-2.955533075256499
1784028448978179584,3.1863558292388916,5.134305953979492,-0.20365995168685913,-0.10006913542747498,-0.05784785747528076,-0.06853365153074265,-0.9959702491760254,0.0016802586615085602,0.08565402030944824,-0.046388089656829834,-0.09481546427811309,0.02556682611082321,0.03689452998779355,0.9944823196104788,0.06858741711110462,-0.058016730541268165,-2.9494932745214433
1784028448988099840,3.1962759494781494,4.89392614364624,-0.19263046979904175,-0.1677725464105606,-0.059350527822971344,-0.11788878589868546,-0.9912515878677368,0.07026056945323944,-0.028244636952877045,-0.04907733201980591,-0.0959732791802811,0.02392055023787244,0.06166038541790882,0.9931842706335846,0.118163569654474,-0.059802936319740166,-2.945388642020788
1784028448998019584,3.206195831298828,4.360217094421387,-0.24538400769233704,-0.01584923267364502,-0.06165827438235283,-0.16364125907421112,-0.9845911860466003,0.15076960623264313,-0.16414804756641388,0.003237426280975342,-0.09714933740492024,0.022790519310145113,0.08476438500094044,0.9913917630636491,0.16438054575878783,-0.0625415533247072,-2.941077046291161
1784028449007938560,3.2161147594451904,3.6635894775390625,-0.10252352058887482,-0.13259129226207733,-0.06345164775848389,-0.20304879546165466,-0.9771105647087097,0.07291209697723389,-0.18127432465553284,0.05303829908370972,-0.09847082101245512,0.021639131750764908,0.10476860584464205,0.9893729461541337,0.20447058549941824,-0.06484698886911301,-2.9365338798308596
1784028449017858816,3.2260348796844482,2.729084014892578,-0.10866928845643997,0.023335885256528854,-0.0642324760556221,-0.2340063452720642,-0.9701109528541565,0.0828634575009346,-0.12170654535293579,0.1445799469947815,-0.09995957347384463,0.0203213836028069,0.12054698397762731,0.9874530819680907,0.23619641365554825,-0.06611497279307163,-2.9319732353594032
1784028449027778560,3.235954761505127,1.9756603240966797,-0.06681132316589355,-0.06387598067522049,-0.0646955668926239,-0.25663164258003235,-0.9643415808677673,0.1045057475566864,-0.12488386034965515,0.15847915410995483,-0.099852328876895,0.019428751998749452,0.1321050107341143,0.9860021688262283,0.25953550609950904,-0.0669874365594671,-2.9309958816518917
1784028449037698816,3.2458748817443848,1.4080861806869507,0.03296111151576042,0.0152661744505167,-0.06456493586301804,-0.2726609408855438,-0.9599413275718689,0.15822339057922363,-0.07122635841369629,0.17319822311401367,-0.10144226960058378,0.018326700660123874,0.14033339303455267,0.9847233495495648,0.27615767825742205,-0.06715810304797658,-2.9269488987692114
1784028449047618560,3.2557947635650635,0.9233624935150146,-0.019138041883707047,-0.1891293078660965,-0.0644853338599205,-0.28388863801956177,-0.9566864371299744,0.1956498920917511,0.010710567235946655,0.14940494298934937,-0.10269933372033103,0.01752111390378532,0.14611572969110567,0.9837662440175395,0.28784717400926424,-0.06730307917896608,-2.9238005612188935
1784028449057538816,3.2657148838043213,0.5347958207130432,-0.10557561367750168,0.07909215986728668,-0.06488406658172607,-0.2907923460006714,-0.9545835852622986,0.2779577970504761,0.00015819072723388672,0.17081588506698608,-0.1037332758405642,0.017202736423050844,0.14970725046088149,0.9831231935014093,0.29505486843451617,-0.06786667806557305,-2.9212533140878905
1784028449067457792,3.2756338119506836,0.11492610722780228,-0.09289869666099548,-0.04407930746674538,-0.06591381132602692,-0.2935311794281006,-0.9536743760108948,0.22767223417758942,0.038572072982788086,0.24559026956558228,-0.10540388226187826,0.01731870754554215,0.1512047448437228,0.9827142143500883,0.29791865800454614,-0.06900589948603565,-2.9175340032550023
1784028449077377792,3.2855539321899414,0.0460548959672451,-0.09945894032716751,0.14292800426483154,-0.06664790213108063,-0.2945529818534851,-0.9533082246780396,0.21229305863380432,-0.008135586977005005,0.22331255674362183,-0.10684356945889047,0.0174105524500593,0.15179839094232814,0.9824655975444783,0.29898771496976484,-0.06979865530438799,-2.914426113425659
1784028449087297792,3.29547381401062,-0.032213546335697174,-0.05515166372060776,0.2723437547683716,-0.06813175976276398,-0.2941851019859314,-0.9533169269561768,0.19069035351276398,0.0759996771812439,0.27468228340148926,-0.10928813016967324,0.01779946548584977,0.151738953074046,0.9821988441269414,0.29860278486446384,-0.07134680458017985,-2.909230106454839
1784028449097217792,3.305393934249878,0.16705787181854248,-0.13436374068260193,0.27980390191078186,-0.06958714127540588,-0.2946827709674835,-0.9530580639839172,0.16376438736915588,0.10710650682449341,0.2750643491744995,-0.11198416276709201,0.018085934878502328,0.1521310734471923,0.981829202638704,0.29912354574027317,-0.07288524869065358,-2.9034732325945902
1784028449107137792,3.3153138160705566,0.5170552730560303,-0.05126751959323883,0.44176164269447327,-0.07152839750051498,-0.29750728607177734,-0.9520362615585327,0.18700692057609558,0.12082579731941223,0.3179115653038025,-0.11524037025552819,0.018390152505652457,0.15376494260569892,0.9811919723396404,0.3020806418633307,-0.07499111575428244,-2.8963463030944716
1784028449117057792,3.3252339363098145,0.7938616275787354,-0.020441658794879913,0.5135657787322998,-0.07314709573984146,-0.30366870760917664,-0.9499657154083252,0.11393383890390396,0.16603443026542664,0.3456413745880127,-0.11926782792198154,0.018194991028489538,0.1571180902294398,0.9801826489033237,0.3085408321262748,-0.07684808630101292,-2.8874686769263076
1784028449126976768,3.3351528644561768,1.0455095767974854,0.0760851502418518,0.5933471322059631,-0.07486877590417862,-0.31160837411880493,-0.9472565054893494,0.16623841226100922,0.28307443857192993,0.40067142248153687,-0.12352837559696474,0.017871966201704198,0.1614073606791585,0.9789632822144985,0.31688520873690523,-0.07887352195275277,-2.8779448040563627
1784028449136896512,3.3450727462768555,1.6310546398162842,-0.03588433936238289,0.6581124067306519,-0.0762590542435646,-0.3236437141895294,-0.9431008696556091,0.2005113810300827,0.3481798768043518,0.4028787612915039,-0.1279509278298069,0.01704489373382178,0.16780651194918453,0.977332545969008,0.329577938158251,-0.08068437215864545,-2.867811671512463
1784028449146816768,3.3549928665161133,2.278374671936035,0.02228522300720215,0.872778594493866,-0.07898422330617905,-0.34127116203308105,-0.9366405606269836,0.15952011942863464,0.40097880363464355,0.41895562410354614,-0.1333921570647045,0.016256371869097626,0.177244073982906,0.9749496525987656,0.34826890564694846,-0.08412811299453553,-2.854834180688636
1784028449156736512,3.364912748336792,2.6110730171203613,0.06127462163567543,0.876735270023346,-0.08164969086647034,-0.36344292759895325,-0.9280315637588501,0.029693499207496643,0.41736748814582825,0.4981304407119751,-0.1393889247843122,0.014883200359933587,0.18911033157869428,0.9718983583640771,0.3719608986844183,-0.08775562013826516,-2.8401750191013027
1784028449166656768,3.37483286857605,2.5475850105285645,0.31460756063461304,0.8637121319770813,-0.08348649740219116,-0.38668227195739746,-0.9184262752532959,0.009206704795360565,0.32023024559020996,0.5656125545501709,-0.14555491100371304,0.012809801509713326,0.20155091499867459,0.9685178716091057,0.39703129007478016,-0.09065254026932683,-2.8250047572298413
1784028449176575744,3.384751796722412,2.076371431350708,0.44177088141441345,0.9197514057159424,-0.0833834707736969,-0.4070071876049042,-0.9096111059188843,0.0556582435965538,0.19011875987052917,0.6287730932235718,-0.15178952413030758,0.00979726567679739,0.21236400066983321,0.9652799880988089,0.419175196497111,-0.09141387685639785,-2.81019093824767
1784028449186495744,3.39467191696167,1.3763147592544556,0.634695827960968,0.936213493347168,-0.08250278979539871,-0.42184218764305115,-0.9029077887535095,0.129454106092453,0.07261428236961365,0.649138867855072,-0.15852555074686434,0.006586041663360691,0.2202333442433641,0.9624571195861122,0.43547618172113584,-0.09112150745058754,-2.794932167931378
1784028449196415744,3.4045917987823486,0.9246620535850525,0.7439295649528503,0.9770360589027405,-0.08037467300891876,-0.43104514479637146,-0.8987435698509216,0.14491936564445496,-0.00514259934425354,0.5645150542259216,-0.16533666069343386,0.003112770830190818,0.22498561130572062,0.960226871991013,0.445650734816265,-0.0891927631514517,-2.7803439364505382
1784028449206335744,3.4145119190216064,0.5679178237915039,0.7608246803283691,0.9441800713539124,-0.07791384309530258,-0.4369003176689148,-0.8961291909217834,0.17178590595722198,0.1666671633720398,0.506984293460846,-0.17221039625554102,-0.0003012069557490287,0.22789320859013992,0.9583360944230236,0.4521498091115288,-0.08672678392659385,-2.7660335813432946
1784028449216255744,3.424431800842285,0.6955636739730835,0.9356661438941956,1.046766757965088,-0.07488654553890228,-0.4414353668689728,-0.894162654876709,0.17376351356506348,0.3278794586658478,0.3993964195251465,-0.17936521135572625,-0.003985131427770604,0.2300060758079489,0.9565090241415991,0.4571977032481447,-0.08355548459909597,-2.751405637698268
1784028449226175744,3.434351921081543,0.7610678672790527,1.03274667263031,0.9420174956321716,-0.07079165428876877,-0.4471989870071411,-0.891628623008728,0.14960330724716187,0.3515874147415161,0.393642783164978,-0.18677181610519,-0.00843649345809412,0.23262527103571068,0.954426805950948,0.4636312765426371,-0.07922969984723348,-2.736384564498127
1784028449236095744,3.4442718029022217,0.89910489320755,1.2484713792800903,0.7362882494926453,-0.06449855864048004,-0.4543152451515198,-0.8885030150413513,0.19514429569244385,0.3266907334327698,0.3970631957054138,-0.19348881773275592,-0.014024353451627869,0.2356943224157107,0.952267572274885,0.4716033869224926,-0.07246528014933863,-2.723257049233659
1784028449246014720,3.454190731048584,0.5953066945075989,1.2145181894302368,0.6389326453208923,-0.05694631487131119,-0.46053236722946167,-0.885814368724823,0.296082079410553,0.23276442289352417,0.492900550365448,-0.1997526260855962,-0.02008595170994877,0.23809530134451498,0.9502663700277243,0.47859484944209985,-0.06419861918173395,-2.7115441157695894
1784028449255934720,3.464110851287842,0.2055841088294983,1.318603754043579,0.42622363567352295,-0.04819124937057495,-0.46369224786758423,-0.8846847414970398,0.33331698179244995,0.07860618829727173,0.5125533938407898,-0.20521413936822075,-0.02622834049145595,0.23868328004883388,0.9488042191258774,0.482158028303968,-0.05441900914102817,-2.7021978327904215
1784028449265854720,3.4740307331085205,-0.2616526186466217,1.2554652690887451,0.4572544991970062,-0.038989000022411346,-0.46338793635368347,-0.885297417640686,0.40387243032455444,0.06961962580680847,0.553113579750061,-0.2104198200212924,-0.03211761639444177,0.23731784987642512,0.9478249652724603,0.4818145733450371,-0.04401212912220321,-2.6938584343284027
1784028449275774720,3.4839508533477783,-0.5839552879333496,1.239017128944397,0.3872140347957611,-0.029766734689474106,-0.45934051275253296,-0.8877613544464111,0.3587004542350769,0.22772735357284546,0.5767872333526611,-0.21556776616913542,-0.037515574758270505,0.2339057626222677,0.9473178884003634,0.47725261981768385,-0.033517552388161655,-2.685946716409906
1784028449285694720,3.493870735168457,-0.8733149170875549,1.3247966766357422,0.20530948042869568,-0.020010806620121002,-0.45274606347084045,-0.8914149403572083,0.3268955945968628,0.39131417870521545,0.5564234852790833,-0.220155005581954,-0.04267678940451331,0.22906596692605968,0.9472272085723399,0.46984271614415524,-0.02244459323540198,-2.6794885256204766
1784028449295614720,3.503790855407715,-1.338718295097351,1.6187776327133179,0.04431004449725151,-0.007765333168208599,-0.44328001141548157,-0.8963495492935181,0.21328596770763397,0.49227598309516907,0.5161005258560181,-0.22437009084162154,-0.04856741478948107,0.2224104731967176,0.9475404807553375,0.45925453057651616,-0.008663069618076353,-2.674548539036224
1784028449305533696,3.513709783554077,-2.3068792819976807,1.8443042039871216,-0.35946857929229736,0.008708257228136063,-0.4268447756767273,-0.9042829871177673,0.15971826016902924,0.5852920413017273,0.5024275183677673,-0.22768124480291202,-0.055373756348403615,0.21164179654857415,0.9488429115530725,0.44100084574438375,0.009629715356896076,-2.6727430433706414
1784028449315453696,3.523629903793335,-3.02840518951416,2.1884942054748535,-0.7146561145782471,0.029195042327046394,-0.40261101722717285,-0.9149054884910583,0.25020864605903625,0.5887529850006104,0.36502450704574585,-0.2295841394644986,-0.06277220331741602,0.19648641175508616,0.9511803294680616,0.4143674842665522,0.031899622049808514,-2.674623129502595
1784028449325373696,3.5335497856140137,-3.5472254753112793,2.2638022899627686,-1.0576797723770142,0.052934691309928894,-0.37201154232025146,-0.9267175197601318,0.3208598792552948,0.592668890953064,0.23180174827575684,-0.23034832526741753,-0.07068860483675687,0.17788862173897568,0.9540956660739065,0.3811751459895589,0.05705863007459902,-2.6788085502724943
1784028449335293696,3.5434699058532715,-4.140727519989014,2.5121257305145264,-1.2759712934494019,0.07931693643331528,-0.33574286103248596,-0.9386082887649536,0.3684827387332916,0.6705359816551208,0.10473078489303589,-0.22987436413881301,-0.07897952959894974,0.15639078065671558,0.9573202213874924,0.3423937481909044,0.08430453900830112,-2.6848543267917657
1784028449345212672,3.553388833999634,-4.4617486000061035,2.58803391456604,-1.489576816558838,0.10766368359327316,-0.2939085066318512,-0.9497506618499756,0.44667285680770874,0.7658323049545288,-0.023210763931274414,-0.228785900226779,-0.08752479093288149,0.1321517292215499,0.9604855024297716,0.2983133996512138,0.11287807637782435,-2.6908916048237486
