time,seconds_elapsed,rotationRateX,rotationRateY,rotationRateZ,gravityX,gravityY,gravityZ,accelerationX,accelerationY,accelerationZ,quaternionW,quaternionX,quaternionY,quaternionZ,pitch,roll,yaw
1784115103931136512,0.1721954345703125,0.038972388952970505,0.23261193931102753,-0.11438959836959839,0.009338310919702053,0.6475579738616943,-0.7619589567184448,0.043960656970739365,0.016824960708618164,-0.0018655061721801758,-0.47850593400826025,0.17158171674024156,-0.2992995994665189,0.8074722731147111,-0.7043753928059331,0.012255048468920934,-2.0671714836661583
1784115103941056768,0.1821155548095703,0.12865327298641205,0.22795578837394714,-0.11786648631095886,0.011767334304749966,0.6473146677017212,-0.7621319890022278,0.07281213998794556,0.009423553943634033,0.0010083317756652832,-0.47794236151640557,0.17017613538908297,-0.2999568220886825,0.80785948389585,-0.7040561514202492,0.015438794607414166,-2.067457739502087
1784115103950976512,0.19203543663024902,0.14971008896827698,0.1967909336090088,-0.12465062737464905,0.016116496175527573,0.6468729376792908,-0.7624274492263794,0.07709944248199463,-0.003654003143310547,-0.00685960054397583,-0.47768139884968114,0.16793620353458513,-0.300971275609525,0.8081052740114135,-0.7034767475885468,0.021135252445455163,-2.06611730587441
1784115103960896768,0.20195555686950684,0.15932342410087585,0.1500524878501892,-0.11558542400598526,0.021709859371185303,0.646228015422821,-0.7628355026245117,0.0820956900715828,-0.011614978313446045,0.009890556335449219,-0.47775067044878766,0.16518284261241645,-0.30215372129952806,0.8081905538687654,-0.7026313136073349,0.02845174477928361,-2.0634108356875527
1784115103970816512,0.21187543869018555,0.10529296100139618,0.1673441231250763,-0.09740269184112549,0.028499817475676537,0.6455968022346497,-0.7631464600563049,0.09361626952886581,-0.05286914110183716,-0.008643090724945068,-0.47804359486472336,0.16197880051063102,-0.3036274783726843,0.8081135431054303,-0.701804520271903,0.03732780230558552,-2.059553755526696
1784115103980736768,0.22179555892944336,0.002392273861914873,0.17649726569652557,-0.09175113588571548,0.036263689398765564,0.6447916030883789,-0.7634977698326111,0.09248995780944824,-0.0859842300415039,-0.005667328834533691,-0.4785146839168475,0.1583462153119915,-0.3052500711109744,0.80794350919027,-0.7007506122370916,0.04746111764950415,-2.054823611006425
1784115103990656512,0.23171544075012207,-0.06770505756139755,0.18853501975536346,-0.10564351081848145,0.044341228902339935,0.6436368227005005,-0.7640455365180969,0.09518512338399887,-0.10593235492706299,-0.004478633403778076,-0.4790200010185378,0.1544718718216219,-0.3067827869044322,0.8078135792851582,-0.6992408016372563,0.05796977845634694,-2.0499636028767907
1784115104000576768,0.24163556098937988,-0.07681453227996826,0.20900879800319672,-0.1019817367196083,0.052578650414943695,0.641933262348175,-0.7649556398391724,0.1084320992231369,-0.08565884828567505,0.0013905763626098633,-0.4795542133850026,0.15035500397130583,-0.3080836642215605,0.807778201817299,-0.6970169840146885,0.06862630748931443,-2.045144434840671
1784115104010496512,0.2515554428100586,-0.024888750165700912,0.24853676557540894,-0.09285295009613037,0.061144255101680756,0.6397362947463989,-0.7661585211753845,0.12830886244773865,-0.048412442207336426,0.01786750555038452,-0.48013678153393424,0.1459485589743666,-0.3092244355699858,0.8078044695576843,-0.6941551293867364,0.07963748375473684,-2.040230331122222
1784115104020416768,0.2614755630493164,0.14230696856975555,0.2797210216522217,-0.10106211155653,0.06935344636440277,0.6372267603874207,-0.7675495147705078,0.15553057193756104,-0.024586379528045654,0.04547309875488281,-0.4805789234220626,0.14155308007256506,-0.3101418704159779,0.8079719882253698,-0.6908944143174597,0.0901122632696387,-2.0359750181792444
1784115104030336512,0.2713954448699951,0.39947059750556946,0.3187962472438812,-0.13056941330432892,0.07708800584077835,0.6337757706642151,-0.7696660161018372,0.18473756313323975,-0.015581190586090088,0.06707507371902466,-0.4808591848028775,0.136994383254059,-0.3104827440480989,0.8084599707928263,-0.6864247923167741,0.09982482851378127,-2.032742953732731
1784115104040256768,0.28131556510925293,0.741206169128418,0.3898408114910126,-0.1654433310031891,0.08464307337999344,0.6286234259605408,-0.7730899453163147,0.22044116258621216,0.009056568145751953,0.09392130374908447,-0.4809797919914654,0.13188342492247299,-0.30993835641807516,0.8094463004670914,-0.6797819206617252,0.10905233985354798,-2.03069642013314
1784115104050176512,0.29123544692993164,1.239266276359558,0.44301003217697144,-0.16473571956157684,0.09253625571727753,0.6207260489463806,-0.778547465801239,0.2613150477409363,0.03830099105834961,0.1331312656402588,-0.48108093106662203,0.12570150482312242,-0.3080996505999171,0.8110701533374317,-0.6696684229948295,0.11830255549401515,-2.029663381620193
1784115104060096512,0.30115532875061035,1.6828761100769043,0.4601064920425415,-0.1869133710861206,0.10079371184110641,0.6094536781311035,-0.7863884568214417,0.3175870478153229,0.047620296478271484,0.16540151834487915,-0.48129860413835296,0.11831032261652048,-0.30464477447281013,0.8133546317041558,-0.6553713036792033,0.12747787917430722,-2.029550367065092
1784115104070016512,0.31107544898986816,1.933563470840454,0.4428159296512604,-0.24895331263542175,0.10891333222389221,0.5958033800125122,-0.795711100101471,0.3620491921901703,0.03887063264846802,0.19225656986236572,-0.48142257921951415,0.11023180231045589,-0.2999889860431881,0.8161420092565603,-0.6382655948402206,0.13603017002677809,-2.030698404285613
1784115104079936512,0.3209953308105469,2.141331195831299,0.44685834646224976,-0.2691026031970978,0.11680976301431656,0.5805923938751221,-0.8057715892791748,0.39381033182144165,-0.009288132190704346,0.20916825532913208,-0.48138002772734056,0.10177921996639726,-0.2945423253294863,0.8192429614007378,-0.6194561184931395,0.14396345952956593,-2.0329577909361434
1784115104089856512,0.3309154510498047,2.383371353149414,0.4544616639614105,-0.26311343908309937,0.12456771731376648,0.5634081363677979,-0.8167338371276855,0.4266407787799835,-0.07061028480529785,0.23604536056518555,-0.4812606676834689,0.09284264691943875,-0.28812031770908353,0.8226512509659503,-0.5985051718279458,0.1513529414772501,-2.036165107277188
1784115104099775488,0.340834379196167,2.6177220344543457,0.468398779630661,-0.23454442620277405,0.13205447793006897,0.5439589023590088,-0.8286557793617249,0.47834283113479614,-0.07147049903869629,0.28016334772109985,-0.4811412168433614,0.08344908735125266,-0.28055011590747747,0.8263360068327642,-0.5751479173749445,0.15803105075528293,-2.040218308767479
1784115104109695744,0.3507544994354248,2.8899827003479004,0.4506855607032776,-0.16746287047863007,0.13968032598495483,0.5219799280166626,-0.8414430022239685,0.5182939171791077,-0.0560070276260376,0.3199129104614258,-0.48116530622117665,0.07341991138764557,-0.27182347463386275,0.8301816049348221,-0.5491705528211188,0.16450087011827105,-2.044601688430993
1784115104119615488,0.3606743812561035,3.117757558822632,0.41945603489875793,-0.13937315344810486,0.1472134292125702,0.4974909722805023,-0.854886531829834,0.5391726493835449,-0.05443677306175232,0.315274715423584,-0.48135609055900347,0.0629030849043656,-0.26191590597870024,0.8341101074057383,-0.5207040180257323,0.17052982824330037,-2.049255145115949
1784115104129535744,0.37059450149536133,3.438854694366455,0.40269702672958374,-0.08485344797372818,0.15483535826206207,0.47036075592041016,-0.8687846660614014,0.5295823812484741,-0.06517887115478516,0.28075671195983887,-0.481620249970187,0.05177999455131846,-0.25085156379843715,0.838113532827513,-0.48969954831532825,0.17636888819729193,-2.0542778414086893
1784115104139455488,0.38051438331604004,3.777501106262207,0.30167415738105774,-0.04618774354457855,0.1623753309249878,0.4395419955253601,-0.8834235072135925,0.5313502550125122,-0.10816687345504761,0.22927922010421753,-0.4820780294186258,0.039895379106195575,-0.23811048936974832,0.8422069874862511,-0.4550887217503252,0.1817735238979127,-2.059638240639154
1784115104149375744,0.39043450355529785,3.7148380279541016,0.0932897999882698,-0.1020110622048378,0.16874417662620544,0.4067423641681671,-0.8978229761123657,0.5412930250167847,-0.12817791104316711,0.22779428958892822,-0.48245958976639597,0.028156719682808095,-0.22426706833918747,0.8462531188248666,-0.41888529039143924,0.18578085225064472,-2.065687362134772
1784115104159295488,0.40035438537597656,3.424086809158325,-0.04220658540725708,-0.2344467043876648,0.17336638271808624,0.3755449056625366,-0.9104450345039368,0.5528146624565125,-0.17844712734222412,0.21832162141799927,-0.4824409315900735,0.01770244207312407,-0.21086516724195595,0.8499842707731805,-0.38498465621736155,0.18816669020554325,-2.072321117767313
1784115104169215744,0.4102745056152344,3.187039852142334,-0.3075453042984009,-0.8984265327453613,0.1745191216468811,0.34647390246391296,-0.9216826558113098,0.4533190131187439,-0.33271047472953796,0.19209891557693481,-0.48078869224236986,0.009108599823320029,-0.19767575830465292,0.8542152399676192,-0.3538095673625321,0.1871329671394716,-2.0827442172590147
1784115104179135488,0.4201943874359131,2.490725040435791,0.30131271481513977,-0.08147525787353516,0.1781609058380127,0.3217400908470154,-0.9299150705337524,0.2021186351776123,-0.4124841094017029,0.22325003147125244,-0.47865522247898534,0.0006080363996089181,-0.1871953554766909,0.8578151143312656,-0.32756672493155486,0.18929451950382103,-2.0922990146658775
1784115104189055744,0.4301145076751709,2.521003007888794,-0.1867181956768036,0.11378984153270721,0.18348205089569092,0.29849398136138916,-0.936608612537384,0.7039233446121216,-0.43556368350982666,0.26587802171707153,-0.47919157003702373,-0.007570226051849903,-0.1778718265467725,0.8594648650535636,-0.30311432159346224,0.19345059324230007,-2.0947199593175103
1784115104198975488,0.4400343894958496,2.337244987487793,-0.6480019092559814,-0.5674352049827576,0.18304316699504852,0.27544620633125305,-0.9437291026115417,0.6239331364631653,-0.36600711941719055,0.33812302350997925,-0.47875389394173073,-0.013310191774955925,-0.1672073532294636,0.8617767550342941,-0.2790538353171229,0.19157860425793688,-2.1004288800009827
1784115104208895744,0.4499545097351074,1.9713791608810425,-0.5097007155418396,-1.030259132385254,0.1794164925813675,0.25636422634124756,-0.94978266954422,0.2714502215385437,-0.18248116970062256,0.45226985216140747,-0.47569651310354555,-0.0170701171230368,-0.15753500222354908,0.8652191846677689,-0.25925882988346827,0.1867026434031038,-2.1118068267077015
1784115104218815488,0.45987439155578613,1.7485432624816895,-0.06769756227731705,-0.9541425108909607,0.1780509203672409,0.24011865258216858,-0.9542750716209412,0.0180092453956604,-0.14903892576694489,0.43485063314437866,-0.4715876662685616,-0.021208069135304406,-0.14970865761725957,0.868759287358556,-0.2424880707064842,0.18446136049797218,-2.124412833722592
1784115104228735744,0.46979451179504395,1.5442922115325928,0.08468105643987656,-1.0977755784988403,0.17928804457187653,0.22601629793643951,-0.9574823379516602,-0.005368366837501526,-0.08691717684268951,0.39783573150634766,-0.46717225166951987,-0.025932116294794062,-0.14347945712217716,0.8720615407620674,-0.2279862096147184,0.1851059011508089,-2.1367281442199273
1784115104238655488,0.47971439361572266,1.4689915180206299,0.16073381900787354,-1.4481004476547241,0.18031924962997437,0.2137872576713562,-0.9600937366485596,-0.06409305334091187,0.003940403461456299,0.37128758430480957,-0.4614577677681769,-0.030242343452880162,-0.13798019617783117,0.8758444791019732,-0.2154502164338134,0.18565147132519189,-2.1516319034797586
1784115104248574720,0.48963356018066406,1.6632198095321655,0.571058988571167,-1.6031651496887207,0.18317972123622894,0.20174434781074524,-0.9621561169624329,-0.15238748490810394,0.04984256625175476,0.31258946657180786,-0.45430095427122347,-0.03545872053451374,-0.13290830833221715,0.8801639766730054,-0.20313856432350166,0.1881331312859211,-2.1693861918605633
1784115104258494720,0.4995534420013428,2.1525192260742188,0.7475124001502991,-1.8014130592346191,0.18851104378700256,0.1865590661764145,-0.9641883969306946,-0.22069184482097626,0.0028482675552368164,0.28857505321502686,-0.44616038779614636,-0.042550285521584116,-0.12686711872675693,0.8848926997323068,-0.18765855514428206,0.19307710819209584,-2.1893674446706215
1784115104268414720,0.5094735622406006,2.5181243419647217,0.7604231238365173,-2.049201011657715,0.19422724843025208,0.16777317225933075,-0.9665029644966125,-0.22640803456306458,-0.045061975717544556,0.30942898988723755,-0.436708641187072,-0.05066961075513632,-0.11908448633874079,0.890245601186899,-0.1685703815993493,0.19831728418120886,-2.2126674616760447
1784115104278334720,0.5193934440612793,2.8401529788970947,0.8050934672355652,-2.376763105392456,0.20003189146518707,0.1464872807264328,-0.9687769412994385,-0.18550552427768707,-0.0294676274061203,0.3347132205963135,-0.4257286322156643,-0.059377631201165126,-0.10993559614761186,0.8961828495268666,-0.14701630081557862,0.20361733787883574,-2.239573707712337
1784115104288254720,0.5293135643005371,2.9967041015625,0.7179316878318787,-2.648477077484131,0.20629681646823883,0.12345404922962189,-0.970670223236084,-0.14640608429908752,-0.005106881260871887,0.33891063928604126,-0.4131508701052032,-0.06860263780232553,-0.09979255801630738,0.9025749635858948,-0.12376981214724668,0.2094143562594536,-2.270014068140759
1784115104298174720,0.5392334461212158,2.7638697624206543,0.6878757476806641,-2.840339183807373,0.2110430747270584,0.10123232752084732,-0.9722205400466919,-0.0539233535528183,0.06360836327075958,0.43279188871383667,-0.399417535166945,-0.0767857456751589,-0.08940729849954572,0.9091622042058306,-0.10140603341130054,0.21375696440843997,-2.302821686959599
1784115104308094464,0.5491533279418945,2.2617850303649902,0.7474008798599243,-3.078115224838257,0.21621136367321014,0.083074651658535,-0.9728058576583862,0.001378968358039856,-0.0017300397157669067,0.5216034650802612,-0.38477252941762136,-0.08414501464252158,-0.08072597772863657,0.9156162229398614,-0.08317050257658574,0.2187005634637693,-2.336803558949264
1784115104318014720,0.5590734481811523,1.648453712463379,0.9784082174301147,-3.442970037460327,0.2234242856502533,0.07176151126623154,-0.9720760583877563,0.1434885412454605,-0.19401492178440094,0.45147669315338135,-0.3688131556083503,-0.0910321019336704,-0.07533341898311849,0.9219625689945624,-0.07182324649529546,0.22591869842940016,-2.3723761119556777
1784115104327934464,0.568993330001831,0.9841086864471436,1.044507384300232,-3.8798346519470215,0.2318999171257019,0.06705965101718903,-0.9704253673553467,0.1875489205121994,-0.4640475809574127,0.30358582735061646,-0.35093307582521055,-0.09732869710660352,-0.07290014735539385,0.928471137246881,-0.06711001050609293,0.2345682800333112,-2.410940751186965
1784115104337854720,0.5789134502410889,0.623204231262207,1.0714081525802612,-3.945411205291748,0.24064603447914124,0.06855377554893494,-0.9681889414787292,0.20893892645835876,-0.43976959586143494,0.25448960065841675,-0.3321129787383312,-0.10272446581376467,-0.07316558829361704,0.9347702538818158,-0.06860758441939614,0.24361608619955644,-2.4504343552721837
1784115104347774464,0.5888333320617676,1.0628182888031006,1.130369782447815,-4.091617584228516,0.2497042715549469,0.07083287835121155,-0.9657279253005981,0.2233181744813919,-0.34608617424964905,0.12921065092086792,-0.3124595750670073,-0.10825831660800364,-0.07359456511900203,0.9408682101876801,-0.07089224404322722,0.2530242508100816,-2.4912970408308084
1784115104357694720,0.5987534523010254,1.0911028385162354,1.6212044954299927,-3.6646728515625,0.2610420286655426,0.06997302174568176,-0.9627880454063416,0.1609855592250824,-0.45455554127693176,0.03607600927352905,-0.2930860951040421,-0.11540596891090488,-0.07271476151656868,0.9463057392912746,-0.07003024952460929,0.26476602046826464,-2.5315703179396816
1784115104367614464,0.6086733341217041,1.754631519317627,1.5435450077056885,-4.537890911102295,0.2741122543811798,0.06778358668088913,-0.9593059420585632,0.05645415186882019,-0.12860512733459473,0.08575552701950073,-0.27261622527363816,-0.12368470121715915,-0.07105722977238688,0.9514900859001637,-0.06783560077152455,0.27832359161390874,-2.5740079000829694
1784115104377534720,0.6185934543609619,2.3806774616241455,1.6339142322540283,-4.217037677764893,0.2879994809627533,0.0609884038567543,-0.9556865096092224,-0.1683553159236908,-0.3535146415233612,-0.10983473062515259,-0.24923204485092978,-0.13314855624869062,-0.06654477212672921,0.9569360090535589,-0.061026275459411486,0.29269807499858863,-2.623019168232459
1784115104387454464,0.6285133361816406,2.669982671737671,1.225164532661438,-4.441885471343994,0.3024175763130188,0.04925059527158737,-0.9519022703170776,0.5199242830276489,-0.09952831268310547,-0.2106495499610901,-0.2276370676997766,-0.1431978638459367,-0.059524981661994894,0.9613180649721724,-0.04927052903771334,0.3076134902207072,-2.6689244973796593
1784115104397374720,0.6384334564208984,3.1382458209991455,1.852817416191101,-4.990055084228516,0.3161168396472931,0.037049613893032074,-0.9479965567588806,0.1791681945323944,-0.16716131567955017,0.12566989660263062,-0.20172170209196275,-0.15293650942950854,-0.051109146926882926,0.9660779534753404,-0.037058095558889566,0.3218625526921347,-2.723881763373824
1784115104407293440,0.6483523845672607,2.797328233718872,1.2934367656707764,-4.81895637512207,0.33107322454452515,0.023864829912781715,-0.9433032274246216,0.41801124811172485,-0.5428162217140198,-0.19530761241912842,-0.17537801220945967,-0.16310098265027598,-0.0417905826774819,0.9699970375418469,-0.02386709640617699,0.33754068516152663,-2.779785219284178
1784115104417213696,0.6582725048065186,2.1071643829345703,1.6231333017349243,-4.68719482421875,0.3446500301361084,0.016003698110580444,-0.9385948181152344,0.5250246524810791,-0.5129519701004028,-0.057575225830078125,-0.15027588445743634,-0.17174138456860605,-0.03474891620348489,0.9729925875466847,-0.016004382073535064,0.3519129803497982,-2.8322744395882093
1784115104427133440,0.6681923866271973,1.8397979736328125,2.011148691177368,-5.021249771118164,0.3626781702041626,0.015142885036766529,-0.9317914247512817,0.2741626501083374,-0.6357330679893494,-0.27528560161590576,-0.12451450544674111,-0.18204984835852758,-0.03101845916483097,0.9748804424641883,-0.015143463508166565,0.371184756001818,-2.8846792843205002
1784115104437053696,0.6781125068664551,1.327319622039795,1.7489992380142212,-4.747696399688721,0.3812551498413086,0.018738962709903717,-0.9242799282073975,0.2138071060180664,-0.900742769241333,-0.42487168312072754,-0.09914548138117824,-0.19238116337197772,-0.029146695544377387,0.9758637888243511,-0.01874006025617762,0.3912260398770591,-2.9353787732830257
1784115104446973440,0.6880323886871338,1.4177420139312744,1.9505536556243896,-4.791684150695801,0.39865642786026,0.025154536589980125,-0.9167553186416626,0.6062111258506775,-0.9127277731895447,-0.3820728063583374,-0.07454228886403902,-0.2020412501830074,-0.02831386284876804,0.9761255823596932,-0.02515719077134776,0.41018894872572426,-2.983924132630628
1784115104456893696,0.6979525089263916,1.6551941633224487,2.143664598464966,-4.508971214294434,0.41824251413345337,0.02934921346604824,-0.9078611135482788,0.22079554200172424,-0.8040226697921753,-0.5716920495033264,-0.050132618212449055,-0.21305796668229293,-0.02599507878484422,0.975406167256,-0.02935342801526848,0.4317080626778282,-3.032452924886507
1784115104466813440,0.7078723907470703,1.8222986459732056,1.9978312253952026,-4.186859130859375,0.4378221035003662,0.032269686460494995,-0.8984823226928711,0.10488724708557129,-0.7425205707550049,-0.5082864761352539,-0.026894928392891256,-0.22414498921663914,-0.022756730349138308,0.9739187602088397,-0.03227528955262698,0.45342859690974646,-3.0789304676111557
1784115104476733696,0.7177925109863281,2.3002219200134277,1.8946062326431274,-4.48244047164917,0.4554872214794159,0.03263511136174202,-0.8896439671516418,0.3071775734424591,-0.6720393896102905,-0.5523573756217957,-0.0036575687457637432,-0.23423458511724154,-0.01766878643678427,0.9720126867855006,-0.03264090674279936,0.47319213038386027,-3.1261961583439826
1784115104486653440,0.7277123928070068,3.006166696548462,1.636659860610962,-4.312580108642578,0.4722732603549957,0.028993133455514908,-0.8809752464294434,0.19790801405906677,-0.6155104637145996,-0.5987458229064941,0.020816383993705202,-0.2437579547246867,-0.009718191319701659,0.9695639380894903,-0.02899719755239039,0.49209333687221113,3.105942256356291
1784115104496573696,0.7376325130462646,3.142488718032837,1.309849500656128,-4.3083577156066895,0.48648667335510254,0.021568598225712776,-0.8734217286109924,0.23212599754333496,-0.5861895680427551,-0.5294255614280701,0.0451761224900937,-0.2515725861174478,0.0006007288403535993,0.9667834034782375,-0.021570271236995828,0.5081935328123953,3.0538062709866036
1784115104506493696,0.7475523948669434,3.395714044570923,1.2979099750518799,-3.8703739643096924,0.49961966276168823,0.013293799944221973,-0.8661428689956665,0.14922982454299927,-0.5127444863319397,-0.2876962423324585,0.06881200516966716,-0.2584471945423897,0.011559258375558861,0.9635020846849094,-0.01329419187858013,0.5232106217814659,3.0025569349853174
1784115104516413696,0.7574725151062012,3.9547293186187744,1.2335186004638672,-3.637131690979004,0.5138675570487976,-0.0008596116094850004,-0.8578690886497498,-0.022305667400360107,-0.5745798349380493,-0.31513506174087524,0.09106387397385247,-0.26534598382565544,0.02563128311630387,0.9595008933829205,0.0008596117420193144,0.5396873120361805,2.9521066688894857
1784115104526333696,0.7673923969268799,4.0767011642456055,1.067521095275879,-3.674137830734253,0.5273134112358093,-0.0168532133102417,-0.849503755569458,-0.20442217588424683,-0.4814225137233734,-0.2260730266571045,0.1134127253624558,-0.27122705447884926,0.0410367712560822,0.9549290745966823,0.0168540110262915,0.5555236494366185,2.9003632035555715
1784115104536253696,0.7773125171661377,4.413907527923584,0.8925654888153076,-3.3978989124298096,0.5395780801773071,-0.03500783443450928,-0.8412074446678162,-0.14625227451324463,-0.4327808618545532,-0.17516523599624634,0.13546262267314407,-0.2757901904346674,0.057758598320324483,0.9498703464927746,0.03501498917084076,0.5703290495553515,2.848013907032969
1784115104546173696,0.7872323989868164,4.280767917633057,0.8220273852348328,-3.3596513271331787,0.5514988303184509,-0.0544733926653862,-0.8323951363563538,-0.18943828344345093,-0.3508763313293457,-0.15175098180770874,0.15676132940018558,-0.2795346658763855,0.07525158616039929,0.9442581394904871,0.054500370124447896,0.5851433833893733,2.7961428250609974
1784115104556093696,0.7971525192260742,3.9392573833465576,0.7454213500022888,-3.5192019939422607,0.5627475380897522,-0.07018718123435974,-0.823643684387207,-0.337253212928772,-0.29465046525001526,-0.0990399718284607,0.17805935349515375,-0.28264375500104993,0.09105301028138454,0.9381453146044498,0.07024493599352372,0.5993898327706669,2.7447421860928336
1784115104566012672,0.8070714473724365,3.4233639240264893,0.5269084572792053,-3.4660754203796387,0.5730101466178894,-0.08140747994184494,-0.8154950141906738,-0.3156859874725342,-0.41410642862319946,-0.048991620540618896,0.19903407782910507,-0.2851517842701826,0.10459895058364689,0.9317365204655311,0.08149766586386895,0.6125043965195419,2.694903856989919
1784115104575932416,0.8169913291931152,2.902252435684204,0.5702379941940308,-3.583761692047119,0.5822362303733826,-0.08746704459190369,-0.8083009719848633,-0.33122915029525757,-0.3394738733768463,0.05277729034423828,0.2192472863772674,-0.2873056688177943,0.11534710516649074,0.9252465411606552,0.0875789569260434,0.6242344686980054,2.647979025850412
1784115104585852672,0.826911449432373,2.7542901039123535,0.575067400932312,-3.5102429389953613,0.5916836261749268,-0.08984314650297165,-0.8011483550071716,-0.45383572578430176,-0.27815306186676025,0.0804300308227539,0.238959955556674,-0.289780537127585,0.12431030567874919,0.9184075048960931,0.08996445378994897,0.6361290918022781,2.6028636593406462
1784115104595772416,0.8368313312530518,2.573237180709839,0.5822168588638306,-3.576833724975586,0.6008039116859436,-0.09082518517971039,-0.794219970703125,-0.4665266275405884,-0.3913525640964508,0.14166265726089478,0.25836538732555986,-0.2920545840532035,0.13264284715142818,0.9112393985650241,0.09095052363610799,0.6476293316191699,2.5584868051657286
1784115104605692672,0.8467514514923096,2.1994316577911377,0.5518270134925842,-3.46317982673645,0.6093480587005615,-0.08862067759037018,-0.7879348397254944,-0.4570043087005615,-0.410768985748291,0.3404098153114319,0.27725540023042755,-0.29432836728138423,0.1392960653899613,0.9039341224292184,0.0887370855042062,0.6582773452690271,2.516043398483499
1784115104615612416,0.8566713333129883,2.270771026611328,0.37881097197532654,-3.335442304611206,0.6167342662811279,-0.08587169647216797,-0.782473623752594,-0.38686060905456543,-0.34622669219970703,0.2852201461791992,0.29508090959693695,-0.2960596626760817,0.14529926568451745,0.8967519596230528,0.08597758065784947,0.6674952679699026,2.4759759232542224
1784115104625532672,0.8665914535522461,2.4529354572296143,0.14086419343948364,-3.2637128829956055,0.6222169995307922,-0.08415843546390533,-0.7783080339431763,-0.37423115968704224,-0.31714773178100586,0.19290459156036377,0.3129734636086819,-0.29641638349688376,0.1516024912745367,0.8894951477978622,0.08425809832662963,0.6744044149308618,2.4353839440613028
1784115104635452416,0.8765113353729248,2.9369027614593506,-0.03860941529273987,-3.159374237060547,0.6258441805839539,-0.08523464947938919,-0.7752768397331238,-0.30286145210266113,-0.2740335166454315,0.10997837781906128,0.3308564268769557,-0.2950989107295066,0.15899127236622487,0.8821408441632005,0.08533819111999551,0.6791475992224009,2.3937824101605827
1784115104645372672,0.8864314556121826,3.599881649017334,-0.2972830533981323,-3.0291531085968018,0.6279485821723938,-0.0914527177810669,-0.7728627920150757,-0.3483923673629761,-0.1706780195236206,0.03543609380722046,0.3491299248501735,-0.29169576873331243,0.1687666163280231,0.8743795625210665,0.09158067783761335,0.6823146468909689,2.3492717862595978
1784115104655292416,0.8963513374328613,4.3183746337890625,-0.4933623969554901,-2.9545915126800537,0.6282929182052612,-0.1035124659538269,-0.7710597515106201,-0.32639777660369873,-0.17767652869224548,0.07060503959655762,0.36793230481605305,-0.2857546465254302,0.18114748631819758,0.8661152327971563,0.10369821325250746,0.6837264816241635,2.301248967963161
1784115104665212672,0.9062714576721191,4.949490070343018,-0.7387742400169373,-2.8760790824890137,0.6273339986801147,-0.121189646422863,-0.7692627310752869,-0.32067811489105225,-0.3044695258140564,0.10281985998153687,0.3873935709580366,-0.27735670791029177,0.19606604976007505,0.8570633750414867,0.12148827825075337,0.6841211633617855,2.2492558710735073
1784115104675132416,0.9161913394927979,5.287012577056885,-0.8783015608787537,-2.9038939476013184,0.6253736019134521,-0.14283648133277893,-0.7671411633491516,-0.34940314292907715,-0.34336957335472107,0.11871892213821411,0.40721905358123994,-0.26689948940418157,0.21258897490554735,0.8471972689914934,0.1433266949441623,0.6839408454471881,2.194375829943395
1784115104685052672,0.9261114597320557,5.491476058959961,-1.0218063592910767,-2.946131706237793,0.6230355501174927,-0.1658162921667099,-0.7644159197807312,-0.3837014436721802,-0.2665109634399414,0.1346094012260437,0.4274094264556275,-0.25516779823138014,0.2295243618810588,0.8363786286161736,0.16658571018571772,0.6838493336252915,2.1373287192091754
1784115104694972416,0.9360313415527344,5.740370273590088,-1.2013235092163086,-2.9356396198272705,0.6201772689819336,-0.19051258265972137,-0.7609764337539673,-0.3429861068725586,-0.15960033237934113,0.15636217594146729,0.44768597406131566,-0.2419942123601701,0.24688174446032576,0.8246608374505331,0.19168426625847776,0.6838059982411702,2.0784835369043395
1784115104704892672,0.9459514617919922,6.091567516326904,-1.4139339923858643,-3.019902467727661,0.6165532469749451,-0.21720066666603088,-0.7567602396011353,-0.30878347158432007,-0.22406823933124542,0.15417540073394775,0.46822981588608853,-0.22704538488165477,0.26470792779834407,0.8118750255271882,0.21894576192939724,0.6836567451658332,2.0171584322513887
1784115104714812416,0.9558713436126709,6.213160991668701,-1.46181321144104,-3.075453519821167,0.6130033135414124,-0.24506811797618866,-0.7511115670204163,-0.24490028619766235,-0.30983299016952515,0.14256060123443604,0.4889921737889865,-0.21083827684983453,0.2828275590756005,0.7977734879738508,0.24758995653746727,0.6844980981599638,1.9532199237434194
1784115104724731648,0.9657905101776123,6.222809791564941,-1.459717035293579,-3.1281180381774902,0.6104147434234619,-0.2724411189556122,-0.7437537312507629,-0.2836325764656067,-0.18835905194282532,0.16207349300384521,0.5094379051783828,-0.19433635811168462,0.3005935912015341,0.7825278719464908,0.2759292073188703,0.6872489794090979,1.8881322032022008
1784115104734651648,0.975710391998291,6.059609889984131,-1.3257062435150146,-2.982300281524658,0.6090669631958008,-0.29939544200897217,-0.734438419342041,-0.2586183547973633,-0.18641388416290283,0.15982294082641602,0.5290172701863378,-0.17780969021386742,0.31806369506810633,0.7663940383137162,0.30405897185056197,0.6923509495808275,1.8228487817387176
1784115104744571648,0.9856305122375488,5.864541053771973,-1.2051515579223633,-2.849940776824951,0.609174370765686,-0.325161874294281,-0.7233092784881592,-0.13688433170318604,-0.2289000153541565,0.23347163200378418,0.5469440920860519,-0.16191996430936223,0.33485412550858845,0.7500045193599485,0.3311829045078296,0.6999509706730714,1.7595621072050385
1784115104754491648,0.9955503940582275,5.823065757751465,-1.1516212224960327,-2.685359239578247,0.6103763580322266,-0.35005614161491394,-0.710564136505127,-0.19486427307128906,-0.19350770115852356,0.19426774978637695,0.5635287980795298,-0.14633620177719037,0.35114619513986434,0.7332921192355956,0.35763104283094954,0.7096973075524141,1.6973854694281143
1784115104764411648,1.0054705142974854,5.828006744384766,-1.2261306047439575,-2.589622974395752,0.6117811799049377,-0.375107079744339,-0.6964327096939087,-0.17626482248306274,-0.11459320783615112,0.1651064157485962,0.5790278357567907,-0.13025012113520107,0.36717645923405234,0.7162005714876039,0.3845122955536359,0.7207805564909958,1.63536966081809
1784115104774331648,1.015390396118164,5.8218865394592285,-1.307547688484192,-2.520235300064087,0.613184928894043,-0.39964112639427185,-0.6813892126083374,-0.21694469451904297,-0.01764097809791565,0.1343158483505249,0.5938159399755609,-0.11364007435264818,0.382611202076565,0.6986252467237242,0.41112530470151004,0.7327620944411594,1.5729591570475505
1784115104784251904,1.025310754776001,5.957028388977051,-1.454289436340332,-2.402787685394287,0.6142562627792358,-0.42403972148895264,-0.6654919981956482,-0.24104154109954834,0.017103075981140137,0.1033887267112732,0.6079246658178729,-0.0962234255328257,0.39748591858579774,0.6805686436121717,0.43790129028468844,0.7453837592660574,1.5098795854845704
1784115104794171904,1.0352306365966797,6.193868160247803,-1.6240472793579102,-2.236346960067749,0.6144733428955078,-0.4496782124042511,-0.6482376456260681,-0.1510486602783203,-0.0381147563457489,0.046217381954193115,0.6212956278188105,-0.07725603097329121,0.41220466934051403,0.6618991998368263,0.4664050395716127,0.7586649980081874,1.4452506127182811
1784115104804091904,1.0451507568359375,6.300583839416504,-1.7866816520690918,-2.2001125812530518,0.6139954328536987,-0.4759938418865204,-0.6296343803405762,-0.11300361156463623,-0.022556573152542114,0.007472515106201172,0.6340262834043995,-0.05688994548287546,0.42655169016615574,0.6425168391285576,0.4960937650866704,0.7728236069246719,1.378735301329939
1784115104814011904,1.0550706386566162,6.354104995727539,-1.894209623336792,-2.205747365951538,0.6135767102241516,-0.501741349697113,-0.6097370982170105,-0.10616087913513184,0.0035876035690307617,-0.011875450611114502,0.6462469464010908,-0.035762557425797405,0.44028681664899244,0.6222809742990312,0.5256106617344198,0.7885368591488939,1.3100837858469112
1784115104823931904,1.064990758895874,6.149321556091309,-1.9451128244400024,-2.2016448974609375,0.6136321425437927,-0.5255647897720337,-0.5892683863639832,-0.06605523824691772,-0.005898773670196533,-0.042231738567352295,0.6579557090262795,-0.014638014599379922,0.45293655646746145,0.6014386929413119,0.5533788713859031,0.8056495332799053,1.2402574317158233
1784115104833851904,1.0749106407165527,5.963181972503662,-1.975029706954956,-2.179220676422119,0.6141904592514038,-0.5471175909042358,-0.5687111020088196,-0.07573837041854858,0.08660739660263062,-0.08491432666778564,0.6689008001575829,0.006029111246328756,0.46433618205935095,0.5804542953047271,0.5789168695711716,0.8238264933994681,1.170656122746413
1784115104843771904,1.0848307609558105,5.813568592071533,-1.9081135988235474,-2.1591553688049316,0.6155846118927002,-0.5666134357452393,-0.5477270483970642,-0.037032365798950195,0.15528225898742676,-0.038256287574768066,0.6790544730680449,0.026168856996954322,0.47481751030518776,0.559239360185436,0.6023900353685984,0.8436635021672846,1.1008479420941493
1784115104853691904,1.0947506427764893,5.476096153259277,-1.823444128036499,-2.051104784011841,0.617885947227478,-0.58390873670578,-0.5265620946884155,0.03871500492095947,0.19078129529953003,0.07172811031341553,0.6881969037262536,0.04539218211769666,0.48441562041969066,0.5382064513448024,0.623535194547495,0.8650266939848994,1.032000581481129
1784115104863611904,1.104670763015747,5.139679431915283,-1.7772353887557983,-1.8674259185791016,0.6203771233558655,-0.598997175693512,-0.5062949657440186,0.08746284246444702,0.08354002237319946,0.21062541007995605,0.6962275080410186,0.0634860246107964,0.49276977917158854,0.5180875362607525,0.6422481910039441,0.8863101110750758,0.9662930383145305
1784115104873531904,1.1145906448364258,5.112257480621338,-1.8154536485671997,-1.6688871383666992,0.6224328279495239,-0.6132866144180298,-0.48626837134361267,0.15643680095672607,-0.0074256062507629395,0.24253970384597778,0.7032141852265439,0.08135344089360974,0.5002473754984937,0.49862215813490457,0.6602149406480939,0.9076006150490242,0.9023736771469615
1784115104883450880,1.1245098114013672,5.485073089599609,-1.879451036453247,-1.394601821899414,0.6233710646629333,-0.6285461783409119,-0.465121865272522,0.21468746662139893,-0.03550100326538086,0.21515238285064697,0.709176697459839,0.10035543180417807,0.5073143579114344,0.4791967080941666,0.6796826221012099,0.9297704264715125,0.8374685008877211
1784115104893370880,1.134429693222046,6.150896072387695,-1.9668298959732056,-1.2204699516296387,0.6232531666755676,-0.6466776132583618,-0.4397311210632324,0.2346569299697876,-0.04535418748855591,0.07591578364372253,0.7137537266660249,0.12201713653515703,0.5150206435745325,0.4587168097607733,0.7032206423046597,0.9563607765085448,0.7666316561279952
1784115104903290880,1.1443498134613037,6.501567363739014,-2.0629279613494873,-1.1226333379745483,0.6226533055305481,-0.666245698928833,-0.41038939356803894,0.18191206455230713,0.05944949388504028,0.03015562891960144,0.7173084153614525,0.14607461571596925,0.5229412114917013,0.4366500309401484,0.7291630054916389,0.9880520546621019,0.688197091981623
1784115104913210880,1.1542696952819824,6.144062042236328,-2.130216598510742,-1.0998663902282715,0.6220614910125732,-0.6843295097351074,-0.3804375231266022,0.13097500801086426,0.20492887496948242,0.046147942543029785,0.720030916222782,0.1701785467754734,0.5299249976954868,0.41445664997537185,0.7536837782499172,1.0219089432486959,0.6079267893634878
1784115104923130624,1.1641895771026611,5.481777667999268,-2.1419312953948975,-1.0864893198013306,0.6221656203269958,-0.6986514329910278,-0.35326480865478516,0.07636642456054688,0.3051730990409851,0.061089545488357544,0.7225958690624802,0.19235039463944778,0.5351344828646618,0.39304908507960423,0.7735108767013619,1.0543908797596848,0.5307690688289303
1784115104933050880,1.174109697341919,4.422774314880371,-1.995466947555542,-1.0231808423995972,0.6228308081626892,-0.7086145281791687,-0.33158278465270996,0.09166193008422852,0.3859522342681885,0.08320024609565735,0.725321160304796,0.21116266798737032,0.5381625560669296,0.37376534756004853,0.7875327253242382,1.0815813602677988,0.46264664074104433
1784115104942970880,1.1840295791625977,4.283820629119873,-1.8880692720413208,-0.9118771553039551,0.6236196160316467,-0.7163293957710266,-0.3130027949810028,0.103080153465271,0.2954615354537964,0.1339561641216278,0.7275053118490931,0.22748324987922752,0.540138849106441,0.35670350862130534,0.79852746788387,1.1056194934860164,0.4023988068577358
1784115104952890880,1.1939496994018555,4.6303277015686035,-1.9996064901351929,-1.1742185354232788,0.6253477931022644,-0.7231401801109314,-0.2932720482349396,0.055301010608673096,0.3523058295249939,0.10912901163101196,0.7292949206830954,0.24398077599498605,0.5420676737373887,0.33876976007972176,0.8083378910375315,1.1322758935117914,0.3388913820299173
1784115104962810880,1.2038695812225342,4.945286750793457,-1.9356646537780762,-1.3601799011230469,0.6294726729393005,-0.728364884853363,-0.2706446647644043,-0.04226881265640259,0.4373798370361328,0.14370682835578918,0.7306578960381572,0.2610326973497346,0.5445544991157565,0.3185298277787415,0.8159325731765424,1.1647366132311165,0.2676052397738873
1784115104972730880,1.213789701461792,5.18904972076416,-1.8111023902893066,-1.012987732887268,0.6337664127349854,-0.7334364652633667,-0.245787113904953,0.010825932025909424,0.1930769681930542,0.1878495216369629,0.7308627750365205,0.2787427646028968,0.5471827074870894,0.2978813351007583,0.8233636635265467,1.200834088586574,0.1929909473294289
1784115104982650880,1.2237095832824707,5.417893409729004,-1.977616786956787,-0.7579650282859802,0.6360211372375488,-0.740041196346283,-0.21866875886917114,0.1369890570640564,-0.08782434463500977,0.08994561433792114,0.7296394250490625,0.2982924308061559,0.5492606350726346,0.2774178224653924,0.833131635599804,1.239648942980772,0.11496284491273377
1784115104992570880,1.2336297035217285,5.159031867980957,-2.0439789295196533,-0.4426111578941345,0.6364355087280273,-0.7470363974571228,-0.19205796718597412,0.1154259443283081,-0.17157316207885742,0.12032641470432281,0.7277535275074598,0.31848779276231926,0.5500332179204965,0.25768914184671304,0.843592853966303,1.2777152931498366,0.03717953644958187
1784115105002490880,1.2435495853424072,5.055118560791016,-1.8568885326385498,-0.378548264503479,0.6364007592201233,-0.753181517124176,-0.16646791994571686,0.06777709722518921,-0.15911084413528442,0.07509829103946686,0.7253333743707641,0.3379451324778954,0.5500537523498338,0.2390091425058201,0.852885289760395,1.314951516943013,-0.03809507112836044
1784115105012410880,1.253469705581665,4.9749040603637695,-1.85567045211792,-0.1880345195531845,0.6358866095542908,-0.7589300870895386,-0.14026178419589996,0.02774864435195923,-0.17876827716827393,0.01489555835723877,0.7220269066705074,0.3573603515340304,0.5496932663569927,0.2209255167417306,0.8616685257662935,1.3536959931743229,-0.11365359186987829
1784115105022330880,1.2633895874023438,4.767730236053467,-1.8021222352981567,-0.16540510952472687,0.6350062489509583,-0.7638852000236511,-0.11509345471858978,0.10267990827560425,-0.22883635759353638,-0.021487951278686523,0.7183655564158389,0.37610466696395795,0.5486333500336305,0.20370973095810357,0.8693121014446827,1.3914950592447446,-0.18705090835687005
1784115105032249856,1.2733087539672852,4.635608673095703,-1.692946434020996,-0.02852795645594597,0.6344607472419739,-0.7676792740821838,-0.09015671908855438,0.025832831859588623,-0.30101579427719116,-0.014198124408721924,0.7142002064095645,0.39405880066393834,0.5473931879350155,0.18707349794700545,0.8752118346864258,1.4296415858393026,-0.2591092726680626
1784115105042169856,1.2832286357879639,4.346879959106445,-1.4913747310638428,0.021085668355226517,0.6334020495414734,-0.7710095047950745,-0.06592520326375961,0.008886098861694336,-0.43518245220184326,-0.04624217003583908,0.709596054640334,0.4113168062642832,0.5457617461123435,0.17156932555647722,0.8804248692496396,1.467088606225793,-0.32852952161387655
1784115105052089856,1.2931487560272217,4.101384162902832,-1.3742685317993164,0.24832195043563843,0.6320967674255371,-0.7737337946891785,-0.042304590344429016,-0.01648092269897461,-0.521630585193634,-0.0421985387802124,0.7045264450800133,0.42749853911000635,0.5441440099831395,0.157463581642823,0.8847139161363369,1.5039685935920493,-0.39429353744430606
1784115105062009856,1.3030686378479004,3.7843728065490723,-1.5304617881774902,0.5697764158248901,0.6287873387336731,-0.7772891521453857,-0.02117348462343216,0.13126826286315918,-0.5114377737045288,-0.04567527770996094,0.6996879945425502,0.44330243425472354,0.5411988627262565,0.14499508210480466,0.8903454467101293,1.5371355221943264,-0.4557822497635653
1784115105071929856,1.3129887580871582,3.701018810272217,-1.3789371252059937,0.8344683051109314,0.6234795451164246,-0.7818392515182495,-0.0008917170343920588,0.19758069515228271,-0.48583054542541504,-0.03595823049545288,0.6945963700625462,0.45904694914433053,0.5374291022775455,0.13409635287719301,0.8976103660435728,1.5693661012405316,-0.5150718974966341
1784115105081849856,1.322908639907837,3.185972213745117,-1.4058387279510498,1.0317251682281494,0.6164807081222534,-0.7871686220169067,0.01781311258673668,0.21196478605270386,-0.39036738872528076,-0.05519711971282959,0.6895690226116871,0.4742865612502199,0.5328778600391016,0.12485220637065267,0.9062045121431672,1.5996831310672597,-0.5709124554630278
1784115105091769856,1.3328287601470947,2.5225133895874023,-1.1849712133407593,0.7409220337867737,0.6099406480789185,-0.7917837500572205,0.03242122009396553,0.3302907347679138,-0.2986246943473816,-0.03326046094298363,0.6856153615396698,0.48720822238404893,0.5280518511716977,0.11713703588933994,0.9137238219683328,1.6239010594234327,-0.6180366181972308
1784115105101689856,1.3427486419677734,2.049259662628174,-1.2125217914581299,0.6734558939933777,0.6055728197097778,-0.7946158051490784,0.04321082681417465,0.4868038296699524,-0.26040732860565186,0.06724750995635986,0.6828087414525942,0.497261239408598,0.5237715846749074,0.11030298423537922,0.9183744523742534,1.6420308833181534,-0.6559197688315985
1784115105111609856,1.3526687622070312,1.1824090480804443,-1.3179553747177124,1.004203200340271,0.599737823009491,-0.7987145185470581,0.04867907240986824,0.6265041828155518,-0.3700324296951294,0.03973030671477318,0.6815489994819018,0.5056450245238299,0.5183267755404235,0.10560015866660316,0.9251557688482238,1.6517860416166457,-0.6840337384008152
1784115105121529856,1.36258864402771,-0.3387640118598938,-1.1638758182525635,0.7456924915313721,0.5937303304672241,-0.803421676158905,0.044700197875499725,0.6491591334342957,-0.4755396246910095,0.16341447830200195,0.6832269436491014,0.5098625795896472,0.5122404210307947,0.1041678390577667,0.9330198624820969,1.6459415986767554,-0.6921860248275514
1784115105131449856,1.3725087642669678,-1.2462167739868164,-1.2388041019439697,0.9432332515716553,0.588522732257843,-0.8078834414482117,0.031072404235601425,0.5185481905937195,-0.5131614804267883,0.08185791969299316,0.6879679758710574,0.5094445635266632,0.5059668358565949,0.105659438298862,0.9405518190856236,1.6235446411941226,-0.6790601048705183
1784115105141369856,1.3824286460876465,-1.910412073135376,-1.0765140056610107,1.4295839071273804,0.5795809030532837,-0.8148349523544312,0.01140064187347889,0.6641019582748413,-0.43281519412994385,-0.055651187896728516,0.6942773913170395,0.507282167739881,0.49836244169471694,0.11080878945044867,0.9524444319154928,1.5904642830875626,-0.6520262251521549
1784115105151289856,1.3923487663269043,-1.4519108533859253,-0.9653743505477905,1.520639419555664,0.5686425566673279,-0.8225399851799011,-0.008593504317104816,0.6273567080497742,-0.36145055294036865,-0.11903101205825806,0.7003953012732074,0.5050994118084641,0.49048734131842625,0.11723186784989578,0.965862976749406,1.555685164113014,-0.621801817274432
1784115105161209856,1.402268648147583,-0.1698717623949051,-0.974436342716217,1.7520688772201538,0.556449294090271,-0.8306239247322083,-0.02068413235247135,0.6098409295082092,-0.2119022011756897,-0.1412268877029419,0.7038654924813644,0.5062188024585261,0.48311536696199897,0.1221282158874136,0.9802272439680217,1.5336417922419519,-0.6060803528011185
1784115105171129856,1.4121887683868408,1.2569135427474976,-1.092219352722168,2.1958494186401367,0.5411767363548279,-0.8406339883804321,-0.02149580605328083,0.6506719589233398,-0.15159916877746582,-0.08163833618164062,0.7037092107436632,0.513067716647672,0.4754088928196076,0.12466431744554296,0.9984527702670423,1.5310967073176844,-0.6147655319338241
1784115105181049856,1.4221086502075195,2.2326600551605225,-1.1080262660980225,2.4353864192962646,0.5244600176811218,-0.8513380289077759,-0.01285055186599493,0.6598356366157532,-0.27749186754226685,0.0015590786933898926,0.7006580930503551,0.5244552784434391,0.46746270966230286,0.12451301832294977,1.0185305772156048,1.5462987861289337,-0.6460625350855042
1784115105190968832,1.4320275783538818,3.003373384475708,-0.8907260298728943,2.58841872215271,0.5138893127441406,-0.8578513264656067,0.0029343930073082447,0.62066251039505,-0.32659679651260376,0.04043114185333252,0.6957446792726506,0.5365994584356019,0.4620911356576644,0.12029975257132561,1.0310738534716701,1.576506429745707,-0.6935496822463612
1784115105200888832,1.4419476985931396,3.0284059047698975,-0.7871665954589844,2.733154058456421,0.49372169375419617,-0.8692713975906372,0.024621255695819855,0.5825111865997314,-0.3120793104171753,0.027823209762573242,0.6881070545598001,0.5529359921100675,0.4545023832146295,0.11915566639734192,1.0537264707325713,1.620623743302023,-0.7546540476752872
1784115105210808832,1.4518675804138184,2.770512104034424,-0.6533085107803345,2.8357882499694824,0.4709285497665405,-0.880965530872345,0.04610825702548027,0.6114689111709595,-0.24971067905426025,0.05112075433135033,0.6801729655895177,0.5691141513618246,0.44627705703759885,0.11962682956780057,1.077898870904256,1.6683945001831366,-0.8177334525935678
1784115105220728832,1.4617877006530762,2.3207132816314697,-0.4711432456970215,3.0116708278656006,0.4461214244365692,-0.8925424814224243,0.06590338051319122,0.6279140710830688,-0.23166394233703613,-0.076401486992836,0.6724586717236258,0.5843486445886891,0.4375938205988139,0.12185027211874054,1.102951973873936,1.7174607968718907,-0.8798656276140776
1784115105230648832,1.4717075824737549,1.8606774806976318,-0.3375910818576813,2.98577880859375,0.4203433692455292,-0.9036128520965576,0.08243262767791748,0.6566829681396484,-0.2150241732597351,-0.12123573571443558,0.6655244527513302,0.5977092831766339,0.4289054993115033,0.12593984209802395,1.1281302666360447,1.7644466364157267,-0.9367298731120915
1784115105240568832,1.4816277027130127,1.9103755950927734,-0.2798636257648468,3.14762282371521,0.3935490548610687,-0.9140782952308655,0.09787622094154358,0.7332514524459839,-0.29305964708328247,-0.14826072752475739,0.6587122307835892,0.6102946972589343,0.4200934351627731,0.13099599653707336,1.1532292313219537,1.8145524660882246,-0.9951631422190443
1784115105250488832,1.4915475845336914,2.135409116744995,-0.22232598066329956,3.24621319770813,0.3650452196598053,-0.9238148927688599,0.11536012589931488,0.7731383442878723,-0.24490147829055786,-0.13428103923797607,0.6509567064080236,0.6235430950702002,0.4109429048532101,0.1362911879591348,1.1779284187833405,1.876881155328323,-1.0657458661843668
1784115105260408832,1.5014677047729492,2.243433952331543,-0.15405452251434326,3.285534381866455,0.33567774295806885,-0.9322627186775208,0.13493259251117706,0.6873477697372437,-0.12359970808029175,-0.13757240772247314,0.6422697610934884,0.6372502530347484,0.4017193197393477,0.14150375173859964,1.2006176469241925,1.9530003705373584,-1.1500177311679862
1784115105270328832,1.511387586593628,1.8895193338394165,0.11314180493354797,3.313385486602783,0.3053382635116577,-0.9396793246269226,0.15418054163455963,0.6386314630508423,-0.09952062368392944,-0.14925192296504974,0.6333417135460401,0.650336819373454,0.3926223276972327,0.14760807049829222,1.221691588349146,2.038396044311949,-1.2417029959924886
1784115105280248832,1.5213077068328857,1.5122125148773193,0.15436168015003204,3.275224447250366,0.27485212683677673,-0.9462748169898987,0.1703525334596634,0.6747328042984009,-0.19500619173049927,-0.10763897001743317,0.6251580759647506,0.6617156493712701,0.3838081094046414,0.15492255853045991,1.241514544604832,2.125645444336168,-1.332710809364976
1784115105290168832,1.5312275886535645,1.0535012483596802,0.21537968516349792,3.310490608215332,0.2441222220659256,-0.9524008631706238,0.18258404731750488,0.7962525486946106,-0.2986367344856262,-0.12690472602844238,0.6181817037310643,0.6715945442650664,0.3745033945629253,0.16297040915764788,1.2610169904928077,2.2129653257759743,-1.423294516862972
1784115105300088832,1.5411477088928223,0.6856439709663391,0.2231997847557068,3.39351224899292,0.21221934258937836,-0.9583167433738708,0.19129034876823425,0.790939211845398,-0.26429373025894165,-0.13730478286743164,0.6121235113219229,0.6801697726633756,0.3647111984903891,0.17221968627874812,1.2810511632495527,2.304373541850537,-1.516802686764556
1784115105310008832,1.551067590713501,0.6071898341178894,0.34214967489242554,3.4455370903015137,0.1793716996908188,-0.9637383818626404,0.19756992161273956,0.6652785539627075,-0.22730153799057007,-0.09031596779823303,0.6065925322474158,0.6877656157004982,0.35463138781226267,0.1823744825233364,1.3006745387508378,2.4044356483187523,-1.6178965920221156
1784115105319928832,1.5609877109527588,0.534146249294281,0.355974942445755,3.4646337032318115,0.14591524004936218,-0.9681011438369751,0.2036886364221573,0.6194046139717102,-0.24950450658798218,-0.1174917221069336,0.6008202266733177,0.6951082864893071,0.34448336466135326,0.19279723518349973,1.317537841075716,2.519968266263808,-1.7339255252338626
1784115105329848832,1.5709075927734375,0.3981991112232208,0.28703469038009644,3.60526442527771,0.11176994442939758,-0.9716280698776245,0.2084379643201828,0.6580970287322998,-0.2457180619239807,-0.10873699188232422,0.5953204748511862,0.7020236002086536,0.33373919532836793,0.2034074098825832,1.3320199102668382,2.6493856274069674,-1.864291377056293
1784115105339768832,1.5808277130126953,0.11025282740592957,0.3300687074661255,3.5458178520202637,0.07676327228546143,-0.9744181632995605,0.211226224899292,0.6774939298629761,-0.2661213278770447,-0.10536077618598938,0.5902483251269129,0.7082968843880085,0.3223796411743387,0.21446149152017924,1.3441173227826353,2.7930150938126412,-2.008976329608391
1784115105349687808,1.5907466411590576,-0.27247506380081177,0.3800225555896759,3.5045759677886963,0.04236994683742523,-0.9766646027565002,0.21054904162883759,0.6424597501754761,-0.281880259513855,-0.0316091924905777,0.5862079214060645,0.7130931827051241,0.3110829981278999,0.22602143503763664,1.354339727142584,2.9430093702543125,-2.159035278535257
1784115105359607808,1.6006667613983154,-0.4382224678993225,0.3295431137084961,3.5468833446502686,0.007806454785168171,-0.9783216714859009,0.20694395899772644,0.6685698628425598,-0.22066819667816162,0.03321407735347748,0.5830079566834127,0.716861837016016,0.29930099747959643,0.2379700338551572,1.3621955862202686,3.103887977481361,-2.320004058000151
1784115105369527808,1.6105866432189941,-0.35745176672935486,0.2675032317638397,3.6626927852630615,-0.027363834902644157,-0.9788365960121155,0.20280639827251434,0.6027575135231018,-0.16641193628311157,0.09565559029579163,0.5797931382238817,0.7204775049551798,0.28690653765801394,0.24987367140810127,1.3646970046052975,-3.007476700689521,-2.4926877859406633
1784115105379448064,1.620506763458252,-0.1264561265707016,0.30938729643821716,3.7090978622436523,-0.06338620185852051,-0.9776732921600342,0.20034241676330566,0.521226167678833,-0.10312199592590332,0.08838437497615814,0.575646311171769,0.7245338488037514,0.27426613709479647,0.26164876910032525,1.3590875192868277,-2.8351684425081527,-2.6660838395698723
1784115105389367808,1.6304266452789307,0.135360449552536,0.5646477937698364,3.7055575847625732,-0.0996934026479721,-0.9747408628463745,0.19985343515872955,0.4605027437210083,-0.11379057168960571,0.08899544179439545,0.5702764634285005,0.7288016337836564,0.2622496831336554,0.2736019164142649,1.345557825904226,-2.6788794210429883,-2.821858463921613
1784115105399288064,1.6403467655181885,0.052530013024806976,0.5654028058052063,3.61202335357666,-0.13577398657798767,-0.970258355140686,0.20041021704673767,0.5389569997787476,-0.16998517513275146,0.12217581272125244,0.5641000142226678,0.7330061191261943,0.25081295002338067,0.2856327879334328,1.3262956944030562,-2.546140956329006,-2.9527430889681088
1784115105409207808,1.6502666473388672,-0.3664235770702362,0.6371288299560547,3.6302719116210938,-0.17121390998363495,-0.9651432633399963,0.1979505866765976,0.6216991543769836,-0.22850602865219116,0.1622331142425537,0.5588042728927789,0.736034350170838,0.23922526439602873,0.2979304624656393,1.3059902272032762,-2.4284930834695966,-3.0682186682842207
1784115105419128064,1.660186767578125,-1.0174261331558228,0.505227267742157,3.5607247352600098,-0.2064163237810135,-0.9597417712211609,0.19049453735351562,0.5404160022735596,-0.1402185559272766,0.15630722045898438,0.5551880722915135,0.7374446970587234,0.2267654819984539,0.31067502875711855,1.2860813313860087,-2.3161017058825855,3.1041587359386207
1784115105429047808,1.6701066493988037,-1.8020731210708618,0.2832024097442627,3.471364736557007,-0.24010325968265533,-0.9546614289283752,0.1759895384311676,0.29294443130493164,0.0853680968284607,0.16489185392856598,0.554580442801076,0.7366813482405596,0.21282706128321677,0.32318092316252245,1.2685203858777694,-2.2033116772745798,2.990229183988264
1784115105438968064,1.6800267696380615,-2.127211093902588,0.34247371554374695,3.4085886478424072,-0.2727500796318054,-0.9492762684822083,0.15646618604660034,-0.06257703900337219,0.2700009346008301,0.10149893164634705,0.555962759625769,0.7341917684258287,0.19797863179138656,0.3356667866878684,1.2509262058047803,-2.091623987642364,2.876024399023867
1784115105448887808,1.6899466514587402,-2.335800886154175,0.5427679419517517,3.2871859073638916,-0.3044978678226471,-0.9430134892463684,0.13418859243392944,-0.3660496175289154,0.4044392704963684,0.03939533233642578,0.5580822579806568,0.7304080207768109,0.18329872204008923,0.3484965865042624,1.231573244028248,-1.9858795651329642,2.768739485698154
1784115105458808064,1.699866771697998,-2.2958109378814697,0.8853473663330078,2.7968649864196777,-0.3334784209728241,-0.9362824559211731,0.11030563712120056,-0.5096306800842285,0.40098893642425537,-0.03887927532196045,0.5605185616175312,0.7253599808296898,0.17031065124849037,0.36147773976470343,1.2118926989199763,-1.8902407741050768,2.6745235430023904
1784115105468727808,1.7097866535186768,-2.861940383911133,1.1209427118301392,2.2560715675354004,-0.3575357496738434,-0.9301722049713135,0.08335541933774948,-0.5291372537612915,0.3914757966995239,-0.08134125918149948,0.5642472514617392,0.7184894401635409,0.159532549409704,0.3740955227434669,1.1948816413818137,-1.7998436617758864,2.588302148837555
1784115105478648064,1.7197067737579346,-3.6138205528259277,1.084647536277771,1.7685240507125854,-0.3763808012008667,-0.9251515865325928,0.049317795783281326,-0.4219743609428406,0.6425281763076782,-0.019532673060894012,0.5711869078550622,0.7087137405979419,0.14961193852279278,0.38611749900304326,1.181434757064579,-1.701085702079196,2.4939110834903575
1784115105488567808,1.7296266555786133,-4.339821815490723,0.8786046504974365,1.351682186126709,-0.39060673117637634,-0.9205126166343689,0.00911251176148653,-0.35403749346733093,0.8797562718391418,-0.11104118824005127,0.5814129942823582,0.6965142678176558,0.1393704798920239,0.3967401501829418,1.1693904820763805,-1.5941212171778967,2.3885537464512967
1784115105498488064,1.739546775817871,-4.4271063804626465,0.6606457233428955,0.7054957151412964,-0.39952942728996277,-0.9160717725753784,-0.03447597846388817,-0.43553829193115234,0.921656608581543,-0.21465426683425903,0.5941449968846662,0.6826546941549627,0.12940084503068833,0.4052525845978894,1.1581725269833576,-1.4847180916959495,2.2778394476387533
1784115105508406784,1.7494657039642334,-3.840153932571411,0.2994234561920166,0.27838411927223206,-0.4030678868293762,-0.9121611714363098,-0.07415048032999039,-0.5188528895378113,0.7325194478034973,-0.3275523781776428,0.606959893969782,0.6695388090159812,0.12100638086382096,0.4107005581908023,1.148526846610542,-1.3888652679665043,2.178223846052115
1784115105518326784,1.759385585784912,-2.85141658782959,0.155227392911911,0.16018716990947723,-0.4042584002017975,-0.9085591435432434,-0.10533453524112701,-0.4307635724544525,0.4359945058822632,-0.3443267345428467,0.6176236884184739,0.6590031753825992,0.11422586068270739,0.4137731118612938,1.1398219365132494,-1.3159015567001808,2.1002334982281434
1784115105528246784,1.76930570602417,-1.9263646602630615,0.4010278582572937,0.33202633261680603,-0.4054624140262604,-0.9051051139831543,-0.12800386548042297,-0.5131624937057495,0.3032069206237793,-0.20004481077194214,0.6248276390349488,0.6511220820463295,0.10971826830611285,0.4166441642355809,1.1316268385752148,-1.2650001941064295,2.047515787314017
1784115105538166784,1.7792255878448486,-1.076855182647705,0.2707745134830475,0.6931003332138062,-0.4093882143497467,-0.9010178446769714,-0.143416166305542,-0.6896871328353882,0.25784462690353394,-0.10542416572570801,0.6284668841718258,0.645755506697322,0.10626261115719463,0.42040158647630577,1.122110265803363,-1.2338380097985229,2.017713765813549
1784115105548086784,1.7891457080841064,-0.8250657320022583,-0.4765895903110504,-0.0154269365593791,-0.41251325607299805,-0.8983257412910461,-0.15114158391952515,-0.6242756843566895,0.35692864656448364,-0.11443763971328735,0.6306925120708399,0.6432813396956056,0.10304526244629991,0.4216607713838541,1.115943596454868,-1.2195936162931709,2.0009802673391355
1784115105558006784,1.7990655899047852,-1.0899248123168945,-0.043505292385816574,-0.05376553535461426,-0.41159284114837646,-0.897339403629303,-0.15928955376148224,-0.9245277643203735,0.556107223033905,0.05029602348804474,0.634513121455001,0.6405258895663772,0.10040820763902895,0.4207585428194947,1.1137035956225454,-1.2015402243354099,1.9775862054802726
1784115105567926784,1.808985710144043,-1.7435215711593628,-0.3076407313346863,-0.4814700484275818,-0.40952327847480774,-0.8961461186408997,-0.17091737687587738,-0.9679180979728699,0.43743646144866943,0.15401066839694977,0.6396363814373361,0.6363987947532886,0.09766211123055452,0.4199094640756825,1.111007289387144,-1.17541720747946,1.9460822084675067
1784115105577846784,1.8189055919647217,-1.4328407049179077,-0.07565916329622269,0.21552209556102753,-0.4075504243373871,-0.8943209052085876,-0.18464171886444092,-0.959865927696228,0.2879825234413147,0.3769482374191284,0.6454749578928102,0.6314860955527316,0.09436342057382036,0.4191453077240364,1.1069110819858685,-1.1454068892389466,1.910095252288208
1784115105587766784,1.8288257122039795,-1.9066994190216064,0.08164186030626297,0.2662133276462555,-0.40995314717292786,-0.889872670173645,-0.20016255974769592,-0.656682014465332,0.270060658454895,0.4502236247062683,0.6503704558247647,0.6259721006425221,0.08987572603540221,0.42083200513139174,1.0970660215229082,-1.1165870378017744,1.8778303846028597
1784115105597686784,1.8387455940246582,-0.7518595457077026,-0.27539536356925964,-0.298800528049469,-0.408603698015213,-0.8879685401916504,-0.211079940199852,-0.9996299743652344,0.6311021447181702,0.5819295644760132,0.65492292100579,0.6219817171144472,0.08717094019917064,0.42025687121431615,1.0929090176201133,-1.0939662051321355,1.8504731082154082
1784115105607606784,1.848665714263916,0.2855525314807892,0.15186960995197296,0.49812236428260803,-0.40965473651885986,-0.8870331645011902,-0.2129673957824707,-0.9342783689498901,0.5914856791496277,0.4521794319152832,0.6555532049869432,0.6213811796304697,0.08603331767444661,0.4203970089858319,1.0908791082617646,-1.091379017184327,1.8465203265138894
1784115105617526784,1.8585855960845947,0.8947809934616089,0.005197072867304087,0.07651893049478531,-0.41146141290664673,-0.8873273134231567,-0.20820599794387817,-0.7169565558433533,0.152540385723114,0.7389829754829407,0.6529927741108366,0.6231300071039745,0.08721236316064433,0.4215488664554486,1.0915166645570415,-1.1023476266673782,1.861078886205934
1784115105627446784,1.8685057163238525,0.9012474417686462,0.12081695348024368,0.6733927130699158,-0.41427284479141235,-0.887851893901825,-0.20024298131465912,-0.6752657890319824,-0.2182578444480896,0.6109180450439453,0.6495685931105747,0.6261997807701141,0.08804737762411254,0.4221164516308305,1.092655494878075,-1.1205489781070916,1.8813677824648574
1784115105637366784,1.8784255981445312,0.3575569689273834,0.5000409483909607,0.5808009505271912,-0.41877442598342896,-0.8871058225631714,-0.19409090280532837,-0.21895140409469604,-0.3441563844680786,0.6566763520240784,0.6456588959578905,0.6285305281719712,0.08890401737683436,0.42446447363662815,1.091036594223234,-1.1367943903634323,1.902798864431539
1784115105647286784,1.888345718383789,-1.1395930051803589,1.1199880838394165,0.5005344152450562,-0.42270350456237793,-0.8832865953445435,-0.2027973234653473,-0.06702736020088196,-0.1123037338256836,0.7550586462020874,0.6457088411063714,0.6251189155790335,0.08847417127738035,0.4294867812749162,1.0828267206560869,-1.1234693369865525,1.8975127334341877
1784115105657206784,1.8982656002044678,-1.3686096668243408,1.0557060241699219,-0.5206397771835327,-0.4203430712223053,-0.8807726502418518,-0.21806281805038452,0.380807489156723,-0.15339189767837524,0.5902398824691772,0.6488855214340629,0.6188242274201641,0.08958331445054177,0.4335655218923946,1.0774913519723526,-1.092243025836766,1.8750088542781356
1784115105667126016,1.9081847667694092,-1.5649627447128296,1.7114841938018799,0.25899553298950195,-0.41512516140937805,-0.8781077861785889,-0.23790308833122253,0.7638800144195557,-0.016103029251098633,0.3698611259460449,0.6535445138511309,0.6104687890962681,0.09152218585688111,0.43798537580632096,1.0718930140459253,-1.05040043056887,1.8438022583132962
1784115105677045760,1.918104648590088,-0.15881159901618958,1.2673251628875732,0.5143101215362549,-0.41523462533950806,-0.8743044137954712,-0.25134071707725525,1.3166627883911133,0.27974557876586914,0.15188392996788025,0.6543888195158978,0.6046665346541313,0.09331676207360586,0.444348655843768,1.0640008418032922,-1.0264902800723659,1.8336827296052418
1784115105686966016,1.9280247688293457,0.06893235445022583,1.2282440662384033,-0.30362415313720703,-0.4132625162601471,-0.8742189407348633,-0.25486379861831665,1.0431452989578247,0.35178840160369873,-0.012317627668380737,0.6531550634624717,0.602611767417477,0.09709359026845449,0.44813003446343574,1.063824856517643,-1.018179436266304,1.8374133332006957
1784115105696885760,1.9379446506500244,0.9579911231994629,0.35103344917297363,-0.17661133408546448,-0.4091666638851166,-0.8761342763900757,-0.25489529967308044,0.8731558918952942,0.49654126167297363,0.011792272329330444,0.6521811901847875,0.6019183979726789,0.10122544462118759,0.44956369487714404,1.0677837679305866,-1.0136638386583638,1.84132151022534
1784115105706806016,1.9478647708892822,1.7239309549331665,0.11048423498868942,-0.14365525543689728,-0.4080517590045929,-0.8804459571838379,-0.24147193133831024,0.5010082721710205,0.1286759376525879,-0.45263510942459106,0.6477007542924678,0.6067856819384544,0.10523863823775827,0.4485752205247174,1.076801972820728,-1.0364518256755457,1.8679216875604454
1784115105716725760,1.957784652709961,1.179955005645752,0.36127808690071106,-0.5458698272705078,-0.40314537286758423,-0.8855846524238586,-0.23068104684352875,-0.14675086736679077,0.28574639558792114,-0.12361276149749756,0.6442036731044812,0.6101849691251128,0.11105755825315092,0.4475960321753178,1.0877512112999705,-1.051066504017955,1.889042481527517
1784115105726646016,1.9677047729492188,0.5507889986038208,0.5204560160636902,-0.228200763463974,-0.39756616950035095,-0.8897008299827576,-0.2244403213262558,-0.19777071475982666,0.22063350677490234,-0.10196040570735931,0.6426420559126075,0.6118830138611495,0.11566770097460863,0.44635332857901044,1.0966894855314129,-1.0568617702482201,1.8992324874693203
1784115105736565760,1.9776246547698975,0.23545661568641663,0.46901068091392517,-0.7980248332023621,-0.3912988305091858,-0.8930811285972595,-0.22201694548130035,0.14671573042869568,-0.010697007179260254,0.09431612491607666,0.6423844556905081,0.6120802590031337,0.11978849660584047,0.4453659198317227,1.1041478035434664,-1.0547040356298236,1.9012672918123017
1784115105746486016,1.9875447750091553,-0.7877740263938904,0.49465641379356384,-1.367693305015564,-0.37997928261756897,-0.897261917591095,-0.22480417788028717,0.15965765714645386,0.15913325548171997,0.15404915809631348,0.6451760816697327,0.6100405226990939,0.12429188034837677,0.44288827252719465,1.1135281507689723,-1.0365597576970704,1.8853563576936192
1784115105756405760,1.997464656829834,-1.2921189069747925,-0.17245258390903473,-0.9657109975814819,-0.3681087791919708,-0.8994487524032593,-0.23555852472782135,0.05185514688491821,-0.0013995766639709473,0.23461247980594635,0.6512122595508005,0.6051858581539161,0.12637568906757632,0.440115689439975,1.1185065011189643,-1.0015430714726505,1.84872277435022
1784115105766326016,2.007384777069092,-1.2339982986450195,0.3979487419128418,-0.30891135334968567,-0.36224398016929626,-0.8988626003265381,-0.24662800133228302,0.37159761786460876,-0.4781668186187744,-0.024215519428253174,0.6560216189003422,0.6006544731446084,0.12609599795305812,0.43926035366914007,1.1171670950454322,-0.9730496304826274,1.818561749439672
1784115105776245760,2.0173046588897705,-2.8118202686309814,-0.007287406362593174,-0.8910602927207947,-0.35550883412361145,-0.8963825106620789,-0.26478633284568787,0.31362345814704895,-0.34226489067077637,0.03244072198867798,0.6629182339149852,0.5932878601296904,0.12496541916709608,0.43924086825610326,1.1115402645920698,-0.9306255006119639,1.7748944207563602
1784115105786165504,2.02722430229187,-2.94974684715271,0.36756274104118347,-0.5340209007263184,-0.34749269485473633,-0.891066312789917,-0.29197555780410767,0.3561749756336212,-0.204941987991333,0.15658432245254517,0.6735648763474323,0.5824976882864538,0.12127928129444653,0.4385181661685223,1.09968911952876,-0.871998698290361,1.7105039390805672
1784115105796085248,2.037144184112549,-1.7245807647705078,0.5263798236846924,0.17520815134048462,-0.34506842494010925,-0.8840473890304565,-0.3152588903903961,0.6274476051330566,-0.497025728225708,-0.2564421594142914,0.6800300875866453,0.5729902045618821,0.11854443066445587,0.44180160713244904,1.084451966726866,-0.8305111165096061,1.671551035195804
1784115105806005504,2.0470643043518066,-2.8806498050689697,-0.130878284573555,-0.34599173069000244,-0.3432159423828125,-0.8777716755867004,-0.334244966506958,0.479156494140625,-0.33765190839767456,-0.212111234664917,0.6862334967256508,0.5654016899290633,0.11488448395492441,0.44295154796507563,1.0711909322220918,-0.7986394471833903,1.637160346798759
1784115105815924480,2.056983232498169,-3.183382511138916,0.27347853779792786,0.0720345675945282,-0.3417646586894989,-0.8670911192893982,-0.36242231726646423,0.4141676127910614,-0.0933733582496643,0.2839311361312866,0.6953321508191657,0.5540764254615371,0.10857325241661857,0.4446621234767638,1.0493329567143486,-0.7560710791767077,1.589768027268721
1784115105825844224,2.0669031143188477,-2.837846040725708,0.5224953889846802,-0.031508300453424454,-0.34030815958976746,-0.8559965491294861,-0.38917917013168335,0.35929009318351746,-0.33051174879074097,0.07600772380828857,0.7029573959667735,0.5428291448933253,0.103667394400776,0.4477059669961516,1.0274753991072267,-0.7185044838892238,1.5518549280295468
1784115105835764480,2.0768232345581055,-3.1056365966796875,0.4576874077320099,0.18575769662857056,-0.33923035860061646,-0.8438857793807983,-0.41566774249076843,0.25524598360061646,-0.25946199893951416,0.07963871955871582,0.7105687500275888,0.5315180155323792,0.09825846433507546,0.4504731047770406,1.004485010207406,-0.6844868470255745,1.5164846138660772
1784115105845684224,2.086743116378784,-3.1477222442626953,0.2862589657306671,-0.07886366546154022,-0.3382176160812378,-0.830626368522644,-0.4423445463180542,0.2377995252609253,-0.10725504159927368,0.0576857328414917,0.7182984849220917,0.5198855965604129,0.09244829277811265,0.453011729481489,0.9802316719125304,-0.6527811838190744,1.4826866442272373
1784115105855604480,2.096663236618042,-3.067598342895508,0.5179387927055359,0.21604759991168976,-0.33635658025741577,-0.8165431022644043,-0.46917128562927246,0.09183448553085327,-0.1013188362121582,-0.008932352066040039,0.7260931621277978,0.5078084747298004,0.08686141143996573,0.4553838213350617,0.9553971706135178,-0.6219892274967018,1.4500909732020253
1784115105865524224,2.1065831184387207,-2.8725056648254395,0.31889504194259644,0.16877643764019012,-0.3367065191268921,-0.8014065623283386,-0.4943442642688751,0.2977508306503296,-0.3063815236091614,-0.11675494909286499,0.7324504075026833,0.49623211316516824,0.08112679230183491,0.45900820937686265,0.9296431525907575,-0.5979404049015323,1.4262922263285491
1784115105875444480,2.1165032386779785,-2.8679826259613037,-0.08749641478061676,0.31431683897972107,-0.3365737199783325,-0.7869656085968018,-0.5171104073524475,0.1545211374759674,-0.37233608961105347,-0.09856635332107544,0.7864093778213754,0.49097510920502846,0.01970342187665011,0.3743200290180872,0.9058754902712017,-0.5769893671300345,1.1753915549311507
1784115105885364224,2.1264231204986572,-2.8173987865448,0.3789118826389313,0.32638975977897644,-0.33784863352775574,-0.7711255550384521,-0.5396513342857361,0.34251782298088074,-0.3724443316459656,-0.02132272720336914,0.7925914691495739,0.47954378528854735,0.014562943471952666,0.37633015351867,0.8806071389717894,-0.5593538965986133,1.1555859520526768
1784115105895284480,2.136343240737915,-2.6583831310272217,0.3395034968852997,0.2373698651790619,-0.3365420997142792,-0.7557031512260437,-0.5618293285369873,0.20939061045646667,-0.2859686017036438,0.0790717601776123,0.7986570208764913,0.46793816946377126,0.010917705051817564,0.3782348978847619,0.8567270659543768,-0.5396921463157053,1.135869149338775
1784115105905204224,2.1462631225585938,-2.8225815296173096,0.0127793587744236,0.41348618268966675,-0.33779338002204895,-0.7391380071640015,-0.5827269554138184,0.24665263295173645,-0.22572100162506104,-0.01956796646118164,0.8183643675468515,0.456615520936719,-0.011780924779645636,0.34877395079131035,0.8317896567096129,-0.5253420211122231,1.0421483631871071
1784115105915124480,2.1561832427978516,-2.5953633785247803,0.18808114528656006,0.22564147412776947,-0.33903443813323975,-0.7222466468811035,-0.6028395891189575,0.16886842250823975,-0.21537542343139648,0.07714378833770752,0.8307834646649702,0.4448958406994797,-0.025454033091053214,0.3334947485633727,0.8070451387291604,-0.5123102924741723,0.986182873543941
1784115105925044224,2.1661031246185303,-2.59162974357605,0.31136757135391235,0.3076167106628418,-0.3385877311229706,-0.7060301899909973,-0.6219965219497681,0.14564037322998047,-0.1841217279434204,-0.03452807664871216,0.8406537363891857,0.4333396205792077,-0.03490730408236481,0.322954343776464,0.7838768204100193,-0.49849993700079065,0.9432180314470969
1784115105934964480,2.176023244857788,-2.7564504146575928,-0.11490703374147415,0.5784428715705872,-0.33982396125793457,-0.688020646572113,-0.6412076950073242,0.20782017707824707,-0.22593504190444946,-0.004788398742675781,0.8487722902417394,0.4213582255062063,-0.04305114002332362,0.31652725896909606,0.7587579804214547,-0.4873389547521188,0.9114903684055373
1784115105944884224,2.185943126678467,-3.0595285892486572,0.6159665584564209,-0.3637581765651703,-0.34003373980522156,-0.6684732437133789,-0.661453366279602,0.18534013628959656,-0.3337697982788086,0.04666149616241455,0.8565606295911423,0.40838189439427297,-0.049975523599459254,0.3114971684982728,0.732154059938159,-0.4748406441531664,0.8825875726560638
1784115105954804480,2.1958632469177246,-2.881481409072876,0.38113275170326233,0.17113345861434937,-0.33536234498023987,-0.6495169401168823,-0.6823927164077759,0.04649820923805237,-0.21153652667999268,0.15741407871246338,0.8630340069734507,0.3950699137068762,-0.052186141994558996,0.3104330530349012,0.7069489419365067,-0.45678476006525787,0.8616939263928138
1784115105964724224,2.2057831287384033,-2.7990705966949463,0.3577490448951721,0.5648565292358398,-0.3368711471557617,-0.6287466287612915,-0.7008534073829651,0.3302335739135742,-0.2305063009262085,-0.011808335781097412,0.8694107547270306,0.3822930542139848,-0.05852622024413219,0.3074924974669147,0.6799403469582052,-0.44805502542404013,0.8407339842765826
1784115105974644480,2.215703248977661,-2.732003927230835,0.1655186116695404,-0.17559604346752167,-0.3360035717487335,-0.6087343096733093,-0.7187100648880005,0.13936355710029602,-0.044128239154815674,0.02611362934112549,0.8744806610397686,0.3698660230219303,-0.06200077373050921,0.30763384095864793,0.6544642698987115,-0.4373187994041168,0.8271059216468731
1784115105984563456,2.2256221771240234,-1.8868985176086426,0.007339662406593561,-0.0995546281337738,-0.3338649570941925,-0.5926589369773865,-0.7330003976821899,0.2215297520160675,0.08940881490707397,-0.04727303981781006,0.8789688610510084,0.35963232090151964,-0.06453215080807784,0.30645391204843503,0.6343560467447428,-0.4273994220104892,0.8131796866508664
1784115105994483456,2.2355422973632812,-1.4832156896591187,0.11630316078662872,-0.08967643231153488,-0.33365896344184875,-0.5810241103172302,-0.7423495054244995,0.21624261140823364,0.15325921773910522,-0.1336270570755005,0.882030326801727,0.3525934474461688,-0.0671052462319584,0.3052825294736931,0.6199864208878405,-0.4224076401211031,0.8035551948334735
1784115106004403456,2.24546217918396,-0.7937931418418884,0.17012560367584229,0.08909954130649567,-0.3324688673019409,-0.5730940699577332,-0.7490177154541016,0.1671704351902008,0.12082362174987793,-0.09979814291000366,0.8840100664618923,0.34764052783921545,-0.0680969272739516,0.305016395158377,0.6102765278307795,-0.4177471617660973,0.7978232774231377
1784115106014323456,2.2553822994232178,-0.7085205912590027,-0.2467198222875595,-0.03774069622159004,-0.33220595121383667,-0.5678600072860718,-0.7531096339225769,0.18749159574508667,0.0013622045516967773,-0.08331608772277832,0.8851466979963645,0.344523132093881,-0.06891285120294917,0.3050738552594277,0.6039036775561303,-0.4154384135923318,0.7949224947498109
1784115106024243456,2.2653021812438965,-1.1453574895858765,-0.10380249470472336,-0.15859808027744293,-0.3324911296367645,-0.5614635348320007,-0.7577653527259827,0.10241910815238953,-0.03448373079299927,0.050337374210357666,0.8869099115872141,0.34075476684532,-0.07073551691882318,0.3037654735019021,0.5961533719113419,-0.41348302180946717,0.7886510217925474
1784115106034163456,2.2752223014831543,-1.2000491619110107,-0.209415465593338,-0.22144414484500885,-0.33234676718711853,-0.5533438324928284,-0.7637775540351868,0.39863094687461853,-0.17927640676498413,0.09103286266326904,0.8891268298189282,0.3358913573290999,-0.07272005805646252,0.30222878055473973,0.5863733581157494,-0.41042413571361575,0.7808326727301628
1784115106044083456,2.285142183303833,-1.0580437183380127,-0.14782899618148804,0.060830749571323395,-0.33218851685523987,-0.5448803901672363,-0.7699066400527954,0.25642862915992737,-0.37055546045303345,0.06350100040435791,0.8930971448505257,0.3304121922119294,-0.07664507362776418,0.2955180162909236,0.5762464399173411,-0.4073346013310599,0.7613687474296823
1784115106054003456,2.295062303543091,-1.4599241018295288,-0.033205218613147736,0.10102291405200958,-0.33384111523628235,-0.5354976654052734,-0.7757527828216553,0.21166399121284485,-0.3274478316307068,0.06550192832946777,0.8964491495367234,0.3249043025835673,-0.08099876177651943,0.29026789098794653,0.5650969447866243,-0.4063889478948868,0.7457773154234026
1784115106063923456,2.3049821853637695,-1.4289190769195557,-0.003323177807033062,-0.044307053089141846,-0.33327311277389526,-0.5241241455078125,-0.783723771572113,0.15854474902153015,-0.2406768798828125,0.21010011434555054,0.9001604542935128,0.31786420229550505,-0.0842642192186829,0.28561015052770733,0.5516863465234276,-0.40207652765222085,0.7297241891791427
1784115106073843456,2.3149023056030273,-1.4923079013824463,0.13637132942676544,0.22245487570762634,-0.33343932032585144,-0.512333333492279,-0.7914119362831116,0.10376405715942383,-0.30062443017959595,0.1378779411315918,0.9036661684469001,0.31079021090487524,-0.08776952897252883,0.2812357351322708,0.5378996169899869,-0.3987513210183989,0.7147019897149136
1784115106083763456,2.324822187423706,-1.1295230388641357,0.014530844986438751,0.31142333149909973,-0.3338947296142578,-0.5016549825668335,-0.7980329394340515,0.3483600914478302,-0.2748953104019165,0.11118906736373901,0.9060152801628096,0.3046941332278488,-0.09024972247062815,0.27955819684419625,0.525510840303291,-0.39626474007914814,0.7064761225744393
1784115106093683456,2.334742307662964,-1.8196094036102295,0.015120468102395535,-0.13435624539852142,-0.33424443006515503,-0.48957476019859314,-0.8053553104400635,0.2827918231487274,-0.19481244683265686,0.24990487098693848,0.9090554907185961,0.2976558639363249,-0.09339870275195129,0.2762170281677975,0.5116020162138203,-0.39339344182279523,0.6941092130010065
1784115106103603456,2.3446621894836426,-1.4763007164001465,-0.0048331525176763535,0.5233503580093384,-0.3344561457633972,-0.47581538558006287,-0.8134732842445374,0.2663256525993347,-0.18083137273788452,0.19701820611953735,0.9113083314821471,0.2900354396023213,-0.09561794265943462,0.2761408755082105,0.4958908471260267,-0.3900777487142931,0.6883808649019767
1784115106113523456,2.3545823097229004,-1.8373630046844482,-0.12019330263137817,0.25995489954948425,-0.3369508385658264,-0.4617569148540497,-0.8205148577690125,0.3005128502845764,-0.18820646405220032,0.04570406675338745,0.9129359574397778,0.2828520280504917,-0.09867774750163348,0.27713769892354406,0.4799749163533569,-0.3896602574754467,0.6859543197198996
1784115106123443456,2.364502191543579,-2.1450612545013428,-0.1141824722290039,0.1361001431941986,-0.338072270154953,-0.4444693624973297,-0.829550564289093,0.0916580855846405,-0.03718957304954529,0.18756753206253052,0.9155227411473781,0.27355628703388873,-0.10193954380086798,0.27675535215779795,0.46058182198831465,-0.38698656978982426,0.6789308522518074
1784115106133363456,2.374422311782837,-1.599608302116394,0.17392335832118988,0.45035871863365173,-0.3393464982509613,-0.4285062253475189,-0.8373926281929016,0.1917329728603363,-0.04877343773841858,-0.01937311887741089,0.9182601801786199,0.2648971023654847,-0.10551402629294088,0.2747629637532057,0.4428388823082169,-0.38501697265462,0.669186271089716
1784115106143282432,2.384341239929199,-1.7911038398742676,-0.18934623897075653,0.4257151186466217,-0.34065836668014526,-0.41371339559555054,-0.8442707657814026,0.26695844531059265,-0.16534239053726196,-0.030652940273284912,0.9203195026199482,0.25708442979696394,-0.10849982831454492,0.2741304920633188,0.42652914171857953,-0.38351500579491254,0.6630297922772409
1784115106153202176,2.394261121749878,-1.6341336965560913,0.013005005195736885,0.3304018974304199,-0.34237608313560486,-0.3972702622413635,-0.8514428734779358,0.19746336340904236,-0.09079736471176147,0.05171447992324829,0.9225921216493896,0.2484533786080252,-0.11202448479739531,0.2730296405047922,0.40854037327691445,-0.3823264407830624,0.6555899619556416
1784115106163122432,2.4041812419891357,-1.328475832939148,-0.05438278615474701,0.15683391690254211,-0.34282347559928894,-0.384779155254364,-0.8569813966751099,0.12497374415397644,-0.06840687990188599,-0.13754069805145264,0.9244528606502755,0.241731597763795,-0.11434661912538957,0.27180424435344713,0.3949685293470141,-0.3805374788537172,0.6489531958035311
1784115106173042176,2.4141011238098145,-1.3435485363006592,0.004372672643512487,0.45889896154403687,-0.34369906783103943,-0.3723730146884918,-0.8620958924293518,0.10477694869041443,-0.0010553300380706787,-0.10247325897216797,0.9262139212034459,0.23514961246558252,-0.11686200044234152,0.27051000048100576,0.38156460664088004,-0.37936661458054527,0.6424381569957476
1784115106182962432,2.4240212440490723,-1.2363280057907104,0.19142861664295197,0.49578577280044556,-0.3441205322742462,-0.35992729663848877,-0.8671985864639282,0.18834355473518372,-0.16816413402557373,-0.13731801509857178,0.9275498180296806,0.22867743513218214,-0.11877433382899742,0.2706482790574068,0.368189957713852,-0.3777607927011943,0.6389713810109418
1784115106192882176,2.433941125869751,-1.2856719493865967,0.14313219487667084,0.41677403450012207,-0.3441506028175354,-0.34798458218574524,-0.8720476627349854,0.1351051926612854,-0.20674866437911987,-0.17728400230407715,0.9289449822008964,0.22237525006750977,-0.12052149214869608,0.2703424472799779,0.35542047900260076,-0.3758828499479345,0.634687940753862
1784115106202802432,2.443861246109009,-1.6985044479370117,-0.07558953762054443,0.43653133511543274,-0.3451941907405853,-0.3334965407848358,-0.8772804737091064,0.17464670538902283,-0.19546467065811157,-0.15514445304870605,0.930449653454007,0.21494206939953606,-0.1231246034725494,0.27000696679728337,0.34001002848756867,-0.37487493670999644,0.6299580989396898
1784115106212722176,2.4537811279296875,-1.3817414045333862,-0.019937194883823395,0.5731579065322876,-0.3470080494880676,-0.3183698058128357,-0.8821712136268616,0.2884448170661926,-0.2127581238746643,-0.16018718481063843,0.9317569035550987,0.20739073169591468,-0.12610895294416763,0.2700272100237294,0.3240093029533401,-0.3747663976431816,0.6261118601902023
1784115106222642432,2.4637012481689453,-1.3503893613815308,-0.25183647871017456,0.4428589940071106,-0.3495657742023468,-0.30486106872558594,-0.8859252333641052,0.2655051052570343,-0.13370704650878906,-0.18698126077651978,0.9326549289611267,0.20088471264565708,-0.12916161881688748,0.2704021624251932,0.3097925546843516,-0.37582269954740916,0.6237475568771245
1784115106232562176,2.473621129989624,-0.803503155708313,0.023552492260932922,0.4927562475204468,-0.35174864530563354,-0.2939682602882385,-0.888738214969635,0.21313783526420593,-0.11099997162818909,-0.07972186803817749,0.9334237465614145,0.19562916814024842,-0.1317578637101845,0.27035030220601464,0.29837591043675393,-0.3768669030870774,0.6211470036611999
1784115106242482432,2.483541250228882,-0.8224008083343506,-0.12734602391719818,0.6032742261886597,-0.35295912623405457,-0.2852293848991394,-0.8911027312278748,0.16680189967155457,-0.2226136326789856,-0.08039385080337524,0.9337642625760106,0.1914838370569302,-0.13335135842714815,0.2713588277834927,0.2892457529265514,-0.3771333341740977,0.6212069185697484
1784115106252402432,2.4934611320495605,-0.907316267490387,-0.27895843982696533,0.527577817440033,-0.3567686676979065,-0.27570435404777527,-0.892582356929779,0.134982168674469,-0.19609740376472473,-0.06020694971084595,0.9340168731454354,0.18731067162518825,-0.1364681115068297,0.27185216496992914,0.2793223776388788,-0.38025111267284684,0.6205589666428253
1784115106262322432,2.5033812522888184,-0.6227251887321472,0.0324501134455204,0.49156248569488525,-0.35896921157836914,-0.2673277258872986,-0.8942465782165527,0.20143750309944153,-0.22333389520645142,-0.07181787490844727,0.934337648857271,0.1834579211996011,-0.13863582446824702,0.2722800909419402,0.2706187675321415,-0.381730637499498,0.6197220425435417
1784115106272242432,2.513301134109497,-0.693114697933197,-0.1937856823205948,0.5823110342025757,-0.359825074672699,-0.26020464301109314,-0.896001935005188,0.20076745748519897,-0.22136273980140686,-0.1540926694869995,0.9345364495167813,0.18010414360830126,-0.13986255306652826,0.27320797546406533,0.2632341414995716,-0.3818759980306723,0.6200060377823843
1784115106282162432,2.523221254348755,-0.9495496153831482,-0.28256553411483765,0.8954818248748779,-0.363972008228302,-0.25027957558631897,-0.8971535563468933,0.3068431317806244,-0.26690182089805603,-0.05261451005935669,0.934386929514984,0.17598264901185284,-0.143015118475627,0.27476887106911874,0.2529690033429374,-0.38540744869152227,0.621618146798758
1784115106292082432,2.5331411361694336,-1.0663644075393677,0.13618457317352295,0.8174818158149719,-0.36672642827033997,-0.23844945430755615,-0.8992516994476318,0.2936367988586426,-0.30819666385650635,0.040059804916381836,0.9343897931304761,0.17073239710710436,-0.1456866742435884,0.27666141596362737,0.24076893851493925,-0.38722341852030967,0.6231550309839073
1784115106302002432,2.5430612564086914,-1.136833906173706,-0.2587810456752777,0.9231047630310059,-0.3690299987792969,-0.22603730857372284,-0.901512086391449,0.18307113647460938,-0.29010647535324097,0.037498414516448975,0.9343260567333229,0.16519420077863523,-0.14817166247287997,0.27891021962096607,0.22800777572455225,-0.38853686984836633,0.6252357243488695
1784115106311922432,2.55298113822937,-1.4698712825775146,-0.12409620732069016,0.5783843994140625,-0.37236618995666504,-0.2116115838289261,-0.9036392569541931,0.16162708401679993,-0.18291965126991272,0.06609964370727539,0.9345195875703637,0.1586851815453799,-0.15165545296398258,0.2801654607869255,0.21322358912769898,-0.39087142013955306,0.624904254588836
1784115106321841408,2.5629003047943115,-1.1432734727859497,-0.001077486202120781,0.6888551712036133,-0.37358081340789795,-0.19744601845741272,-0.9063401222229004,0.11935412883758545,-0.22331510484218597,0.04205179214477539,0.9349576500433541,0.15192563413148377,-0.15410558436814722,0.2811126119358302,0.19875196710979787,-0.3909673000092557,0.6236208576026292
1784115106331761408,2.5728201866149902,-1.2187069654464722,0.09022100269794464,0.7760183215141296,-0.3743740916252136,-0.184768408536911,-0.9086829423904419,0.23767060041427612,-0.23709134757518768,-0.0991142988204956,0.9350309766950884,0.1460126792027713,-0.15600906777131898,0.28294620772243495,0.18583620761382008,-0.3908051245209486,0.6245765007246891
1784115106341681408,2.582740306854248,-2.0939128398895264,-0.03761183097958565,0.4810643196105957,-0.37526893615722656,-0.16771899163722992,-0.9116159081459045,0.13942909240722656,-0.01234997808933258,-0.09380096197128296,0.9355865412057203,0.13777847995484244,-0.1587738449646826,0.28370032903228687,0.16851543539455616,-0.39051107744659114,0.6222438883648572
1784115106351601408,2.5926601886749268,-2.4315826892852783,-0.043917130678892136,0.533560037612915,-0.3766162693500519,-0.1450011134147644,-0.9149507284164429,0.05726507306098938,0.1733824759721756,-0.19430220127105713,0.9366509670814245,0.12660652609629067,-0.1627741382101737,0.2831258409076911,0.1455141051711729,-0.3904872767358131,0.6159107788364646
1784115106361521408,2.6025803089141846,-1.9473671913146973,-0.14640755951404572,0.32170483469963074,-0.37760400772094727,-0.12364086508750916,-0.9176754355430603,0.10053494572639465,0.07025037705898285,-0.3980746865272522,0.9375998502303835,0.11605580229687557,-0.1664131800971705,0.2823903085522929,0.12395807178562507,-0.3903625958071908,0.6096223321672548
1784115106371441408,2.6125001907348633,-1.584179162979126,-0.17705762386322021,0.3721799850463867,-0.3789462149143219,-0.10641079396009445,-0.9192804098129272,0.1289614737033844,0.019481465220451355,-0.42785704135894775,0.9383103847402888,0.10759270489329859,-0.16965729646122407,0.2814494660804569,0.10661264331584501,-0.39099668858608383,0.6039596990670607
1784115106381361408,2.622420310974121,-1.2659090757369995,-0.3430444598197937,0.08149674534797668,-0.3814873695373535,-0.09268993139266968,-0.919715166091919,0.20314264297485352,-0.01630360633134842,-0.39650797843933105,0.938769028023189,0.1010290050837767,-0.1730189449157565,0.2803041856111982,0.09282317175557143,-0.39318979965537665,0.5988200246033921
1784115106391281408,2.6323401927948,-0.8590437769889832,-0.2782313823699951,0.13042379915714264,-0.3840676248073578,-0.08277931809425354,-0.9195866584777832,0.1509591042995453,0.016754530370235443,-0.3563990592956543,0.9392136793171139,0.0962630873849406,-0.1758979204605829,0.27869544402572705,0.08287415131109777,-0.3956307870515542,0.5935334567071286
1784115106401201408,2.6422603130340576,-1.175972819328308,-0.4431389272212982,0.1928507685661316,-0.3871690332889557,-0.07370611280202866,-0.9190579652786255,0.2416154444217682,-0.06536249816417694,-0.337091326713562,0.9393520493663091,0.09211464660081992,-0.17884603550903233,0.27775301612676445,0.07377301208973748,-0.3987047274895255,0.5898994609645184
1784115106411121408,2.6521801948547363,-1.083326816558838,-0.44659918546676636,0.13432061672210693,-0.3919305205345154,-0.06238352879881859,-0.9178773164749146,0.2660607695579529,-0.09252370893955231,-0.18507373332977295,0.9395284463811185,0.0869809392030929,-0.18301817685614544,0.27608898042779983,0.062424063725432445,-0.4035605941020582,0.584400706469567
1784115106421041408,2.662100315093994,-0.7987774610519409,-0.567331850528717,0.18512077629566193,-0.39667809009552,-0.05400247499346733,-0.9163679480552673,0.2789870500564575,-0.16616658866405487,-0.27619796991348267,0.9394544392842588,0.08339110752273587,-0.18671354008210123,0.27497153040009364,0.054028758708764724,-0.40852677078688576,0.5806738285077718
1784115106430961408,2.672020196914673,-0.8496214747428894,-0.5533468127250671,0.27641528844833374,-0.40152105689048767,-0.045532677322626114,-0.9147171974182129,0.18788278102874756,-0.059081580489873886,-0.15548843145370483,0.9391504721299903,0.07989850680084545,-0.19041432500397446,0.27450866424700393,0.04554842468945607,-0.41363229131011675,0.5783039113279241
1784115106440881152,2.6819400787353516,-0.786830723285675,-0.7764987349510193,0.33038121461868286,-0.40700724720954895,-0.036791685968637466,-0.9126836657524109,0.13216593861579895,-0.05408966913819313,-0.1288049817085266,0.938747238683498,0.07637047474520499,-0.19448833483815559,0.2740356061001598,0.03679999257235483,-0.41947713989084584,0.5758827388965704
1784115106450801408,2.6918601989746094,-0.7588605880737305,-0.7243926525115967,0.3131633400917053,-0.4138755798339844,-0.02871260978281498,-0.909880518913269,0.22840499877929688,-0.12730850279331207,-0.14044296741485596,0.9380075282371504,0.0734805915841395,-0.19914903885027255,0.27401108053,0.028716556170348077,-0.4268948238611179,0.574648992352615
1784115106460721152,2.701780080795288,-0.4701652228832245,-0.3408324122428894,0.46978285908699036,-0.41808152198791504,-0.02148972451686859,-0.9081552624702454,0.09230637550354004,-0.10775221139192581,-0.09837543964385986,0.9375197382277922,0.0706157917047,-0.20232588764059228,0.2741064754550594,0.021491379564546654,-0.43143868855908,0.5736014263951873
1784115106470641408,2.711700201034546,-0.9520533084869385,-0.5759384036064148,0.36485645174980164,-0.4224526286125183,-0.014002887532114983,-0.9062768220901489,0.10102623701095581,-0.21864786744117737,-0.14097964763641357,0.9367762310407398,0.0678097904524574,-0.2055806739013768,0.2749341910910866,0.014003344946088988,-0.4361952728049586,0.5740503769185256
1784115106480561152,2.7216200828552246,-1.1987873315811157,-0.36193686723709106,0.2735796570777893,-0.426307737827301,-0.0025088039692491293,-0.9045747518539429,0.06250768899917603,-0.16216404736042023,-0.03284895420074463,0.9365035189410613,0.06263447401217365,-0.2092595469148643,0.2743148599652457,0.0025088066539463287,-0.4404085599930402,0.5704478927116178
1784115106490481408,2.7315402030944824,-1.063449501991272,-0.5381614565849304,0.42489299178123474,-0.4304482936859131,0.008690545335412025,-0.9025734066963196,0.21235445141792297,-0.37294837832450867,-0.20927351713180542,0.9360272257563248,0.057742000947553954,-0.2130238421720725,0.27411653642156875,-0.008690655066538443,-0.44500739672602824,0.567804344375863
1784115106500400384,2.7414591312408447,-1.289811372756958,-0.5761088132858276,0.2847285866737366,-0.4351103901863098,0.020553046837449074,-0.9001424908638,0.2867949604988098,-0.2753748297691345,-0.18631380796432495,0.9353650647803748,0.052661842628183596,-0.21715313967890654,0.2741593845108983,-0.02055449385980698,-0.4502629942125798,0.5655293091240029
1784115106510320384,2.7513792514801025,-1.0339635610580444,-0.28019750118255615,0.09800638258457184,-0.43872252106666565,0.03207053244113922,-0.8980501294136047,0.17102232575416565,0.003223031759262085,-0.11298197507858276,0.9351517050400286,0.04729610973617313,-0.22076686147660998,0.2729771316255958,-0.0320760339569953,-0.4544278602914696,0.5606140802353161
1784115106520240384,2.7612991333007812,-0.5941802263259888,-0.3274685740470886,-0.024853793904185295,-0.4408555328845978,0.03922160714864731,-0.8967207074165344,0.12846237421035767,0.1003047525882721,-0.17543810606002808,0.935089505079933,0.043877849950949815,-0.22296719385111705,0.271970594722371,-0.03923166960026826,-0.4569298663846686,0.5569588100354734
1784115106530160384,2.771219253540039,-0.22276107966899872,-0.40665632486343384,-0.13686394691467285,-0.44391506910324097,0.04236280545592308,-0.8950669169425964,0.11646145582199097,0.22611558437347412,-0.07395774126052856,0.9350781824329248,0.04245753253751652,-0.22508642020854452,0.2704850630401491,-0.042375485416773585,-0.46040829711395437,0.5532254526457421
1784115106540080384,2.7811391353607178,0.18899936974048615,-0.3281089663505554,-0.1612471491098404,-0.44722554087638855,0.041745468974113464,-0.8934465050697327,0.21120259165763855,0.11082716286182404,0.031355440616607666,0.9350149006557188,0.042970255433353054,-0.2267825211991635,0.2692031261902096,-0.041757603493692105,-0.4640972556855738,0.5507939273352647
1784115106550000384,2.7910592555999756,0.9864722490310669,-0.38440364599227905,-0.02939458377659321,-0.45038798451423645,0.03619204834103584,-0.8920990824699402,0.21283918619155884,-0.06571780145168304,0.11519783735275269,0.9347143281919209,0.046151494279310645,-0.22764114899396604,0.26899568679633035,-0.03619995426614614,-0.4675305869544588,0.5518031952804799
1784115106559920384,2.8009791374206543,1.4365427494049072,-0.2956976890563965,-0.18169663846492767,-0.45307499170303345,0.025115007534623146,-0.8911185264587402,0.12069281935691833,-0.061614029109478,0.09367895126342773,0.9343641600025985,0.05211033777151929,-0.2274318330974915,0.2693006310642622,-0.02511764941792479,-0.47037205147097194,0.5552068489727532
1784115106569840384,2.810899257659912,2.037710428237915,-0.35030075907707214,-0.32820644974708557,-0.45597827434539795,0.008166599087417126,-0.8899534344673157,0.09442126750946045,-0.0035126730799674988,0.06564313173294067,0.9339640079854874,0.06101085655635236,-0.22649714686681655,0.26960712062762643,-0.008166689733288915,-0.4734882002132246,0.5600894418562198
1784115106579760384,2.820819139480591,1.9830312728881836,-0.36071959137916565,-0.33381277322769165,-0.4588501751422882,-0.01121970172971487,-0.8884428143501282,0.10086369514465332,0.10980674624443054,0.08969098329544067,0.9335934626740909,0.071026742897369,-0.22524163803428562,0.26948947993979605,0.011219937304619374,-0.476733162679627,0.5647649580243425
1784115106589680384,2.8307392597198486,2.198772430419922,-0.35185444355010986,-0.17263267934322357,-0.46228834986686707,-0.030908042564988136,-0.8861908316612244,0.16948744654655457,0.019265582785010338,0.11939090490341187,0.932853426000436,0.0814516670334401,-0.22421019034358228,0.2699629536605728,0.03091296606820031,-0.4808233437683637,0.5709772320763565
1784115106599600384,2.8406591415405273,1.963470697402954,-0.05696479231119156,-0.2717580199241638,-0.46394482254981995,-0.05058297514915466,-0.884418785572052,0.15541210770606995,-0.13656607270240784,0.185749351978302,0.9321417755056567,0.09168714677824923,-0.22222527860973787,0.27077897296358794,0.05060456961536608,-0.4831145270485242,0.5778908113904825
1784115106609520384,2.850579261779785,1.225062370300293,-0.11626220494508743,-0.29677948355674744,-0.4640035331249237,-0.06612121313810349,-0.8833621740341187,0.024382561445236206,-0.11431396752595901,0.30648839473724365,0.93187945374611,0.09941028503143717,-0.22008297197892923,0.27070607444167416,0.06616948494920637,-0.4836585440274564,0.5817541620121959
1784115106619440384,2.860499143600464,0.5549279451370239,-0.05571816861629486,-0.2748996317386627,-0.4646516740322113,-0.07525158673524857,-0.8822901844978333,0.05303063988685608,-0.10439012199640274,0.373714804649353,0.9318569935498039,0.10385375871021814,-0.21924711292951962,0.2697917338640096,0.07532278929306872,-0.4847338818390668,0.582260240814927
1784115106629360384,2.8704192638397217,-0.03188680484890938,0.3329525887966156,-0.3180420398712158,-0.4629726707935333,-0.07899060100317001,-0.8828458189964294,0.026876509189605713,-0.12150988727807999,0.4274625778198242,0.9324472385549744,0.10508191421204804,-0.21802492889605815,0.26826308439352986,0.07907297700239009,-0.48298392126697326,0.5797502597858566
1784115106639280384,2.8803391456604004,-0.2982291877269745,0.3553593158721924,-0.23133745789527893,-0.45958012342453003,-0.07901107519865036,-0.8846148252487183,-0.01811152696609497,-0.15276993811130524,0.45993220806121826,0.9334598970160539,0.10409458134812985,-0.21646455603782755,0.2663834775627838,0.07909351148179712,-0.4791458544293732,0.5752959154721939
1784115106649200384,2.890259265899658,-0.7140631675720215,0.6111902594566345,-0.10727543383836746,-0.45518243312835693,-0.07552817463874817,-0.8871890902519226,0.04554501175880432,-0.13765235245227814,0.5110904574394226,0.9346202484815471,0.10125561546390684,-0.21483195356787296,0.26472533979324064,0.07560016659213284,-0.4740420273661224,0.5702984575879508
1784115106659120384,2.900179147720337,-0.5796002745628357,0.7958905100822449,-0.04968554154038429,-0.44868820905685425,-0.07014404982328415,-0.8909313678741455,0.07905930280685425,-0.10846006870269775,0.566514253616333,0.9359362911833957,0.09726843073684309,-0.21230443052351056,0.2636074544227402,0.07020169567937237,-0.46653704701087667,0.5657640821096356
1784115106669040384,2.9100992679595947,-0.8571628928184509,1.0202523469924927,-0.16023309528827667,-0.4400748610496521,-0.0648566484451294,-0.8956158757209778,0.0512351393699646,-0.0886925533413887,0.5447247624397278,0.9375626340899748,0.09296427171135999,-0.20868569780139654,0.2622676278704943,0.06490220401255481,-0.4567163007425449,0.5606121355005618
1784115106678959360,2.920018196105957,-1.2022851705551147,1.0294768810272217,-0.07540541887283325,-0.4304853677749634,-0.056171536445617676,-0.9008480310440063,0.07663401961326599,-0.06624974310398102,0.5653988122940063,0.939449120837086,0.08675658972525989,-0.20505922832544643,0.2604985565673552,0.056201119059104805,-0.44578478647011904,0.5537270726425199
1784115106688879360,2.9299380779266357,-0.8990474343299866,1.0705478191375732,0.0987490713596344,-0.420597642660141,-0.04688769206404686,-0.9060348868370056,0.179600328207016,-0.17538708448410034,0.4775986075401306,0.9411005537038218,0.0804165611819336,-0.20128522645550198,0.25951345678099796,0.04690488778020621,-0.4346144539968808,0.548494661856195
1784115106698799360,2.9398581981658936,-0.7882665991783142,1.0956264734268188,0.05871300399303436,-0.41032296419143677,-0.039529792964458466,-0.9110831022262573,0.16886791586875916,-0.19113731384277344,0.3808555006980896,0.9425876567003771,0.07510156355589008,-0.19702332195146152,0.25897903334320044,0.0395400968360297,-0.42316016457526723,0.5447677098841235
1784115106708719360,2.9497780799865723,-0.5670148730278015,1.0304608345031738,-0.05299355089664459,-0.3999347388744354,-0.03375040367245674,-0.9159219861030579,0.14482304453849792,-0.09182943403720856,0.35041600465774536,0.9441073095788404,0.07051041969043205,-0.19252863853575866,0.2581132884550299,0.03375681597793714,-0.41169439006266717,0.5407943195655723
1784115106718639360,2.95969820022583,0.34072571992874146,1.0238078832626343,0.046623051166534424,-0.38952261209487915,-0.03326436132192612,-0.920415997505188,0.12026602029800415,-0.00135783851146698,0.284185528755188,0.9453582006047465,0.06868291465052664,-0.18728227695005747,0.2578875973324444,0.03327049801847771,-0.40034740286242027,0.5393783751128527
1784115106728559360,2.969618082046509,1.2906291484832764,1.0815480947494507,0.022340882569551468,-0.3782367706298828,-0.04217752441763878,-0.9247475266456604,0.11512947082519531,0.044756267219781876,0.20616543292999268,0.9462799804228798,0.07157471360504591,-0.18028669284093093,0.2587043737246265,0.04219004051470918,-0.38825475080572763,0.5420352097832806
1784115106738479360,2.9795382022857666,1.8404247760772705,1.1545363664627075,-0.09771677851676941,-0.36421993374824524,-0.060172997415065765,-0.9293670058250427,0.08393123745918274,0.12894435226917267,0.2894133925437927,0.9472525359279438,0.07855079410565957,-0.17072276663150127,0.2596076707567531,0.06020936983980485,-0.3735050979241921,0.546371469435501
1784115106748399360,2.9894580841064453,1.6440541744232178,1.1257648468017578,-0.15694043040275574,-0.3502914011478424,-0.07985114306211472,-0.9332308173179626,0.050196826457977295,0.10699652880430222,0.40611594915390015,0.9479800361695285,0.08638803152238968,-0.16100220034749813,0.2606707199531267,0.07993624181298634,-0.3590805120955596,0.5512012180537715
1784115106758319360,2.999378204345703,1.784888744354248,1.274874210357666,-0.18712669610977173,-0.33834308385849,-0.09674923121929169,-0.9360361099243164,0.06737750768661499,-0.05351933091878891,0.4297189712524414,0.9487171059690443,0.09296668367073001,-0.1527715634994837,0.2606798418132151,0.09690080696402743,-0.3468507473905389,0.5532949062366144
1784115106768239360,3.009298086166382,1.252546787261963,1.2919960021972656,-0.22085057199001312,-0.3257649540901184,-0.11243312060832977,-0.9387416839599609,0.05797320604324341,-0.18792089819908142,0.35960960388183594,0.9492338899465598,0.09897025174906803,-0.14433999641401107,0.2613922621880623,0.11267135717863085,-0.33402023079937176,0.5564374575851057
1784115106778160128,3.019218921661377,0.8158300518989563,1.28086256980896,-0.3905218541622162,-0.3130103349685669,-0.1228167936205864,-0.9417752027511597,0.0959082841873169,-0.1057598665356636,0.46943938732147217,0.9502140116952412,0.10213019740083684,-0.13668142695329022,0.26073146046446216,0.12312766854683227,-0.32087612776113206,0.5555525506145135
1784115106788080128,3.0291390419006348,0.395303338766098,1.17649245262146,-0.3641938269138336,-0.3006766140460968,-0.13014943897724152,-0.9448040723800659,0.06869727373123169,-0.02291145920753479,0.3882702589035034,0.9513848993480488,0.10376694422297407,-0.1297320268079095,0.25936219289805246,0.1305197018558832,-0.30810771567871215,0.5525916256111041
1784115106798000128,3.0390589237213135,0.20896434783935547,1.176750659942627,-0.3471319079399109,-0.289083331823349,-0.13393737375736237,-0.9478879570960999,0.1776331663131714,0.10123781859874725,0.34032881259918213,0.9525197865518117,0.1038096872229412,-0.12361054236625953,0.25816642586976535,0.13434110144789443,-0.29601589492975183,0.5494124240533247
1784115106807920128,3.0489790439605713,0.4478805363178253,1.1766932010650635,-0.21745140850543976,-0.2770846486091614,-0.13772451877593994,-0.9509238004684448,0.13238555192947388,0.21607840061187744,0.2830160856246948,0.9536030111114089,0.10383517014060793,-0.1172875082527968,0.2571055880385626,0.13816366717726042,-0.28353423106755726,0.5464559242216789
1784115106817840128,3.05889892578125,0.9671983122825623,1.034073829650879,-0.24080516397953033,-0.2664772570133209,-0.14539742469787598,-0.9528113603591919,0.19070211052894592,0.2880213260650635,0.1879187822341919,0.9541787138181296,0.10608691696630174,-0.1110850739965961,0.25680469105777165,0.1459146490185196,-0.27270706102274084,0.5458695171857105
1784115106827760128,3.068819046020508,0.8719543814659119,0.921242892742157,-0.44686058163642883,-0.25650665163993835,-0.15507709980010986,-0.9540206789970398,0.15463897585868835,0.28439533710479736,0.2056991457939148,0.9548022346968907,0.10933709168394896,-0.10504793032524036,0.2556618817603427,0.15570549283103813,-0.26265744907194444,0.5438615003588829
1784115106837680128,3.0787389278411865,1.3002355098724365,0.9633238911628723,0.20275206863880157,-0.24724891781806946,-0.1654433012008667,-0.9547232389450073,0.22590187191963196,0.1348036527633667,0.20650851726531982,0.9549887744505485,0.11316498539075247,-0.0991567444593517,0.2556522292751091,0.1662074845471569,-0.25340719467161266,0.5443577211889754
1784115106847599104,3.088657855987549,0.9639765024185181,1.0429878234863281,0.14132092893123627,-0.23806191980838776,-0.17663317918777466,-0.9550535082817078,0.25483131408691406,-0.19551341235637665,0.03044724464416504,0.9545697248626949,0.1176016591756198,-0.0929681999194513,0.2575331641016766,0.1775647885400713,-0.24428726722615182,0.5488852501755314
1784115106857519104,3.0985779762268066,-0.09389831125736237,1.1795027256011963,-0.2510875165462494,-0.22717009484767914,-0.18120741844177246,-0.9568477272987366,0.06060515344142914,-0.42326948046684265,0.13439905643463135,0.9549736000114056,0.11835752229996463,-0.08699208712393465,0.25777742528262887,0.18221406410307386,-0.23309941678939552,0.5486879569699654
1784115106867439104,3.1084978580474854,-1.377938985824585,1.344517707824707,-0.2697954475879669,-0.2144724279642105,-0.1749633550643921,-0.9609315395355225,0.06251014769077301,-0.6873871088027954,0.14939284324645996,0.9563834009374061,0.11338794284687986,-0.0817154329316027,0.25650811873879353,0.17586854270173033,-0.21959308957319257,0.5435158183152655
1784115106877359104,3.118417978286743,-3.0864369869232178,1.2890753746032715,-0.20621073246002197,-0.20159399509429932,-0.15441636741161346,-0.9672204852104187,0.09166967868804932,-0.6425501704216003,0.1142236590385437,0.9584904991605432,0.10134405255073911,-0.07822496930204997,0.25476684770931607,0.1550367062143252,-0.20548429341691535,0.5356031367027371
1784115106887279104,3.128337860107422,-4.274291038513184,0.8340428471565247,0.013693931512534618,-0.19080603122711182,-0.11864951997995377,-0.9744307994842529,0.06301367282867432,-0.22160622477531433,0.13946986198425293,0.9608606678498858,0.0821816251374281,-0.07765815240639659,0.25290753634559937,0.11892968245950644,-0.1933661959636122,0.5262916863384943
1784115106897199104,3.1382579803466797,-4.367125988006592,0.7071928977966309,-0.3214922547340393,-0.1837121993303299,-0.07661619037389755,-0.9799897074699402,-0.046222493052482605,0.16458311676979065,0.031045615673065186,0.9629105265025945,0.060511424490241154,-0.07964624608539109,0.2505955328017292,0.07669134366339977,-0.1853125970451717,0.5163304579333273
1784115106907119104,3.1481778621673584,-4.0950422286987305,1.0330857038497925,-0.7084268927574158,-0.17545296251773834,-0.03610125184059143,-0.98382568359375,-0.29505181312561035,0.41419878602027893,-0.24322509765625,0.9651459726607118,0.03930043143929957,-0.08088657779303599,0.2457765873372126,0.03610909855099198,-0.1764820980903226,0.5018998242908347
1784115106917039104,3.158097982406616,-3.593162775039673,1.008375644683838,-0.4524385631084442,-0.16458193957805634,0.00021144603670109063,-0.986363410949707,-0.23240597546100616,0.5322898030281067,-0.47147655487060547,0.9669501960245934,0.01988389393222843,-0.0801432180282861,0.24122388183207807,-0.00021144604117010507,-0.16533416136993578,0.488939705964651
1784115106926959104,3.168017864227295,-3.5474472045898438,1.0367721319198608,-0.5254946947097778,-0.15435495972633362,0.03424663469195366,-0.9874217510223389,-0.09068593382835388,0.37041646242141724,-0.32372021675109863,0.9681936231249982,0.0017466162488992641,-0.07928476389334718,0.2373013312346953,-0.034253332402162,-0.15506624561017374,0.4780561249437346
1784115106936879104,3.1779379844665527,-3.896383047103882,1.0206342935562134,-0.7803311944007874,-0.14459648728370667,0.06880047172307968,-0.9870958924293518,0.005100637674331665,0.17366167902946472,-0.2993726134300232,0.9693337230542005,-0.016661555774159235,-0.07857756774647981,0.23224986834266328,-0.06885486915503805,-0.1454522594920832,0.46531019201431206
1784115106946799104,3.1878578662872314,-4.96576452255249,0.6165236234664917,-0.5650066137313843,-0.13671556115150452,0.11146659404039383,-0.9843190908432007,0.10589280724525452,0.18224982917308807,-0.06856787204742432,0.9699436930537607,-0.03886983042449767,-0.07955875513138982,0.22664696529908246,-0.11169871982953408,-0.1380105923205714,0.45137479554641563
1784115106956719104,3.1977779865264893,-4.582963943481445,0.5325895547866821,-0.43384063243865967,-0.13166199624538422,0.15814721584320068,-0.9785982966423035,0.3111053705215454,0.11065161228179932,-0.03482943773269653,0.9695756672576746,-0.06273383536001186,-0.08225162663144055,0.22186075438504557,-0.15881397280055456,-0.1337383270179478,0.43924166385165353
1784115106966639104,3.207697868347168,-3.8330538272857666,0.6283296942710876,-0.46917277574539185,-0.12645965814590454,0.19740846753120422,-0.9721305966377258,0.26763397455215454,-0.12067203223705292,-0.19634169340133667,0.9689394758972881,-0.08305562325593177,-0.08388371414481195,0.2173051523328991,-0.19871366281740133,-0.12935863994484179,0.4283281930075516
1784115106976559104,3.217617988586426,-4.593133449554443,0.7462400197982788,-0.30757856369018555,-0.12044424563646317,0.23649492859840393,-0.9641386270523071,0.31281182169914246,-0.12763874232769012,-0.0029633641242980957,0.9678435464412315,-0.10347610661728433,-0.08499043643579117,0.21295082341346266,-0.23875685677625647,-0.12428035801535789,0.418224086624236
1784115106986479104,3.2275378704071045,-5.418894290924072,0.428144633769989,-0.15917818248271942,-0.11535750329494476,0.28445935249328613,-0.9517223834991455,0.40518292784690857,0.02161666750907898,0.11950802803039551,0.9655240262495,-0.12837797336974643,-0.08750940765035442,0.20886513401931836,-0.2884424475671488,-0.12062078488239217,0.4085424017282751
1784115106996399104,3.2374579906463623,-5.315975666046143,0.6344679594039917,-0.14910410344600677,-0.11102776974439621,0.334561288356781,-0.9358106851577759,0.4904070496559143,0.124056875705719,-0.03307664394378662,0.9622265168653975,-0.15454138228482664,-0.09061803931967742,0.20500138312539679,-0.34113964264868807,-0.11809137777725193,0.3994578101537419
1784115107006319104,3.247377872467041,-5.30780029296875,0.6252344846725464,-0.08354905992746353,-0.10512867569923401,0.3831945061683655,-0.9176654815673828,0.449519544839859,0.29051151871681213,-0.1433238983154297,0.9583274710606202,-0.18047171737086307,-0.09272117381649099,0.20110026018024477,-0.39325233521293124,-0.11406373694420036,0.3909424114463327
1784115107016239104,3.257297992706299,-4.924281597137451,0.5085514187812805,0.07048553973436356,-0.10003620386123657,0.4295535087585449,-0.8974834680557251,0.4095454812049866,0.4297146797180176,-0.1514667272567749,0.9537574616036203,-0.20548894777340332,-0.09503981439062971,0.1977080970462225,-0.4439982963880423,-0.11100481473574517,0.38371759467874555
1784115107026159104,3.2672178745269775,-4.273337364196777,0.43218764662742615,0.01533227413892746,-0.09558789432048798,0.4697446823120117,-0.8776120543479919,0.31989210844039917,0.3572816848754883,-0.36222559213638306,0.9491080000837041,-0.2275256485594553,-0.09708789226099893,0.19493603494255543,-0.4890015449816299,-0.10849050231479578,0.3780506843743901
1784115107036079104,3.2771379947662354,-4.1941375732421875,0.40497687458992004,0.06286187469959259,-0.09136361628770828,0.506177544593811,-0.8575762510299683,0.17341011762619019,0.23472821712493896,-0.28974735736846924,0.9443856443908222,-0.24788791665378393,-0.09881022755305775,0.1921560001866084,-0.5307467901732839,-0.10613667614238738,0.37259221627205324
1784115107045998080,3.2870569229125977,-3.7987515926361084,0.45319339632987976,-0.13792555034160614,-0.08774050325155258,0.5394780039787292,-0.8374156951904297,0.15985354781150818,0.06588387489318848,-0.2499256134033203,0.9396413932984924,-0.2668524051375906,-0.10040887616112906,0.18916106374361147,-0.5698170705041261,-0.1043944280962001,0.3667134486574474
1784115107055918336,3.2969770431518555,-3.7643251419067383,0.3878632187843323,-0.3779161870479584,-0.08492489159107208,0.5703411102294922,-0.81700599193573,0.12378904223442078,0.04892158508300781,-0.24468529224395752,0.9350011200774471,-0.2848349654972481,-0.1018138128242544,0.18513732105907288,-0.6069210539050676,-0.10357450923359388,0.3584994022363128
1784115107065838080,3.306896924972534,-3.3929574489593506,0.4805614650249481,-0.5179857015609741,-0.08323414623737335,0.5983797907829285,-0.7968774437904358,0.11546072363853455,0.16784024238586426,-0.21539056301116943,0.9305578589483473,-0.3015351051192827,-0.10313995977912153,0.18027959260063683,-0.6414773725954402,-0.1040729941267021,0.3481225909114022
1784115107075758336,3.316817045211792,-3.1486306190490723,0.4829528331756592,-0.6778146028518677,-0.08238726854324341,0.6232264041900635,-0.7776896357536316,0.1293995976448059,0.3295323848724365,-0.1586812138557434,0.9264487085626851,-0.3166976471049868,-0.10420067751965202,0.17475010790554318,-0.6728615822337237,-0.10554482830109455,0.3359244853160109
1784115107085678080,3.3267369270324707,-2.5231833457946777,0.4662412405014038,-0.6966783404350281,-0.08104604482650757,0.6441181302070618,-0.7606204152107239,0.12863819301128387,0.42501944303512573,-0.20228546857833862,0.9228447315032421,-0.3298260744464361,-0.10442483458272837,0.16931616166168031,-0.6998698460870703,-0.10615202954224168,0.3241356698154808
1784115107095598336,3.3366570472717285,-1.9665473699569702,0.4081380069255829,-0.5992833971977234,-0.07990647852420807,0.6598933935165405,-0.7470982074737549,0.13213731348514557,0.315890908241272,-0.3571956157684326,0.9200385715192899,-0.3399799436205388,-0.1042331297247113,0.1645545910271944,-0.7206768803644078,-0.10655072729151553,0.31378985901024714
1784115107105518080,3.3465769290924072,-1.7455774545669556,0.40306708216667175,-0.6460935473442078,-0.08041726797819138,0.672906219959259,-0.7353436946868896,0.15793190896511078,0.18091458082199097,-0.34017205238342285,0.9176651134927081,-0.34842962155663854,-0.10452254075578399,0.15988323279736033,-0.7381305712676166,-0.10892724932486846,0.30282640060371485
1784115107115438336,3.356497049331665,-1.5099732875823975,0.3422667384147644,-0.501861035823822,-0.08147887885570526,0.6841306090354919,-0.7247941493988037,0.14390257000923157,0.05431848764419556,-0.3554670810699463,0.9155601710090808,-0.35581143572411894,-0.10488634352246831,0.15539218885133757,-0.7534110196962309,-0.11194658638057048,0.291918245903314
1784115107125358080,3.3664169311523438,-1.290494441986084,0.3118896484375,-0.4719651937484741,-0.08223973959684372,0.6936414837837219,-0.7156102657318115,0.17583715915679932,-0.0407942533493042,-0.415233850479126,0.9136692085572481,-0.3621352306937949,-0.1051329529801298,0.1517026408578669,-0.7665322349670382,-0.11442056594085624,0.2828942618097329
1784115107135278336,3.3763370513916016,-1.180068850517273,0.3110584318637848,-0.5049543976783752,-0.08325621485710144,0.7018685340881348,-0.7074241638183594,0.06555600464344025,-0.0027413368225097656,-0.3901710510253906,0.9120421394228332,-0.3676973081829081,-0.10529290213178866,0.1479571784025514,-0.7780173717652452,-0.11715034952718265,0.2735851601213001
1784115107145198080,3.3862569332122803,-1.1125988960266113,0.3329589366912842,-0.5662878155708313,-0.08420835435390472,0.7094995975494385,-0.69965660572052,0.025217875838279724,0.07739615440368652,-0.3443344831466675,0.9105180024844886,-0.3729410258560013,-0.10529340242073193,0.14417121656086207,-0.7887878599275622,-0.11978054313794224,0.2641700983043013
1784115107155118336,3.396177053451538,-0.9999896287918091,0.3863557279109955,-0.6052436232566833,-0.08580883592367172,0.7162459492683411,-0.6925522685050964,-0.03410998731851578,0.13629311323165894,-0.32028037309646606,0.9092321107824077,-0.3776714899775779,-0.10530008347919612,0.13990412002481725,-0.7984078535989504,-0.12327406438230917,0.2532885136562416
1784115107165038080,3.406096935272217,-0.9138334393501282,0.4101087152957916,-0.5434939861297607,-0.08716876804828644,0.7223246097564697,-0.6860384941101074,0.001170225441455841,0.10395407676696777,-0.3034634590148926,0.9080750189277343,-0.38201655345974717,-0.10509096464770416,0.13571688525146203,-0.807157880507733,-0.12638381262527787,0.2426879716518209
1784115107174958336,3.4160170555114746,-0.5667943358421326,0.35969579219818115,-0.5524224042892456,-0.08845537155866623,0.7269144654273987,-0.6810073256492615,0.03213518112897873,0.010725915431976318,-0.3542404770851135,0.9072610036865904,-0.3853876646949117,-0.10475059364273284,0.13183723114362167,-0.8138180894476673,-0.1291658647457095,0.2328781984924988
1784115107184878080,3.4259369373321533,-0.24188470840454102,0.22089532017707825,-0.5588312745094299,-0.09064187854528427,0.729114830493927,-0.6783624291419983,0.03696146607398987,-0.041096031665802,-0.41480767726898193,0.9070378554333578,-0.38710617319356494,-0.10472624219183459,0.1283103415928957,-0.817027684210328,-0.13283186473750822,0.2234897139014418
1784115107194798336,3.435857057571411,0.07585850358009338,0.16423043608665466,-0.551931619644165,-0.09319350868463516,0.7292222380638123,-0.6779011487960815,0.038017719984054565,-0.046986520290374756,-0.36970627307891846,0.9073585608712316,-0.3873929464231227,-0.104767061482525,0.12510433326106785,-0.8171846445600336,-0.13661724957323482,0.21480285454103393
1784115107204718080,3.44577693939209,0.45667508244514465,0.14111846685409546,-0.5419328212738037,-0.09586617350578308,0.726881206035614,-0.6800392270088196,-0.012028723955154419,-0.08544754981994629,-0.3311302065849304,0.9083549214721183,-0.3860385394883055,-0.10466437194727211,0.12211037617595374,-0.8137697028163902,-0.14004867015201442,0.20682628288771623
1784115107214638336,3.4556970596313477,0.8611101508140564,0.13161638379096985,-0.6041315197944641,-0.09902898222208023,0.7218233346939087,-0.6849557161331177,-0.016480036079883575,-0.12233603000640869,-0.2691305875778198,0.9100960565845415,-0.38287458453688383,-0.1045428516064568,0.11917621853054902,-0.8064333057670126,-0.14358231458952816,0.19907933375489997
1784115107224558080,3.4656169414520264,1.0780704021453857,0.11110391467809677,-0.6282498836517334,-0.1026449128985405,0.7144771814346313,-0.6920883655548096,-0.02658175677061081,-0.07128876447677612,-0.21239155530929565,0.9124475822345455,-0.37823323202678033,-0.10438115407298605,0.11611849852625866,-0.7958765453045651,-0.1472385423593615,0.19117392018519697
1784115107234478336,3.475537061691284,1.2887418270111084,0.09757200628519058,-0.6393760442733765,-0.10634921491146088,0.7057091593742371,-0.7004743814468384,-0.016422979533672333,-0.043660879135131836,-0.16327983140945435,0.9150909884396012,-0.37268112588586205,-0.10426690265813195,0.11333843578164354,-0.7834235979745353,-0.15067387808861896,0.18411975424494278
1784115107244397056,3.4854559898376465,1.5148605108261108,0.04329758882522583,-0.6868553757667542,-0.11047285050153732,0.6950051784515381,-0.7104671001434326,-0.05247574299573898,-0.04383641481399536,-0.1705295443534851,0.9181655261544232,-0.3659379771925584,-0.10419134381050048,0.110479035032963,-0.7684271176732042,-0.1542579543015992,0.17702907266204237
1784115107254317056,3.495375871658325,1.4218552112579346,0.05151880159974098,-0.6079365611076355,-0.11482719331979752,0.6836660504341125,-0.7207048535346985,-0.05634590983390808,-0.11013394594192505,-0.11437809467315674,0.9212842609568141,-0.358858690698487,-0.10424969379550318,0.10764684740304718,-0.7527742594463698,-0.15799823961774997,0.17007846105827767
1784115107264237056,3.505295991897583,1.3658721446990967,0.02316119894385338,-0.5727745890617371,-0.11849858611822128,0.6729727387428284,-0.7301135659217834,-0.028382517397403717,-0.22224342823028564,-0.05829280614852905,0.9241177737310038,-0.3522556241331369,-0.10420750537619401,0.1051813342867646,-0.7382204936698175,-0.16089858474741403,0.16430439844623815
