time,seconds_elapsed,rotationRateX,rotationRateY,rotationRateZ,gravityX,gravityY,gravityZ,accelerationX,accelerationY,accelerationZ,quaternionW,quaternionX,quaternionY,quaternionZ,pitch,roll,yaw
1782664439612275712,0.16768884658813477,0.16542142629623413,0.08144379407167435,-0.3303011953830719,0.04493752866983414,0.6231623888015747,-0.7808003425598145,-0.015900056809186935,-0.04625815153121948,-0.015082776546478271,0.7604915864692113,-0.252025416580635,0.2146695251119075,-0.558616689596806,-0.6727797031989163,0.0574897391011477,-1.2469669729401727
1782664439622195968,0.17760896682739258,0.16644753515720367,0.14366307854652405,-0.3683972954750061,0.043173305690288544,0.6209524273872375,-0.7826583385467529,-0.016134709119796753,-0.008205294609069824,-0.023051440715789795,0.7597628151151581,-0.25107487447905724,0.2136170336410364,-0.5604369066542692,-0.6699572090096229,0.05510654226839464,-1.2519098128808155
1782664439632115968,0.1875288486480713,0.04082275927066803,0.17516933381557465,-0.3921372592449188,0.041070178151130676,0.6189188957214355,-0.7843804359436035,-0.012398924678564072,-0.03591108322143555,-0.004621028900146484,0.7588102891582253,-0.25024953730771754,0.2125675454572392,-0.5624919516709369,-0.667365574226483,0.052312256271877196,-1.2576582599322126
1782664439642035968,0.1974489688873291,-0.11432015895843506,0.1689653843641281,-0.3965594172477722,0.03880565986037254,0.6176130771636963,-0.7855241894721985,0.011884011328220367,-0.09815818071365356,-0.0015394091606140137,0.757670221565879,-0.24980893043380448,0.21173900940739893,-0.5645335061843689,-0.6657041740770481,0.04936084829325244,-1.263636661570617
1782664439651955968,0.2073688507080078,-0.22621047496795654,0.14131911098957062,-0.38900187611579895,0.03706226125359535,0.6161388158798218,-0.7867650985717773,0.02566663548350334,-0.12273061275482178,-0.007576942443847656,0.7566560174784586,-0.24917187587838704,0.2110232794184412,-0.566439947409565,-0.6638310298870215,0.047072349024869335,-1.268994383921623
1782664439661875968,0.21728897094726562,-0.2519099712371826,0.12875857949256897,-0.3821873962879181,0.035983551293611526,0.6140428781509399,-0.7884520292282104,0.02015351504087448,-0.09127670526504517,-0.01351940631866455,0.7558586287786887,-0.24808161289608907,0.21030812897037796,-0.5682462147200243,-0.661172697286241,0.04560658234379081,-1.2736365539638357
1782664439671795968,0.22720885276794434,-0.26008400321006775,0.11401185393333435,-0.36157238483428955,0.03525121137499809,0.6123422980308533,-0.7898064851760864,0.005794908851385117,-0.06081336736679077,-0.0236547589302063,0.7550706197938344,-0.2471062777318814,0.20984574664853126,-0.5698873932521558,-0.6590198815537897,0.044603116344582104,-1.2778092764232827
1782664439681715968,0.23712897300720215,-0.1409624218940735,0.0938972681760788,-0.36685609817504883,0.03440126031637192,0.6105849742889404,-0.7912032604217529,0.004325546324253082,-0.03424525260925293,-0.01574254035949707,0.7543305393577006,-0.24616040262346414,0.209292710588679,-0.5714779926637688,-0.6567990312780844,0.04345230872114299,-1.2818821831229594
1782664439691635968,0.24704885482788086,0.10397782176733017,0.10626152157783508,-0.44135430455207825,0.0331760048866272,0.6076979637145996,-0.7934749722480774,-0.0169406495988369,-0.0024428367614746094,-0.03507727384567261,0.7536238133991718,-0.2447497401902331,0.20823083043162535,-0.573400851898826,-0.6531586544441578,0.04178669147867372,-1.2866730177321133
1782664439701555968,0.25696897506713867,0.3660970628261566,0.11251969635486603,-0.47540467977523804,0.03148886188864708,0.6028656959533691,-0.7972210049629211,-0.04009480029344559,0.018014371395111084,-0.03958618640899658,0.7530129016997594,-0.24250407306825356,0.20635227834751566,-0.5758315523624121,-0.6470880625927242,0.03947776219736522,-1.292450546630803
1782664439711475968,0.2668888568878174,0.5774532556533813,0.12821635603904724,-0.48404717445373535,0.029210038483142853,0.5961050987243652,-0.8023748993873596,-0.015904361382126808,0.027430057525634766,-0.03836911916732788,0.7525654623533435,-0.23952053773769205,0.20357421765582143,-0.5786472712760992,-0.6386413206602525,0.03638840856819744,-1.2989425507879073
1782664439721395968,0.2768089771270752,0.6482693552970886,0.13332830369472504,-0.4926055073738098,0.02690836414694786,0.5889348983764648,-0.8077324032783508,-0.02347513474524021,0.004464149475097656,-0.0008766055107116699,0.7520769695885421,-0.23635950924321522,0.20066882639513298,-0.5815895498657461,-0.6297402732572815,0.0333011485703372,-1.3056609327663675
1782664439731315968,0.2867288589477539,0.7056556940078735,0.10321353375911713,-0.5039495229721069,0.024368517100811005,0.5816715359687805,-0.8130586743354797,-0.006057979539036751,-0.013968288898468018,0.033838093280792236,0.7515624124570074,-0.23326225308819926,0.19763446858532283,-0.5845368380079721,-0.6207821257175719,0.02996244220726996,-1.31245561358888
1782664439741234944,0.2966480255126953,0.6574859619140625,0.09106789529323578,-0.5234158039093018,0.021622538566589355,0.5747190117835999,-0.8180651068687439,0.0020591076463460922,-0.010372757911682129,0.056849896907806396,0.7509487792851173,-0.230399972780267,0.19463631566076195,-0.5874594211005544,-0.6122607713122119,0.026425164080093523,-1.3193440471071611
1782664439751154944,0.306567907333374,0.3787938952445984,0.10328887403011322,-0.5829872488975525,0.018951619043946266,0.5697124600410461,-0.8216255307197571,-0.00041220709681510925,-0.017283260822296143,0.09957963228225708,0.7499305457990441,-0.2283994192942257,0.19240823859445227,-0.5902686010489281,-0.6061559726839413,0.0230619160019173,-1.3264360925919885
1782664439761074944,0.31648802757263184,0.321430504322052,0.07203853875398636,-0.5798701047897339,0.016219425946474075,0.5666875839233398,-0.8237730860710144,-0.005812929943203926,-0.06717586517333984,0.1461302638053894,0.7485590454629364,-0.22732126280837883,0.19088869994484223,-0.5929130794267752,-0.602480026206569,0.019686647718006156,-1.3336601102811783
1782664439770994944,0.32640790939331055,0.3365018665790558,0.011908888816833496,-0.6006592512130737,0.013128979131579399,0.5639507174491882,-0.825704038143158,0.015069257467985153,-0.020829379558563232,0.15303564071655273,0.7471489192560286,-0.22650816406244054,0.18931988718823306,-0.5955002121015451,-0.599162099227366,0.015899004309687617,-1.3409439000360686
1782664439780914944,0.33632802963256836,0.4695354998111725,0.026927176862955093,-0.6503993272781372,0.009734128601849079,0.5607876181602478,-0.8279024362564087,0.007584595121443272,0.16600370407104492,0.19588345289230347,0.7457478813145183,-0.22560477069315854,0.1874867082381956,-0.5981733034455614,-0.5953368043942412,0.011757037962444986,-1.3484478843968462
1782664439790834944,0.34624791145324707,0.7291891574859619,0.12831637263298035,-0.7551193237304688,0.006413929630070925,0.5562527775764465,-0.8309884071350098,-0.05652380734682083,0.30789822340011597,0.23531579971313477,0.7442026772376753,-0.22398150839381817,0.1853053623047713,-0.601379028309635,-0.5898697568270326,0.0077182813230514775,-1.356958236588519
1782664439800754944,0.3561680316925049,1.0546753406524658,0.23209044337272644,-0.9121382832527161,0.00323487282730639,0.549773633480072,-0.8353074193000793,-0.089141845703125,0.368225634098053,0.27923136949539185,0.7424370097450921,-0.2213330126588634,0.1826417182444968,-0.6053436544560755,-0.5820932382566374,0.0038726541309767634,-1.3668977933554982
1782664439810674944,0.3660879135131836,1.4303749799728394,0.34908950328826904,-1.05733060836792,2.146905717381742e-05,0.5407407879829407,-0.8411892652511597,-0.08194590359926224,0.4166261553764343,0.30082976818084717,0.740340010452765,-0.21742411469347092,0.1792543397013808,-0.6103206416933512,-0.5713175063669933,2.552226769775877e-05,-1.3788531489633367
1782664439820594944,0.3760080337524414,1.8045097589492798,0.40913519263267517,-1.184584617614746,-0.0030917543917894363,0.5290666222572327,-0.8485746383666992,-0.03420073166489601,0.41188186407089233,0.3039731979370117,0.7380504347685152,-0.21226229363437626,0.1750925504015577,-0.6160915717174802,-0.5575002863084486,-0.003643451616020638,-1.3921965678381845
1782664439830514944,0.3859279155731201,2.3426263332366943,0.3870874047279358,-1.250573754310608,-0.006545648910105228,0.5138218402862549,-0.857871949672699,0.022994613274931908,0.3997371196746826,0.301963746547699,0.7357631676789641,-0.20567956411986563,0.16958757706364247,-0.6225660675170158,-0.5396337683927649,-0.00762995229343977,-1.4066196104178086
1782664439840434944,0.39584803581237793,2.5250790119171143,0.45812755823135376,-1.4288936853408813,-0.010027773678302765,0.49555447697639465,-0.8685189485549927,0.061800844967365265,0.44162505865097046,0.29835909605026245,0.7247493672176337,-0.19564472194357843,0.16572164050673127,-0.6395293443726419,-0.518473094272438,-0.011545318203124015,-1.44908975748128
1782664439850354944,0.40576791763305664,2.691262722015381,0.5312073826789856,-1.6751195192337036,-0.0136240404099226,0.4758257269859314,-0.8794340491294861,0.03205665200948715,0.3550916314125061,0.3700346350669861,0.7197860954674918,-0.18693881509929944,0.15917551991698092,-0.6493266046800034,-0.4959026022686927,-0.015490587639961034,-1.4718815334816058
1782664439860274944,0.41568803787231445,2.4058678150177,0.5938535928726196,-1.8654656410217285,-0.01717223972082138,0.4557282030582428,-0.8899533152580261,0.06848753988742828,0.1780913770198822,0.4219357371330261,0.7155459844851857,-0.17851967957431533,0.15216456689206165,-0.6580051278461143,-0.47319014743672055,-0.019293268619879896,-1.4917133124471478
1782664439870194944,0.42560791969299316,2.0407862663269043,0.5996009707450867,-2.0354623794555664,-0.02071402594447136,0.4379093647003174,-0.8987804651260376,0.11469289660453796,0.12105059623718262,0.5532605051994324,0.709966886511392,-0.1710172930858948,0.14616033283484842,-0.6673360775157855,-0.45327188122648393,-0.023042734344780973,-1.514225336893547
1782664439880114944,0.435528039932251,1.7646840810775757,0.5725373029708862,-2.1696910858154297,-0.024532746523618698,0.42200320959091187,-0.9062623381614685,0.1344112753868103,0.05542901158332825,0.5666322112083435,0.7029711606435167,-0.16434054490006947,0.14092908910478794,-0.6774679925005799,-0.43565379828886985,-0.0270636393590594,-1.5398419251746032
1782664439890034944,0.4454479217529297,1.6405134201049805,0.6046182513237,-2.3064308166503906,-0.02853216789662838,0.40748465061187744,-0.9127662181854248,0.13989081978797913,0.16711553931236267,0.5908668041229248,0.695902708957351,-0.15850031349891733,0.13599463800863207,-0.6870971941925864,-0.419697980138032,-0.031248833587057778,-1.5647186291730224
1782664439899954944,0.4553680419921875,1.7815475463867188,0.7292277812957764,-2.4406514167785645,-0.03192092850804329,0.3924191892147064,-0.9192324280738831,0.11871292442083359,0.3144442141056061,0.5545015931129456,0.6880865393449339,-0.15228752193729578,0.1311194340906319,-0.6972467665556571,-0.40326028732086194,-0.03471168700159203,-1.591116665945276
1782664439909874944,0.4652879238128662,2.0630645751953125,0.8889951109886169,-2.5828607082366943,-0.03405231237411499,0.3750823140144348,-0.926365852355957,0.0946907252073288,0.3624817728996277,0.5062761306762695,0.6793824732696331,-0.1448021832434729,0.1258943933488685,-0.7082531366185184,-0.38448558570723185,-0.03674248886499142,-1.619554330833519
1782664439919793920,0.4752068519592285,2.4020471572875977,1.0069204568862915,-2.678375005722046,-0.03475647047162056,0.35461682081222534,-0.9343655109405518,0.11077575385570526,0.34451037645339966,0.48743557929992676,0.6704299058536403,-0.13583452935930418,0.11985919277611465,-0.7195182470139994,-0.36250421595339205,-0.03718079542835293,-1.6482149738369485
1782664439929713920,0.48512697219848633,2.830842971801758,1.0468326807022095,-2.690310001373291,-0.03424498811364174,0.3302002251148224,-0.9432895183563232,0.17169615626335144,0.3201598823070526,0.46593356132507324,0.6616144636137998,-0.12529671910278437,0.11249879943922576,-0.7306921271191594,-0.3365156819271764,-0.03628785633427929,-1.676107271321666
1782664439939633920,0.49504685401916504,2.9862091541290283,1.0316132307052612,-2.7734594345092773,-0.03295943886041641,0.3029690384864807,-0.9524303078651428,0.21418806910514832,0.3107241988182068,0.4236522316932678,0.6523363710389607,-0.1137536189192867,0.10413919072408188,-0.7420731049528863,-0.30780657406627177,-0.03459181415897295,-1.7046952284704546
1782664439949553920,0.5049669742584229,3.1547694206237793,1.0860130786895752,-2.8428361415863037,-0.030886560678482056,0.2736670970916748,-0.9613284468650818,0.21245089173316956,0.2594902515411377,0.3882083296775818,0.6430138496505126,-0.1015807344023648,0.09495863685105814,-0.7531250837864546,-0.2772036256977142,-0.03211799313630328,-1.7326879825924273
1782664439959473920,0.5148868560791016,3.042062759399414,1.1673368215560913,-2.886641263961792,-0.027319764718413353,0.24405516684055328,-0.9693764448165894,0.2069157063961029,0.18610535562038422,0.36520469188690186,0.6331059356192495,-0.08905768764455366,0.08590985548290614,-0.7641105895268266,-0.24654527335961282,-0.028175365605269332,-1.7612631044234863
1782664439969393920,0.5248069763183594,2.986997365951538,1.2149444818496704,-2.8956198692321777,-0.022185014560818672,0.21513773500919342,-0.9763317108154297,0.20999018847942352,0.08959554135799408,0.2630596160888672,0.6225736465265868,-0.07647078281305512,0.07737163161410829,-0.774963249783911,-0.2168328604871526,-0.022718916127023918,-1.7904942585746473
1782664439979313920,0.5347268581390381,2.898024082183838,1.1997570991516113,-2.8842880725860596,-0.01600218005478382,0.1868613213300705,-0.9822559356689453,0.24091672897338867,0.0065895915031433105,0.1319294571876526,0.6119210402081796,-0.06402338350868222,0.06908708677040422,-0.7852901412362201,-0.18796622196289442,-0.016289811330235632,-1.8192343512873297
1782664439989233920,0.5446469783782959,2.8428475856781006,1.192246437072754,-2.8222837448120117,-0.009015648625791073,0.15923303365707397,-0.9871998429298401,0.26453933119773865,-0.026740968227386475,-0.025846421718597412,0.6007585883155422,-0.05174709922706201,0.06101073371213096,-0.7954174636249286,-0.15991372672298412,-0.009132292342914976,-1.8485877053635804
1782664439999153920,0.5545668601989746,2.813452959060669,1.1960742473602295,-2.7556889057159424,-0.0010752147063612938,0.13228215277194977,-0.9912115335464478,0.26834815740585327,-0.029254809021949768,-0.22276246547698975,0.5896542039243651,-0.03960714963465508,0.05315557065432469,-0.8049307605533715,-0.13267101365559558,-0.0010847476241345965,-1.8771825522056418
1782664440009073920,0.5644869804382324,3.063354969024658,1.1610984802246094,-2.7605397701263428,0.007597069256007671,0.1042858436703682,-0.9945183396339417,0.24479855597019196,-0.0672527626156807,-0.35547250509262085,0.5782808735162893,-0.02713502863610948,0.04477181812755719,-0.8141561900774993,-0.10447580041495734,0.007638794566361462,-1.906005815110605
1782664440018993920,0.5744068622589111,3.2203969955444336,0.9836503863334656,-2.8955020904541016,0.01614193245768547,0.07446515560150146,-0.9970929622650146,0.2583636939525604,-0.09224164485931396,-0.41747307777404785,0.5663856280208771,-0.014464534213582066,0.03527457173409622,-0.8232580426399517,-0.07453414960147503,0.016187580608996006,-1.93576174699191
1782664440028913920,0.584326982498169,3.11487078666687,0.6655384302139282,-2.9380240440368652,0.02288130111992359,0.04397125169634819,-0.9987707138061523,0.27724382281303406,-0.215953066945076,-0.4063653349876404,0.5535626711748476,-0.002648411920814721,0.024649947060049294,-0.8324384865401014,-0.04398543506961879,0.022905456224944862,-1.9674080128131113
1782664440038833920,0.5942468643188477,2.5428459644317627,0.5117944478988647,-2.558950662612915,0.028057551011443138,0.01750187575817108,-0.999453067779541,0.2750277817249298,-0.4855652451515198,-0.22108221054077148,0.54133044843337,0.007058033117098913,0.014954744770045809,-0.8406473139619263,-0.01750276921875898,0.02806553303988457,-1.997133658686123
1782664440048753920,0.6041669845581055,1.7734973430633545,-0.11694884300231934,-1.8837318420410156,0.030227161943912506,-0.002586910966783762,-0.9995397329330444,0.2602849304676056,-0.7635111212730408,0.0028814077377319336,0.5312576166425557,0.013492592312912846,0.006935147601161958,-0.8470745411002398,0.002586913810865402,0.030231868934964788,-2.0213189437466306
1782664440058673920,0.6140868663787842,1.4731812477111816,0.5402587652206421,-2.107632637023926,0.03557181730866432,-0.016833653673529625,-0.9992253184318542,0.11605476588010788,-0.7525907754898071,0.00047659873962402344,0.522257315893773,0.019566896040859035,0.002113781429437146,-0.8525608939042321,0.01683444957557763,0.035584366777544826,-2.0426635091155765
1782664440068593920,0.624006986618042,1.7374637126922607,-0.48589903116226196,-1.544251799583435,0.03808879479765892,-0.030222799628973007,-0.9988172054290771,0.12835407257080078,-0.5197955369949341,-0.21761339902877808,0.5132800096460042,0.02410837861694959,-0.0031904950047474457,-0.8578766344077916,0.030227402750240204,0.03811543047221543,-2.063810457423857
1782664440078513920,0.6339268684387207,1.3046821355819702,-0.36245524883270264,-0.9965122938156128,0.033991631120443344,-0.044654857367277145,-0.9984239935874939,0.28390997648239136,-0.5220260620117188,-0.3686414361000061,0.507526747414659,0.02598867697301929,-0.010610433850098095,-0.8611786789922039,0.04466971024869973,0.034032141303421345,-2.0772647789327463
1782664440088433152,0.6438460350036621,1.716675043106079,-0.4751966893672943,-0.7946681380271912,0.030920524150133133,-0.05846827104687691,-0.9978103041648865,0.006127815693616867,-0.4905887246131897,0.045967042446136475,0.5028014343163171,0.02808379939900397,-0.01749723688243718,-0.8637683832636439,0.05850163328729424,0.03097846639076044,-2.0881883827754195
1782664440098352896,0.6537659168243408,1.7365515232086182,-0.780870795249939,-0.698151707649231,0.025232575833797455,-0.07558798044919968,-0.9968198537826538,0.004079554229974747,-0.4554941654205322,-0.06276571750640869,0.4988664782260996,0.029824270883796314,-0.026468809671207783,-0.8657609848076098,0.07566014831727066,0.025307672034066395,-2.0970531926687763
1782664440108273152,0.6636860370635986,1.5742499828338623,-0.8665856719017029,-0.7987654209136963,0.0179173294454813,-0.09100140631198883,-0.9956895709037781,-0.03128403052687645,-0.25851643085479736,0.021232783794403076,0.49470660500218716,0.0303494111678627,-0.03513018785141895,-0.8678191671617026,0.09112748043382701,0.01799295335115288,-2.106189554276821
1782664440118192896,0.6736059188842773,1.9681226015090942,-0.796403706073761,-0.638687789440155,0.010616112500429153,-0.10785245150327682,-0.9941102266311646,-0.07480984181165695,-0.2635769844055176,0.01162731647491455,0.49070982122828133,0.031169976698418807,-0.044422050169688185,-0.8696314608313171,0.10806264695472063,0.010678603152964258,-2.1146990631879947
1782664440128113152,0.6835260391235352,2.481189489364624,-0.8430164456367493,-0.6911145448684692,0.0035964841954410076,-0.12950292229652405,-0.9915724992752075,-0.0837203860282898,-0.24799951910972595,-0.04813086986541748,0.48676973281040936,0.033225534033704214,-0.0557656294361053,-0.8711150464716142,0.1298676682895828,0.0036270351728740343,-2.1226961486663654
1782664440138032896,0.6934459209442139,2.968642473220825,-0.905158281326294,-0.7173589468002319,-0.0036719078198075294,-0.1561146229505539,-0.9877321124076843,-0.049108244478702545,-0.0864696055650711,-0.07594281435012817,0.4823747301667015,0.036273585439354585,-0.06941301618962002,-0.872456656510794,0.15675580702786313,-0.003717496651350584,-2.1311781975906494
1782664440147953152,0.7033660411834717,3.54656982421875,-0.988163411617279,-0.7015773057937622,-0.011710484512150288,-0.1878209114074707,-0.9821335077285767,0.02791532129049301,-0.023635387420654297,-0.02477872371673584,0.47772630908437214,0.04010776161032457,-0.0855840391825088,-0.8734096235616863,0.18894310337775683,-0.011922951108686158,-2.139439567574065
1782664440157872896,0.7132859230041504,4.231847286224365,-0.9881302714347839,-0.6839679479598999,-0.019723236560821533,-0.22543828189373016,-0.9740577936172485,-0.015509309247136116,-0.06791193783283234,0.018231987953186035,0.47263583572853635,0.04524423083736042,-0.10451826064127932,-0.8738673795941002,0.22739288031884375,-0.020245761057388043,-2.1476901666681885
1782664440167793152,0.7232060432434082,4.678644180297852,-1.0350075960159302,-0.565835177898407,-0.027770452201366425,-0.2684234082698822,-0.9629006385803223,-0.012299129739403725,-0.0772034227848053,0.07558679580688477,0.4675203346663319,0.05157568342065326,-0.12605404201852397,-0.8734271350962615,0.2717559967266879,-0.028832421252460712,-2.1547207493833875
1782664440177712896,0.7331259250640869,4.939280033111572,-1.0307921171188354,-0.5070716142654419,-0.03597015514969826,-0.31411221623420715,-0.948704183101654,-0.008905939757823944,-0.03354400396347046,0.18867921829223633,0.46236139457945097,0.058430350472792957,-0.14911000250740478,-0.8721089557104605,0.31952139291203535,-0.03789688292846381,-2.160511132226388
1782664440187633152,0.7430460453033447,4.924698352813721,-0.9462212920188904,-0.5390564203262329,-0.043439801782369614,-0.36054977774620056,-0.9317278861999512,-0.03294568508863449,0.010040134191513062,0.24984312057495117,0.45696897813930415,0.06572553472287719,-0.17267371360241035,-0.8700823750838315,0.368857240952961,-0.04658910502491285,-2.1656894087430434
1782664440197552896,0.7529659271240234,4.264705181121826,-0.8272153735160828,-0.5917448997497559,-0.04936385154724121,-0.40312206745147705,-0.9138138890266418,-0.04586624726653099,0.09600839018821716,0.31925517320632935,0.45130431943902444,0.07267601035101114,-0.19445114608519698,-0.8678890942580738,0.41492582758451646,-0.053967135093394916,-2.171188309406952
1782664440207473152,0.7628860473632812,3.510145902633667,-0.7209658622741699,-0.6593351364135742,-0.05356491729617119,-0.43812596797943115,-0.8973162174224854,-0.008477307856082916,0.08293190598487854,0.4059680104255676,0.44575906770531015,0.07848526847378984,-0.21256044349394804,-0.8660005586904153,0.4535128348705181,-0.059623826716593026,-2.1771032636268743
1782664440217392896,0.77280592918396,2.6724469661712646,-0.5248469114303589,-0.7752239108085632,-0.05593394488096237,-0.466075599193573,-0.8829750418663025,-0.028004664927721024,-0.016224205493927002,0.4143471121788025,0.44008045819682257,0.08324121115426401,-0.22711975858091132,-0.8647639121978065,0.48484994310788715,-0.06326261020642819,-2.1844552336467227
1782664440227313152,0.7827260494232178,2.0865445137023926,-0.20285584032535553,-0.8464969992637634,-0.055114880204200745,-0.4869462549686432,-0.8716912865638733,-0.02575671300292015,0.012825191020965576,0.4071069359779358,0.4346699539229008,0.0876365385745287,-0.2376430182764559,-0.8642381554954066,0.508590086634285,-0.06314346823442489,-2.1931629317276715
1782664440237232896,0.7926459312438965,1.877739667892456,-0.00397865567356348,-0.9616979360580444,-0.05166027322411537,-0.5042238831520081,-0.8620263934135437,-0.016638077795505524,-0.030367791652679443,0.3549920916557312,0.4291979385765837,0.09224801654269457,-0.24592095843315923,-0.8641771910553038,0.5284830017887899,-0.05985728788748787,-2.2034564980158176
1782664440247153152,0.8025660514831543,1.7337713241577148,0.17555755376815796,-1.0736407041549683,-0.04572875425219536,-0.520172119140625,-0.8528363704681396,0.01087767630815506,-0.020599365234375,0.28893256187438965,0.4236600738957906,0.0976098170709419,-0.2530892062328298,-0.8642513302681276,0.5470524823204154,-0.05356831469091331,-2.2149989209733136
1782664440257072896,0.812485933303833,1.5729900598526,0.29593202471733093,-1.1641446352005005,-0.03795008733868599,-0.5345624685287476,-0.844276487827301,0.07415920495986938,-0.013609528541564941,0.2900620102882385,0.4179048069875681,0.1033388504832252,-0.25919651778119823,-0.864577320145692,0.5639899498523556,-0.044919597553050895,-2.228077350065515
1782664440266991872,0.8224048614501953,1.357240915298462,0.3896673023700714,-1.3330553770065308,-0.028398459777235985,-0.5472508072853088,-0.8364867568016052,0.11619752645492554,-0.07704728841781616,0.24304193258285522,0.41225461533464014,0.10947039875887528,-0.2641455134589105,-0.8650372897282946,0.5790759771867249,-0.03393664838746609,-2.242017493053302
1782664440276911872,0.8323249816894531,1.2065883874893188,0.48315295577049255,-1.3822952508926392,-0.0173829086124897,-0.5580479502677917,-0.8296266198158264,0.1350281536579132,-0.09016066789627075,0.18697220087051392,0.40623164185004035,0.11567651500561973,-0.2679657463378353,-0.8659035962756905,0.5920314980728723,-0.02094962512476597,-2.2578876004248163
1782664440286831872,0.8422448635101318,1.2709386348724365,0.45715996623039246,-1.3854825496673584,-0.005795001983642578,-0.5683807730674744,-0.8227452635765076,0.21715976297855377,-0.07491457462310791,0.08312129974365234,0.39980722446669864,0.12191443194176302,-0.2715957025998114,-0.8669065787048231,0.6045364495865325,-0.007043377970473633,-2.275158294878008
1782664440296751872,0.8521649837493896,1.5398820638656616,0.3681528568267822,-1.4582728147506714,0.005614509340375662,-0.5796970725059509,-0.8148127198219299,0.2624213993549347,-0.026809275150299072,0.03170114755630493,0.39340548412966864,0.12834759686765354,-0.27589949208567915,-0.8675474311359335,0.6183568939524572,0.006890442849140976,-2.292324398263969
1782664440306671872,0.8620848655700684,1.9811720848083496,0.33726122975349426,-1.4834450483322144,0.017030155286192894,-0.5936739444732666,-0.8045254349708557,0.26255664229393005,0.007965326309204102,-0.026559770107269287,0.38638696335692074,0.1353073614651966,-0.28183185037390657,-0.8677371981053755,0.6356167896627287,0.021164790695050412,-2.3107097296052777
1782664440316591872,0.8720049858093262,2.5247304439544678,0.33310797810554504,-1.4852617979049683,0.02853640355169773,-0.6111326217651367,-0.7910136580467224,0.2635321021080017,0.02298259735107422,-0.04083448648452759,0.37892410612071925,0.143113242824916,-0.2898478315205295,-0.8671352114750245,0.6574907509250048,0.036060101565693434,-2.3299405818620063
1782664440326511872,0.8819248676300049,3.1910390853881836,0.31688374280929565,-1.5184792280197144,0.040359340608119965,-0.6327588558197021,-0.7732964158058167,0.24636857211589813,0.02938055992126465,-0.09086984395980835,0.37084974222619244,0.1520276681420799,-0.3003986828670299,-0.865516427165677,0.6851108248739205,0.05214398063116523,-2.350575704675731
1782664440336431872,0.8918449878692627,4.005531311035156,0.25014522671699524,-1.555811882019043,0.052459102123975754,-0.659180223941803,-0.7501528859138489,0.25067198276519775,0.03340214490890503,-0.13522303104400635,0.36188653198386683,0.16215771562116876,-0.31405162210775783,-0.8626207095113028,0.7197281282325694,0.0698175495160224,-2.373430837531193
1782664440346351872,0.9017648696899414,4.956523895263672,0.09583236277103424,-1.5296399593353271,0.06421741098165512,-0.6908797025680542,-0.7201120257377625,0.2637854814529419,0.06928247213363647,-0.15415555238723755,0.35182841422823957,0.1733455427007428,-0.33150463243664074,-0.8580633450717862,0.7627051642285262,0.08894170793631448,-2.3990371156160357
1782664440356271872,0.9116849899291992,5.627557754516602,-0.07044636458158493,-1.6379350423812866,0.07549670338630676,-0.7267914414405823,-0.6826964020729065,0.27586740255355835,0.11183178424835205,-0.132931649684906,0.34040104307020796,0.18524126799878862,-0.3526152086474619,-0.8517483127641126,0.8136390025043274,0.11013854770647308,-2.4286765144790747
1782664440366191872,0.9216048717498779,6.258181571960449,-0.20871502161026,-1.752744197845459,0.08721162378787994,-0.764372706413269,-0.6388494372367859,0.21140289306640625,0.13120925426483154,-0.04788762331008911,0.3273396733027943,0.1975854750113349,-0.3762117239532813,-0.8439630246756253,0.8700678684000713,0.13567491859898115,-2.4647257384882653
1782664440376111872,0.9315249919891357,6.6431169509887695,-0.27439823746681213,-1.8491674661636353,0.09987045079469681,-0.8020761609077454,-0.5888122320175171,0.16871477663516998,0.03286534547805786,-0.01792299747467041,0.3127831628029125,0.210363861559689,-0.4016726551500263,-0.8346094534179,0.9307634745683198,0.16801439332874593,-2.5089823062679417
1782664440386031872,0.9414448738098145,6.840599536895752,-0.32541322708129883,-1.9423139095306396,0.11375661194324493,-0.8376498818397522,-0.5342304706573486,0.12988048791885376,-0.0488094687461853,0.011784791946411133,0.29708847887325407,0.2232931083332562,-0.42781414289491976,-0.8239258208889543,0.9929662645922029,0.2098019899024305,-2.5634150089525876
1782664440395951872,0.9513649940490723,6.816925525665283,-0.4069409966468811,-2.022728443145752,0.12891700863838196,-0.8695314526557922,-0.4767552614212036,0.12926171720027924,-0.13585489988327026,0.004999279975891113,0.28042105388407373,0.23602221643284071,-0.45377955879971643,-0.8122449180588159,1.0542528674548974,0.2640892851897401,-2.6310425899768464
1782664440405871872,0.961284875869751,6.852828502655029,-0.5543885231018066,-2.0194296836853027,0.1446666717529297,-0.8970222473144531,-0.4176395535469055,0.1603413075208664,-0.19846737384796143,0.03179049491882324,0.2629650762115647,0.24801007344599266,-0.4792402619860002,-0.7997932678494727,1.1129855390822252,0.3334562538639324,-2.714896704201669
1782664440415791872,0.9712049961090088,6.862218379974365,-0.8176307082176208,-1.9695384502410889,0.1601480394601822,-0.9203431606292725,-0.3568209707736969,0.1926199197769165,-0.25064682960510254,0.028772294521331787,0.24477818213675714,0.2588604946455637,-0.5045599687092284,-0.7864440369719649,1.1689569775015107,0.42187140078996327,-2.819554071717962
1782664440425710848,0.9811239242553711,6.898505687713623,-0.9644590616226196,-2.021270990371704,0.17574822902679443,-0.9391934871673584,-0.2950051724910736,0.16789494454860687,-0.19955462217330933,0.10504856705665588,0.22573323998451716,0.2685309131810478,-0.5295172869607856,-0.7723645818988999,1.220274064182902,0.5372858620889667,-2.9531899739711216
1782664440435631104,0.9910440444946289,6.903849124908447,-0.9821447134017944,-2.0328361988067627,0.19246874749660492,-0.9535030126571655,-0.23192203044891357,0.08086194097995758,-0.17361795902252197,0.13908755779266357,0.20598233646654715,0.27774894103966424,-0.5539806035196438,-0.7573191466185224,1.2646529717231496,0.6927000647160285,-3.127478333667331
1782664440445550848,1.0009639263153076,6.741347789764404,-0.981289267539978,-1.943615198135376,0.20961710810661316,-0.9630894660949707,-0.16887632012367249,-0.014823436737060547,-0.17198127508163452,0.2055736929178238,0.18619703421926256,0.28638442441541856,-0.5775342403332061,-0.741463909031474,1.2982532117971335,0.8926246475009756,2.937046328730981
1782664440455471104,1.0108840465545654,6.3856024742126465,-0.9524313807487488,-1.8223650455474854,0.22650647163391113,-0.9680027961730957,-0.10800578445196152,-0.08952836692333221,-0.15972840785980225,0.2536356449127197,0.16700262656636536,0.2941793739669644,-0.5995461656903223,-0.7253364452713179,1.3171458500267477,1.125853414896176,2.685688304295349
1782664440465390848,1.0208039283752441,5.7393269538879395,-0.8920444846153259,-1.7336440086364746,0.24299569427967072,-0.9686506986618042,-0.05165892094373703,-0.14627030491828918,-0.15686792135238647,0.27756524085998535,0.14885418221168092,0.3010875778908456,-0.6192873408584165,-0.7096983518027506,1.3197406392305826,1.3613229924134411,2.4331635341421847
1782664440475311104,1.030724048614502,4.983375072479248,-0.8295643329620361,-1.6196125745773315,0.2589930593967438,-0.965876579284668,-0.0022678531240671873,-0.18860426545143127,-0.16165637969970703,0.29630470275878906,0.1321944443638789,0.30710521038402705,-0.6360443877294811,-0.6954556986678669,1.3088067851921705,1.562040126332344,2.2169189656241417
1782664440485230848,1.0406439304351807,4.172460556030273,-0.7303077578544617,-1.4919730424880981,0.2741341292858124,-0.9608754515647888,0.039606355130672455,-0.21500635147094727,-0.20619291067123413,0.24501585960388184,0.11728387097002055,0.3122878538932801,-0.6498303430049139,-0.6829650250767276,1.2901457693770015,1.7142814820385437,2.050902387114621
1782664440495151104,1.0505640506744385,3.2698380947113037,-0.6306580305099487,-1.3727636337280273,0.28819504380226135,-0.9547632932662964,0.0732840895652771,-0.24640125036239624,-0.21228986978530884,0.20563125610351562,0.10441702839037868,0.3167608493288237,-0.6605335782221751,-0.6726477638203376,1.268862848305156,1.8198051824676642,1.93378136361774
1782664440505070848,1.0604839324951172,2.3958046436309814,-0.5024265646934509,-1.2617830038070679,0.30118200182914734,-0.9484682679176331,0.09847661107778549,-0.27101531624794006,-0.1685667634010315,0.20097710192203522,0.09367819941702397,0.320660180053537,-0.6681432135724082,-0.6648204551830613,1.2483665407927942,1.8868063970816653,1.8575307638393914
1782664440514991104,1.070404052734375,1.72977876663208,-0.4045102000236511,-1.1465309858322144,0.31300559639930725,-0.9425756335258484,0.11652878671884537,-0.29065144062042236,-0.10460466146469116,0.1937129646539688,0.08493442324759937,0.32415875934781846,-0.6731905331347188,-0.659182727311093,1.2302598380551184,1.9271888001737765,1.8102121754964604
1782664440524910848,1.0803239345550537,1.2797164916992188,-0.3398076295852661,-1.0273116827011108,0.32361119985580444,-0.9372802376747131,0.12954281270503998,-0.3168516159057617,-0.020773231983184814,0.15391968190670013,0.07771239694283436,0.32723524309953506,-0.6765267907584088,-0.6551254009434607,1.2147441412575373,1.9515646042641064,1.780444858401131
1782664440534831104,1.0902440547943115,1.0625195503234863,-0.3609890937805176,-0.9383233785629272,0.333153635263443,-0.9325098991394043,0.1394057273864746,-0.350243479013443,0.1032710075378418,0.08544778823852539,0.07148190683773928,0.32988259739616127,-0.678881678676691,-0.6520640340088281,1.201301558575052,1.9670998353578901,1.7602739351335308
1782664440544751616,1.1001646518707275,1.1933223009109497,-0.4081414043903351,-0.8974283933639526,0.3421289920806885,-0.9278343915939331,0.14856380224227905,-0.3919336795806885,0.2552117109298706,-0.007908344268798828,0.06541749729817811,0.33214576551646907,-0.6811468930090759,-0.64918310887973,1.1885642627080364,1.9804615912126668,1.7419260990091503
1782664440554671872,1.1100847721099854,1.5733976364135742,-0.4243929386138916,-0.9122827649116516,0.3509702980518341,-0.9226068258285522,0.16005189716815948,-0.4262113869190216,0.36482179164886475,-0.10612726211547852,0.05882474938520755,0.3342835873140224,-0.6843101857600422,-0.6453787652016649,1.1747847311956052,1.9986508911624248,1.7178447714180303
1782664440564591616,1.120004653930664,1.8712753057479858,-0.43267831206321716,-1.002050518989563,0.3603532016277313,-0.9163407683372498,0.17454282939434052,-0.4344193637371063,0.39406293630599976,-0.15536248683929443,0.0514531502640587,0.3366741423035459,-0.6884198856371813,-0.6403757999748967,1.1588437518347936,2.0218586810512127,1.6881015457198305
1782664440574511872,1.1299247741699219,1.995932936668396,-0.5018731951713562,-1.029423475265503,0.370408296585083,-0.909072756767273,0.19074684381484985,-0.400010347366333,0.32315051555633545,-0.15702497959136963,0.043352123128996986,0.33917705936146775,-0.6930601313781323,-0.6346236435605098,1.1410531525223906,2.046343140040133,1.6562900303470982
1782664440584430592,1.1398437023162842,1.8303428888320923,-0.5663855671882629,-1.035932183265686,0.3806625008583069,-0.9014279842376709,0.20621247589588165,-0.3445907235145569,0.2073056697845459,-0.12593603134155273,0.03502323757060833,0.3414207762084706,-0.697522823384248,-0.6290207447197603,1.1230566721160642,2.0672602914969214,1.627349562245312
1782664440594350848,1.149763822555542,1.5623068809509277,-0.6147150993347168,-1.0223090648651123,0.3910512626171112,-0.8938643932342529,0.21928299963474274,-0.34023961424827576,0.12205976247787476,-0.09724324941635132,0.026906581927055206,0.34346360684300115,-0.701194875664862,-0.6242070027637152,1.1058917840342262,2.08185738184197,1.6047131653824416
1782664440604270592,1.1596837043762207,1.2315337657928467,-0.706464409828186,-0.9887897372245789,0.40132614970207214,-0.8868021368980408,0.22917073965072632,-0.34567737579345703,0.15634870529174805,-0.1321859508752823,0.019128303624917672,0.3450765578539983,-0.7039229656867153,-0.6205229456807675,1.0903790649662846,2.089644707259674,1.5886553907114191
1782664440614190848,1.1696038246154785,1.1015878915786743,-0.7643769383430481,-1.072177529335022,0.4119430482387543,-0.880013108253479,0.23638926446437836,-0.3590713441371918,0.312782883644104,-0.16305553913116455,0.011478766975463253,0.3465100508474746,-0.7057800050760314,-0.6177973870500607,1.0758897862513972,2.0917581577424116,1.5781353922472356
1782664440624110592,1.1795237064361572,1.3016242980957031,-0.8122541308403015,-1.1025385856628418,0.4233599305152893,-0.8725935816764832,0.24361193180084229,-0.3608752191066742,0.42827296257019043,-0.24142993986606598,0.0032949801956611985,0.3480054090373742,-0.7076003129552754,-0.6149659847654176,1.0604872637412366,2.0929500411293107,1.5678929454242663
1782664440634030848,1.189443826675415,1.4421154260635376,-0.8800050020217896,-1.1175570487976074,0.43484097719192505,-0.8645041584968567,0.2520832121372223,-0.32136133313179016,0.3955252766609192,-0.2746509313583374,-0.005362281242833539,0.3493284324910364,-0.7099375040752806,-0.6114978872879729,1.0441630596365026,2.0961657953100437,1.554720133071773
1782664440643950592,1.1993637084960938,1.4739806652069092,-0.9473973512649536,-1.175874948501587,0.4469130039215088,-0.855765700340271,0.2606421709060669,-0.24398621916770935,0.24660414457321167,-0.21112734079360962,-0.014603185090778983,0.35051124581378923,-0.712364338502954,-0.607837020141462,1.027028983205482,2.0987754741972657,1.541118378579316
1782664440653870848,1.2092838287353516,1.4801369905471802,-1.092710256576538,-1.008505940437317,0.45898881554603577,-0.8468431234359741,0.2686753571033478,-0.19661378860473633,0.1059677004814148,-0.16045993566513062,-0.024217966188597013,0.35116972393662893,-0.714854878754748,-0.6042151727137723,1.0100211533464498,2.1003842490533944,1.5271461005646407
1782664440663790592,1.2192037105560303,1.2700269222259521,-1.104823350906372,-0.9531897902488708,0.4698548913002014,-0.8387124538421631,0.2753145694732666,-0.19721075892448425,0.053784966468811035,-0.11087056994438171,-0.033364662616463335,0.3510634099937943,-0.7172250498473585,-0.6010238134920681,0.9949145672324102,2.1008258131703736,1.513748945596115
1782664440673710848,1.229123830795288,0.954767644405365,-1.1121548414230347,-0.9456215500831604,0.48080509901046753,-0.8311598300933838,0.27928397059440613,-0.2730872929096222,0.12257230281829834,-0.08223205804824829,-0.042101689199782306,0.35093229259554604,-0.718671356130968,-0.5988199700490451,0.9811903527632732,2.0970289082805227,1.5050652896689976
1782664440683630592,1.2390437126159668,0.6137173771858215,-1.163985013961792,-1.0112812519073486,0.4918808043003082,-0.8242617845535278,0.28043845295906067,-0.2678360342979431,0.2262393832206726,-0.11961081624031067,-0.050390582959243195,0.350853361482001,-0.7191113621281795,-0.597696867521767,0.9688972118470596,2.088966758567234,1.5012947263385024
1782664440693550592,1.2489635944366455,0.3556011915206909,-1.1262069940567017,-1.037500262260437,0.503591001033783,-0.8178057074546814,0.2785496413707733,-0.25652068853378296,0.3376421332359314,-0.1515965461730957,-0.05837213228964635,0.3510842623216634,-0.718341600843896,-0.5977607169185292,0.9575877395316663,2.0760368886345266,1.503248343413968
1782664440703470592,1.2588837146759033,0.39961686730384827,-1.1611621379852295,-1.059531807899475,0.5149593353271484,-0.8115667700767517,0.27600058913230896,-0.19508934020996094,0.3359808325767517,-0.21372950077056885,-0.06617026010833778,0.3511763981437586,-0.717408834263928,-0.5980144212843336,0.9468288103792144,2.062800897374779,1.5055259553462712
1782664440713390592,1.268803596496582,0.5766477584838867,-1.2849700450897217,-1.017386794090271,0.5268374085426331,-0.8046879768371582,0.27371516823768616,-0.15166950225830078,0.2525181174278259,-0.23382863402366638,-0.07452358338026055,0.35120344812667,-0.7165987134912764,-0.5979873164473231,0.9351497685301392,2.0499565114784684,1.5065197526497751
1782664440723310592,1.2787237167358398,0.779489278793335,-1.2261602878570557,-1.00253164768219,0.5381048321723938,-0.7975699305534363,0.27262765169143677,-0.07399338483810425,0.18801170587539673,-0.2165209949016571,-0.08309752640872052,0.35076950453020045,-0.7164318384210875,-0.597311583277679,0.9232559426722118,2.0397451144033565,1.503840700001445
1782664440733230592,1.2886435985565186,0.8471845984458923,-1.2921055555343628,-1.0022008419036865,0.5492737889289856,-0.7899807691574097,0.2724498510360718,-0.05832219123840332,0.16997027397155762,-0.1751750409603119,-0.09185410249955253,0.3502993607217448,-0.7165998099758464,-0.5961023334856843,0.9107776348834805,2.0312535115468666,1.4991276549679076
1782664440743149824,1.29856276512146,0.8722020387649536,-1.328908085823059,-1.070254921913147,0.5608060956001282,-0.7819684147834778,0.2720702886581421,-0.0045468807220458984,0.16313284635543823,-0.1372893750667572,-0.10108380797459084,0.3496274012458324,-0.7167955245795833,-0.5947663664024597,0.8978175316027808,2.022486612873279,1.4936688733321286
1782664440753069568,1.3084826469421387,0.6725298762321472,-1.22511887550354,-1.1554511785507202,0.5728495121002197,-0.7736092209815979,0.27087295055389404,-0.017109215259552002,0.10889065265655518,-0.06739702820777893,-0.11028555948683567,0.3493831347433167,-0.7164969689629971,-0.5936334080780158,0.8845173599790727,2.012490504025354,1.4901272179124876
1782664440762989824,1.3184027671813965,0.25760406255722046,-1.1070904731750488,-1.215755581855774,0.5851686000823975,-0.7653890252113342,0.26787635684013367,-0.008874595165252686,0.009209096431732178,-0.059471696615219116,-0.11887809385212822,0.3498800868793067,-0.715207731291133,-0.5932368661592203,0.8716456038941003,2.0000982242108054,1.4909875281618774
1782664440772909568,1.3283226490020752,-0.26485174894332886,-1.0425095558166504,-1.2479445934295654,0.5973131060600281,-0.7581965327262878,0.26144883036613464,0.07620996236801147,-0.055844664573669434,-0.03850254416465759,-0.1262896815271547,0.35109019182945445,-0.7123623326864714,-0.5944128770525068,0.8605427325667538,1.983381500621898,1.4989306043920891
1782664440782829824,1.338242769241333,-0.5219722390174866,-0.9220608472824097,-1.2307227849960327,0.6092114448547363,-0.7516946792602539,0.2526187300682068,0.14672410488128662,-0.10641372203826904,-0.06130415201187134,-0.13275833030112905,0.35287261688463,-0.708371571951407,-0.596712441853157,0.8506279630659742,1.963880790149142,1.5118847667947954
1782664440792749568,1.3481626510620117,-0.6567938327789307,-0.8980672955513,-1.049530267715454,0.6197521686553955,-0.7462989687919617,0.24278612434864044,0.2109057903289795,-0.14759141206741333,-0.09498953819274902,-0.13818134846892455,0.35455639989146714,-0.7040474588543773,-0.5995939151968864,0.8424842752060737,1.9441679695614191,1.5263807199291348
1782664440802669824,1.3580827713012695,-0.6099466681480408,-0.94731205701828,-0.8887027502059937,0.6291553974151611,-0.741759717464447,0.23228412866592407,0.1671854853630066,-0.2193150520324707,-0.130614772439003,-0.14314181885118873,0.3557023219105768,-0.6997270364931528,-0.602800392374504,0.835690390394598,1.9244723406462525,1.54064993180976
1782664440812589568,1.3680026531219482,-0.45960715413093567,-0.9081722497940063,-0.8481400012969971,0.6375506520271301,-0.7375624775886536,0.22255533933639526,0.05832642316818237,-0.26069802045822144,-0.19557785987854004,-0.1479697139980501,0.3563002476715883,-0.695936639213625,-0.6056627453915681,0.8294535862299828,1.906650136298024,1.552365056449935
1782664440822509824,1.377922773361206,-0.09797946363687515,-0.8037790060043335,-0.6211486458778381,0.6448521614074707,-0.7334656715393066,0.21492765843868256,0.012084484100341797,-0.20662832260131836,-0.18636322021484375,-0.15264449034416,0.3565066188244757,-0.6930850286869285,-0.6076478311005883,0.8234066721986022,1.8925146819276013,1.560006060571967
1782664440832429568,1.3878426551818848,0.3157190978527069,-0.785489559173584,-0.5673872232437134,0.6508238315582275,-0.7294856309890747,0.2104257345199585,0.08994454145431519,-0.18175393342971802,-0.1896432787179947,-0.1574203005460045,0.3559488332401917,-0.6917465530044841,-0.6082811442637139,0.8175696342588139,1.883509880909257,1.561163147223478
1782664440842349824,1.3977627754211426,0.4801967144012451,-0.7209071516990662,-0.4093081057071686,0.6559596657752991,-0.7253416776657104,0.2087978720664978,0.07836955785751343,-0.24313366413116455,-0.18394124507904053,-0.16219692953821122,0.3551244433856991,-0.6915819283767425,-0.6076950637348354,0.8115305819731409,1.8789645936720987,1.5574507485881979
1782664440852269568,1.4076826572418213,0.14080628752708435,-0.5981981754302979,-0.2744993567466736,0.6596786379814148,-0.7225455641746521,0.20676496624946594,0.11453694105148315,-0.3391304016113281,-0.09291914105415344,-0.16603639582274432,0.35397103734322444,-0.6914383464359593,-0.6074943242478533,0.8074774702386655,1.8745308306877784,1.5544352286496392
1782664440862189824,1.417602777481079,-0.11665961146354675,-0.4263840317726135,-0.03953424096107483,0.6619536280632019,-0.7214537262916565,0.203277587890625,0.11998295783996582,-0.43449103832244873,-0.05528262257575989,-0.1683583303180373,0.35294226187932154,-0.690702943227662,-0.6082899101802328,0.8058993814639033,1.8687425389874581,1.5551554357918382
1782664440872109568,1.4275226593017578,-0.4548627436161041,-0.37167608737945557,0.20204374194145203,0.6620919108390808,-0.722579836845398,0.19877876341342926,0.15846478939056396,-0.5327302813529968,-0.04141482710838318,-0.16891100117926558,0.3517297390721766,-0.689692377837404,-0.60998345980358,0.8075270133256685,1.8624626176238306,1.5586263620757868
1782664440882029824,1.4374427795410156,-0.6328293085098267,-0.2738634943962097,0.30251574516296387,0.6608332395553589,-0.725415050983429,0.19254246354103088,0.1662389039993286,-0.504229724407196,0.008232712745666504,-0.1682161082796305,0.35033746452431186,-0.6881387153542811,-0.6127252005392739,0.8116372072535876,1.854310709962764,1.5654746157700115
1782664440891949568,1.4473626613616943,-0.4229503571987152,-0.1515059471130371,0.5814200639724731,0.6582328677177429,-0.729179322719574,0.18715538084506989,0.13450700044631958,-0.4664536118507385,-0.02329123020172119,-0.16681906052546708,0.348614543503698,-0.6870557427927556,-0.6152997205499228,0.8171219123407016,1.8478157649437603,1.5711641241720709
1782664440901868800,1.4572818279266357,-0.25273656845092773,-0.000904453918337822,0.7838924527168274,0.6534088850021362,-0.7342805862426758,0.18408940732479095,0.14430534839630127,-0.4299497604370117,0.013771414756774902,-0.16440608707224852,0.346310635313062,-0.6871052651978907,-0.6171919915599547,0.8246063054536793,1.8454149457660531,1.573321233262067
1782664440911788800,1.4672017097473145,-0.29020029306411743,-0.10408589243888855,1.0131587982177734,0.6468098163604736,-0.7406229376792908,0.18197521567344666,0.13611871004104614,-0.4465566873550415,0.0220348984003067,-0.16139711389508993,0.3431895842310613,-0.687901530527422,-0.6188404260436337,0.8339969819600762,1.8450496686022124,1.5730065991090922
1782664440921708800,1.4771218299865723,-0.373208612203598,-0.0016593839973211288,0.9648007750511169,0.6396992802619934,-0.747458279132843,0.1791403591632843,0.13935351371765137,-0.47171902656555176,0.04290558397769928,-0.15793941913159212,0.3400334521811598,-0.6884384007791706,-0.6208744523861149,0.8442276530809205,1.8438406307939803,1.5741316311058124
1782664440931628800,1.487041711807251,-0.6196467280387878,0.068727508187294,1.287131667137146,0.631234347820282,-0.755426824092865,0.17570888996124268,0.10089761018753052,-0.5103965401649475,-0.006137967109680176,-0.15354070816711424,0.3366456155174077,-0.6888571520552249,-0.623354515022142,0.8563052761487232,1.842281401407384,1.5765992464495682
1782664440941548800,1.4969618320465088,-1.279157042503357,0.29397740960121155,1.2440305948257446,0.6211469769477844,-0.7650696039199829,0.16983811557292938,0.11212939023971558,-0.5915130376815796,0.0017927885055541992,-0.1473648474378763,0.33346681538820566,-0.6882724323568412,-0.6271878171798092,0.8711494009143473,1.8376991899197812,1.5849739640453895
1782664440951468800,1.5068817138671875,-2.2062389850616455,0.40309175848960876,1.213455080986023,0.6112861037254333,-0.7753803730010986,0.15847651660442352,0.06403744220733643,-0.5815380811691284,-0.029188737273216248,-0.13955633165069242,0.3315687632734557,-0.6850550431758808,-0.6334713042736336,0.8873172258117502,1.8244626425338506,1.6063503980861962
1782664440961388544,1.5168015956878662,-3.027834415435791,0.5203621983528137,1.2505041360855103,0.6010411381721497,-0.786672055721283,0.14105521142482758,0.15902960300445557,-0.5802559852600098,-0.07792963087558746,-0.1297343647968105,0.33067716089608024,-0.6791025092079438,-0.6423716685105841,0.9053997971266743,1.801309538064877,1.6420901885323511
1782664440971308800,1.526721715927124,-3.6792547702789307,0.46214959025382996,1.3688938617706299,0.590110719203949,-0.7987518310546875,0.11732311546802521,0.274619996547699,-0.5741423964500427,-0.10084367543458939,-0.11834077775811,0.32994530702916036,-0.670669555336231,-0.6537077747410075,0.9252178214038643,1.7670526113954301,1.6914147811495412
1782664440981228544,1.5366415977478027,-3.8215651512145996,0.46506068110466003,1.4294562339782715,0.5783530473709106,-0.8108412623405457,0.0896887332201004,0.3144081234931946,-0.5309860110282898,-0.07151556760072708,-0.10600679103315483,0.32888277761400186,-0.6608180434683986,-0.6662718353113012,0.9455881281922078,1.724646937870218,1.7497268956968006
1782664440991148800,1.5465617179870605,-3.3210878372192383,0.31099024415016174,1.5470049381256104,0.5658894777297974,-0.8221153616905212,0.06241581588983536,0.3222789764404297,-0.4715248942375183,-0.05622076243162155,-0.09378453731906539,0.3271191409857563,-0.6513071286218829,-0.6782305521510048,0.9651166834850657,1.6806491290357435,1.8084065881295834
1782664441001068544,1.5564815998077393,-2.4532439708709717,0.21946458518505096,1.6897653341293335,0.5525060296058655,-0.8325451612472534,0.0400727279484272,0.3682551383972168,-0.43045544624328613,-0.11911332607269287,-0.08288000572066243,0.32400642633183696,-0.644248553735973,-0.6878187575970927,0.9836864721530503,1.6431985766299773,1.8565495372506018
1782664441010988800,1.566401720046997,-1.9743307828903198,-0.010425369255244732,1.778692603111267,0.537685215473175,-0.8428535461425781,0.02219875529408455,0.418049156665802,-0.4042779207229614,-0.09721100330352783,-0.07289307223544741,0.31956434204633616,-0.6395138850988688,-0.6954044538246467,1.0025640040423212,1.6120586791398768,1.8949798590426288
1782664441020908544,1.5763216018676758,-2.026064395904541,-0.02109532430768013,1.7852575778961182,0.5226840376853943,-0.8525093197822571,0.005407301243394613,0.4408932328224182,-0.4900504946708679,-0.011739730834960938,-0.06368889834683157,0.3144916602403517,-0.6354515294355537,-0.7023105066196169,1.0207672361309306,1.5811412163420977,1.931107350935377
1782664441030828800,1.5862417221069336,-2.591395616531372,-0.11156119406223297,1.8750145435333252,0.5068522095680237,-0.8619043827056885,-0.014887912198901176,0.45591628551483154,-0.6849552989006042,0.08922868967056274,-0.053835993955928745,0.30902194910977404,-0.6301281446490146,-0.7103137600593167,1.0390134103049746,1.5414314901644237,1.976407890432205
1782664441040748544,1.5961616039276123,-3.471785068511963,-0.11894027888774872,1.9898560047149658,0.4899497330188751,-0.8707237243652344,-0.04230311140418053,0.4855293929576874,-0.8003273010253906,0.1487942337989807,-0.04259653568581644,0.3031677422120578,-0.6220432171181752,-0.7206504805609812,1.0566720151511253,1.4846681884090551,2.040291241463543
1782664441050668800,1.6060817241668701,-4.185776233673096,-0.07226347923278809,2.1183266639709473,0.47105976939201355,-0.8786923289299011,-0.07747519761323929,0.5360813140869141,-0.8116152286529541,0.2353883981704712,-0.029436081947054347,0.29662730028352285,-0.6109620665914797,-0.733396928257198,1.0731160092524867,1.407785711248733,2.1261932171258877
1782664441060587520,1.6160006523132324,-4.630477428436279,0.03677326440811157,2.212686538696289,0.4520237445831299,-0.8843610882759094,-0.11653313040733337,0.5325648784637451,-0.7727434039115906,0.3119524121284485,-0.015017159411792824,0.2905340112029623,-0.5977653566513446,-0.747021434291213,1.0851235121194587,1.3184871366963653,2.2272679014667243
1782664441070507776,1.6259207725524902,-4.84257173538208,0.09289508312940598,2.2333321571350098,0.432358980178833,-0.8877402544021606,-0.1580599993467331,0.587935209274292,-0.6724861860275269,0.3905581831932068,0.0003162537195100601,0.28433765145546946,-0.5831998823805187,-0.7609401270805433,1.0924128296252178,1.2203134283876065,2.338660466024146
1782664441080427520,1.635840654373169,-4.972983360290527,0.15290355682373047,2.5312368869781494,0.41179928183555603,-0.8888646364212036,-0.20085078477859497,0.5811206102371216,-0.5494440197944641,0.47364741563796997,0.016486727615253986,0.2778643521563214,-0.5677728475402801,-0.7746958319866613,1.0948612029736875,1.1170051053454417,2.456278413605053
1782664441090347776,1.6457607746124268,-5.087640762329102,-0.09162873029708862,2.6244983673095703,0.3888247609138489,-0.8881566524505615,-0.2449342906475067,0.6489711999893188,-0.5444756746292114,0.5418550968170166,0.03349458918908867,0.2700876587139777,-0.5518926655517526,-0.7882544694320391,1.093318246529512,1.0086562044679628,2.5784746699973504
1782664441100267776,1.6556806564331055,-5.3936872482299805,-0.0881543681025505,2.585745096206665,0.3656829297542572,-0.8838958144187927,-0.2915550768375397,0.5452514886856079,-0.5714264512062073,0.6336723566055298,0.05048542396713926,0.26162816310232573,-0.5345775644984341,-0.8020155015651821,1.0841277307967438,0.8977104835272355,2.702689544637089
1782664441110187776,1.6656007766723633,-4.916173458099365,-0.17664165794849396,2.6012585163116455,0.34245774149894714,-0.8768698573112488,-0.3373750150203705,0.42519664764404297,-0.5959694385528564,0.6340516805648804,0.06718271004536516,0.25273602179566107,-0.5171431161520648,-0.8149686902543718,1.0693118057263646,0.7928744746727847,2.820108902961173
1782664441120107776,1.675520658493042,-4.277764320373535,-0.23298455774784088,2.5644426345825195,0.31944915652275085,-0.8690914511680603,-0.3776669204235077,0.37365081906318665,-0.4668613076210022,0.6201900839805603,0.08275496988356755,0.24369488810521545,-0.5017761890419093,-0.8258238669564457,1.053362561537552,0.7020792226523607,2.921735734713122
1782664441130027776,1.6854407787322998,-3.8472096920013428,-0.15775033831596375,2.4126572608947754,0.2970709800720215,-0.8609095811843872,-0.41301777958869934,0.3225885033607483,-0.34819692373275757,0.7643360495567322,0.0974657087752985,0.2349050541155813,-0.48817080249620365,-0.8348709421515356,1.037054881856457,0.6235416264740642,3.0102990237309184
1782664441139947776,1.6953606605529785,-3.5804502964019775,-0.159637451171875,2.2799220085144043,0.2767617106437683,-0.8517885804176331,-0.4448137879371643,0.3103354871273041,-0.44743627309799194,0.7768145203590393,0.11098974944154107,0.22685123703771415,-0.47553298050113096,-0.8426673660947699,1.019389927569312,0.556580946046184,3.086790699034738
1782664441149867776,1.7052807807922363,-3.398127555847168,-0.22650444507598877,2.4880998134613037,0.2557438313961029,-0.8423541188240051,-0.4743783175945282,0.370858371257782,-0.4988171458244324,0.6506021022796631,0.12444594195096612,0.21845799319365047,-0.4637746722049049,-0.849530757790523,1.0016366049724663,0.49444675266822363,-3.125243184496065
1782664441159787776,1.715200662612915,-3.7204978466033936,-0.32895785570144653,2.4215214252471924,0.23389632999897003,-0.831313967704773,-0.5041919350624084,0.3380945920944214,-0.3526001572608948,0.5666614770889282,0.13799543045752635,0.20939890820646317,-0.4517257346816343,-0.8561852188736389,0.9814676303777503,0.4343556227293684,-3.0567169373054583
1782664441169707776,1.7251207828521729,-4.5209479331970215,-0.2549121677875519,2.351162910461426,0.21280497312545776,-0.8155238628387451,-0.5381773114204407,0.26194170117378235,-0.2879611849784851,0.4932706952095032,0.15169210906276517,0.19992531699759386,-0.4369682137702967,-0.8637581234910702,0.9536338430313743,0.3765501204628393,-2.9901153772193236
1782664441179627776,1.7350406646728516,-5.415343284606934,-0.28575262427330017,2.281123638153076,0.19281814992427826,-0.7926647067070007,-0.5783631205558777,0.21207383275032043,-0.35114938020706177,0.4302613139152527,0.16588113692748965,0.1899227669277471,-0.41802844455312055,-0.8727342632267263,0.9151674777989365,0.32179791672604846,-2.925442300208501
1782664441189547776,1.7449607849121094,-5.902072429656982,-0.37141308188438416,2.2869656085968018,0.17329205572605133,-0.7630743384361267,-0.6226454377174377,0.2595387399196625,-0.2982049584388733,0.4100905656814575,0.18038376001183562,0.17907445143372897,-0.3957393325358075,-0.8824875619425385,0.8680565762794934,0.27144624794221284,-2.864766496467937
1782664441199467776,1.754880666732788,-5.951074123382568,-0.4058019518852234,2.2995693683624268,0.15374138951301575,-0.7287784814834595,-0.6672672033309937,0.26680609583854675,-0.12653768062591553,0.39959752559661865,0.19486386642741202,0.16742949578271865,-0.3719324622261641,-0.8919987165715163,0.8165363536192999,0.22645256863523483,-2.8097344405103124
1782664441209387776,1.764800786972046,-5.426418304443359,-0.440218061208725,2.446906089782715,0.13416661322116852,-0.6933910846710205,-0.7079606056213379,0.12494291365146637,-0.023939847946166992,0.3727097511291504,0.2091760023854637,0.15562859605046245,-0.34899775483649953,-0.90012544898691,0.7661845926433919,0.1872903312026496,-2.7605910138278476
1782664441219307776,1.7747206687927246,-4.912745475769043,-0.33105242252349854,2.2474944591522217,0.11544064432382584,-0.6594156622886658,-0.742862343788147,-0.09574153274297714,0.012031018733978271,0.418796181678772,0.22301635925674504,0.14442012040896432,-0.32819452537545757,-0.906473900856063,0.7200411952373932,0.1541666710875389,-2.7172535811644023
1782664441229227776,1.7846407890319824,-4.566554069519043,-0.2870035171508789,1.9922704696655273,0.0995643362402916,-0.6263052225112915,-0.7731938362121582,-0.2765815556049347,0.027474045753479004,0.4450688362121582,0.2352641838833165,0.13429032254985793,-0.3088190346077284,-0.911727854138804,0.6768046969031837,0.12806547213443287,-2.681651555054375
1782664441239146752,1.7945597171783447,-4.2143659591674805,-0.10959890484809875,1.791507601737976,0.08638323098421097,-0.593960702419281,-0.7998428344726562,-0.31807270646095276,0.04790973663330078,0.3721237778663635,0.2464056393570181,0.12528281441755723,-0.2904871584040906,-0.9160816792937025,0.6359731784207423,0.10758326469631958,-2.6515171334620415
1782664441249066496,1.8044795989990234,-3.6792428493499756,-0.09721485525369644,1.5599452257156372,0.07600776106119156,-0.5637838244438171,-0.8224174976348877,-0.28285592794418335,0.11819672584533691,0.27148371934890747,0.2563033061087086,0.11764062708878088,-0.2737734845350452,-0.9195201787902844,0.5989600376002417,0.09215812808272053,-2.626393947208125
1782664441258986752,1.8143997192382812,-3.3312692642211914,-0.20126882195472717,1.3250573873519897,0.06690230965614319,-0.5361801385879517,-0.8414481282234192,-0.1997300684452057,0.19981539249420166,0.1903708577156067,0.26465026625790083,0.1105683622538775,-0.25894124153109377,-0.9223255352070872,0.565905215677673,0.07934162911398872,-2.60581131927051
1782664441268906496,1.82431960105896,-2.8442511558532715,-0.4426577091217041,1.2053097486495972,0.05766919255256653,-0.5111649036407471,-0.8575457334518433,-0.14890149235725403,0.29517674446105957,0.10861384868621826,0.2717308260593061,0.10348157519489351,-0.24600546532997414,-0.9246270560877504,0.5365395790183539,0.06714801142070008,-2.5883895402098633
1782664441278826752,1.8342397212982178,-2.1623339653015137,-0.5284884572029114,1.1478822231292725,0.0477730892598629,-0.490336149930954,-0.8702230453491211,-0.1602914035320282,0.40113329887390137,0.09033113718032837,0.2777583325940546,0.09648333858427778,-0.23575290373964283,-0.9262622921673012,0.5124754134815933,0.054842472386206716,-2.5732894021357904
1782664441288746496,1.8441596031188965,-1.0856796503067017,-0.6432316303253174,1.0822277069091797,0.037101272493600845,-0.4769694209098816,-0.8781364560127258,-0.25751447677612305,0.5103098750114441,0.09848862886428833,0.28302176184040756,0.09018427161143598,-0.22977938172378037,-0.9268046455374889,0.4972034001353918,0.042224895432580616,-2.559554076695005
1782664441298666752,1.8540797233581543,-0.21858151257038116,-0.6564475297927856,0.813405454158783,0.02671796828508377,-0.47220316529273987,-0.8810847401618958,-0.4481962323188782,0.6498459577560425,0.17676955461502075,0.28701600967634794,0.08520649107953578,-0.2284676813090534,-0.9263715166970289,0.49178846834086853,0.03031465875149055,-2.5483035332375374
1782664441308586496,1.863999605178833,0.15270468592643738,-0.5628458261489868,0.42206504940986633,0.018348928540945053,-0.47258833050727844,-0.8810923099517822,-0.6386950016021729,0.8569724559783936,0.3197062015533447,0.2890667581029017,0.08165246250725104,-0.2297536357006636,-0.9257357400983356,0.49222547318646653,0.02082219625201355,-2.541497992060354
1782664441318506752,1.8739197254180908,-0.019290776923298836,-0.46465906500816345,0.17432235181331635,0.012334448285400867,-0.47387006878852844,-0.8805084228515625,-0.7385765314102173,0.917443037033081,0.42742919921875,0.28983627981987986,0.07910533685639319,-0.23127504824421366,-0.9253373595348712,0.4936804530688892,0.014007408919770412,-2.538036831113048
1782664441328426496,1.8838396072387695,-0.3408132791519165,-0.4714730978012085,-0.07458993047475815,0.007642159704118967,-0.47287192940711975,-0.8810980319976807,-0.7900060415267944,0.9172383546829224,0.42537903785705566,0.2896510598343115,0.07657287807126732,-0.23148991070115513,-0.9255545764133233,0.4925472974050871,0.00867323226988539,-2.537185798211435
1782664441338346752,1.8937597274780273,-0.7273527383804321,-0.5004296898841858,-0.36223742365837097,0.0033395348582416773,-0.4690437912940979,-0.8831685781478882,-0.8507211208343506,0.8936958909034729,0.3453572988510132,0.2883302282701903,0.07345793787581419,-0.23025993868930852,-0.9265257111749078,0.48820777581721186,0.0037812927681180907,-2.5391432364242887
1782664441348266496,1.903679609298706,-0.6026788949966431,-0.409909725189209,-0.451271653175354,-0.0019332184456288815,-0.4668016731739044,-0.8843598961830139,-0.93419349193573,0.959477424621582,0.2865357995033264,0.2863304728531588,0.06997949222174664,-0.230049805226997,-0.9274668655526894,0.4856707675200915,-0.00218600515435031,-2.5421704517900703
1782664441358186752,1.9135997295379639,0.03761851042509079,-0.5993257761001587,-0.8087456226348877,-0.004947752691805363,-0.4639585614204407,-0.8858430981636047,-0.9218405485153198,1.1106717586517334,0.21004658937454224,0.2831680337107658,0.0672285853892586,-0.22925699052453372,-0.9288366622389522,0.48245862823749003,-0.0055853020444771246,-2.5483938964723416
1782664441368106496,1.9235196113586426,1.9628156423568726,-0.5765344500541687,-0.7041838765144348,-0.006282129790633917,-0.47299981117248535,-0.8810401558876038,-0.9378859400749207,1.2511370182037354,-0.09617847204208374,0.2787985491027645,0.06700357335319283,-0.23450043893048286,-0.9288656417494032,0.4926924306035253,-0.007130235355793372,-2.5566118175422012
1782664441378026752,1.9334397315979004,2.9499640464782715,-0.8369119763374329,-0.9521047472953796,-0.009175261482596397,-0.4950227439403534,-0.8688315749168396,-0.7479506134986877,1.1733217239379883,-0.2944527268409729,0.2731626218892204,0.06780382756767599,-0.2469551825287811,-0.9272528833851514,0.5178610177437422,-0.010560067623732149,-2.565816877707053
1782664441387946496,1.943359613418579,2.8369226455688477,-0.8974118232727051,-1.154191493988037,-0.011611897498369217,-0.5203641653060913,-0.8538655042648315,-0.7324829697608948,0.9522794485092163,-0.17155563831329346,0.26660595761744477,0.06903938538412499,-0.2613442321092055,-0.9251238307691904,0.5472773600806559,-0.013598372665596388,-2.5766127508734105
1782664441397865728,1.9532787799835205,1.709066390991211,-0.7348628640174866,-1.4221123456954956,-0.01228010281920433,-0.539982259273529,-0.8415868282318115,-0.9316133260726929,0.591343343257904,0.04909110069274902,0.2585859709494219,0.06965950145817697,-0.27267957169712187,-0.9240815552336887,0.5704160382489537,-0.014590570036760174,-2.591612049295047
1782664441407785728,1.9631986618041992,0.5526131987571716,-0.48109111189842224,-1.1765841245651245,-0.010959458537399769,-0.5495830774307251,-0.8353672027587891,-1.014156460762024,0.4161907434463501,0.27103614807128906,0.25139394282042615,0.06975775989223283,-0.27829885823596523,-0.9243834374838737,0.5818650974297616,-0.013118578311738628,-2.6065918183041044
1782664441417705728,1.973118782043457,-0.014465661719441414,-0.47677651047706604,-1.3571996688842773,-0.008655352517962456,-0.5517933368682861,-0.8339359760284424,-0.9540674090385437,0.38087964057922363,0.21012616157531738,0.2448682559897166,0.06930667701899505,-0.27969375800646074,-0.925746972189521,0.5845130124841991,-0.01037854484973752,-2.621296492446768
1782664441427625728,1.9830386638641357,-0.34632834792137146,-0.18982605636119843,-1.012169361114502,-0.004785183817148209,-0.5501229166984558,-0.835070013999939,-0.8577026128768921,0.3655983805656433,0.11923444271087646,0.23925190100924784,0.0693050338795334,-0.2786786981998873,-0.927520163440785,0.5825114562333644,-0.005730216155998866,-2.6349849947680837
1782664441437545728,1.9929587841033936,0.33347785472869873,-0.26634159684181213,-0.8538385629653931,-0.001972082769498229,-0.5494092106819153,-0.8355511426925659,-0.5866662263870239,0.2781384587287903,0.18155944347381592,0.23452960254354108,0.06920042334329497,-0.27827276587263383,-0.9288550078042537,0.5816569968520909,-0.0023602136074757263,-2.6462386063775054
1782664441447465728,2.0028786659240723,0.6953630447387695,0.22270679473876953,-0.7516681551933289,0.0023765317164361477,-0.554425060749054,-0.832230269908905,-0.3408927917480469,0.46047669649124146,-0.24308711290359497,0.23068926786302935,0.07101047206530835,-0.2807888737416832,-0.9289227862602584,0.5876719836338576,0.002855610302162938,-2.6556241411044375
1782664441457385728,2.01279878616333,0.7583433389663696,0.16738149523735046,-0.6180996894836426,0.008098936639726162,-0.560682475566864,-0.8279913067817688,0.009265568107366562,0.277265727519989,-0.2171441912651062,0.2274105342262674,0.07386560828514249,-0.28381019700527593,-0.9285904307856688,0.5952098161374367,0.00978111585962827,-2.664249430165529
1782664441467305728,2.022718667984009,0.19406138360500336,-0.028237655758857727,-0.8874677419662476,0.012974984012544155,-0.5641666650772095,-0.8255590200424194,0.6060283184051514,0.029224038124084473,-0.19690191745758057,0.22364456802740476,0.07571632123668362,-0.2854602255079968,-0.9288502092157582,0.5994236146640929,0.015715310334046582,-2.6738925266768288
1782664441477225728,2.0326387882232666,0.12950661778450012,-0.3186742663383484,-0.9397029876708984,0.01370986644178629,-0.5655007362365723,-0.8246338367462158,1.0056687593460083,-0.15405797958374023,-0.14571833610534668,0.2199378461085229,0.07514829728816229,-0.28641893267370866,-0.9294860810404422,0.6010402605653524,0.016623866889383304,-2.6820456020916783
1782664441487145728,2.0425586700439453,1.0463011264801025,-0.13398949801921844,-0.5770102739334106,0.014624597504734993,-0.5705260038375854,-0.8211493492126465,0.8738183975219727,-0.09983837604522705,-0.08862543106079102,0.21560933289702117,0.07501043687264007,-0.28948017833714385,-0.9295630022723961,0.6071462107858545,0.017808029752150765,-2.6913377807187655
1782664441497065728,2.052478790283203,1.9552135467529297,-0.30112922191619873,-0.39824214577674866,0.014676820486783981,-0.5819171071052551,-0.8131155967712402,0.7410604953765869,-0.0563274621963501,-0.26473468542099,0.2122246142683626,0.07562666235432242,-0.29618034400742294,-0.9281801872675873,0.6210840855673948,0.018048143074521135,-2.697820943341829
1782664441506985728,2.062398672103882,2.464453935623169,-0.49110880494117737,-0.4166632294654846,0.01297081634402275,-0.5998907089233398,-0.7999768853187561,0.5085746049880981,0.14601802825927734,-0.1897386908531189,0.20896282380650782,0.07631082960934248,-0.3069010063133919,-0.9253772921937313,0.6433644873823964,0.016212568280782966,-2.702818301348436
1782664441516905728,2.0723187923431396,2.250304698944092,-0.5484657883644104,-0.18520471453666687,0.011642783880233765,-0.6183419227600098,-0.7858229875564575,0.24816861748695374,-0.17024755477905273,0.11396324634552002,0.20543518577111025,0.07714525742040357,-0.3180206441459707,-0.9223382530637744,0.6666311763577709,0.014814955164353662,-2.7084108577366095
1782664441526825728,2.0822386741638184,1.5438480377197266,0.09528100490570068,-0.00919214729219675,0.009638470597565174,-0.6344032883644104,-0.7729421257972717,0.2859548032283783,-0.2807577848434448,0.213692307472229,0.2044114662764163,0.07814001267497545,-0.3277545779065143,-0.9190685618233109,0.687236332145852,0.012469200835584452,-2.7083556233677264
1782664441536745728,2.092158794403076,0.6579818725585938,-0.36877161264419556,-0.43175938725471497,0.008911700919270515,-0.6415596604347229,-0.7670214176177979,-0.03335626795887947,-0.3235282301902771,0.33808159828186035,0.20225977579868165,0.07806472567781413,-0.3322577192957366,-0.9179334424900979,0.6965297917583361,0.011618059171864403,-2.712056854464542
1782664441546665984,2.102078914642334,-0.37840673327445984,0.10843443870544434,-0.30436721444129944,0.011120937764644623,-0.6428349614143372,-0.7659239768981934,0.14195522665977478,-0.21483105421066284,0.18374013900756836,0.20094007392954896,0.07892723102003026,-0.33287911945140686,-0.9179243072197393,0.6981935105725072,0.014518616759421517,-2.7158624802539797
1782664441556585728,2.1119987964630127,-0.41439002752304077,0.06006157770752907,-0.4913559854030609,0.01428570318967104,-0.6394898891448975,-0.7686668038368225,0.033001288771629333,0.02112746238708496,0.25368261337280273,0.19904265566935314,0.0793906000993846,-0.33070189469437195,-0.919084058554102,0.6938345945040216,0.018582901128474046,-2.7217657205404278
1782664441566504960,2.121917963027954,-1.2281581163406372,0.42305684089660645,-0.19836993515491486,0.019625069573521614,-0.6331667304039001,-0.7737666368484497,0.21862566471099854,-0.11565834283828735,0.2075740098953247,0.19826326666912394,0.08095838814771238,-0.326439014837259,-0.9206383958960275,0.6856377014014368,0.025357599182659497,-2.7264143249058255
1782664441576424960,2.131837844848633,-1.0588757991790771,0.22631633281707764,-0.3470393121242523,0.02279098890721798,-0.6230280995368958,-0.7818673849105835,0.32175248861312866,0.17121535539627075,0.2726510763168335,0.1979962572792044,0.08103344599840395,-0.32015602970933976,-0.9228928711636353,0.6726079913651472,0.02914117711308912,-2.7291101633723813
1782664441586344960,2.1417579650878906,-0.7646533846855164,0.09539879858493805,0.19798201322555542,0.024773119017481804,-0.6174004077911377,-0.7862588763237,0.565040111541748,-0.1683356761932373,-0.00011807680130004883,0.19796526363445735,0.08124039940725344,-0.31665525949740586,-0.9240882840283734,0.6654337310606963,0.03149716499494597,-2.7304020514825726
1782664441596264960,2.1516778469085693,-1.9344223737716675,0.043862901628017426,-0.8259462118148804,0.02579275146126747,-0.6053061485290527,-0.7955748438835144,0.5639442205429077,-0.19375085830688477,0.1845518946647644,0.19787041337917644,0.08001469488698977,-0.3095322912238322,-0.9266255241743181,0.6501503934943301,0.03240892087079773,-2.7317583822819738
1782664441606184960,2.161597967147827,-0.7734439969062805,0.7476399540901184,0.3346579372882843,0.030623173341155052,-0.5957749485969543,-0.8025674223899841,0.2808239758014679,-0.15025776624679565,-0.01895052194595337,0.19809027072512214,0.0812450635336161,-0.30350540343129523,-0.9284632274217351,0.6382301605484625,0.038138009766314734,-2.7337926099596253
1782664441616104960,2.171517848968506,-1.2475508451461792,0.07966484129428864,-0.2136712223291397,0.03204575926065445,-0.5869575142860413,-0.8089832663536072,0.24326857924461365,-0.24554675817489624,-0.05878406763076782,0.19964415663080146,0.0812503954784205,-0.2981723108934473,-0.9298568857966955,0.6272957354495369,0.039591688676864134,-2.731449101378826
1782664441626024960,2.1814379692077637,-0.7347182035446167,0.2739294171333313,-0.0016536704497411847,0.034428562968969345,-0.5789979100227356,-0.8146017789840698,0.24378491938114166,-0.1355101466178894,-0.038318753242492676,0.1997910383730766,0.081419040455715,-0.29337699755321545,-0.9313346755677874,0.6174991171185084,0.0422391475309621,-2.7324295841723223
1782664441635944960,2.1913578510284424,-0.6682276129722595,0.040916912257671356,-0.14963755011558533,0.03522851690649986,-0.572961688041687,-0.8188246488571167,0.15710850059986115,-0.10878574848175049,-0.0962144136428833,0.19980995657299097,0.08100439162716228,-0.289872330227633,-0.9324634809807965,0.6101149710589072,0.04299676006160278,-2.732954368097438
1782664441645864960,2.2012779712677,-0.37849199771881104,0.30580413341522217,0.01007166225463152,0.03763013705611229,-0.5688185691833496,-0.8216017484664917,0.1412791758775711,-0.1574387550354004,-0.0250321626663208,0.19998594040018924,0.08172533989832848,-0.28726309848073284,-0.9331701676893059,0.6050686570288799,0.04576895853205456,-2.7336506188050973
1782664441655784960,2.211197853088379,-0.34756791591644287,0.1305590718984604,-0.08391768485307693,0.040033552795648575,-0.5653655529022217,-0.8238683938980103,-0.0016119219362735748,-0.05429387092590332,-0.10157716274261475,0.200050812998808,0.08250798315947162,-0.2850583172014573,-0.9337632770813961,0.6008763690699531,0.04855398007870823,-2.7345360915228367
1782664441665704960,2.2211179733276367,-0.538353443145752,0.005219408310949802,0.3283790051937103,0.04044761881232262,-0.5622814893722534,-0.8259561061859131,0.21481665968894958,-0.0638781189918518,-0.13202112913131714,0.20060878910092683,0.08246905436601401,-0.2832327542749121,-0.9342024136221365,0.5971421429549852,0.0489315739435927,-2.733603587195729
1782664441675624960,2.2310378551483154,-0.8595815300941467,-0.2450154721736908,-0.23740263283252716,0.038158200681209564,-0.5557133555412292,-0.8304978013038635,0.31592199206352234,-0.017299950122833252,-0.13440698385238647,0.20096762688134345,0.0805088586817212,-0.2797667221269046,-0.9353399751566164,0.589220753437213,0.045913886243969304,-2.7322413307409144
1782664441685544960,2.2409579753875732,-0.5091785192489624,-0.3896651864051819,-0.26207029819488525,0.03749430552124977,-0.5502074360847473,-0.8341858386993408,0.19025838375091553,-0.22237557172775269,-0.3082854747772217,0.19951539422638534,0.07899600077111409,-0.27688755482199434,-0.9366358037338953,0.582612630026749,0.04491695503232144,-2.73531055204206
1782664441695464960,2.250877857208252,-0.7381722927093506,-0.26253199577331543,-0.3502204120159149,0.035654276609420776,-0.5449550747871399,-0.8377068638801575,0.20760135352611542,-0.2469455599784851,-0.28582829236984253,0.19827671363158422,0.07699259441838892,-0.2742603007177918,-0.9378378606318042,0.5763355213055044,0.04253608729740585,-2.737501222735282
1782664441705384960,2.2607979774475098,-0.785013735294342,-0.33373576402664185,0.06273497641086578,0.03408754989504814,-0.538730800151825,-0.841788113117218,0.23893797397613525,-0.14622098207473755,-0.15928000211715698,0.19747692671377243,0.07514343484718448,-0.27103396366473903,-0.9390937360254042,0.5689298554952796,0.04047210391706339,-2.7388985479774526
1782664441715304960,2.2707178592681885,-1.1191132068634033,-0.28526198863983154,-0.25455403327941895,0.031757306307554245,-0.530616044998169,-0.8470171689987183,0.24630360305309296,-0.24582743644714355,-0.08627140522003174,0.19701458576074696,0.07277108651742786,-0.26682537992010835,-0.940581608811969,0.559327172468012,0.03747555624836524,-2.739405756412953
1782664441725224960,2.2806379795074463,-1.4454731941223145,-0.20645327866077423,0.37774550914764404,0.028598610311746597,-0.519991934299469,-0.8536922931671143,0.0967218279838562,-0.335843026638031,-0.004614591598510742,0.19718581865104917,0.0698519514766271,-0.2612940028978828,-0.9423183743826933,0.5468414778203426,0.03348738187341691,-2.738425702204608
1782664441735144960,2.290557861328125,-1.4197324514389038,-0.12680132687091827,-0.3821640610694885,0.026054056361317635,-0.5077584385871887,-0.8611054420471191,0.13674196600914001,-0.11364048719406128,0.03224802017211914,0.19777514421747325,0.06717576483496138,-0.2548228662010815,-0.9441598149517024,0.5325808300524947,0.03024729568704873,-2.73687067723386
1782664441745063680,2.3004767894744873,-1.024025321006775,-0.36638718843460083,-0.030099093914031982,0.024908635765314102,-0.49725043773651123,-0.8672494292259216,0.008492859080433846,0.02575385570526123,-0.02781587839126587,0.19629760880685115,0.06489489228297837,-0.24932696744301458,-0.9460930271025204,0.520426750770094,0.028713526202286874,-2.7400788001726735
1782664441754983936,2.310396909713745,-1.2544801235198975,-0.13018639385700226,0.06942137330770493,0.02336268499493599,-0.4875267744064331,-0.8727954030036926,0.2251419574022293,-0.1068488359451294,-0.09352844953536987,0.1962396936309961,0.06290589204368212,-0.24422355027572398,-0.9475693842221664,0.5092548481854886,0.02676126343855729,-2.740136161823257
1782664441764903680,2.320316791534424,-1.4157253503799438,-0.14191198348999023,-0.07961498200893402,0.021885639056563377,-0.47617828845977783,-0.879076361656189,0.12800145149230957,-0.12715423107147217,-0.058484673500061035,0.19663432239573833,0.060883952691675916,-0.2382329929654939,-0.9491434062019849,0.49630351341574963,0.02489103209669143,-2.7393387849614514
1782664441774823936,2.3302369117736816,-1.6466076374053955,-0.12434443831443787,0.19723525643348694,0.020449697971343994,-0.4628322422504425,-0.8862099647521973,0.120175302028656,-0.1787387728691101,0.03031402826309204,0.19701030366710626,0.058651588869906984,-0.23120337918405498,-0.9509426449235253,0.48118759512858955,0.02307136033026614,-2.738685884675438
1782664441784743680,2.3401567935943604,-1.636999249458313,-0.2936785817146301,-0.15437433123588562,0.017989953979849815,-0.44786497950553894,-0.8939201831817627,0.2779695391654968,-0.14318421483039856,0.052214860916137695,0.19739241135810798,0.055729674049166324,-0.22345938779610197,-0.9528884845085102,0.4643760164854169,0.020122071504014016,-2.737825605212976
1782664441794663936,2.350076913833618,-1.5344772338867188,-0.33521801233291626,-0.012500558979809284,0.015420198440551758,-0.4338819682598114,-0.900837779045105,0.17671847343444824,0.0566084086894989,-0.00846397876739502,0.19706162749539646,0.05272634684349077,-0.21633552030473324,-0.9547699018199302,0.4487969829509906,0.01711594870922716,-2.7384215783398664
1782664441804583680,2.359996795654297,-1.113627552986145,-0.31391704082489014,-0.04350980743765831,0.011913900263607502,-0.4215291440486908,-0.9067365527153015,0.19928298890590668,0.2512105703353882,0.03001236915588379,0.19683035109605754,0.049489651178382714,-0.21019630861064623,-0.9563608148076022,0.4351309548452946,0.01313856154591111,-2.7385420392344555
1782664441814503936,2.3699169158935547,-0.9838578104972839,-0.27484047412872314,-0.1589525192975998,0.0090761324390769,-0.4122370481491089,-0.9110314249992371,0.10545632243156433,0.025335192680358887,-0.07155829668045044,0.19614002010593168,0.04685831994772817,-0.20564191245949634,-0.9576244987016107,0.42490809424049836,0.009962150946063788,-2.739691112959685
1782664441824423680,2.3798367977142334,-1.1253763437271118,-0.21425767242908478,-0.01850525476038456,0.006646239198744297,-0.40280020236968994,-0.915263831615448,0.15470020473003387,-0.03929266333580017,-0.017292320728302002,0.19563083688808847,0.04447051529089223,-0.20097380251611746,-0.958832894275162,0.41457415237411244,0.0072614283901230045,-2.740584409773209
1782664441834343936,2.389756917953491,-1.2099884748458862,-0.22926272451877594,0.07641327381134033,0.004498605616390705,-0.3921828269958496,-0.9198762774467468,0.22400176525115967,-0.06681680679321289,0.030533015727996826,0.19588101658455062,0.042263011273155626,-0.1956417333403128,-0.9599837596179247,0.4030033133165556,0.004890407351331988,-2.7400255142352408
1782664441844263680,2.39967679977417,-1.2852225303649902,-0.2648070156574249,0.07012204825878143,0.002096488606184721,-0.3808739483356476,-0.9246245622634888,0.248696967959404,-0.11387699842453003,0.044146716594696045,0.19618384526579297,0.039870829089010275,-0.1899948006368792,-0.9611577128964358,0.3907413167950504,0.0022673905694780214,-2.7393487739943594
1782664441854183936,2.4095969200134277,-1.2889312505722046,-0.031987883150577545,0.029832949861884117,0.0005932963103987277,-0.36901864409446716,-0.9294217824935913,0.22085750102996826,-0.13456714153289795,0.040322721004486084,0.1963794220107773,0.03785519539480124,-0.18400022742490882,-0.9623647713978463,0.37795291314457063,0.0006383498002252208,-2.739123495810676
1782664441864103680,2.4195168018341064,-1.5139148235321045,-0.12357550859451294,0.18624478578567505,-0.00037847430212423205,-0.3560721278190613,-0.9344583749771118,0.20548711717128754,-0.16396266222000122,0.008463501930236816,0.1971034350320331,0.03609194778408055,-0.17739270636511728,-0.9635244634695241,0.3640611318292325,-0.00040501993456525196,-2.737955768673239
1782664441874023936,2.4294369220733643,-1.1437722444534302,-0.10165929794311523,0.1705601066350937,-0.0017240437446162105,-0.3434308171272278,-0.9391763806343079,0.2425382435321808,-0.010573089122772217,-0.01909083127975464,0.1981457345265363,0.03423435662757933,-0.17099652740322335,-0.964534284468511,0.3505674613127407,-0.0018356953774248403,-2.7360421788406026
1782664441883943680,2.439356803894043,-0.9679908156394958,-0.14561770856380463,0.24755018949508667,-0.0036279044579714537,-0.33363547921180725,-0.9426952004432678,0.16602718830108643,-0.001844257116317749,-0.16103404760360718,0.19917946248476348,0.03240424195693251,-0.16613962489820946,-0.9652331634341857,0.34015739238511034,-0.0038484194991544297,-2.733936937037633
1782664441893863936,2.449276924133301,-0.4950139820575714,-0.009667851962149143,0.24184277653694153,-0.005302890669554472,-0.32687801122665405,-0.9450516700744629,0.15338943898677826,0.04878658056259155,-0.2037062644958496,0.2005299262910856,0.031067833801729977,-0.1628157185041226,-0.9655638953798757,0.33299822937774254,-0.005611159010080186,-2.731108179763713
1782664441903783680,2.4591968059539795,-0.43589484691619873,-0.0956755131483078,0.4538637697696686,-0.006446452345699072,-0.32283324003219604,-0.9464339017868042,0.0794445052742958,0.004367053508758545,-0.2293778657913208,0.20228153981480088,0.030352319459244975,-0.1608159787218138,-0.96555644014171,0.32872148620691677,-0.006811202300628566,-2.7274415073980465
1782664441913703936,2.4691169261932373,-0.32022711634635925,-0.2807476222515106,0.07928188890218735,-0.008765481412410736,-0.3182985484600067,-0.947950005531311,0.15659263730049133,0.060547083616256714,-0.14871442317962646,0.20328594744073064,0.02887161383014806,-0.1587180763650983,-0.9657379793845154,0.32393413345566296,-0.00924651216245034,-2.7251434936550787
1782664441923622912,2.4790358543395996,-0.1486373096704483,-0.32244962453842163,0.14476019144058228,-0.012327510863542557,-0.316929429769516,-0.948369026184082,0.27522119879722595,-0.002604871988296509,-0.21467113494873047,0.2037035957080068,0.027024788922204522,-0.1583829426671866,-0.9657584997868329,0.322490274515946,-0.012997911447987202,-2.723720605515421
1782664441933542912,2.4889559745788574,-0.02111024782061577,-0.249160498380661,0.10694890469312668,-0.0154703538864851,-0.3159801661968231,-0.9486396312713623,0.12080176919698715,-0.030592679977416992,-0.10070723295211792,0.20411646430093947,0.025431280250797463,-0.15821954222452067,-0.9657412674419034,0.3214895750454353,-0.016306489162304472,-2.722364943064606
1782664441943462912,2.498875856399536,-0.1986689269542694,-0.3025609254837036,0.2120686024427414,-0.018327727913856506,-0.3150586187839508,-0.9488952159881592,0.122774139046669,-0.03632074594497681,-0.07989805936813354,0.20461791623616393,0.02399694398453594,-0.15803965186130708,-0.9657013248398202,0.3205184102636549,-0.019312404677190295,-2.7208764063942703
1782664441953382912,2.508795976638794,-0.15138556063175201,-0.31686875224113464,0.05414394661784172,-0.021421808749437332,-0.3132644295692444,-0.9494243264198303,0.16105499863624573,-0.044157445430755615,-0.004097402095794678,0.20496267031627038,0.022324062664613516,-0.15744675983391263,-0.9657652422162899,0.31862852789381174,-0.02255911801089284,-2.7197170708245837
1782664441963302912,2.5187158584594727,-0.21885254979133606,-0.31088656187057495,0.0781247466802597,-0.023799844086170197,-0.31209588050842285,-0.9497524499893188,0.1137046292424202,-0.07695743441581726,-0.027221977710723877,0.20494844979537613,0.0210162123854432,-0.1571053455024709,-0.9658531531383003,0.3173982936477676,-0.025053753707335986,-2.7193971006209066
1782664441973222912,2.5286359786987305,-0.293159544467926,-0.27731582522392273,0.19774675369262695,-0.0265047587454319,-0.3092403709888458,-0.9506144523620605,0.1495516300201416,-0.024515092372894287,0.07167774438858032,0.20553328827308331,0.019458930354500293,-0.1559298342240162,-0.9659519899920594,0.31439415925647457,-0.027874489498660487,-2.717871461964002
1782664441983142912,2.538555860519409,-0.06241987273097038,-0.3549768626689911,0.028093639761209488,-0.029508013278245926,-0.3077211081981659,-0.9510189294815063,0.20068110525608063,-0.050066977739334106,-0.007660269737243652,0.20589385075759267,0.017864376850792504,-0.15547154846014274,-0.9659799157397286,0.3127970005758651,-0.031017836228613146,-2.7166961783787804
1782664441993062912,2.548475980758667,-0.13961640000343323,-0.3513389825820923,0.17053014039993286,-0.03295651078224182,-0.30699747800827026,-0.951139509677887,0.14271298050880432,-0.03382280468940735,-0.03610408306121826,0.2059022505426462,0.01608043458864302,-0.15547234643768915,-0.9660093286610135,0.312036541535601,-0.03463564652445939,-2.716134817027189
1782664442002982912,2.5583958625793457,-0.16147135198116302,-0.2552502155303955,0.14071552455425262,-0.03579562529921532,-0.30535370111465454,-0.9515659809112549,0.11985629796981812,-0.10112518072128296,-0.003954648971557617,0.2063344560883058,0.014565448535120519,-0.15493503494085553,-0.9660274785221652,0.3103098581158235,-0.037599868330475454,-2.714853494911443
1782664442012902912,2.5683159828186035,-0.2687365412712097,-0.3925260603427887,0.21496951580047607,-0.03889957070350647,-0.303372323513031,-0.9520777463912964,0.17865481972694397,-0.190890371799469,-0.04822742938995361,0.20695154152182177,0.012912032306536501,-0.15425431990864272,-0.9660280067206998,0.3082297767936664,-0.040834841786437676,-2.7131694432515903
1782664442022822912,2.5782358646392822,-0.3833464980125427,-0.32890087366104126,0.09860016405582428,-0.04264450818300247,-0.30019503831863403,-0.9529241323471069,0.20862960815429688,-0.15842312574386597,-0.025057435035705566,0.20739619268404547,0.010782934133934928,-0.15304139133644062,-0.9661515651106778,0.3048971164961538,-0.04472137071972974,-2.7118140302569596
1782664442032742912,2.58815598487854,-0.5023381114006042,-0.2377147525548935,0.2583581507205963,-0.045603133738040924,-0.29632142186164856,-0.9539989233016968,0.09688793122768402,-0.13704341650009155,-0.05047184228897095,0.20803192657777983,0.008996077350980881,-0.1513922122890808,-0.9662930337813054,0.30083878320646784,-0.047765719874090604,-2.71024766486426
1782664442042662912,2.5980758666992188,-0.6322239637374878,-0.2809179723262787,0.14470267295837402,-0.04862935468554497,-0.2904990315437317,-0.9556388258934021,0.17646749317646027,-0.12473839521408081,-0.0244942307472229,0.20897928230724813,0.007009155688868412,-0.14876650074920716,-0.9665129123138143,0.2947483110999034,-0.05084289654499674,-2.708159827542714
1782664442052582912,2.6079959869384766,-0.604563295841217,-0.2865401804447174,0.21635554730892181,-0.0516548752784729,-0.2846289277076721,-0.9572451114654541,0.1552620530128479,-0.14058777689933777,-0.1038510799407959,0.2097007215297546,0.0049806720962948334,-0.14612545226212792,-0.9667720703658073,0.2886193077729838,-0.053909731382886336,-2.7065581477949796
1782664442062502912,2.6179158687591553,-0.5723198652267456,-0.2372947782278061,0.276248037815094,-0.05469944700598717,-0.27906835079193115,-0.9587120413780212,0.12131932377815247,-0.04998740553855896,-0.11060857772827148,0.21073203796567985,0.0030215080001745878,-0.14364830887871355,-0.9669271039030717,0.28282377099815353,-0.05699334466079404,-2.7043077914040716
1782664442072422912,2.627835988998413,-0.48787716031074524,-0.2884370684623718,0.28645965456962585,-0.05770553648471832,-0.2736910879611969,-0.9600850343704224,0.14588607847690582,-0.0016842782497406006,-0.10539042949676514,0.21196076190058558,0.0011273680800961495,-0.14126647252961233,-0.9670134960839408,0.2772285635263794,-0.06003239127000102,-2.7016578555099238
1782664442082342912,2.637755870819092,-0.35238438844680786,-0.36120131611824036,0.19951355457305908,-0.06152552738785744,-0.2692372500896454,-0.9611065983772278,0.18913477659225464,-0.058048516511917114,-0.12155026197433472,0.21292586866551325,-0.0011073573320954753,-0.13944701656189534,-0.9670655638439839,0.27260094354891,-0.06392807118601354,-2.6993831044306913
1782664442092262912,2.6476759910583496,-0.30619239807128906,-0.302653044462204,0.3029747009277344,-0.06533947587013245,-0.26611247658729553,-0.9617249369621277,0.16534557938575745,-0.00688248872756958,-0.12180161476135254,0.21400887890959408,-0.0031767691083598383,-0.13830195415734772,-0.9669863409769718,0.26935784103084986,-0.06783563453954047,-2.696788390494896
1782664442102181888,2.657594919204712,-0.24817650020122528,-0.35234615206718445,0.22524355351924896,-0.06910058856010437,-0.26289790868759155,-0.9623459577560425,0.14191552996635437,-0.00446656346321106,-0.061335623264312744,0.2149134099591286,-0.005257112310115211,-0.13711079920700073,-0.966946252201729,0.2660245323367554,-0.07168128564026102,-2.6945876571595617
1782664442112101888,2.6675148010253906,-0.2878163158893585,-0.44382545351982117,0.2660176157951355,-0.07348795980215073,-0.2603169083595276,-0.9627225399017334,0.17126628756523132,0.027177870273590088,-0.0982210636138916,0.21580294297358946,-0.007578428540197913,-0.13631328553379457,-0.966845561776255,0.26335039996247767,-0.07618573291131654,-2.692290726025338
1782664442122021888,2.6774349212646484,-0.11380689591169357,-0.36854442954063416,0.06756874173879623,-0.07772673666477203,-0.25824519991874695,-0.9629475474357605,0.13810575008392334,0.012532919645309448,-0.092518150806427,0.21640424239223438,-0.009810992413552011,-0.13575704186287937,-0.9667693420856253,0.2612053586034985,-0.0805428974933364,-2.6905824503246154
1782664442131941888,2.687354803085327,-0.10809069126844406,-0.38788723945617676,0.3201029896736145,-0.08162581920623779,-0.2571830153465271,-0.9629092216491699,0.0914982482790947,-0.0634499192237854,-0.15461397171020508,0.21707339741622422,-0.011754333744664325,-0.1356732807651853,-0.966609362415156,0.26010603386762754,-0.08456782589178469,-2.6887113459622727
1782664442141861888,2.697274923324585,-0.16521888971328735,-0.33570462465286255,0.19933520257472992,-0.08582332730293274,-0.25575578212738037,-0.9629243612289429,0.19074276089668274,-0.06061995029449463,-0.13322126865386963,0.21813160480693758,-0.013830949815556999,-0.13544932397460596,-0.9663750853240958,0.2586293924833136,-0.08889291167138753,-2.6860234228926703
1782664442151781888,2.7071948051452637,-0.23354680836200714,-0.42433807253837585,0.1592213362455368,-0.09007477760314941,-0.2536564767360687,-0.9630913138389587,0.1607382446527481,-0.07661998271942139,-0.11350774765014648,0.218640799842271,-0.01608681667952183,-0.13489085884335347,-0.9663032784294493,0.25645851299474787,-0.09325544574539969,-2.6845234070021364
1782664442161701888,2.7171149253845215,-0.3380473256111145,-0.41312575340270996,0.1735619455575943,-0.09392835199832916,-0.2508455514907837,-0.9634593725204468,0.17840100824832916,-0.1499112844467163,-0.08953440189361572,0.2191397156051855,-0.01822872882206202,-0.13393290766451033,-0.966285462306552,0.253553650853783,-0.09718360592396315,-2.6831691748976536
1782664442171621888,2.7270348072052,-0.48093122243881226,-0.423099547624588,0.13881036639213562,-0.09834151715040207,-0.24649980664253235,-0.9641404151916504,0.22033554315567017,-0.16632671654224396,-0.07006973028182983,0.2197410994359964,-0.02080489060911581,-0.1322759855048941,-0.9663250243813517,0.2490669528954548,-0.10164762327837934,-2.681664615851458
1782664442181541888,2.736954927444458,-0.39185142517089844,-0.383396178483963,0.22917436063289642,-0.10258834809064865,-0.24222896993160248,-0.9647801518440247,0.14920394122600555,-0.14166690409183502,-0.09594982862472534,0.2200630762514675,-0.023329579726239936,-0.13063556843865026,-0.9664172349336494,0.24466258438428015,-0.10593532515303775,-2.6807712576158362
1782664442191461888,2.7468748092651367,-0.6340196132659912,-0.4488961100578308,0.22237662971019745,-0.1070014014840126,-0.237351655960083,-0.965512752532959,0.155524343252182,-0.1770770400762558,-0.10391467809677124,0.22083881514969914,-0.02594380654125432,-0.12872660441911998,-0.9664298176638889,0.23963869194023862,-0.11037300075576631,-2.678985410684071
1782664442201381888,2.7567949295043945,-0.673569917678833,-0.4699723422527313,0.2761565148830414,-0.11181703209877014,-0.23047670722007751,-0.9666320085525513,0.15239015221595764,-0.10726132988929749,-0.09000861644744873,0.22174444164543033,-0.02896605626891075,-0.12587678001742422,-0.9665120030374234,0.23256755733884796,-0.115165081679424,-2.6770762858076265
1782664442211301888,2.7667148113250732,-0.5282950401306152,-0.420418381690979,0.21134528517723083,-0.1166241317987442,-0.22459398210048676,-0.967448353767395,0.1122906506061554,-0.07388317584991455,-0.1828201413154602,0.22240132342371313,-0.03190713803587973,-0.12352225376509873,-0.9665722458111111,0.2265263565247678,-0.11996928179114133,-2.6756169360174518
1782664442221221888,2.776634931564331,-0.38888439536094666,-0.4882704019546509,0.2201230674982071,-0.1214766651391983,-0.22008231282234192,-0.9678879976272583,0.1421370804309845,-0.019907906651496887,-0.19428235292434692,0.22318671929850392,-0.03470133335393338,-0.12186801482671404,-0.9665049226922133,0.22189885778397211,-0.12485410591578014,-2.673778469491376
1782664442231141888,2.7865548133850098,-0.31603577733039856,-0.6030067801475525,0.26373526453971863,-0.12737421691417694,-0.21628454327583313,-0.9679859280586243,0.18605953454971313,0.027273938059806824,-0.17633163928985596,0.22399716095685457,-0.037927111314891376,-0.12070028532529592,-0.9663426832390476,0.21800732501248238,-0.13083515751907024,-2.671701692365657
1782664442241061888,2.7964749336242676,-0.2264813780784607,-0.5611286163330078,0.2875465750694275,-0.1331719160079956,-0.21351957321166992,-0.9678195118904114,0.1659172922372818,-0.022213444113731384,-0.18164026737213135,0.2247602329077881,-0.040994449096734845,-0.12004038411917278,-0.9661224192651178,0.21517620055984016,-0.13674126074608842,-2.669649504467359
1782664442250981888,2.8063948154449463,-0.23530390858650208,-0.5800024271011353,0.2202247977256775,-0.13920699059963226,-0.2106667160987854,-0.9675954580307007,0.18664656579494476,-0.0862693190574646,-0.13988745212554932,0.22576456018986013,-0.04416011901222081,-0.119382420785148,-0.9658302168548888,0.21225693475930285,-0.1428885391945671,-2.667087696107156
1782664442260901888,2.816314935684204,-0.37776145339012146,-0.60550856590271,0.30352821946144104,-0.14543673396110535,-0.207450732588768,-0.9673739671707153,0.16650912165641785,-0.07460799813270569,-0.14131438732147217,0.22651377775695009,-0.04749625528828756,-0.11856277722000083,-0.965597480531652,0.20896827027340778,-0.1492242030232029,-2.6650798247704635
1782664442270821888,2.826234817504883,-0.4419960379600525,-0.6268975734710693,0.27093249559402466,-0.1519918590784073,-0.20310018956661224,-0.967289388179779,0.20226958394050598,-0.08584022521972656,-0.11210203170776367,0.22744085965974226,-0.051102402357791635,-0.11723413951208965,-0.9653576190066598,0.2045230676615505,-0.15585733908503238,-2.662800448412429
1782664442280741888,2.8361549377441406,-0.5373725891113281,-0.5920641422271729,0.26220932602882385,-0.15858133137226105,-0.19802160561084747,-0.9672845602035522,0.13117654621601105,-0.13515405356884003,-0.12382566928863525,0.2282022022350642,-0.05483194854066604,-0.115547321022615,-0.965176643528577,0.19933914761729712,-0.16249927849545234,-2.6609628937668264
1782664442290660864,2.846073865890503,-0.49677425622940063,-0.6388281583786011,0.3342566192150116,-0.1652499884366989,-0.19264402985572815,-0.9672542214393616,0.12041966617107391,-0.11044129729270935,-0.10522502660751343,0.22907876685331022,-0.05862443228487324,-0.11373682963893408,-0.9649611966703484,0.19385593811940852,-0.1692107481909047,-2.6589365404211023
1782664442300580864,2.8559939861297607,-0.5205637216567993,-0.6577531099319458,0.27274519205093384,-0.1718253791332245,-0.18729647994041443,-0.9671587347984314,0.13546371459960938,-0.10765589773654938,-0.11636781692504883,0.2302122116082496,-0.06234183062752854,-0.11195586171918001,-0.9646666788994077,0.188409192747811,-0.17582541433813262,-2.6564119563818225
1782664442310500864,2.8659138679504395,-0.4903762936592102,-0.6473503112792969,0.3624982535839081,-0.17857018113136292,-0.181821808218956,-0.9669816493988037,0.12798729538917542,-0.0766773372888565,-0.1252577304840088,0.23120615068932887,-0.06617841505115003,-0.11013442192576545,-0.9643829990794303,0.18283883179217245,-0.18261035421991684,-2.654197589021088
1782664442320420864,2.8758339881896973,-0.46785518527030945,-0.6886565685272217,0.20332381129264832,-0.18557396531105042,-0.17652875185012817,-0.9666436314582825,0.16892662644386292,-0.07479876279830933,-0.15342777967453003,0.2319915372485699,-0.07014993455006417,-0.10843048556241464,-0.9641067774957366,0.17745869359086427,-0.18966998826685882,-2.65239048795248
1782664442330340864,2.885753870010376,-0.4153863787651062,-0.6699614524841309,0.24417723715305328,-0.1922903209924698,-0.17201945185661316,-0.9661437273025513,0.13989165425300598,-0.06191304326057434,-0.15877991914749146,0.23253036097834984,-0.07392071080600919,-0.10706938017616718,-0.9638473150435779,0.172879312185224,-0.19646142880287784,-2.651056250045609
1782664442340260864,2.895673990249634,-0.49791184067726135,-0.6436939835548401,0.21035578846931458,-0.19904585182666779,-0.16722938418388367,-0.9656164050102234,0.18021650612354279,-0.10182885825634003,-0.1345117688179016,0.23318596876680364,-0.07773413375381671,-0.10558972775135293,-0.9635520451601737,0.16801879990183194,-0.2032860991408555,-2.6495327727546387
1782664442350180864,2.9055938720703125,-0.6089653372764587,-0.6724814176559448,0.24042074382305145,-0.20568415522575378,-0.1615559160709381,-0.9651910066604614,0.17986629903316498,-0.1162608414888382,-0.1154058575630188,0.23370187466991113,-0.08161194005447464,-0.10365317000629559,-0.9633166395636711,0.16226708156256792,-0.20996133518282825,-2.648451383602651
1782664442360100864,2.9155139923095703,-0.6914631724357605,-0.6629806160926819,0.20016638934612274,-0.212471142411232,-0.15474623441696167,-0.964836597442627,0.1852647215127945,-0.11788254976272583,-0.10620832443237305,0.23417305553212583,-0.08570469537117775,-0.10117517982135518,-0.9631102200439745,0.15537059278304818,-0.21675502550512765,-2.6476256004108607
1782664442370020864,2.925433874130249,-0.653995931148529,-0.7466312646865845,0.2845323979854584,-0.21951840817928314,-0.1476885825395584,-0.9643649458885193,0.14400264620780945,-0.10336427390575409,-0.1510830521583557,0.23460884662862003,-0.08996352888202014,-0.09861079969046044,-0.9628816927641854,0.1482308224895218,-0.22381630868216695,-2.6469126551021516
1782664442379940864,2.935353994369507,-0.6759148240089417,-0.7324491739273071,0.23946015536785126,-0.226853147149086,-0.14083148539066315,-0.9636929631233215,0.1460578590631485,-0.05963847041130066,-0.19505947828292847,0.23511540983080598,-0.09433932766387279,-0.09619567397732393,-0.9625835678626682,0.14130122582050625,-0.23119081511689663,-2.6460308871190907
1782664442389860864,2.9452738761901855,-0.5411477088928223,-0.6735514998435974,0.16915056109428406,-0.23380067944526672,-0.1343649923801422,-0.9629554748535156,0.11777286231517792,-0.04112634062767029,-0.1912955641746521,0.2355634711662308,-0.09848965768727504,-0.09392570083512591,-0.9622825021255951,0.1347726090649847,-0.23818597358485302,-2.6452910328066643
1782664442399780864,2.9551939964294434,-0.39130768179893494,-0.742870569229126,0.20695076882839203,-0.24083831906318665,-0.1298924833536148,-0.9618341326713562,0.12638214230537415,-0.013845309615135193,-0.2283819317817688,0.23583666020855787,-0.10247287718463027,-0.09264045898160152,-0.9619242076133365,0.13026053819525918,-0.2453502596196732,-2.6446512884204982
1782664442409700864,2.965113878250122,-0.325145959854126,-0.742189884185791,0.11938869208097458,-0.24822364747524261,-0.12583714723587036,-0.9604946970939636,0.18468604981899261,0.018461063504219055,-0.16119414567947388,0.23611779864490756,-0.10658350783534751,-0.091611237589199,-0.9615069233461555,0.12617164593890146,-0.2528998467750855,-2.643920711368151
1782664442419620864,2.97503399848938,-0.3817927837371826,-0.7189541459083557,0.21181006729602814,-0.2555067539215088,-0.12249584496021271,-0.9590156674385071,0.11915421485900879,-0.08464221656322479,-0.15946882963180542,0.23639502319820235,-0.11056493314731702,-0.09092611077327586,-0.9610542030272423,0.12280427560757703,-0.2603777256004063,-2.6431208948362945
1782664442429540864,2.9849538803100586,-0.36409687995910645,-0.6509156823158264,0.22548194229602814,-0.2623002827167511,-0.11818873882293701,-0.9577212333679199,0.1552903950214386,-0.060537464916706085,-0.09293794631958008,0.2368416061590553,-0.11440626902804281,-0.08972502657676888,-0.9606074998588352,0.11846563675277356,-0.2673242527970399,-2.6421795709342977
1782664442439460864,2.9948737621307373,-0.3392888903617859,-0.6370804905891418,0.26697859168052673,-0.26879826188087463,-0.11444777995347977,-0.9563729166984558,0.17610111832618713,-0.052422329783439636,-0.13342499732971191,0.23765200966266037,-0.11800546744135759,-0.0888157655822204,-0.9600561878972993,0.11469910701600786,-0.273991438425353,-2.640439761220667
1782664442449380864,3.004793882369995,-0.393037348985672,-0.6941022276878357,0.2306346893310547,-0.27528443932533264,-0.11040627956390381,-0.9550020694732666,0.17080751061439514,-0.04003012180328369,-0.1059720516204834,0.23820984339563245,-0.12166346245206681,-0.08773239364935992,-0.9595608846836433,0.11063181761560907,-0.28064735150144715,-2.6392904388632004
1782664442459299840,3.0147128105163574,-0.23668546974658966,-0.651009202003479,0.08912793546915054,-0.28158456087112427,-0.10695948451757431,-0.9535564184188843,0.17573434114456177,-0.04906163364648819,-0.14046823978424072,0.23844932418103004,-0.12519233405147384,-0.08688315121398721,-0.9591246222390262,0.10716448339815507,-0.2871386866578518,-2.6387433025807714
1782664442469219840,3.0246329307556152,-0.30633461475372314,-0.7476092576980591,0.12751899659633636,-0.28843456506729126,-0.1041308268904686,-0.9518204927444458,0.14840468764305115,-0.1088055744767189,-0.16124707460403442,0.2385278395722209,-0.12894137473303388,-0.08639367641373748,-0.9586525749733011,0.10431993556056177,-0.2942385089008539,-2.638392289569653
1782664442479139840,3.034552812576294,-0.4356064796447754,-0.707402229309082,-0.0009739650995470583,-0.29520684480667114,-0.10044532269239426,-0.9501387476921082,0.11741143465042114,-0.09204430878162384,-0.08880168199539185,0.23823223041512373,-0.13279242984268083,-0.08542123420151468,-0.9582874878705154,0.10061500109559306,-0.30124293852315087,-2.638984665106515
1782664442489059840,3.0444729328155518,-0.39697572588920593,-0.6221003532409668,0.036266881972551346,-0.3013872802257538,-0.09650886058807373,-0.9486051797866821,0.08057734370231628,-0.06494438648223877,-0.08649003505706787,0.23779860571345524,-0.1363938863669815,-0.08422664858533425,-0.9579949803374566,0.09665930579508504,-0.30762995908485974,-2.639979874341563
1782664442498979840,3.0543928146362305,-0.3806525766849518,-0.5878005623817444,0.07243441045284271,-0.30698463320732117,-0.09271321445703506,-0.9471877813339233,0.10613319277763367,-0.041472576558589935,-0.09713900089263916,0.23750344805683654,-0.1396778228264063,-0.083043450793079,-0.9576983096277241,0.09284655536105657,-0.3134186976367366,-2.6407326106820053
1782664442508899840,3.0643129348754883,-0.37753161787986755,-0.6238323450088501,-0.12680892646312714,-0.3127356171607971,-0.0890473872423172,-0.9456568956375122,0.159247487783432,-0.0286589115858078,-0.07369118928909302,0.23696677715484257,-0.14304765783397994,-0.08190792543771237,-0.9574315925591789,0.08916549059629789,-0.31938522883130654,-2.6419685239276083
1782664442518819840,3.074232816696167,-0.24853874742984772,-0.6246171593666077,-0.02387535199522972,-0.31848248839378357,-0.08654951304197311,-0.9439693093299866,0.10025128722190857,-0.01716446876525879,-0.06127971410751343,0.23603468631168104,-0.14631378319172783,-0.08128726648045363,-0.9572210690196643,0.08665793271069991,-0.3253939559138427,-2.6438385608191837
1782664442528739840,3.084152936935425,-0.17022955417633057,-0.5757161974906921,-0.06747609376907349,-0.32417184114456177,-0.08456877619028091,-0.9422105550765991,0.15460091829299927,-0.027186594903469086,-0.02626478672027588,0.2355098920536787,-0.14945872788368203,-0.0809741093368685,-0.9568910039217791,0.08466990587902928,-0.33136841735513106,-2.6447792628195685
1782664442538659840,3.0940728187561035,0.059558168053627014,-0.5173424482345581,-0.07797317951917648,-0.3290925621986389,-0.08466027677059174,-0.940494954586029,0.0911622941493988,0.00397181510925293,-0.021449625492095947,0.23486346463879998,-0.15198539219873403,-0.08156578391763764,-0.9566015448248664,0.084761737628764,-0.33659841605364976,-2.645669778427932
1782664442548579328,3.103992462158203,0.1543930619955063,-0.4455114006996155,-0.12291482090950012,-0.3334459662437439,-0.08580228686332703,-0.9388566017150879,0.1462511420249939,0.009477831423282623,0.09213113784790039,0.23439343323386339,-0.15409036308865726,-0.08263081989538337,-0.9562886356523981,0.08590791977512309,-0.3412658492794312,-2.6460439144763264
1782664442558499584,3.113912582397461,0.04784924536943436,-0.2948991060256958,-0.04205302521586418,-0.3369271755218506,-0.08719590306282043,-0.9374843835830688,0.12360930442810059,0.0008158907294273376,0.18006861209869385,0.2338297971649567,-0.15573608855731777,-0.08369037906677036,-0.9560679370284757,0.08730677344758182,-0.34501986208095003,-2.646639251784757
1782664442568419584,3.1238324642181396,-0.2333960086107254,-0.10359864681959152,-0.03651737794280052,-0.3387207090854645,-0.0864996463060379,-0.9369024038314819,0.11551514267921448,-0.006334826350212097,0.32160699367523193,0.23357683038240332,-0.15674774107228204,-0.08354010393014151,-0.9559775540401271,0.08660787998026773,-0.34691163492478166,-2.6471325013309466
1782664442578339328,3.1337523460388184,-0.49225521087646484,0.15529215335845947,0.02217979170382023,-0.33832669258117676,-0.0832490399479866,-0.9373391270637512,0.03440213203430176,-0.0818968340754509,0.4052651524543762,0.23320209244892834,-0.15696190414407518,-0.08181315312031277,-0.9561832441226148,0.0833455027322256,-0.3463907822705011,-2.648566465564971
1782664442588259584,3.143672466278076,-0.8259966969490051,0.32057085633277893,0.038774214684963226,-0.3361088037490845,-0.07686745375394821,-0.9386811256408691,0.04910624027252197,-0.1612154245376587,0.46948862075805664,0.23289818095726803,-0.15661270590270962,-0.07830640754299105,-0.9566080567737579,0.07694335061543665,-0.34384146537705806,-2.650593573247075
1782664442598179328,3.153592348098755,-0.8652632832527161,0.5656517148017883,-0.08268663287162781,-0.3318374454975128,-0.06913039088249207,-0.940800130367279,0.029515057802200317,-0.19683030247688293,0.5131725668907166,0.2324021580558471,-0.15539777732974364,-0.07383399210390178,-0.9572822935617982,0.06918557022179667,-0.3390944232052581,-2.6534138455503693
1782664442608099584,3.1635124683380127,-1.0394326448440552,0.7084839940071106,-0.2653485834598541,-0.32575690746307373,-0.060809873044490814,-0.9434959292411804,0.06374824047088623,-0.18653510510921478,0.5624534487724304,0.23106497140311355,-0.15339618418884682,-0.06871415210339334,-0.9583094547828557,0.06084741348914422,-0.3324510687695417,-2.6581787381289916
1782664442618019328,3.1734323501586914,-0.8747464418411255,0.7873790860176086,-0.20932191610336304,-0.31839269399642944,-0.052611976861953735,-0.9464977979660034,0.19472020864486694,-0.05461154133081436,0.6232556104660034,0.22943691570607735,-0.1507431576492438,-0.06346337696486228,-0.9594830338804788,0.05263627874921379,-0.32449930458495374,-2.6635388058496767
1782664442627938560,3.183351516723633,-0.9996182918548584,0.7346687316894531,-0.3487218916416168,-0.31104418635368347,-0.04482174664735794,-0.9493379592895508,0.19109484553337097,0.02365780621767044,0.6529359817504883,0.22777300854310853,-0.1480429323002749,-0.058432186398692416,-0.9606188081608177,0.04483676766199747,-0.31662079834680046,-2.6688109610579405
1782664442637858304,3.1932713985443115,-0.8781476020812988,0.8287458419799805,-0.33468902111053467,-0.30348560214042664,-0.036889687180519104,-0.9521216750144958,0.08330127596855164,0.1134430393576622,0.7419623732566833,0.22551061591561808,-0.1452760716730692,-0.05323569012745607,-0.9618761497906405,0.036898060512124735,-0.30856561952100053,-2.6752747489855584
1782664442647778560,3.2031915187835693,-0.7019197940826416,1.0840511322021484,-0.24992379546165466,-0.2941070795059204,-0.030420763418078423,-0.9552882313728333,0.03371584415435791,0.10300682485103607,0.7017481923103333,0.2239231643262463,-0.14137741822662186,-0.048665302807717484,-0.9630693393971161,0.03042545831304829,-0.2986636421047932,-2.6801129865867814
1782664442657698304,3.213111400604248,-0.5298963189125061,1.1646009683609009,-0.314612478017807,-0.28301122784614563,-0.02543073147535324,-0.9587793946266174,-0.05352136492729187,0.16889387369155884,0.7134791016578674,0.22230488763392756,-0.13644640029052482,-0.04463948049395863,-0.9643496410159478,0.025433472510144887,-0.28702770523793536,-2.6847867988951655
1782664442667618560,3.223031520843506,-0.251546710729599,1.2865597009658813,-0.21535326540470123,-0.2702687382698059,-0.022913184016942978,-0.9625122547149658,-0.017924010753631592,0.15822812914848328,0.6397583484649658,0.22110767633064807,-0.1303956186576617,-0.04172370348865055,-0.9655917561727452,0.02291518919192527,-0.27374585938352486,-2.6882246989904512
1782664442677538304,3.2329514026641846,0.026298612356185913,1.3506722450256348,-0.26593300700187683,-0.2573698163032532,-0.022473741322755814,-0.9660516381263733,0.04940780997276306,0.1312384009361267,0.5600457787513733,0.2201564845423029,-0.12403441054728725,-0.0398705493685902,-0.9667248283784791,0.022475632643073357,-0.26036661549168233,-2.6908188417599384
1782664442687458560,3.2428715229034424,0.207985058426857,1.5363878011703491,-0.29632100462913513,-0.2430758774280548,-0.024614306166768074,-0.9696949124336243,0.0541873425245285,0.04457280784845352,0.48345839977264404,0.21915794681618972,-0.1167069470179697,-0.03914110467516241,-0.967893163807478,0.02461679166759845,-0.2456115327919849,-2.6932079870516676
1782664442697378304,3.252791404724121,0.23999398946762085,1.646504282951355,-0.359293133020401,-0.22739079594612122,-0.02746748737990856,-0.9734161496162415,0.08647587895393372,-0.01040482334792614,0.510815441608429,0.21803881233796468,-0.10863238154953515,-0.038612707945685984,-0.9691063214574781,0.027470942848333627,-0.2294855814245886,-2.695817398031145
1782664442707298560,3.262711524963379,0.15894760191440582,1.7685753107070923,-0.3533257842063904,-0.2106621265411377,-0.03047264739871025,-0.9770838618278503,0.0886528491973877,-0.06252966821193695,0.49803417921066284,0.21677660376339622,-0.10004991343286175,-0.03805367059470048,-0.9703348831964705,0.030477365173309758,-0.21235236847898947,-2.698754717998324
1782664442717218304,3.2726314067840576,0.10468949377536774,1.7384166717529297,-0.2896971106529236,-0.19331094622612,-0.03234792873263359,-0.9806041717529297,0.1311924159526825,-0.11964486539363861,0.5131053924560547,0.2156599287820664,-0.09129714899477014,-0.036915562527403585,-0.971490017496238,0.032353571745061344,-0.1946388037408838,-2.701540722087043
1782664442727138560,3.2825515270233154,0.08747988194227219,1.7224441766738892,-0.3510630130767822,-0.17633172869682312,-0.03389881178736687,-0.9837468862533569,0.14828608930110931,-0.12070323526859283,0.5169348120689392,0.21450040064107084,-0.08278323384743423,-0.03568584530409973,-0.9725548917665456,0.03390530889549712,-0.17736155493195668,-2.704421291659283
1782664442737058304,3.292471408843994,0.0996367409825325,1.7806265354156494,-0.2168835997581482,-0.15925830602645874,-0.035368043929338455,-0.9866032004356384,0.11435168981552124,-0.08400146663188934,0.5133365988731384,0.2134131259900674,-0.07424450608806954,-0.034440486596466605,-0.9735278958704969,0.03537542242756413,-0.16004030904590683,-2.7071503947001676
1782664442746978560,3.302391529083252,0.08851777762174606,1.7855322360992432,-0.17003034055233002,-0.14166976511478424,-0.036539915949106216,-0.9892393350601196,0.11568404734134674,-0.11151611804962158,0.49712812900543213,0.2127855686020124,-0.06548212278458533,-0.03305165377701343,-0.9743418150259096,0.03654805122914349,-0.14224363187372763,-2.708962220746054
1782664442756898304,3.3123114109039307,0.04044399410486221,1.6874101161956787,-0.06339789181947708,-0.1244661882519722,-0.037341274321079254,-0.9915209412574768,0.1331484466791153,-0.14280398190021515,0.4586840867996216,0.2125534532763284,-0.05694880991594265,-0.03156513716474149,-0.9749776456681438,0.03734995720043485,-0.12487736874948605,-2.7099572448466085
1782664442766818560,3.3222315311431885,0.1657577008008957,1.5976791381835938,-0.07371870428323746,-0.108136385679245,-0.03805409371852875,-0.9934074878692627,0.14765664935112,-0.11911143362522125,0.3984215259552002,0.2123532015886545,-0.04886440543244034,-0.030141889014281546,-0.9755048493365518,0.03806328236212513,-0.10842709214371324,-2.7108437188686647
1782664442776738304,3.332151412963867,0.22193509340286255,1.731683373451233,0.0628485232591629,-0.09167946875095367,-0.04034428298473358,-0.994970977306366,0.15642251074314117,-0.11306758224964142,0.32001370191574097,0.2127552578204767,-0.040541446263127674,-0.02951118739003652,-0.9758179934385828,0.04035523611663311,-0.09188340273072318,-2.7104007646825354
1782664442786658560,3.342071533203125,0.41285762190818787,1.6744924783706665,0.025208735838532448,-0.07504521310329437,-0.043388210237026215,-0.996235728263855,0.07971441000699997,-0.020897064357995987,0.32884687185287476,0.21328651894741263,-0.03205631022908081,-0.02923209261012644,-0.9760260699664467,0.04340183615952642,-0.07518676814091096,-2.7096733158948
1782664442796578304,3.3519914150238037,0.6777066588401794,1.6754182577133179,0.0789894387125969,-0.05852648243308067,-0.0483817495405674,-0.9971127510070801,0.12488695979118347,0.0330619215965271,0.2628903388977051,0.21381568849956656,-0.023426298477866463,-0.02991367620601199,-0.9761349388377449,0.0484006439029692,-0.05862868492636662,-2.708898292560467
1782664442806498560,3.3619115352630615,0.914660632610321,1.6089577674865723,0.008594638668000698,-0.04206712171435356,-0.05647836998105049,-0.9975171685218811,0.11913926899433136,0.05206858366727829,0.17812025547027588,0.2143997629937337,-0.014494594147745935,-0.032114016175645195,-0.9761103350440482,0.05650844010411621,-0.042146852001380505,-2.707974091303143
1782664442816417536,3.371830463409424,1.0785467624664307,1.5531041622161865,0.07185273617506027,-0.026418011635541916,-0.06601588428020477,-0.9974687695503235,0.10315446555614471,0.00928371399641037,0.15991389751434326,0.21483971359075163,-0.005807938949959804,-0.0350980291550538,-0.976001176791429,0.06606392852123402,-0.026478860613223944,-2.7073835496658636
1782664442826337280,3.3817503452301025,1.1147692203521729,1.5958987474441528,0.018911492079496384,-0.010879294946789742,-0.0772741436958313,-0.9969505071640015,0.05584694817662239,-0.1081048771739006,0.07356494665145874,0.21533964417027301,0.0030169126360536608,-0.03893117166248267,-0.9757582145350371,0.07735125470215984,-0.01091213921577724,-2.7067545441095695
1782664442836257536,3.3916704654693604,0.7257628440856934,1.7199788093566895,0.0938386619091034,0.005746888928115368,-0.0864553302526474,-0.9962391257286072,-0.05532269552350044,-0.1838083267211914,0.09601640701293945,0.21575132278782203,0.012152280419197173,-0.041626264821561475,-0.975484915311044,0.08656339392558551,0.005768519855427126,-2.706503898623117
1782664442846177280,3.401590347290039,0.5261930227279663,1.5239681005477905,0.09392255544662476,0.022106435149908066,-0.09272430092096329,-0.9954463839530945,-0.03594615310430527,-0.2146029770374298,0.08429831266403198,0.2168338802253387,0.020877765861923796,-0.04290600486598959,-0.9750417294059702,0.09285769184701857,0.022203909786423955,-2.7049777845048655
1782664442856097536,3.411510467529297,0.10752309113740921,1.2853450775146484,0.18584664165973663,0.03555174916982651,-0.09595772624015808,-0.9947503209114075,0.026704110205173492,-0.13995841145515442,0.06169062852859497,0.21730387641573873,0.027826218113254444,-0.043017954186844884,-0.9747585217111658,0.09610559981659299,0.03572416551124122,-2.704622296286503
1782664442866017280,3.4214303493499756,-0.031025996431708336,1.314348816871643,0.3292270004749298,0.04845432564616203,-0.09595375508069992,-0.9942057132720947,0.014884904026985168,-0.005303561687469482,0.017048180103302002,0.2191056669091211,0.03421360379882282,-0.04155188638073288,-0.9742152945700017,0.0961016118461945,0.048698185179402345,-2.701487248498429
1782664442875937536,3.4313504695892334,-0.058954231441020966,1.1052523851394653,0.28542375564575195,0.06010769307613373,-0.09595266729593277,-0.9935693740844727,-0.11291836202144623,0.08475272357463837,-0.16431325674057007,0.22075319334950144,0.03998231456108225,-0.0402083970727194,-0.973679968074307,0.0961005201828856,0.0604230823294541,-2.698596259549047
1782664442885857280,3.441270351409912,0.025580624118447304,0.8926455974578857,0.24919863045215607,0.06996067613363266,-0.09570220857858658,-0.9929484128952026,0.01858607679605484,0.18366914987564087,-0.2031574845314026,0.22239804547768854,0.04484106513877749,-0.03892379230233241,-0.9731461956219859,0.09584890473271342,0.07034126520174411,-2.6956145214305622
1782664442895777536,3.45119047164917,0.05513205751776695,0.669610321521759,0.0743294432759285,0.0776020959019661,-0.0968812108039856,-0.992266058921814,-0.035091109573841095,0.11156017333269119,-0.37519609928131104,0.2233554055218466,0.04875176492593245,-0.03860352316203439,-0.972751532225928,0.09703341079371361,0.07804808039923289,-2.6939845826194144
1782664442905697280,3.4611103534698486,0.13687032461166382,0.4075869619846344,0.19707533717155457,0.08285626024007797,-0.09793353080749512,-0.9917377829551697,0.01248064637184143,0.11296344548463821,-0.42147016525268555,0.2240085433942073,0.05146901928515494,-0.038497266765198566,-0.972465517744416,0.09809075487624437,0.08335296222898565,-2.6928826978573914
