time,seconds_elapsed,rotationRateX,rotationRateY,rotationRateZ,gravityX,gravityY,gravityZ,accelerationX,accelerationY,accelerationZ,quaternionW,quaternionX,quaternionY,quaternionZ,pitch,roll,yaw
1782664836299960832,0.17501282691955566,0.8819301724433899,0.17137664556503296,-0.605120062828064,0.08369085192680359,0.7247254252433777,-0.6839362978935242,0.04761102795600891,-0.12920546531677246,0.005667924880981445,-0.5355148934469901,0.19344094892890495,-0.3472930348730949,0.7451119720510665,-0.8106358049995985,0.12176111841019532,-1.8429571357216474
1782664836309881088,0.18493294715881348,1.183896780014038,0.1255883127450943,-0.5760460495948792,0.08230409771203995,0.7161132097244263,-0.693114697933197,0.050844088196754456,-0.11201775074005127,0.02366584539413452,-0.534695634973241,0.18975419918875963,-0.3426893533290445,0.7487710530482399,-0.7982177116828781,0.11819183493504419,-1.851448677567759
1782664836319799808,0.19485187530517578,1.5715539455413818,0.10268913209438324,-0.5886409282684326,0.08227203041315079,0.7038942575454712,-0.7055240869522095,0.030765078961849213,-0.08753073215484619,0.06308329105377197,-0.5346401864315372,0.1843327969979346,-0.33654028920254936,0.752942238671683,-0.7808652015854296,0.11608692631620467,-1.8588691649776359
1782664836329720064,0.2047719955444336,2.0694916248321533,0.09742587804794312,-0.5749140977859497,0.08155041188001633,0.6893341541290283,-0.7198387980461121,0.003532588481903076,-0.04236149787902832,0.11311882734298706,-0.5346634866962786,0.1783737155222655,-0.3290340577876263,0.7576637123002748,-0.7605695404007687,0.11280884351807745,-1.8674102215614001
1782664836339639808,0.2146918773651123,2.496612310409546,0.1629982441663742,-0.5936909914016724,0.0804620012640953,0.6721712350845337,-0.7360106110572815,-0.025866039097309113,-0.013281464576721191,0.14363396167755127,-0.5346969017286283,0.17166875948465454,-0.32019450358108453,0.7629577287215247,-0.7371374517842426,0.1088893816536662,-1.8769485219915918
1782664836349560064,0.22461199760437012,2.521968126296997,0.2605500817298889,-0.6728289127349854,0.07915722578763962,0.6536718010902405,-0.752626895904541,-0.05480419844388962,-0.03195244073867798,0.16652154922485352,-0.5342843368848128,0.1645534750152307,-0.3108193995609533,0.7686700300280819,-0.7124262193455168,0.10478933772511904,-1.8877435030473593
1782664836359479040,0.23453092575073242,2.3167741298675537,0.34676307439804077,-0.7385059595108032,0.07748193293809891,0.6361952424049377,-0.7676275968551636,-0.0672280341386795,-0.13389122486114502,0.24994271993637085,-0.533085317762214,0.15792207457227042,-0.30207087725073056,0.774360289137369,-0.6895567466289705,0.10059616611170707,-1.8996158187305365
1782664836369398784,0.24445080757141113,2.074036121368408,0.46799394488334656,-0.781443178653717,0.07605750858783722,0.6202501654624939,-0.7807080149650574,-0.04413613677024841,-0.2655138373374939,0.2786175608634949,-0.5312170745993711,0.1517229163690066,-0.294323215903405,0.7798476665883957,-0.6690615724399125,0.0971147391813576,-1.9118456628877698
1782664836379319040,0.25437092781066895,1.9423388242721558,0.5252900123596191,-0.8042137026786804,0.07514487951993942,0.6054365038871765,-0.7923381924629211,-0.003352254629135132,-0.2945844531059265,0.2608135938644409,-0.5288664058586371,0.14572843130154764,-0.28739192197623575,0.7851556029755182,-0.650314191930946,0.09455657514576617,-1.9241450131269633
1782664836389238784,0.26429080963134766,2.034865140914917,0.5129003524780273,-0.756691038608551,0.07473428547382355,0.590262770652771,-0.8037441372871399,0.05499596148729324,-0.23468726873397827,0.1450069546699524,-0.526491475098693,0.1395435725536691,-0.2804559392827315,0.7903661790198478,-0.6313843438020127,0.09271609234081025,-1.9360202098140946
1782664836399158016,0.27420997619628906,2.3525052070617676,0.473889023065567,-0.7611837983131409,0.0745660662651062,0.5730541944503784,-0.8161181211471558,0.1094396635890007,-0.15915954113006592,0.03560054302215576,-0.5243822639737052,0.1327941382269471,-0.27259245455812003,0.7956647512148448,-0.6102278435821773,0.09111378211367263,-1.9474578028286529
1782664836409077760,0.2841298580169678,2.8613991737365723,0.45770618319511414,-0.808504045009613,0.07445191591978073,0.5519581437110901,-0.8305414319038391,0.11445188522338867,-0.06767475605010986,-0.009790539741516113,-0.522417675169793,0.12492582350608497,-0.2629121708722604,0.8014676657079648,-0.5847106496334189,0.08940365625035132,-1.95935158064956
1782664836418998016,0.2940499782562256,3.4613659381866455,0.47526785731315613,-0.8154410123825073,0.07470376789569855,0.5256624221801758,-0.8474068641662598,0.11355916410684586,0.04983806610107422,0.010462284088134766,-0.5206000593040893,0.11546334095829167,-0.2509278475842388,0.8078855963226448,-0.553493622424093,0.08792841626027639,-1.9717488714682718
1782664836428917760,0.3039698600769043,4.109080791473389,0.4769238233566284,-0.7451831102371216,0.0757095217704773,0.4935840964317322,-0.8663964867591858,0.11829070746898651,0.11170154809951782,0.08536010980606079,-0.5190627882610123,0.10422164327598975,-0.2365155762695436,0.8147220900712607,-0.5162060220223655,0.08716297163897577,-1.9840566960840857
1782664836438836736,0.3138887882232666,4.551729679107666,0.5090748071670532,-0.6452274918556213,0.07790699601173401,0.4560158848762512,-0.8865551352500916,0.1247297003865242,0.08657139539718628,0.18469661474227905,-0.5179353876282866,0.09126615691095374,-0.21998389268251106,0.8215963730443778,-0.47351335693637253,0.08765093117600205,-1.9954835272595637
1782664836448756992,0.3238089084625244,4.818701267242432,0.5118971467018127,-0.5830628275871277,0.08115819096565247,0.4149094223976135,-0.9062358736991882,0.11078210920095444,0.05670920014381409,0.139542818069458,-0.5169565447278914,0.07726061769134583,-0.2022692448708397,0.8281750148758128,-0.4278432622802535,0.08931699222196823,-2.00611208360999
1782664836458676736,0.3337287902832031,4.982738018035889,0.474857360124588,-0.5424613356590271,0.08489128947257996,0.37081462144851685,-0.9248188734054565,0.11385443061590195,0.0034834444522857666,-0.007142126560211182,-0.4591428062738776,0.050218020231378085,-0.1872663904264296,0.8669471830208618,-0.37988602750485356,0.09153582536391476,-2.1498759967772525
1782664836468596992,0.34364891052246094,4.851905822753906,0.40798333287239075,-0.5532058477401733,0.08867325633764267,0.3259717524051666,-0.9412117004394531,0.09693466126918793,-0.08006110787391663,-0.07545089721679688,-0.44372556870571367,0.03433120794277306,-0.16797475401776807,0.8796097815803275,-0.33203943277177406,0.0939345437398912,-2.191427278150836
1782664836478515968,0.35356783866882324,4.134764194488525,-0.7136937975883484,-0.7152634859085083,0.09340161830186844,0.28400447964668274,-0.9542628526687622,0.14875537157058716,-0.23197200894355774,-0.5344303846359253,-0.43764690698467007,0.021239821346344716,-0.1497245586969018,0.8863388956239958,-0.2879679996897285,0.09756751555473718,-2.210134407691967
1782664836488435968,0.36348795890808105,4.358884334564209,0.4357980787754059,-1.2012732028961182,0.09063559770584106,0.24411648511886597,-0.965501070022583,0.13347023725509644,-0.38574856519699097,-0.525465726852417,-0.4325827045059345,0.01259511493507789,-0.1307318818091872,0.8919768889999304,-0.24660851649869953,0.09359985450997757,-2.226880054170307
1782664836498355968,0.37340784072875977,3.024442195892334,-0.28753405809402466,-1.12970769405365,0.09073206037282944,0.20830820500850677,-0.9738456606864929,0.12289097905158997,-0.49347972869873047,-0.3626410961151123,-0.4262680603468367,0.003737710821548092,-0.11429433534353567,0.8973396513475836,-0.209844906948369,0.09290063891239758,-2.2448480948140968
1782664836508275968,0.3833279609680176,3.043240785598755,-0.6928669810295105,-0.7778690457344055,0.08507537841796875,0.178301140666008,-0.9802912473678589,0.34976959228515625,-0.7800315022468567,0.07475841045379639,-0.42147118543275847,-0.0007763886215343895,-0.09926623447284404,0.9013920253963186,-0.17925964763693608,0.08656891384450487,-2.259057071310024
1782664836518194944,0.3932468891143799,2.9400441646575928,-0.8764090538024902,-0.7955654859542847,0.07735395431518555,0.14603373408317566,-0.9862507581710815,0.24858903884887695,-0.8453593254089355,0.010817408561706543,-0.4186327634140499,-0.00444129534357997,-0.08279437248567277,0.9043627022641535,-0.14655783569944708,0.07827210684880374,-2.2687784693958517
1782664836528114688,0.4031667709350586,2.8986356258392334,-0.7843239307403564,-0.8721543550491333,0.06873119622468948,0.11480611562728882,-0.9910073280334473,-0.00890149176120758,-0.2684621214866638,0.10868316888809204,-0.41595350123841973,-0.0073224380586014715,-0.06665361617047294,0.9069102976036806,-0.11505982120252854,0.06924400138435596,-2.27755677612881
1782664836538034944,0.4130868911743164,4.053736209869385,-0.5807822942733765,-0.8186629414558411,0.06179945170879364,0.07777921110391617,-0.9950533509254456,-0.13525526225566864,-0.018453039228916168,-0.09068578481674194,-0.4132179416520093,-0.012056225547129155,-0.04824893049721721,0.9092730827536173,-0.07785784665542657,0.06202699944814221,-2.286081398735478
1782664836547954688,0.4230067729949951,5.1613993644714355,-0.5756269097328186,-0.7962906956672668,0.056023430079221725,0.028786929324269295,-0.9980143904685974,-0.09844286739826202,0.011755673214793205,-0.1410236954689026,-0.4110205926682832,-0.019624424510327167,-0.024651484386886902,0.9110813308950213,-0.028790906598594162,0.05607604055066938,-2.2931904639502916
1782664836557874944,0.43292689323425293,6.019189357757568,-0.6819842457771301,-0.943390965461731,0.05005079135298729,-0.03002467006444931,-0.998295247554779,-0.01442151889204979,0.05900111049413681,-0.009532511234283447,-0.4075171653628771,-0.028983936601822195,0.0035069308095351513,0.9127307735726929,0.03002918365331062,0.050094316743326546,-2.3024973258463746
1782664836567793920,0.44284582138061523,6.672754287719727,-0.8836767077445984,-1.0405625104904175,0.043144598603248596,-0.09574102610349655,-0.9944708347320557,0.0713115781545639,0.06920599192380905,0.08608460426330566,-0.4035894239341854,-0.03913296384012742,0.03511700605808358,0.9134281678992414,0.09588789817826845,0.04335729038023275,-2.311577960627401
1782664836577713920,0.45276594161987305,7.115072250366211,-1.1184474229812622,-1.1667287349700928,0.035014837980270386,-0.16587236523628235,-0.9855254292488098,0.14429119229316711,0.01909807324409485,0.19461661577224731,-0.3984379295726779,-0.04939087421814334,0.06926643928777192,0.9132414885078267,0.16664256765107063,0.03551416878070841,-2.3217705873898047
1782664836587633920,0.46268582344055176,7.448119640350342,-1.068808913230896,-1.389147162437439,0.02741631306707859,-0.23836840689182281,-0.970787763595581,0.12840643525123596,-0.041782960295677185,0.28185343742370605,-0.39157874903014395,-0.06005132520194853,0.1048807098665121,0.9121732774050669,0.24068548414711366,0.028233801437665726,-2.3340248372771577
1782664836597553920,0.47260594367980957,7.671668529510498,-1.1008238792419434,-1.575116515159607,0.021498844027519226,-0.31178224086761475,-0.9499103426933289,0.04328997805714607,-0.030655503273010254,0.34572333097457886,-0.38347000532906583,-0.07134727246803667,0.14126004266243397,0.9098933900344286,0.3170681913821613,0.022628635753828414,-2.3474992821863023
1782664836607472896,0.4825248718261719,7.757809162139893,-1.1460038423538208,-1.7379612922668457,0.017084110528230667,-0.384534627199173,-0.9229524731636047,0.04373742267489433,-0.007250040769577026,0.42891865968704224,-0.37407963505433955,-0.08285769825213624,0.17792798487398787,0.9063888177476711,0.39470363361267713,0.018508168987221057,-2.362456145428429
1782664836617392896,0.4924449920654297,7.790872097015381,-1.153428554534912,-1.8362751007080078,0.014649675227701664,-0.45568788051605225,-0.8900190591812134,0.03288143500685692,-0.025803208351135254,0.5224958658218384,-0.36384494472262446,-0.09471112261829248,0.2145233736501811,0.9014578261053592,0.4731448328309066,0.016458470793946113,-2.378316988528255
1782664836627312896,0.5023648738861084,7.665080547332764,-1.321457862854004,-1.8398001194000244,0.012649721466004848,-0.5236589312553406,-0.8518340587615967,0.06095867231488228,-0.14917737245559692,0.6370818614959717,-0.35222309074335534,-0.10571797218327582,0.2508120161066616,0.8954640569668126,0.5511401710750633,0.014848891350286313,-2.3962852865034714
1782664836637232896,0.5122849941253662,7.598083019256592,-1.317671298980713,-1.8423256874084473,0.012027516029775143,-0.5873978137969971,-0.8092089891433716,0.09807991981506348,-0.28319239616394043,0.5763598680496216,-0.34023516918105473,-0.11636899721342843,0.286100968266191,0.8881692880838078,0.6278397429794135,0.014862205911256254,-2.414755985448945
1782664836647151872,0.5222039222717285,7.283533096313477,-1.4589011669158936,-1.8587108850479126,0.012621783651411533,-0.6465295553207397,-0.7627845406532288,0.05622587352991104,-0.28500425815582275,0.5510078072547913,-0.3275806255727095,-0.12644509512265845,0.32034258954968386,0.879819952423409,0.7030265030810449,0.016545474084954763,-2.434810564626581
1782664836657071872,0.5321238040924072,6.409685134887695,-1.4688501358032227,-1.7379802465438843,0.013995645567774773,-0.6979455351829529,-0.71601402759552,0.028820518404245377,-0.12993526458740234,0.5539810061454773,-0.3150389643936906,-0.1352385155725395,0.351715110854502,0.8710668458663658,0.7725247295274527,0.019544119015983217,-2.4554744596749196
1782664836666991872,0.542043924331665,6.2688212394714355,-1.4369436502456665,-1.8122748136520386,0.01647818274796009,-0.7419339418411255,-0.6702704429626465,-0.01986563764512539,-0.05001246929168701,0.5233893394470215,-0.30264540133751894,-0.1429420311137787,0.3800425638915217,0.8622881940180898,0.8359501983149186,0.024579428489042918,-2.4774157433191917
1782664836676911872,0.5519638061523438,6.295341968536377,-1.4666764736175537,-1.8832778930664062,0.021207651123404503,-0.7829201817512512,-0.6217606663703918,-0.13804419338703156,-0.20314854383468628,0.26240092515945435,-0.28933913899587876,-0.15083236949865184,0.40788388711933055,0.8527386950943596,0.8993459259545877,0.03409580727401574,-2.503818237445037
1782664836686831104,0.5618829727172852,6.2471113204956055,-1.582878589630127,-1.7589483261108398,0.02658989652991295,-0.8203800916671753,-0.5712000727653503,-0.13121941685676575,-0.12073624134063721,0.26278942823410034,-0.275987401983633,-0.15835705928486624,0.4351126293185324,0.8422772747260641,0.962075364005729,0.046517350798345895,-2.532588240594388
1782664836696750848,0.5718028545379639,6.450346946716309,-1.6183404922485352,-1.6918195486068726,0.03232407942414284,-0.8550329208374023,-0.5175653696060181,-0.21335434913635254,-0.018868446350097656,0.20221197605133057,-0.2623262408093762,-0.16549358554199514,0.46241669684492687,0.8306429055856829,1.025614313562138,0.062373088956246846,-2.5649225644824645
1782664836706671104,0.5817229747772217,6.616254806518555,-1.617458701133728,-1.6825647354125977,0.03899175301194191,-0.8872714042663574,-0.45959678292274475,-0.2628381848335266,0.06659269332885742,0.17114466428756714,-0.24832320987494452,-0.17278860656014577,0.49025065173991644,0.8173947020028298,1.0913954226899751,0.08463637032955179,-2.6031276022863636
1782664836716590848,0.5916428565979004,6.364819049835205,-1.5982471704483032,-1.7078373432159424,0.047202691435813904,-0.9149588942527771,-0.40077686309814453,-0.2929149568080902,0.1412467360496521,0.20334339141845703,-0.23391772478110215,-0.17986746717630647,0.5169712331976796,0.803536526230374,1.155406099575364,0.11723787464856912,-2.651506788561371
1782664836726511104,0.6015629768371582,6.342870235443115,-1.6377968788146973,-1.7356209754943848,0.05693908408284187,-0.9380803108215332,-0.34170636534690857,-0.2653893828392029,0.0754704475402832,0.20430094003677368,-0.21910204214717294,-0.18668170068917816,0.5424912483551879,0.7892068762295738,1.217046576698395,0.1651145662329135,-2.7151599201347505
1782664836736429824,0.6114819049835205,6.505380630493164,-1.7892245054244995,-1.6754249334335327,0.06760195642709732,-0.9574985504150391,-0.28040382266044617,-0.2365625500679016,-0.07941234111785889,0.12848731875419617,-0.20356224525141273,-0.19308041374168775,0.5679067208838748,0.7737985657317983,1.2782012343845932,0.23657334874684993,-2.8032881193797934
1782664836746349824,0.6214017868041992,6.209120750427246,-1.7025537490844727,-1.633589267730713,0.07889705896377563,-0.9724284410476685,-0.21944943070411682,-0.17383727431297302,-0.11347848176956177,0.1366858035326004,-0.18799375126863235,-0.19894638425007008,0.5921955917838285,0.7578805791149805,1.3354276449326623,0.34513300574727784,-2.928477671288791
1782664836756269824,0.631321907043457,5.616132736206055,-1.6250581741333008,-1.7204437255859375,0.09186632931232452,-0.9826313257217407,-0.1612340211868286,-0.26621323823928833,-0.05489003658294678,0.10650074481964111,-0.1727113702796916,-0.20485985882770952,0.614341458889709,0.7421508607931734,1.3841459925393953,0.517895021190901,-3.1165428999712956
1782664836766189824,0.6412417888641357,4.757658004760742,-1.5153160095214844,-1.6704083681106567,0.10620526969432831,-0.9881603717803955,-0.11072294414043427,-0.3255656063556671,0.1255810260772705,0.17691558599472046,-0.15629892381601215,-0.2087243753353974,0.6333029791367608,0.7286509253373723,1.4167635851913674,0.7645755133220952,2.900737968968289
1782664836776109056,0.6511609554290771,4.309428691864014,-1.3816380500793457,-1.6935946941375732,0.12120825052261353,-0.9904131293296814,-0.06625959277153015,-0.341194212436676,0.1226915717124939,0.14241617918014526,-0.14338684214957867,-0.21457256298800823,0.6487132033266073,0.7159399166759004,1.4322161014878068,1.0705217431472887,2.5841278231757374
1782664836786028800,0.6610808372497559,3.9126248359680176,-1.3550018072128296,-1.705374836921692,0.13718396425247192,-0.9902064800262451,-0.025919336825609207,-0.3081434369087219,0.07823443412780762,0.11808240413665771,-0.13077379225221797,-0.22038195989347428,0.6621722764746923,0.7041717994958524,1.430727977895374,1.384059067447815,2.2606533391862973
1782664836795949056,0.6710009574890137,3.591623306274414,-1.3132580518722534,-1.6307493448257446,0.15324760973453522,-0.9881312251091003,0.01058973278850317,-0.19101308286190033,0.04480224847793579,0.15278613567352295,-0.11858865197759329,-0.22581646903243724,0.67401913075273,0.6932834835734782,1.4165734399818308,1.6397887543067144,1.995312307228827
1782664836805868800,0.6809208393096924,3.3689846992492676,-1.2846665382385254,-1.5934507846832275,0.16927465796470642,-0.9845815300941467,0.04410592094063759,-0.13874182105064392,-0.010566174983978271,0.1928325891494751,-0.10687524028627067,-0.2310364845011378,0.6845984982966614,0.6830261515731797,1.3949653260414876,1.8256872820210739,1.8003611396320962
1782664836815787776,0.6908397674560547,3.4002182483673096,-1.265187382698059,-1.4772250652313232,0.1848316490650177,-0.979794979095459,0.07641525566577911,-0.11168098449707031,-0.052355408668518066,0.2315070629119873,-0.09533148459441329,-0.23578357379456713,0.6947040611426377,0.6728330949811457,1.3694337373654442,1.962827823606797,1.6538724360943697
1782664836825708032,0.7007598876953125,3.271620750427246,-1.312929391860962,-1.4804387092590332,0.20003899931907654,-0.9738067984580994,0.10809588432312012,-0.12553031742572784,-0.031777918338775635,0.2772343158721924,-0.08394267873107354,-0.2402384855002787,0.7045093414181391,0.662499591268236,1.341413123107859,2.0662191571678354,1.5410636869716752
1782664836835627776,0.7106797695159912,2.8539321422576904,-1.2226511240005493,-1.6116094589233398,0.21625801920890808,-0.9666967391967773,0.13685773313045502,-0.19568917155265808,0.17027950286865234,0.2416822910308838,-0.07252734795337232,-0.24481732177979199,0.7130871934727979,0.6529249344979857,1.3119921904700567,2.135016864357095,1.4631074857105912
1782664836845548032,0.720599889755249,2.2096893787384033,-1.1412079334259033,-1.739864468574524,0.23386619985103607,-0.9589748978614807,0.1602298766374588,-0.30211877822875977,0.3941251039505005,0.12118791043758392,-0.06170173508567931,-0.2500966957163787,0.7194210064222307,0.6450410076777313,1.2833638385661414,2.171475853073369,1.4194293080800686
1782664836855464960,0.7305169105529785,1.7299731969833374,-0.9723190665245056,-1.7872828245162964,0.252237468957901,-0.9512156248092651,0.1776658296585083,-0.393411785364151,0.47460734844207764,-0.0744858980178833,-0.0516575278578016,-0.25579896371987426,0.7234637526288189,0.6391389535461404,1.257152326689705,2.184442054066928,1.400996065131554
1782664836865384704,0.7404367923736572,1.5481059551239014,-0.874836266040802,-1.7648643255233765,0.27053478360176086,-0.9433590769767761,0.19205297529697418,-0.43853411078453064,0.3491056561470032,-0.24703052639961243,-0.042288344774345,-0.2617264059484146,0.7263096949668213,0.6341806758175971,1.2326134606264492,2.1881365239515214,1.3931514189144005
1782664836875304960,0.750356912612915,1.4270274639129639,-0.7874494194984436,-1.6446559429168701,0.2879086136817932,-0.9354831576347351,0.20488984882831573,-0.4118557870388031,0.15278363227844238,-0.2591501474380493,-0.033707414296592055,-0.2676423821778536,0.7285687903209331,0.6296180370961884,1.2096239108495008,2.1892976671850284,1.3889739498243057
1782664836885224704,0.7602767944335938,1.246023178100586,-0.7631084322929382,-1.6158058643341064,0.3044610023498535,-0.9276705384254456,0.2161741405725479,-0.38177722692489624,0.041378915309906006,-0.19748207926750183,-0.025685443945483638,-0.27336257456215585,0.730314981702277,0.6255024648967078,1.188125126095542,2.1882171325826496,1.3875575509273768
1782664836895143936,0.7701959609985352,1.1393587589263916,-0.7635127305984497,-1.5457026958465576,0.3204438090324402,-0.9199580550193787,0.22581641376018524,-0.3327576518058777,0.06986039876937866,-0.13247835636138916,-0.018076862318678166,-0.27889422748902076,0.7315232166993553,0.6219043998612769,1.1679735356366931,2.184668992366143,1.3889207972824056
1782664836905063936,0.7801158428192139,1.0456300973892212,-0.8877536654472351,-1.5617303848266602,0.33623772859573364,-0.9122236371040344,0.23407705128192902,-0.27302059531211853,0.17009729146957397,-0.13948777318000793,-0.01051982662677998,-0.2841582706367861,0.7323200153583467,0.6187493546359947,1.1486793250250917,2.1789440527414805,1.3921369584080445
1782664836914983936,0.7900359630584717,1.0237908363342285,-0.9314814209938049,-1.5880796909332275,0.35251927375793457,-0.9041668176651001,0.24127233028411865,-0.22053080797195435,0.25359320640563965,-0.16761818528175354,-0.0009324292979085406,-0.28728140374394123,0.7335567852592244,0.6159244104944123,1.1294252101058961,2.1709912908294986,1.3914261434492572
1782664836924903936,0.7999558448791504,0.909329354763031,-0.9713912606239319,-1.59295654296875,0.3689204752445221,-0.8958903551101685,0.2475440949201584,-0.17624780535697937,0.25950735807418823,-0.232254758477211,0.008760123427562737,-0.2902696839550036,0.7345172266469311,0.6133116642417398,1.1104312639484342,2.1617900235807856,1.3916056196951803
1782664836934822912,0.8098747730255127,0.6614239811897278,-0.988804042339325,-1.574779987335205,0.3852407932281494,-0.8878411054611206,0.2516501843929291,-0.11931058764457703,0.2108696699142456,-0.2616140842437744,0.01827331664894801,-0.29307441238234183,0.7348009762546798,0.6114254094859075,1.0926319761052177,2.1494376329124742,1.3948763852794832
1782664836944742912,0.8197948932647705,0.5303047895431519,-1.050107479095459,-1.594428300857544,0.4016261100769043,-0.879936695098877,0.25378739833831787,-0.12332102656364441,0.12728166580200195,-0.27609574794769287,0.027710649571111284,-0.2957424790349815,0.7344590409155127,0.6101954349083618,1.0757288945564176,2.134341817379078,1.4007561546273442
1782664836954662912,0.8297147750854492,0.3406091332435608,-1.0558793544769287,-1.6074657440185547,0.41820505261421204,-0.8721612691879272,0.2538486421108246,-0.12436658143997192,0.09876960515975952,-0.29954877495765686,0.03709335293721018,-0.29835296431422853,0.7334233585544502,0.6096718003940444,1.0596028444937726,2.1163437943697985,1.4094913169589809
1782664836964582912,0.839634895324707,0.41130635142326355,-1.0398061275482178,-1.614141583442688,0.43438512086868286,-0.8643876314163208,0.25326627492904663,-0.13395476341247559,0.20949554443359375,-0.20910724997520447,0.04614883061309752,-0.3010136368187666,0.7321365532064998,0.6092923887811686,1.0439311858773144,2.098655975499326,1.4184512042875768
1782664836974502912,0.8495547771453857,0.4409332275390625,-0.9768372774124146,-1.8026920557022095,0.451382577419281,-0.8556504249572754,0.2532113194465637,-0.1093415915966034,0.28486496210098267,-0.16126194596290588,0.05553705261929898,-0.30418243732353534,0.730806885577138,0.6085309628415781,1.026806300909166,2.0820214750611203,1.426687508227447
1782664836984421888,0.8594739437103271,0.6548160910606384,-0.9882255792617798,-1.7851375341415405,0.46880948543548584,-0.8460496068000793,0.25380611419677734,-0.0018143057823181152,0.2790331244468689,-0.08246520161628723,0.06517692753999763,-0.30766647323282287,0.7295508151652634,0.6073292773414141,1.008531000125897,2.0670007609916605,1.433459303983813
1782664836994341888,0.8693938255310059,0.9268345832824707,-1.0278679132461548,-1.7879523038864136,0.4861139953136444,-0.8354301452636719,0.2564169466495514,0.12425282597541809,0.13891220092773438,-0.096108078956604,0.07532132153949554,-0.31094134048777283,0.7290568901921539,0.6050770531958016,0.9889150108483604,2.0561879374481387,1.4350175366548228
1782664837004261888,0.8793139457702637,0.7584977149963379,-1.026190161705017,-1.7908135652542114,0.5033909678459167,-0.8242856860160828,0.25913509726524353,0.13869893550872803,0.05173307657241821,-0.04375728964805603,0.08561186777619634,-0.3141798541063713,0.728600420543234,0.602580446252466,0.9689393859113559,2.0461971310083427,1.4354860450732503
1782664837014181888,0.8892338275909424,0.44909751415252686,-0.9730316996574402,-1.7087477445602417,0.5203925967216492,-0.8135845065116882,0.2593689560890198,0.11072629690170288,-0.011244773864746094,0.012405455112457275,0.09556780388984794,-0.31729070440486207,0.7273314871716184,0.6009846119839968,0.9502906069256486,2.0331712610612054,1.4392128765909906
1782664837024101120,0.8991529941558838,0.09068851917982101,-1.03657865524292,-1.4613018035888672,0.5355332493782043,-0.804559588432312,0.25668635964393616,0.09030592441558838,-0.07866483926773071,0.016415327787399292,0.10423682077945068,-0.31992992940177667,0.7252503157669615,0.6006591887717416,0.9349334794844987,2.0177552134862187,1.4463632415090761
1782664837034020864,0.9090728759765625,-0.13695742189884186,-0.9758167862892151,-1.404016375541687,0.5495632886886597,-0.7967789769172668,0.25124430656433105,0.03251385688781738,-0.06358790397644043,-0.05512306094169617,0.11210500493762258,-0.32219194521341776,0.7223672880882396,0.6015067957739586,0.9219459463194343,1.9995974953009434,1.4567529002723336
1782664837043941120,0.9189929962158203,-0.06685709953308105,-0.9966152310371399,-1.3648065328598022,0.5628660321235657,-0.7892386317253113,0.24552887678146362,-0.013595342636108398,-0.06339210271835327,-0.1415402591228485,0.11971163997500968,-0.32419832740359317,0.7194858485931607,0.6024157846689087,0.9095681780063408,1.9821251251465697,1.4664174927335247
1782664837053860864,0.928912878036499,0.0032482207752764225,-1.0259798765182495,-1.242436408996582,0.5755106210708618,-0.7817841172218323,0.24000254273414612,-0.017161011695861816,-0.11503595113754272,-0.12305915355682373,0.12703215048068076,-0.32610859324491226,0.7166969089343653,0.60320941004828,0.8975218889624251,1.9658930611579843,1.4750954162999736
1782664837063779840,0.9388318061828613,0.33061641454696655,-0.8925575017929077,-0.9316660165786743,0.5860269069671631,-0.7750126719474792,0.236491397023201,0.10774457454681396,-0.2417110800743103,-0.14225313067436218,0.13390088246995838,-0.3270482953856405,0.7150420367405721,0.6031790645196919,0.8867351327122088,1.9543596680618647,1.4782054474864916
1782664837073699840,0.9487519264221191,0.2448277622461319,-0.9764081239700317,-0.8006462454795837,0.5949673652648926,-0.7690848708152771,0.2335001826286316,0.20462369918823242,-0.3124275803565979,-0.03985095024108887,0.140357868325041,-0.3271871507776502,0.7139318290307441,0.6029507525854262,0.8774081396727258,1.944784802799454,1.4786716722693791
1782664837083619840,0.9586718082427979,0.06641527265310287,-0.8348793983459473,-0.6578690409660339,0.6023862361907959,-0.764366090297699,0.2299463003873825,0.2438204288482666,-0.3093796372413635,0.041568636894226074,0.14584881777824665,-0.32702902024001007,0.7127588444560505,0.6031210154551387,0.8700576098589613,1.9354504232899414,1.4797965412648704
1782664837093539840,0.9685919284820557,-0.04308032989501953,-0.8128835558891296,-0.5184038281440735,0.6088447570800781,-0.7606105804443359,0.22534391283988953,0.24361807107925415,-0.3392430543899536,0.052762895822525024,0.15066486146169847,-0.32666137441428084,0.7113116762837809,0.6038445490813583,0.8642530897103574,1.925279331686583,1.482376384621197
1782664837103458816,0.978510856628418,-0.4270654618740082,-0.7625890970230103,-0.38067761063575745,0.6140191555023193,-0.7582630515098572,0.21912959218025208,0.24730902910232544,-0.3211132884025574,0.04017820954322815,0.1544515934924961,-0.32610805735350357,0.709378832951338,0.6054584846478072,0.8606447252384261,1.9135848555820243,1.4876463009032215
1782664837113379072,0.9884309768676758,-0.6903863549232483,-0.7556938529014587,-0.1998835951089859,0.6179272532463074,-0.757483720779419,0.21067611873149872,0.17455321550369263,-0.28077006340026855,0.04963874816894531,0.15713360400847634,-0.3253792065265178,0.7067293898001609,0.6082524426120688,0.8594502033521956,1.8993771802446116,1.4967232908773267
1782664837123298816,0.9983508586883545,-1.0332767963409424,-0.4884077310562134,-0.104458749294281,0.6201007962226868,-0.7583692669868469,0.20087623596191406,0.08870053291320801,-0.3249743580818176,0.018148452043533325,0.15824292195582684,-0.3247100310962666,0.7035634373815186,0.6119813333031989,0.8608076437664143,1.8840703153346297,1.509261750888819
1782664837133219072,1.0082709789276123,-1.2134898900985718,-0.41240936517715454,-0.041089627891778946,0.6216912865638733,-0.7598907351493835,0.189911350607872,0.10127019882202148,-0.3402528166770935,0.06962552666664124,0.15816985926145788,-0.32472723641286455,0.6996484081800284,0.6164630989272257,0.8631450026697414,1.8672687475343208,1.5260911928038916
1782664837143138048,1.0181899070739746,-1.1542707681655884,-0.4332520365715027,0.2668032646179199,0.6217067837715149,-0.7626323103904724,0.17852911353111267,0.2252933382987976,-0.3426228165626526,0.09725821018218994,0.15749880460648097,-0.3239440980482111,0.6959344628901717,0.621232282709534,0.86737292474348,1.8504317796248133,1.5425606109055932
1782664837153057792,1.0281097888946533,-1.026756763458252,-0.27386796474456787,0.6174403429031372,0.6188209652900696,-0.767241895198822,0.16852502524852753,0.3004143238067627,-0.31802433729171753,0.1188894659280777,0.15559174173439283,-0.3221188123290362,0.693182504526318,0.6257226067433834,0.8745295701341818,1.8366808363360942,1.5561060613287463
1782664837162978048,1.0380299091339111,-1.0900448560714722,-0.40463295578956604,0.5242033004760742,0.614860475063324,-0.7724515795707703,0.1589510589838028,0.2799454927444458,-0.3511294722557068,0.1424100548028946,0.1533129594305618,-0.3198311024216703,0.6907847683444959,0.630094998947779,0.8826924017117846,1.823773531479208,1.5686285198384367
1782664837172897792,1.0479497909545898,-1.4242037534713745,-0.1823360025882721,0.7800843715667725,0.6105567216873169,-0.7780317664146423,0.14794179797172546,0.19318461418151855,-0.4129318594932556,0.12540408968925476,0.1504304040003764,-0.3177575389193741,0.6877507148476589,0.6351375050189333,0.8915266863246245,1.8085209552870987,1.5847074150811737
1782664837182817024,1.0578689575195312,-2.071230411529541,-0.0029803887009620667,0.7918875813484192,0.6044580340385437,-0.7851971387863159,0.1345207244157791,0.21651053428649902,-0.47914600372314453,0.08325277268886566,0.14540524685963035,-0.31615227146807645,0.6835993713097281,0.6415581689005139,0.9030143914301275,1.7897753767374474,1.6081056572178558
1782664837192736768,1.06778883934021,-2.4807863235473633,-0.016092196106910706,0.8588610291481018,0.5983448624610901,-0.7926657199859619,0.1168946772813797,0.29026591777801514,-0.4703041911125183,0.09146403521299362,0.13936197684052004,-0.31512298964877034,0.677602273701114,0.6497159952772541,0.9151691895913081,1.7637296522032195,1.6411673496760646
1782664837202657024,1.0777089595794678,-2.602694511413574,-0.0032789288088679314,1.099143624305725,0.5903951525688171,-0.8012297749519348,0.09728637337684631,0.44787395000457764,-0.42672133445739746,0.07721318304538727,0.1320483406262869,-0.313618395555395,0.6710340455239203,0.6587261712551612,0.9293476907608512,1.734110521765406,1.6788910254468767
1782664837212576768,1.0876288414001465,-2.494333267211914,0.04336953163146973,1.2679710388183594,0.5811493992805481,-0.8100934624671936,0.07755060493946075,0.5178496241569519,-0.4008287787437439,0.09690308570861816,0.12417770579615803,-0.31159406227266884,0.6645934417930702,0.6676860235193777,0.9443114581847079,1.7034560964009657,1.7176494426104512
1782664837222497024,1.0975489616394043,-2.4795899391174316,-0.08209696412086487,1.3999676704406738,0.5702957510948181,-0.8193681240081787,0.058300841599702835,0.5518357157707214,-0.38226163387298584,0.15043938159942627,0.11580287588278967,-0.30883543094542304,0.6586130096642827,0.6763426927284749,0.9603079251496422,1.6726715532484582,1.7561279456659435
1782664837232416000,1.1074678897857666,-2.5089707374572754,-0.08650689572095871,1.4471443891525269,0.5586668252944946,-0.8285044431686401,0.03836368769407272,0.46629655361175537,-0.42505085468292236,0.23353266716003418,0.10739768615253185,-0.30544948574395736,0.6525967020000843,0.6850429844368511,0.9764316729183348,1.6393587595383194,1.7962193525254744
1782664837242335744,1.1173877716064453,-2.5831782817840576,-0.006264409050345421,1.599473237991333,0.5462365746498108,-0.8374345302581787,0.01813911274075508,0.3943457007408142,-0.464979350566864,0.16472220420837402,0.098561629462052,-0.30185941304016684,0.6464908748599855,0.6936973943067919,0.9925722146181091,1.6039915595598038,1.8386926312892726
1782664837252256000,1.1273078918457031,-2.722391128540039,-0.037638306617736816,1.6060442924499512,0.532862663269043,-0.8461980223655701,-0.002521584276109934,0.40836048126220703,-0.48555856943130493,0.1463356614112854,0.08906686218522171,-0.298148337315859,0.6401927653868725,0.7023730472109841,1.008809403612026,1.5660642153249698,1.8845120514833829
1782664837262175744,1.1372277736663818,-2.9904773235321045,0.016170363873243332,1.6337069272994995,0.5193647146224976,-0.8542125821113586,-0.024112354964017868,0.4636523127555847,-0.5990651249885559,0.15492594242095947,0.07911383428431819,-0.2946836022536362,0.6333288220682636,0.7111942717770144,1.0240344235731018,1.5244030071646173,1.9351475366650828
1782664837272094976,1.1471469402313232,-3.2207775115966797,-0.02161722630262375,1.7918592691421509,0.5058680176734924,-0.8615543246269226,-0.04268481209874153,0.5258398056030273,-0.7072629332542419,0.19780564308166504,0.06872204943823901,-0.2919302257533031,0.6272434440882904,0.7187627313417455,1.0383234959500867,1.4866163949175102,1.9836459186469315
1782664837282014720,1.157066822052002,-3.5405702590942383,-0.05704256147146225,1.9533312320709229,0.4898407757282257,-0.8689348697662354,-0.07076828181743622,0.5888792276382446,-0.7547680735588074,0.2532634139060974,0.05725944929653901,-0.28723524573623477,0.6181519019999514,0.7294555967144613,1.0530461302205087,1.4273170698366755,2.052328627525721
1782664837291934976,1.1669869422912598,-3.919705867767334,-0.1451186090707779,1.947859764099121,0.4729544222354889,-0.8750513195991516,-0.10295302420854568,0.5760568380355835,-0.7310430407524109,0.3650837540626526,0.04519308184513735,-0.2819935364340888,0.6074562805084414,0.7412382330519732,1.065541845400633,1.3564593735374386,2.1327453206609963
1782664837301854976,1.1769068241119385,-4.158127784729004,-0.11953122913837433,2.059304714202881,0.4555496871471405,-0.8793982267379761,-0.13832242786884308,0.6089339256286621,-0.7010307908058167,0.3775497078895569,0.03248549409855326,-0.2765410626191544,0.5952846613223949,0.7537279306572754,1.0745966782674485,1.2760048020746004,2.2235441023825016
1782664837311773952,1.1868259906768799,-4.353124618530273,-0.21626417338848114,2.3408894538879395,0.4360162019729614,-0.8826068639755249,-0.17576970160007477,0.6657141447067261,-0.6981273889541626,0.3788336515426636,0.018920931735587565,-0.2700426688682827,0.582402013361344,0.7665029839829957,1.0813788181750081,1.1875975630890205,2.3221150239580566
1782664837321693952,1.1967458724975586,-4.823153495788574,-0.25793883204460144,2.284961700439453,0.41513875126838684,-0.8835664391517639,-0.2167264074087143,0.656165599822998,-0.6631712317466736,0.412450909614563,0.00462139225175281,-0.26276195918342143,0.5679726663129191,0.7799627666887295,1.0834238935735234,1.0896586138555342,2.4303684889583677
1782664837331613952,1.2066659927368164,-5.237313747406006,-0.2757657766342163,2.103245496749878,0.3952973484992981,-0.8805372714996338,-0.2615227699279785,0.6119963526725769,-0.6414659023284912,0.386751651763916,-0.00960600765016301,-0.2555503268861183,0.5513008667720692,0.794146793119296,1.0769945407734665,0.9863200987585596,2.5444387824320245
1782664837341533952,1.2165858745574951,-5.662474155426025,-0.29582613706588745,2.121398687362671,0.37624406814575195,-0.8731542229652405,-0.3099067807197571,0.619239330291748,-0.5817102789878845,0.3970649838447571,-0.023947663463699396,-0.24831380425479518,0.5323409240354081,0.8089375516249209,1.061636182558044,0.8817789395786005,2.660345000590065
1782664837351452928,1.2265048027038574,-5.7751946449279785,-0.2877844572067261,2.224959135055542,0.3566567003726959,-0.8620771765708923,-0.36002615094184875,0.6413137912750244,-0.5608963966369629,0.47056081891059875,-0.03889659712559752,-0.24066743603997798,0.5119239234846821,0.8237111610178743,1.0393543123704594,0.7806967399464022,2.7735615139448195
1782664837361372928,1.2364249229431152,-5.760129928588867,-0.2830573618412018,2.2883636951446533,0.3362984359264374,-0.8479299545288086,-0.4097781181335449,0.5694785118103027,-0.5238198637962341,0.5598177909851074,-0.0543743190470031,-0.23256226938331023,0.490943722915878,0.8378140837744389,1.0120680751749087,0.6872266440397694,2.879721495786945
1782664837371292928,1.246344804763794,-5.399758815765381,-0.37053874135017395,2.364095687866211,0.31583574414253235,-0.8314240574836731,-0.457145094871521,0.4982816278934479,-0.42116981744766235,0.6418527960777283,-0.06966057162792644,-0.22413996086131854,0.4703070526947015,0.8507172436784737,0.9816657437516388,0.6045838305027622,2.974692175603849
1782664837381212928,1.2562649250030518,-4.787957191467285,-0.33863115310668945,2.543428421020508,0.2942979335784912,-0.8147502541542053,-0.49957042932510376,0.4691908061504364,-0.3389056921005249,0.6254249811172485,-0.08491685615564978,-0.21525543758930596,0.45153059488222175,0.8617274714306215,0.9522983484823765,0.5323677066571717,3.05864575445608
1782664837391132928,1.2661848068237305,-4.269855499267578,-0.41717591881752014,2.6060922145843506,0.27174463868141174,-0.7991607189178467,-0.5361873507499695,0.4462423622608185,-0.32089537382125854,0.6436550617218018,-0.09990518411375521,-0.20599536932732904,0.4352840889907025,0.8706965686366225,0.9258977460502789,0.46908007719825456,3.1326777810407815
1782664837401051904,1.2761039733886719,-4.440600395202637,-0.48815590143203735,2.439582347869873,0.24937695264816284,-0.7821515202522278,-0.5710079669952393,0.37989550828933716,-0.30262625217437744,0.687646210193634,-0.11418316172606562,-0.19636188621233305,0.4194496613283804,0.8789005362625149,0.8981113451492216,0.4117649065052354,-3.083810363014247
1782664837410971904,1.2860238552093506,-5.243009567260742,-0.47079983353614807,2.2193169593811035,0.22865502536296844,-0.7599984407424927,-0.6083741784095764,0.27830296754837036,-0.26270657777786255,0.5919557809829712,-0.12796651144519686,-0.18665167290730797,0.40121573020141926,0.8875874909473387,0.8633107354616749,0.3595121952580072,-3.0222375467512275
1782664837420891904,1.2959439754486084,-6.979169845581055,-0.2838730812072754,1.6637468338012695,0.21193088591098785,-0.7264305949211121,-0.6537459492683411,0.18215784430503845,-0.22567200660705566,0.5861495733261108,-0.14127830631571764,-0.1771753009829286,0.3764783198733248,0.8982835598008494,0.8131138054489484,0.3134893819426873,-2.9654744975501304
1782664837430811904,1.305863857269287,-8.826986312866211,-0.14477671682834625,1.4484763145446777,0.19994941353797913,-0.6763260960578918,-0.7089451551437378,0.10948356986045837,-0.24670857191085815,0.5737522840499878,-0.1545670081377996,-0.16780181469930763,0.34259300308342305,0.9113625109114254,0.7427634942834229,0.2748974563384259,-2.913225184098281
1782664837440730880,1.3157827854156494,-9.641139030456543,-0.19046247005462646,1.464606761932373,0.1899242401123047,-0.6107566952705383,-0.7687035202980042,0.122316375374794,-0.21211928129196167,0.5350152254104614,-0.1684571984103343,-0.1575176785052792,0.3013907931724631,0.9251886755439656,0.6570158511964128,0.24221993398626207,-2.864302482378574
1782664837450650880,1.3257029056549072,-8.473852157592773,-0.6324968934059143,1.7655010223388672,0.1775720715522766,-0.5420358777046204,-0.8213801383972168,0.1687871813774109,-0.02549952268600464,0.3811488151550293,-0.1822181287137932,-0.14555339572769854,0.26100602148179214,0.9367426130032221,0.5728578398230293,0.2129108711418221,-2.820270326849624
1782664837460570880,1.335622787475586,-6.862168312072754,-0.8499773144721985,1.9450984001159668,0.16157303750514984,-0.4815649390220642,-0.8613880276679993,0.09793317317962646,0.3419470489025116,0.26797378063201904,-0.19528393327453808,-0.13252933129057695,0.22746858229229422,0.9447529823552991,0.5024394642071653,0.18541836226559155,-2.781640396919743
1782664837470490880,1.3455429077148438,-5.039737224578857,-0.8277095556259155,1.8079924583435059,0.14581619203090668,-0.43303027749061584,-0.8895068168640137,-0.20097672939300537,0.6058207750320435,0.24746274948120117,-0.20707796629911335,-0.1207448593692521,0.20166126203736207,0.9496694254951831,0.4478518866041624,0.16248407624363356,-2.7492907243053697
1782664837480409856,1.355461835861206,-3.0785179138183594,-0.9269395470619202,1.4103394746780396,0.1313728243112564,-0.399711936712265,-0.9071778059005737,-0.4092963933944702,0.5296863317489624,0.13853156566619873,-0.21619368322391916,-0.1109071970822944,0.1846908226985617,0.9522862663696906,0.41120256710908276,0.1438150877906833,-2.72515070726617
1782664837490329856,1.3653819561004639,-1.6550912857055664,-1.0560890436172485,1.128838300704956,0.11764738708734512,-0.3807971179485321,-0.9171437621116638,-0.4024221897125244,0.3379809558391571,0.02194112539291382,-0.2224835622342295,-0.10270089805568422,0.1757289278160459,0.9534531069369478,0.39065819981567695,0.1275791274962867,-2.708381225505244
1782664837500249856,1.3753018379211426,-0.7135483026504517,-1.2061030864715576,0.9082072377204895,0.10356269031763077,-0.37179481983184814,-0.9225201606750488,-0.34103521704673767,0.32028114795684814,0.04922914505004883,-0.22692085987522245,-0.0952644613436642,0.17223418376574212,0.9538171116142428,0.380941680635375,0.1117925744071957,-2.6960366134391696
1782664837510169856,1.3852219581604004,0.07295852154493332,-1.2485123872756958,0.724351704120636,0.0894666388630867,-0.3701700270175934,-0.9246457815170288,-0.375340074300766,0.36553138494491577,0.09671920537948608,-0.22991963715863928,-0.08855123900786392,0.1727303584004221,0.9536560105104523,0.3791920420563823,0.09645747620478423,-2.6869606453881003
1782664837520089856,1.395141839981079,0.6017107963562012,-1.3800292015075684,0.6122743487358093,0.07481274008750916,-0.3746935725212097,-0.9241254329681396,-0.45857128500938416,0.3812548518180847,0.11228156089782715,-0.23171019031272028,-0.08217931399609693,0.17658950829719658,0.9530860757071075,0.38406624655486393,0.0807790229145002,-2.6803288434058614
1782664837530008832,1.4050607681274414,0.6661105155944824,-1.1774992942810059,0.6216121912002563,0.060936518013477325,-0.38142892718315125,-0.9223874807357788,-0.5942464470863342,0.43964123725891113,0.2669615149497986,-0.23322096652466695,-0.07645947067908664,0.18154944202515605,0.952261307970547,0.39134159021521786,0.06596804345624496,-2.6743024847273618
1782664837539928832,1.4149808883666992,0.8518349528312683,-0.9180338382720947,0.65577232837677,0.048824138939380646,-0.38932088017463684,-0.9198073148727417,-0.77923184633255,0.568840503692627,0.3772505521774292,-0.23510028770492558,-0.07186509189291511,0.186900412607547,0.9511211758643894,0.39989419576749174,0.0530310670452174,-2.667692224085243
1782664837549848832,1.424900770187378,0.9613494873046875,-0.7708387970924377,0.4125431478023529,0.03902345150709152,-0.3984525799751282,-0.9163584113121033,-0.9260626435279846,0.802688479423523,0.44452613592147827,-0.236477326676574,-0.06851135619486648,0.19268368135190825,0.9498724192554884,0.4098291083057757,0.04255964475896517,-2.662445718049236
1782664837559768832,1.4348208904266357,1.2444201707839966,-0.8611493110656738,-0.039180606603622437,0.030731093138456345,-0.4091152846813202,-0.9119650721549988,-0.977859377861023,0.9627957344055176,0.4336478114128113,-0.2364307648125205,-0.06583952856028263,0.19920499953676968,0.9487269809884443,0.4214842939761655,0.03368491963681463,-2.660332021714715
1782664837569687808,1.444739818572998,1.6087968349456787,-0.5472182631492615,-0.19277310371398926,0.02461751364171505,-0.42316409945487976,-0.9057185649871826,-1.0009359121322632,0.8619763851165771,0.3634517788887024,-0.2345519954092981,-0.06432230199671546,0.2073724850049945,0.9475467310507703,0.436934651501626,0.027173400846615348,-2.662309205276052
1782664837579608064,1.4546599388122559,1.8472754955291748,-0.4831896722316742,-0.07758651673793793,0.020627252757549286,-0.43964359164237976,-0.8979353904724121,-0.8647129535675049,0.6901166439056396,0.2903762459754944,-0.23298236602385114,-0.06424880990416035,0.21657419349540075,0.9458789109534467,0.455201833543154,0.022967827076453666,-2.6639012632191155
1782664837589527808,1.4645798206329346,1.747643232345581,-0.47880131006240845,-0.17716184258460999,0.016080886125564575,-0.45744720101356506,-0.8890913724899292,-0.830930769443512,0.5358926057815552,0.1968764066696167,-0.23112886654836828,-0.06400405914314337,0.22662258447687603,0.9439942599306024,0.4751223054696904,0.018084905643438027,-2.665736463161896
1782664837599448064,1.4744999408721924,1.581747055053711,-0.3116646111011505,-0.10964598506689072,0.011996648274362087,-0.4743208885192871,-0.8802703022956848,-0.9397767782211304,0.4830946922302246,0.12271720170974731,-0.2295441838389003,-0.06391578261180558,0.23617710205302608,0.9420428218197264,0.4941924521796623,0.013627525021417803,-2.667012687363837
1782664837609366784,1.4844188690185547,0.9648396372795105,-0.33745306730270386,-0.4178831875324249,0.007432625629007816,-0.48983603715896606,-0.8717828989028931,-0.9779831767082214,0.5036452412605286,-0.027844786643981934,-0.22786449653778762,-0.06336438820747253,0.24513978350209173,0.9401963451360023,0.5119016821651226,0.008525569594064714,-2.668276196321687
1782664837619287040,1.4943389892578125,0.698262095451355,-0.8185060024261475,-1.0184450149536133,0.0019986575935035944,-0.5009883046150208,-0.8654517531394958,-0.9346616268157959,0.5849574208259583,-0.02679067850112915,-0.22387284173353394,-0.06113016059523104,0.2520659330677147,0.9394715304538042,0.5247403441596984,0.002309376643710705,-2.6743454268120344
1782664837629206784,1.5042588710784912,-0.05542740970849991,-0.33943474292755127,-1.2469394207000732,0.000960156146902591,-0.505024790763855,-0.8631042838096619,-1.000410795211792,0.5629319548606873,-0.15296316146850586,-0.21746933641866117,-0.059433229194048594,0.25478529950803813,0.9403505215961487,0.5294106851173559,0.0011124446255604918,-2.6873568067235345
1782664837639127040,1.514178991317749,-0.35197967290878296,-0.5575504899024963,-1.0239371061325073,0.00014894844207447022,-0.5043323040008545,-0.8635095953941345,-0.7631036639213562,0.3726184368133545,-0.2910161018371582,-0.21220354606675598,-0.05750513407682593,0.2548300357112636,0.9416604675968115,0.5286085831244818,0.00017249193029509374,-2.698343488704933
1782664837649046016,1.5240979194641113,-0.7195294499397278,-0.582615077495575,-1.8256194591522217,0.0006926849018782377,-0.5004926323890686,-0.8657404780387878,-0.5930235981941223,0.3799634575843811,-0.2759220600128174,-0.20497641008503278,-0.05533619657097543,0.2531158867780617,0.9438510684558373,0.5241677094250055,0.0008001066695310466,-2.714107978917576
1782664837658965760,1.53401780128479,-0.8447281122207642,-0.5770323276519775,-1.1803191900253296,8.015405182959512e-05,-0.49389687180519104,-0.8695204854011536,-0.4311104416847229,0.36689797043800354,-0.18435829877853394,-0.19800921491563428,-0.052351387798069624,0.24999819299485035,0.9463363825845994,0.5165657270578569,9.218190503008689e-05,-2.7290930966661526
1782664837668886016,1.5439379215240479,0.08615908026695251,-0.7804840207099915,-1.1224212646484375,-0.003171171760186553,-0.49025389552116394,-0.8715739250183105,-0.316790372133255,0.5380444526672363,-0.06974077224731445,-0.19246709682005309,-0.04880993359137773,0.24865766624776406,0.9480208189688575,0.5123810406292935,-0.003638426738690469,-2.740044382038774
1782664837678805760,1.5538578033447266,0.8654215931892395,-0.12354716658592224,-0.8528075218200684,-0.00417699059471488,-0.4949202537536621,-0.8689283728599548,-0.07918177545070648,0.3591780960559845,-0.11370712518692017,-0.18706155141834932,-0.04741705360305276,0.25156995974985674,0.9484050187118326,0.5177430390549684,-0.004807022923154799,-2.7508427964736946
1782664837688724992,1.563776969909668,1.3614100217819214,-0.3695359230041504,-0.944959282875061,-0.001671475125476718,-0.5043845176696777,-0.8634775280952454,0.24298922717571259,0.44777441024780273,0.03959447145462036,-0.18297194623364801,-0.04867461163854755,0.2566943931020166,0.947765859727181,0.528669050535957,-0.0019357457783145521,-2.759649007050978
1782664837698644992,1.5736968517303467,-0.3904731273651123,-0.3545474410057068,-1.1830610036849976,-0.0010941596701741219,-0.508581817150116,-0.8610129952430725,0.5042069554328918,0.27702969312667847,0.03352886438369751,-0.1777404940720544,-0.048015889961783575,0.2592064511271242,0.9481111953627142,0.5335368736475394,-0.0012707812312670195,-2.7706113435908644
1782664837708564992,1.5836169719696045,-1.0312083959579468,-0.02203500270843506,-1.6601988077163696,0.0028981147333979607,-0.5018161535263062,-0.8649694323539734,0.846772313117981,0.16493260860443115,0.10811823606491089,-0.17142162120364482,-0.04760199918307377,0.25543950012217037,0.9503153510211336,0.5256971925214751,0.0033505274795129682,-2.785564569379277
1782664837718484992,1.5935368537902832,-1.7435201406478882,-0.253559410572052,-1.6929211616516113,0.008159738034009933,-0.4890840947628021,-0.8721984624862671,0.9341925382614136,-0.056188732385635376,0.08922421932220459,-0.16340325440373252,-0.046842928041041385,0.24840794907861077,0.9536239152530809,0.511039379451627,0.00935509588363792,-2.8046330124363914
1782664837728404992,1.603456974029541,-2.090090751647949,-0.3682207465171814,-1.1329656839370728,0.012008638121187687,-0.4717799723148346,-0.881634533405304,0.8339539170265198,-0.2001408040523529,0.30917054414749146,-0.1564106960951019,-0.04532593904375454,0.23901524051986686,0.9572633316348652,0.4913084509662623,0.013620037921300858,-2.8210827602681143
1782664837738323968,1.6133759021759033,-2.269925832748413,-0.45623070001602173,-0.9289532899856567,0.013102157972753048,-0.4534016251564026,-0.8912100195884705,0.5807241201400757,-0.2887248396873474,0.26053375005722046,-0.1520934217101699,-0.043117066224953884,0.2292071255400188,0.9604543746449112,0.4705780908239738,0.014700478636382444,-2.8310136654736096
1782664837748243712,1.623295783996582,-2.752073049545288,-0.07702691853046417,-1.142134666442871,0.016236649826169014,-0.4301542043685913,-0.9026094079017639,0.07935965061187744,-0.1036134660243988,0.20902115106582642,-0.14680329634771774,-0.04141893170950922,0.21674819734530035,0.9642371920350169,0.4446636000705173,0.017986626832027584,-2.8434832077889074
1782664837758163968,1.6332159042358398,-2.581237554550171,-0.11016406118869781,-0.8836809992790222,0.018796155229210854,-0.40631312131881714,-0.9135405421257019,0.2024715542793274,0.009370982646942139,0.011257827281951904,-0.1423764568500588,-0.03973733603475167,0.2040849441312027,0.9677289081815703,0.4184154673538469,0.02057216100632157,-2.8538078370482305
1782664837768083712,1.6431357860565186,-2.4123501777648926,-0.10629183053970337,-0.9942327737808228,0.021981583908200264,-0.3837646245956421,-0.9231693148612976,0.18382896482944489,0.10480344295501709,-0.04124718904495239,-0.13828884960619,-0.03869143175818317,0.19214142156724376,0.970804282727731,0.3938696316312733,0.02380650039235211,-2.8633512151869214
1782664837778002944,1.65305495262146,-2.4507455825805664,-0.08688076585531235,-0.9543388485908508,0.025014979764819145,-0.3608645498752594,-0.9322826862335205,0.1197146400809288,0.0719088613986969,0.1540844440460205,-0.133728060517031,-0.037580906904079475,0.18012863126657655,0.973785501217626,0.36919473320673624,0.02682553136982746,-2.873653111831467
1782664837787922944,1.6629748344421387,-3.356224775314331,0.10321167856454849,-0.9451099038124084,0.02853383496403694,-0.33427751064300537,-0.9420426487922668,0.21521006524562836,-0.13412153720855713,0.33152323961257935,-0.12997423451436632,-0.03672378884740956,0.16622285236632936,0.9767947795808344,0.340838549830455,0.03028006546906208,-2.8822341021679323
1782664837797842944,1.6728949546813965,-3.854335308074951,0.46299752593040466,-1.1769150495529175,0.03457837924361229,-0.29948094487190247,-0.9534754753112793,0.2156962752342224,-0.25921961665153503,0.4662623405456543,-0.1256055748684565,-0.03660818149326353,0.1480611357044209,0.9802861739522132,0.30414859020094576,0.03624973446859575,-2.892274480061729
1782664837807762944,1.6828148365020752,-3.312279224395752,0.30577248334884644,-1.1826536655426025,0.041269924491643906,-0.2638951241970062,-0.9636680483818054,0.5194752812385559,-0.024251818656921387,0.1451561450958252,-0.1207105544751788,-0.0368920342472856,0.1296338775475448,0.9834952147044138,0.2670582486219129,0.04279971738446063,-2.9030917092781285
1782664837817681920,1.6927340030670166,-0.6664440631866455,-0.13074922561645508,-0.7893578410148621,0.04389556869864464,-0.2436911165714264,-0.9688590168952942,0.5798379778862,0.653542160987854,-0.1590096354484558,-0.11581476827871713,-0.03630416741056277,0.11938379203270487,0.9854017392952749,0.24616988752482719,0.045275491994816994,-2.913207100814072
1782664837827601920,1.7026538848876953,2.187553882598877,-0.07029307633638382,-0.5230774283409119,0.044958461076021194,-0.25104498863220215,-0.9669308066368103,0.5252014398574829,1.0027844905853271,-0.4704013466835022,-0.11296767144849804,-0.036938245714147874,0.12316724954936645,0.9852429874604071,0.25375966991832305,0.0464625850295127,-2.9191983936469197
1782664837837521664,1.712573766708374,3.487874746322632,-0.13649006187915802,-0.5887573957443237,0.046499621123075485,-0.27881762385368347,-0.9592176675796509,0.2045990228652954,0.42048022150993347,-0.5028642416000366,-0.1093823618159454,-0.03891292893278677,0.13739342476936053,0.9836891998012685,0.28256269699603354,0.048438691196800096,-2.9270011162963727
1782664837847441920,1.7224938869476318,2.8461122512817383,0.18316037952899933,0.05576591193675995,0.04810381308197975,-0.3101887106895447,-0.9494572281837463,0.32260847091674805,-0.3744731545448303,-0.32614701986312866,-0.10782041165153367,-0.04137187962977531,0.15349190183522582,0.981378321378294,0.3153915335173284,0.050621255216002824,-2.9307890734248185
1782664837857362944,1.732414960861206,1.4891496896743774,0.31268036365509033,-0.14322830736637115,0.050156041979789734,-0.32996901869773865,-0.9426583647727966,0.4047694802284241,-0.603838324546814,0.13388150930404663,-0.10734988706893976,-0.04352789798626264,0.1636341436491613,0.9796964494970338,0.33627074519351446,0.053156892854626644,-2.932338975340236
1782664837867281920,1.7423338890075684,0.392084002494812,0.36886852979660034,0.2630307674407959,0.05404055491089821,-0.33886250853538513,-0.9392825961112976,0.10661923885345459,-0.8848618268966675,0.1630679965019226,-0.10754832396936763,-0.046068420982640926,0.1680368960236001,0.9788128837776152,0.3457076244141032,0.05747050510463166,-2.932754882957503
1782664837877201920,1.752253770828247,-0.17706109583377838,0.3770206570625305,0.19504980742931366,0.056846532970666885,-0.3394969701766968,-0.9388877749443054,0.3137894570827484,-0.7135578393936157,0.14378279447555542,-0.10884555802222608,-0.047749524700004084,0.16815494984199486,0.9785686204929465,0.34638204440753634,0.060472851675266684,-2.930627078164166
1782664837887121920,1.7621738910675049,-0.5784463286399841,0.25741517543792725,0.12319079041481018,0.05980967730283737,-0.33571165800094604,-0.9400640726089478,0.35175037384033203,-0.521923840045929,0.11666929721832275,-0.10989951557791584,-0.04919082239170839,0.16597656367558303,0.9787513227403366,0.3423606318647974,0.06353734016165594,-2.9289459364854493
1782664837897041920,1.7720937728881836,-0.8438701033592224,0.39788323640823364,0.6156400442123413,0.06276370584964752,-0.3285563886165619,-0.9423966407775879,0.059810131788253784,-0.3596149981021881,0.1442856788635254,-0.11209980121460975,-0.050598783081261096,0.16199213448152022,0.9790974506711361,0.3347747137225343,0.0665018887843997,-2.9248401448118813
1782664837906960896,1.782012939453125,-1.2420408725738525,0.33318281173706055,0.2978745400905609,0.06465192884206772,-0.31846123933792114,-0.945728600025177,0.19847063720226288,-0.21463507413864136,0.1459696888923645,-0.11523074594163332,-0.051409308335392735,0.1565017116748195,0.9795846955195621,0.3241057578267448,0.06825583273244269,-2.918567516204716
1782664837916880896,1.7919328212738037,-0.6983127593994141,0.19340480864048004,0.27558407187461853,0.0666397213935852,-0.31044426560401917,-0.9482528567314148,0.3215591311454773,-0.05091434717178345,0.05895543098449707,-0.1165002633562423,-0.052087180375127246,0.15218570827875108,0.9800786800427835,0.3156603653837103,0.07016096638852494,-2.916137294638656
1782664837926800896,1.8018529415130615,-1.002321720123291,0.25922802090644836,0.44623836874961853,0.0675128698348999,-0.3028392493724823,-0.9506473541259766,0.2471996545791626,-0.1064319908618927,0.10083961486816406,-0.11871600062559094,-0.05236367679440705,0.1481025511519749,0.9804234350254677,0.3076703811793021,0.0708987483679221,-2.9115910694427174
1782664837936720896,1.8117728233337402,-0.7291079163551331,0.16452769935131073,0.16051305830478668,0.06905447691679001,-0.2951849400997162,-0.9529414176940918,0.1899634599685669,0.08513244986534119,0.1282191276550293,-0.12091419302112724,-0.052954235712371824,0.1439623043240696,0.9807397692390037,0.29964909026612646,0.07233811651634901,-2.9071777099579674
1782664837946640128,1.8216919898986816,-0.42857709527015686,0.1366310864686966,0.23503842949867249,0.06926270574331284,-0.289620578289032,-0.9546321630477905,0.16979673504829407,0.11017721891403198,0.08581197261810303,-0.12222307765000355,-0.052872160288169066,0.14102640967265298,0.9810084315922014,0.29383041515412645,0.07242742788360161,-2.9044141061221014
1782664837956559872,1.8316118717193604,-0.6770382523536682,0.15351459383964539,0.1852734386920929,0.07005434483289719,-0.28506675362586975,-0.9559442400932312,0.22469967603683472,0.09511008858680725,0.1135064959526062,-0.12301969399523674,-0.05307368723992909,0.13860402284095547,0.9812432582027228,0.28907606014719595,0.07315211677658844,-2.9028037988690776
1782664837966480128,1.8415319919586182,-0.33117803931236267,0.13168440759181976,0.04983625188469887,0.07186593860387802,-0.2807823717594147,-0.9570770859718323,0.16569814085960388,-4.038214683532715e-05,0.14555364847183228,-0.12377584192005975,-0.053797547657438556,0.13626180690968684,0.9814367404862987,0.28460916530460934,0.07494832691559628,-2.901426364526063
1782664837976399872,1.8514518737792969,-0.47671911120414734,0.006511916406452656,0.30189958214759827,0.0727863684296608,-0.27651745080947876,-0.9582485556602478,0.2069835364818573,-0.05858081579208374,0.0887874960899353,-0.12474761852427585,-0.05410083094690091,0.1339732619721887,0.9816120833239512,0.28016835717982985,0.07581213659166748,-2.899474102709971
1782664837986320128,1.8613719940185547,-0.7308222055435181,0.15754882991313934,0.2116016447544098,0.07335399836301804,-0.27098485827445984,-0.9597845673561096,0.30910754203796387,-0.08623865246772766,0.03516298532485962,-0.12641107351092035,-0.05422725647317869,0.13102337579973647,0.9817904824784738,0.27441602464941645,0.0762792761396115,-2.896027694443427
1782664837996238848,1.871290922164917,-0.6571813821792603,0.15672113001346588,0.09647605568170547,0.07443244010210037,-0.2642538249492645,-0.9615767002105713,0.17031852900981903,-0.16756990551948547,-0.04455733299255371,-0.1273581424072008,-0.054423973143081165,0.1274742674275823,0.9821243208393863,0.2674301674964077,0.07725261608732929,-2.8940764353084956
1782664838006158848,1.8812108039855957,-0.6567203998565674,0.1291925609111786,0.15581820905208588,0.07558092474937439,-0.2587004601955414,-0.9629961848258972,0.2043415606021881,-0.08298960328102112,-0.16186648607254028,-0.12830420230992387,-0.05473276898059076,0.12452406628483506,0.9823625655803563,0.26167661216129356,0.07832461632742885,-2.8921593068399525
1782664838016078848,1.8911309242248535,-0.4924306869506836,-0.014171828515827656,0.11965001374483109,0.07644031196832657,-0.25310227274894714,-0.9644148945808411,0.17490246891975403,0.13805100321769714,-0.10543984174728394,-0.12904613457925757,-0.054863222859351315,0.12158359143286733,0.9826263655137762,0.2558855861201804,0.07909545988712333,-2.8906121734488557
1782664838025998848,1.9010508060455322,-0.09435390681028366,-0.09003836661577225,0.16086004674434662,0.07554406672716141,-0.2503643333911896,-0.965199887752533,0.2228568196296692,0.13488581776618958,-0.17768341302871704,-0.13010799240083243,-0.0543509562485976,0.12019166178555026,0.9826861141272228,0.25305656396995974,0.07810856338784604,-2.8882642030423162
1782664838035918080,1.9109699726104736,-0.13983450829982758,0.012585711665451527,0.10618124902248383,0.07514623552560806,-0.24969857931137085,-0.9654033780097961,0.11249108612537384,-0.02051931619644165,-0.13367193937301636,-0.13070073880107458,-0.05417663032566906,0.11984661073786347,0.9826591241376132,0.2523689647805998,0.07768257518422662,-2.886990052465886
1782664838045837824,1.9208898544311523,0.012409095652401447,0.059356942772865295,-0.09649702906608582,0.07605013996362686,-0.24887575209140778,-0.9655450582504272,0.12943996489048004,-0.018504008650779724,-0.007629990577697754,-0.13046779840831305,-0.054543007336984826,0.1193839948291316,0.9827261348599732,0.2515193144384157,0.07860167815321557,-2.88755655404374
1782664838055758080,1.9308099746704102,-0.11228576302528381,0.05581878498196602,0.1626712530851364,0.07666303962469101,-0.2492898851633072,-0.9653897285461426,0.1956910789012909,0.00397433340549469,-0.06830167770385742,-0.13062788087341815,-0.054899196838162155,0.119545854914257,0.9826654174511836,0.25194692226554727,0.07924519484352395,-2.8873190036494107
1782664838065677824,1.9407298564910889,-0.11561551690101624,0.08243148773908615,0.02860453352332115,0.07749367505311966,-0.24857547879219055,-0.9655076265335083,0.14241598546504974,-0.021123617887496948,0.0241471529006958,-0.1311009853338363,-0.0553222445682521,0.11910349566158021,0.9826323017888431,0.2512093019364502,0.08009042294131256,-2.886441185202829
1782664838075596800,1.9506487846374512,-0.42167341709136963,0.0652160495519638,0.13118617236614227,0.07807276397943497,-0.24629300832748413,-0.9660457372665405,0.17915989458560944,-0.08338837325572968,0.017528951168060303,-0.13163212884869357,-0.05551347959116428,0.11787865380228443,0.9826982699218689,0.24885357686415172,0.08064157763520073,-2.885369973664855
1782664838085517056,1.960568904876709,-0.3221399188041687,0.026161327958106995,-0.0133521044626832,0.07879263162612915,-0.2426881641149521,-0.9668992757797241,0.27124398946762085,-0.12034894526004791,0.04510056972503662,-0.13181433336990953,-0.05563800109040469,0.11599476015946629,0.9828909220841934,0.24513590141934283,0.0813103421311544,-2.8849875560707967
1782664838095436800,1.9704887866973877,-0.5694379210472107,-0.0043647754937410355,0.22288116812705994,0.07908641546964645,-0.23883162438869476,-0.9678351283073425,0.29702746868133545,-0.19662369787693024,-0.02114802598953247,-0.1325488132214595,-0.05559468495288459,0.11398103208804314,0.9830302600032845,0.24116247970217577,0.08153360753617661,-2.8834202230887347
1782664838105357056,1.9804089069366455,-0.6028590202331543,-0.018810028210282326,0.09138226509094238,0.07910065352916718,-0.23347273468971252,-0.9691406488418579,0.251648873090744,-0.16107377409934998,-0.00667417049407959,-0.1334117449047912,-0.05531517297371853,0.11122010844176829,0.9832454916184781,0.23564759071058605,0.0814388523219671,-2.881515040418494
1782664838115275776,1.9903278350830078,-0.6349722146987915,-0.050776369869709015,0.07650970667600632,0.07920132577419281,-0.22746996581554413,-0.9705588817596436,0.2006601095199585,-0.13553661108016968,-0.06430739164352417,-0.13381810844106315,-0.05497837816116557,0.10815697653452622,0.9835507730306796,0.22947874170341337,0.08142341788041797,-2.880529839277039
1782664838125196032,2.0002479553222656,-0.6468527913093567,-0.04555816948413849,0.3410433530807495,0.07814669609069824,-0.22175464034080505,-0.971966028213501,0.21914029121398926,-0.10283032059669495,-0.09781241416931152,-0.13504721764340866,-0.0541710248802798,0.10527337715148011,0.9837404140518238,0.2236135487555946,0.08022807389878042,-2.8777518721725093
1782664838135115776,2.0101678371429443,-0.630490243434906,-0.055155858397483826,0.048336461186409,0.07901732623577118,-0.2161325067281723,-0.9731613397598267,0.08950074017047882,-0.0798727422952652,-0.09976041316986084,-0.13571392040856112,-0.05426899266162867,0.10234355975380664,0.9839524345852794,0.21785160213878108,0.08101879212988718,-2.8763324938453545
1782664838145036032,2.020087957382202,-0.5010219812393188,0.021461686119437218,0.08530911803245544,0.08026602864265442,-0.21138153970241547,-0.974102258682251,0.14039131999015808,-0.07699431478977203,-0.10469412803649902,-0.13632113304915802,-0.05461023257408822,0.09983283275018581,0.9841075074030844,0.21298822166814443,0.08221426814931357,-2.8750928094607766
1782664838154955776,2.030007839202881,-0.746702253818512,-0.14536690711975098,0.21334901452064514,0.08058269321918488,-0.20631517469882965,-0.9751617908477783,0.18669025599956512,-0.06390272080898285,-0.09806513786315918,-0.1370855924154327,-0.054475537749270386,0.09721897740889344,0.9842705711387932,0.2078076142827804,0.08244788043353249,-2.8734228943658913
1782664838164874752,2.039926767349243,-0.4373593330383301,-0.03188188746571541,-0.007985236123204231,0.08183180540800095,-0.20130740106105804,-0.9761039614677429,0.18788254261016846,-0.041490450501441956,-0.08071976900100708,-0.1378182731882615,-0.05480464708175655,0.09457528071882214,0.984407495791981,0.20269245653394566,0.08363955411532951,-2.8719089437889918
1782664838174795008,2.049846887588501,-0.5594544410705566,-0.08371548354625702,0.2706468999385834,0.08154638111591339,-0.19718310236930847,-0.976969301700592,0.1654934138059616,-0.03233960270881653,-0.14017242193222046,-0.13849895981394408,-0.054424039159523,0.09248445954308197,0.9845316862934036,0.19848378100946285,0.0832756858593242,-2.870373326593452
1782664838184714752,2.0597667694091797,-0.40153348445892334,-0.03455113619565964,0.22506636381149292,0.08072515577077866,-0.19245167076587677,-0.9779804944992065,0.24150994420051575,0.01448841392993927,-0.09457504749298096,-0.1398817477979516,-0.05379320079370214,0.09008915353347322,0.9845929618718259,0.1936599076724305,0.08235600870308757,-2.867344287218283
1782664838194635008,2.0696868896484375,-0.4693680703639984,-0.14479656517505646,0.3006701171398163,0.0801466703414917,-0.1891709566116333,-0.9786679148674011,0.1567307710647583,-0.0317152738571167,-0.18156462907791138,-0.14115720707444565,-0.05337636561813071,0.0884138814479957,0.984585443035593,0.19031779213878947,0.08171129350037758,-2.8646023941578944
1782664838204553728,2.0796058177948,-0.4343051612377167,-0.29197269678115845,0.18686550855636597,0.07748935371637344,-0.18456198275089264,-0.9797613620758057,0.18213894963264465,0.05629660189151764,-0.11757445335388184,-0.14257109015387553,-0.05183140715655397,0.08621390091261584,0.9846594544400444,0.1856261731566105,0.07892573424806663,-2.8613569563188177
1782664838214473984,2.0895259380340576,-0.3142392039299011,-0.28589555621147156,0.1103074848651886,0.07482962310314178,-0.1815652698278427,-0.9805276989936829,0.16319221258163452,0.015122413635253906,-0.18397724628448486,-0.1431955436648093,-0.05033446977828289,0.08486806690762645,0.984763328700744,0.1825779379005989,0.07616802257227391,-2.859770543593843
1782664838224393728,2.0994458198547363,-0.196928009390831,-0.2576788365840912,0.1415354460477829,0.07243689149618149,-0.17919912934303284,-0.9811424612998962,0.16402855515480042,-0.005081251263618469,-0.11744451522827148,-0.14366351594474153,-0.04900401703683962,0.08382938383403511,0.9848513052202837,0.1801723486876948,0.07369542223652202,-2.8585493390723
1782664838234313984,2.109365940093994,-0.12096726894378662,-0.3306862711906433,0.17230983078479767,0.06935472786426544,-0.17806661128997803,-0.9815713167190552,0.16419631242752075,-0.03326761722564697,-0.11852633953094482,-0.14426349392447702,-0.047434103742462055,0.08345272863428871,0.9848725018611912,0.179021314565956,0.07053960723067036,-2.857036237409975
1782664838244233728,2.119285821914673,-0.13177090883255005,-0.3105602264404297,0.1649283468723297,0.06625323742628098,-0.17752020061016083,-0.9818844795227051,0.20724529027938843,0.017074033617973328,-0.07840299606323242,-0.1450240277072039,-0.04591264285327536,0.08336546940921495,0.9848401795972996,0.1784660542192791,0.06737347010101541,-2.85521153198877
1782664838254152960,2.1292049884796143,-0.08691322803497314,-0.2637387812137604,0.21431823074817657,0.06333452463150024,-0.1765531599521637,-0.9822513461112976,0.23932355642318726,0.023049741983413696,-0.005175411701202393,-0.14593558395536732,-0.04446314853064651,0.08305028924530983,0.9847987484109134,0.17748348617166954,0.06438979928213351,-2.8530886001808904
1782664838264072960,2.139124870300293,-0.022661007940769196,-0.3552902638912201,0.0698271095752716,0.06041662022471428,-0.1762537956237793,-0.9824888706207275,0.19429834187030792,-0.0682225227355957,-0.013147115707397461,-0.14659056562595316,-0.04304342808268641,0.08308318368513821,0.9847617413664708,0.17717936627266034,0.06141610269642129,-2.851501902168601
1782664838273992960,2.149044990539551,-0.19080227613449097,-0.23447227478027344,0.14745375514030457,0.05761956796050072,-0.17522989213466644,-0.9828400015830994,0.15670537948608398,-0.09076131880283356,0.004507482051849365,-0.14691749061425943,-0.04160104100690781,0.0827608129091729,0.9848021701564535,0.1761392737102099,0.058558557484368515,-2.8505796099931957
1782664838283912960,2.1589648723602295,-0.048608120530843735,-0.39762020111083984,0.17450161278247833,0.05437711998820305,-0.17395080626010895,-0.9832518696784973,0.22571320831775665,-0.03810058534145355,0.0044921040534973145,-0.13759436937441596,-0.03910961437178474,0.08273150544411009,0.9862523702635616,0.17484023661933046,0.055247070869563514,-2.8692006912475057
1782664838293831936,2.168883800506592,-0.22755244374275208,-0.16167153418064117,0.025930985808372498,0.05173458158969879,-0.17314362525939941,-0.9835368990898132,0.1325763314962387,-0.11933684349060059,-0.016600430011749268,-0.12814155524546375,-0.03694401641880056,0.08286551416150267,0.9875971664563239,0.17402060846416714,0.052552116966542974,-2.888117904013611
1782664838303751936,2.1788039207458496,-0.20441782474517822,-0.2716939151287079,0.23223090171813965,0.04889588803052902,-0.17081774771213531,-0.984088659286499,0.13251584768295288,-0.13650952279567719,0.04259085655212402,-0.12883955116296353,-0.035431840332835474,0.08185508682392124,0.9876460371752189,0.17165955661336413,0.04964563913110287,-2.8864278508688757
1782664838313671936,2.1887238025665283,-0.3842769265174866,-0.17807085812091827,0.11484933644533157,0.04680220037698746,-0.16844409704208374,-0.9845994710922241,0.14240679144859314,-0.15131908655166626,-0.03198683261871338,-0.12962503161363267,-0.03429398197556084,0.08077240342347594,0.9876725945608692,0.16925099677590225,0.04749850084360704,-2.8846284897366625
1782664838323591936,2.198643922805786,-0.21221330761909485,-0.23445956408977509,0.21435914933681488,0.04488152265548706,-0.16554702818393707,-0.9851800799369812,0.11777716875076294,-0.10340438783168793,0.013408839702606201,-0.13046351302599193,-0.033209953455592585,0.07941693281190239,0.9877091038672458,0.16631266856033383,0.045525190853706675,-2.8827342500575392
1782664838333510912,2.2085628509521484,-0.37725555896759033,-0.2463177591562271,0.17411915957927704,0.042153749614953995,-0.16249693930149078,-0.9858081936836243,0.1946321427822113,-0.06861267983913422,-0.004792392253875732,-0.13150430338597807,-0.03172792454749308,0.07803357788220393,0.987730093079696,0.16322070586576945,0.0427345654569318,-2.8803695317128932
1782664838343430912,2.2184829711914062,-0.1577053815126419,-0.22313760221004486,0.04214940592646599,0.03998186066746712,-0.1601538509130478,-0.9862819910049438,0.1748466193675995,-0.0020928382873535156,-0.015899956226348877,-0.13181507264659592,-0.030511838467219266,0.07699366617778203,0.9878085788051764,0.16084651115124826,0.040515775838137306,-2.879542110879174
1782664838353350912,2.228402853012085,-0.14446046948432922,-0.26319319009780884,0.2531818449497223,0.037846311926841736,-0.15858519077301025,-0.9866196513175964,0.18986059725284576,-0.0010827630758285522,-0.03861832618713379,-0.13236519457796503,-0.029384848502474012,0.07633276056607036,0.9878205013975595,0.1592575481119281,0.03834077526877631,-2.878245017531337
1782664838363270912,2.2383229732513428,-0.126353919506073,-0.21341416239738464,0.22221887111663818,0.03523705527186394,-0.1573355346918106,-0.9869163632392883,0.19916845858097076,-0.020307287573814392,-0.01036757230758667,-0.13370519034523945,-0.028104227152817456,0.07584179718112237,0.9877150964197248,0.15799200378903872,0.03568903608533861,-2.875317534505242
1782664838373190912,2.2482428550720215,-0.02103974111378193,-0.27620431780815125,0.1466820389032364,0.03275660052895546,-0.1571129858493805,-0.9870372414588928,0.13080236315727234,-0.017859548330307007,-0.04901927709579468,-0.134452933833698,-0.026912512794829795,0.07587552774921485,0.9876442368785282,0.15776665095316142,0.03317461855599954,-2.8736088263268256
1782664838383109888,2.258161783218384,-0.0740470364689827,-0.21856391429901123,0.10989686101675034,0.03044443391263485,-0.15633872151374817,-0.9872341752052307,0.1442076712846756,-0.019457772374153137,-0.01635158061981201,-0.1348017782294366,-0.025735805802751324,0.07563447445747591,0.9876465153290174,0.15698268989371864,0.030828337997496593,-2.8727182274117053
1782664838393029888,2.2680819034576416,-0.1468900740146637,-0.1820911318063736,0.07544301450252533,0.027846068143844604,-0.15572305023670197,-0.9874081611633301,0.1950390636920929,-0.07218220829963684,-0.08743613958358765,-0.13547418110421558,-0.02445254306224515,0.0754849573591163,0.9875985657157924,0.15635938848841394,0.028193698548821502,-2.871152448925201
1782664838402949888,2.2780017852783203,-0.2588336765766144,-0.25354188680648804,0.17860695719718933,0.025884084403514862,-0.15391039848327637,-0.9877457022666931,0.13935333490371704,-0.05695079267024994,-0.05499410629272461,-0.13585518166580846,-0.023379984016033403,0.07470285828163865,0.987631677029884,0.15452462143254111,0.026199214891054104,-2.87022376829588
1782664838412869888,2.287921905517578,-0.20013412833213806,-0.16839635372161865,0.0843275859951973,0.023895930498838425,-0.1517367660999298,-0.9881320595741272,0.19985894858837128,-0.03069731593132019,-0.0387539267539978,-0.13649490640571801,-0.022288208907828833,0.07373746556184424,0.9876412043287939,0.15232515510130987,0.024178219511997293,-2.8687718197145275
1782664838422788864,2.2978408336639404,-0.1855410635471344,-0.23132897913455963,0.15425394475460052,0.021785201504826546,-0.1498008519411087,-0.9884761571884155,0.1684003472328186,-0.026163503527641296,-0.03972208499908447,-0.1370429025418339,-0.021144507641889687,0.072902894491578,0.9876524780405601,0.15036685518066298,0.022035610981806567,-2.867500905235084
1782664838432708864,2.3077609539031982,-0.12656757235527039,-0.2530045211315155,0.1582048386335373,0.01891186460852623,-0.14825439453125,-0.9887683987617493,0.21260973811149597,-0.017181381583213806,-0.04560959339141846,-0.1378465517193774,-0.019667442611607095,0.07231171695779728,0.9876145898614062,0.14880292410468812,0.01912435604133301,-2.8656595583447335
1782664838442628864,2.317680835723877,-0.1346682459115982,-0.2601919174194336,0.10408414155244827,0.0163945984095335,-0.1470404714345932,-0.9889945983886719,0.16472722589969635,-0.0234154611825943,-0.07005691528320312,-0.13828512406884205,-0.018363542811214512,0.07187127653744674,0.9876105124385529,0.14757554646825885,0.016575517785158186,-2.864587061039255
1782664838452548864,2.3276009559631348,-0.1600566804409027,-0.2448417842388153,0.08482269942760468,0.013906498439610004,-0.14580745995044708,-0.9892152547836304,0.16742894053459167,-0.04356937110424042,-0.05126631259918213,-0.13876317173180872,-0.017075455352846686,0.07141994676537243,0.9875992777338606,0.14632911048221509,0.01405718543368698,-2.863439516721327
1782664838462467840,2.337519884109497,-0.17618665099143982,-0.1976492553949356,0.07217614352703094,0.01164874155074358,-0.1439349353313446,-0.9895185828208923,0.1324247419834137,-0.021790772676467896,-0.006605684757232666,-0.1391074431146559,-0.015846568053336712,0.07063703823962643,0.9876276335555654,0.14443661392878518,0.011771586213165756,-2.86258505948723
1782664838472388096,2.347440004348755,-0.4071042835712433,-0.23418709635734558,0.18399202823638916,0.009209358133375645,-0.14124813675880432,-0.9899314045906067,0.15998008847236633,-0.07007083296775818,-0.02428978681564331,-0.1396476564058333,-0.014483238117036475,0.06945892653993327,0.9876558751653544,0.1417220761893953,0.009302758028510421,-2.8613290789442427
1782664838482307840,2.3573598861694336,-0.2831876575946808,-0.2776424288749695,0.06671413034200668,0.006578940432518721,-0.1375318467617035,-0.9904754757881165,0.1976904720067978,-0.024516478180885315,-0.01222527027130127,-0.14020013381877694,-0.01295173199688686,0.067782775114683,0.9877153402798811,0.13796914453305842,0.006642106489757034,-2.8600477068483823
1782664838492227840,2.3672797679901123,-0.2659592926502228,-0.2917216420173645,0.05689059942960739,0.0037045679055154324,-0.13469558954238892,-0.9908800721168518,0.15545986592769623,-0.00266401469707489,-0.07743346691131592,-0.14053403587547458,-0.011346025760653487,0.06656738953334805,0.987770348336281,0.1351062491553792,0.0037386466387072537,-2.8591945525777276
1782664838502147840,2.37719988822937,-0.20736974477767944,-0.2858344614505768,0.07671543955802917,0.0012296971399337053,-0.13271760940551758,-0.9911531209945679,0.14400345087051392,0.023098468780517578,-0.08979475498199463,-0.14069460652633925,-0.00998786436790772,0.06575468427486987,0.9878165805568906,0.1331103468938232,0.0012406726321862436,-2.858718707542203
1782664838512066816,2.3871188163757324,-0.11513175070285797,-0.320305734872818,0.022883065044879913,-0.0019272398203611374,-0.1309090554714203,-0.9913924932479858,0.2223709672689438,0.03129968047142029,-0.07698214054107666,-0.140970752116783,-0.008311041630892047,0.06507435796641142,0.9878378242245197,0.13128586713916449,-0.0019439700859232324,-2.857966288237777
1782664838521987072,2.3970389366149902,0.18076834082603455,-0.3993808329105377,-0.07087964564561844,-0.005323908291757107,-0.1315349042415619,-0.9912972450256348,0.19062663614749908,0.04283556342124939,-0.12827062606811523,-0.14066338006598927,-0.006650379071865721,0.06562888550137992,0.9878574725286058,0.13191717360859434,-0.005370596210172921,-2.858354765616238
1782664838531906816,2.406958818435669,0.07906941324472427,-0.3552243411540985,0.03228708356618881,-0.00881929975003004,-0.1326211541891098,-0.9911275506019592,0.19532747566699982,0.0636972039937973,-0.09908241033554077,-0.14053085395128237,-0.00498479680994592,0.0664181440095297,0.9878334026135234,0.13301303251125574,-0.008898013704685051,-2.8583730576637483
1782664838541827072,2.4168789386749268,-0.012668494135141373,-0.3026788532733917,-0.07533764839172363,-0.011888091452419758,-0.13334521651268005,-0.9909983277320862,0.15236049890518188,0.012449845671653748,-0.08506667613983154,-0.14023243184304193,-0.003493601422123054,0.06699716957407843,0.9878431002781115,0.1337435789886057,-0.011995501031340543,-2.858757305113145
1782664838551745792,2.426797866821289,-0.19864661991596222,-0.2968543767929077,-0.02030581794679165,-0.014829677529633045,-0.13226036727428436,-0.9911040663719177,0.16106991469860077,-0.09407325088977814,-0.06680303812026978,-0.1399283539386583,-0.0019368879553703945,0.06666493952593093,0.9879129603865734,0.13264903474400894,-0.014961668490020006,-2.8591900087975506
1782664838561666048,2.436717987060547,-0.13487082719802856,-0.4092962443828583,-0.008668070659041405,-0.018088869750499725,-0.13028395175933838,-0.9913116693496704,0.18886522948741913,-0.08539901673793793,-0.08521109819412231,-0.13980207304764083,-0.00017197976964699712,0.065909950104278,0.987983360587113,0.13065536960165844,-0.01824538314919271,-2.8592605398166255
1782664838571585792,2.4466378688812256,-0.29215332865715027,-0.3621171712875366,0.07088830322027206,-0.02150358073413372,-0.12834221124649048,-0.9914968013763428,0.15901578962802887,-0.05821174383163452,-0.11900734901428223,-0.1398579515647992,0.0016552078362115118,0.06518333794482221,0.9880223783245704,0.12869717890070964,-0.0216845992168468,-2.8589569605403806
1782664838581506048,2.4565579891204834,-0.16522468626499176,-0.3196418881416321,0.09490016102790833,-0.02453446201980114,-0.1260293424129486,-0.9917230606079102,0.1370680332183838,0.016929015517234802,-0.06345266103744507,-0.14015238595445056,0.0033025001316760844,0.06424604083031407,0.9880379279875191,0.1263653799784782,-0.02473418202145367,-2.858209491525681
1782664838591425792,2.466477870941162,-0.18079884350299835,-0.33407866954803467,0.05370878800749779,-0.027816126123070717,-0.12469413876533508,-0.9918052554130554,0.14890988171100616,-0.04348823428153992,-0.10598832368850708,-0.14042311487423415,0.00500699374097953,0.06381465095028607,0.9880202188555114,0.12501955469247958,-0.028038606132184434,-2.85747712778404
1782664838601344768,2.4763967990875244,-0.22902922332286835,-0.36943238973617554,0.018892483785748482,-0.03126107528805733,-0.12247183173894882,-0.9919795393943787,0.19788704812526703,-0.04635141044855118,-0.04854780435562134,-0.14058835287499696,0.006862071244489103,0.0629535140190387,0.9880408439231418,0.12278008312732573,-0.03150340447547869,-2.8569736101656282
1782664838611265024,2.4863169193267822,-0.14298588037490845,-0.4253719747066498,-0.07636622339487076,-0.0351608507335186,-0.12064894288778305,-0.992072343826294,0.2132461816072464,-0.023424535989761353,-0.07140415906906128,-0.1403395688917852,0.008940741638281211,0.06232084919897666,0.9880996878660622,0.12094357536401527,-0.03542699203645128,-2.857275219064722
1782664838621184768,2.496236801147461,-0.3022642433643341,-0.41348281502723694,0.04920341819524765,-0.038972072303295135,-0.11866994947195053,-0.992168664932251,0.17300528287887573,-0.03996042162179947,-0.08398795127868652,-0.14019330500733504,0.010979651376661313,0.061604583130121925,0.9881448161486134,0.11895026113718822,-0.03925950177629978,-2.8573852790491676
1782664838631105024,2.5061569213867188,-0.4394170939922333,-0.36451631784439087,0.006642342545092106,-0.042719487100839615,-0.11494157463312149,-0.9924532771110535,0.16997778415679932,-0.05079939216375351,-0.05953341722488403,-0.14026253355075943,0.01309626680038871,0.060015461961309816,0.9882070621504732,0.11519618523542352,-0.04301777750208112,-2.857122645324426
1782664838641024000,2.516075849533081,-0.40728577971458435,-0.40036699175834656,0.10676201432943344,-0.04648469015955925,-0.11061917990446091,-0.9927752017974854,0.14121125638484955,-0.04297579079866409,-0.08434271812438965,-0.14027082064066992,0.015266941968348885,0.05813197936319928,0.9882872886433474,0.1108460314618934,-0.046788804375984636,-2.8570133345494924
1782664838650944000,2.525995969772339,-0.40473687648773193,-0.421133816242218,-0.04130720719695091,-0.05035699903964996,-0.10641016811132431,-0.9930463433265686,0.15942682325839996,-0.06406102329492569,-0.1125902533531189,-0.14031136857449242,0.01748067121201921,0.05631387069356502,0.9883501079503705,0.10661201265456102,-0.05066621704159402,-2.856842935909328
1782664838660864000,2.5359158515930176,-0.27214714884757996,-0.5044854283332825,0.11536496132612228,-0.05479009449481964,-0.10344993323087692,-0.9931244254112244,0.19314154982566833,-0.04103553295135498,-0.16008901596069336,-0.1403810464338283,0.019883317682493615,0.05515825076162157,0.9883599545145233,0.1036353431203484,-0.05511354595665676,-2.8565523066954372
1782664838670784000,2.5458359718322754,-0.3092847764492035,-0.5539431571960449,0.10101445019245148,-0.059981923550367355,-0.10063182562589645,-0.9931139945983887,0.19256554543972015,-0.035415537655353546,-0.14905214309692383,-0.14073431638939046,0.02263704422367525,0.0541347176069386,0.9883070270021346,0.10080245023392269,-0.060324543179187624,-2.8556518513407436
1782664838680704000,2.555755853652954,-0.39097750186920166,-0.5158602595329285,-0.03849470987915993,-0.06497771292924881,-0.09733977913856506,-0.9931278228759766,0.1762142777442932,-0.07813630253076553,-0.14122581481933594,-0.14070733769712337,0.025348090071746193,0.052854180190961005,0.9883144503572833,0.09749415092640398,-0.06533421781373003,-2.8555629269470066
1782664838690622720,2.5656747817993164,-0.2513486444950104,-0.5890623331069946,0.11386307328939438,-0.0705474317073822,-0.09424716234207153,-0.9930461049079895,0.1846679151058197,-0.10123318433761597,-0.1400105357170105,-0.1407329829475904,0.02832731127990746,0.05171575090382139,0.9882901511381349,0.09438724668802932,-0.07092229304019786,-2.8553427535834426
1782664838700542976,2.575594902038574,-0.2622276544570923,-0.6395478844642639,0.01668379083275795,-0.07653594762086868,-0.09162338078022003,-0.9928480982780457,0.16843964159488678,-0.08188430219888687,-0.14966893196105957,-0.1407232205630921,0.03148381352767423,0.05084000483668675,0.9882413515852243,0.09175206363369648,-0.07693511613049224,-2.855165543192835
1782664838710462720,2.585514783859253,-0.13014838099479675,-0.5740416646003723,0.019817033782601357,-0.08266089856624603,-0.08976097404956818,-0.9925271272659302,0.13953042030334473,0.005837641656398773,-0.11974698305130005,-0.14059692489904854,0.03466129749323705,0.050348974242997,0.9881781916473543,0.0898819465907182,-0.08309150540628801,-2.855193095576479
1782664838720382976,2.5954349040985107,-0.08050200343132019,-0.6034011244773865,-0.0009939721785485744,-0.08826252818107605,-0.089103102684021,-0.9921039938926697,0.11565205454826355,-0.0009390115737915039,-0.11690479516983032,-0.1404816438038302,0.03749490398921565,0.05041951777230047,0.9880875442785098,0.08922143039077414,-0.08873139135481463,-2.8551715119599934
1782664838730301952,2.605353832244873,-0.1496201455593109,-0.5634914636611938,0.08058181405067444,-0.09394854307174683,-0.08776749670505524,-0.9917008280754089,0.13433855772018433,-0.06926070153713226,-0.06564170122146606,-0.1404215917502449,0.04041578007292521,0.05016122930944844,0.9879940846106097,0.08788057252848794,-0.09445287413777631,-2.855071863549259
1782664838740221952,2.615273952484131,-0.2538086175918579,-0.5754732489585876,0.0661085993051529,-0.09939069300889969,-0.0858757421374321,-0.9913358688354492,0.15705366432666779,-0.1466834545135498,-0.0741395354270935,-0.14059226181639978,0.04324351338889802,0.04961908838157184,0.9878773743261217,0.08598164509907301,-0.09992543283372264,-2.8545541628397237
1782664838750141952,2.6251938343048096,-0.2744057774543762,-0.5779808759689331,0.07482645660638809,-0.10496680438518524,-0.08281713724136353,-0.9910213351249695,0.19111792743206024,-0.12946313619613647,-0.05521279573440552,-0.1407703276226663,0.04622006039205807,0.04850811930223079,0.9877723938555807,0.08291209889290084,-0.10552436979024464,-2.854092040319683
1782664838760061952,2.6351139545440674,-0.3613094985485077,-0.5906473994255066,0.06746281683444977,-0.11044113337993622,-0.07980065792798996,-0.990673840045929,0.20104782283306122,-0.13154882192611694,-0.11458128690719604,-0.1408410340578149,0.04914952369350375,0.04740691523524663,0.987674438232205,0.07988559792781091,-0.11102241138378215,-2.853863786778668
1782664838769981952,2.645033836364746,-0.3431347608566284,-0.5918506383895874,0.04776208475232124,-0.11598649621009827,-0.07625140994787216,-0.990319550037384,0.20492997765541077,-0.07809123396873474,-0.08797323703765869,-0.14098183789068167,0.05214946408967143,0.046050487157469656,0.9875646298362899,0.07632549516784719,-0.11658911704143238,-2.853538113197819
1782664838779900928,2.6549530029296875,-0.2834205627441406,-0.668543815612793,0.11085130274295807,-0.12207375466823578,-0.07295646518468857,-0.9898360371589661,0.18751870095729828,-0.07458076626062393,-0.11166542768478394,-0.14118279255272873,0.05540008371812724,0.04486445834080401,0.9874134544295057,0.07302133826928577,-0.1227076420375443,-2.853065166954084
1782664838789820928,2.664872884750366,-0.1853695660829544,-0.5944044589996338,0.09641940146684647,-0.1280156821012497,-0.070564866065979,-0.9892585873603821,0.1600743979215622,-0.06217134743928909,-0.12519758939743042,-0.14150818765060325,0.05851135442568653,0.044126166091175416,0.9872207649310992,0.07062355683148908,-0.12869050998980192,-2.85229985461184
1782664838799740672,2.674792766571045,-0.24433141946792603,-0.5466095209121704,0.08104337006807327,-0.13381698727607727,-0.06855848431587219,-0.9886317849159241,0.11806991696357727,-0.06481859087944031,-0.12130779027938843,-0.14171379127564349,0.06153277129380426,0.0435642036013322,0.9870324949986838,0.06861230563034978,-0.1345380876005255,-2.8517662481677886
1782664838809660928,2.6847128868103027,-0.27166444063186646,-0.5874214768409729,0.10186293721199036,-0.13938964903354645,-0.06581052392721176,-0.9880483150482178,0.14863647520542145,-0.09317079931497574,-0.10590004920959473,-0.14188234355351356,0.06449580888401016,0.042616034581250385,0.9868604418057131,0.06585812173161297,-0.14015084759318708,-2.8513824803334273
1782664838819579904,2.694631814956665,-0.41087186336517334,-0.5911189913749695,0.022100461646914482,-0.14500322937965393,-0.06251025199890137,-0.9874545931816101,0.15357866883277893,-0.15120434761047363,-0.11940270662307739,-0.14206930495242634,0.06751925611938231,0.04139884352615885,0.9866831031331726,0.06255103309801266,-0.1458034116442573,-2.8510151719712717
1782664838829499904,2.704551935195923,-0.45781099796295166,-0.5492997765541077,0.05142086371779442,-0.15064583718776703,-0.058324649930000305,-0.986865758895874,0.14869272708892822,-0.1303045004606247,-0.0755884051322937,-0.14198269026802662,0.07063286487666219,0.03972541791450531,0.9865464056021124,0.05835776666591369,-0.15148139425381688,-2.8512879991418747
1782664838839419904,2.7144718170166016,-0.47728511691093445,-0.5704005360603333,0.04187902435660362,-0.15616342425346375,-0.05351009592413902,-0.9862807393074036,0.18590280413627625,-0.07199344784021378,-0.06421059370040894,-0.1418898892519977,0.07373018858733832,0.03772929968103168,0.9864115145215859,0.0535356638322189,-0.15703206332494357,-2.851650506351249
1782664838849339904,2.7243919372558594,-0.6607609391212463,-0.4783983528614044,0.07139110565185547,-0.1610451638698578,-0.04812360554933548,-0.9857730865478516,0.1496773660182953,-0.09378312528133392,-0.018560409545898438,-0.1418356468143374,0.07655038803773549,0.0354047543472762,0.9862906109019808,0.048142200131022175,-0.1619388339760497,-2.8520294256960588
1782664838859259136,2.734311103820801,-0.5153390169143677,-0.4344535171985626,0.04859844967722893,-0.16557982563972473,-0.04207456856966019,-0.9852984547615051,0.19878295063972473,-0.045617684721946716,0.03897887468338013,-0.1419426239853993,0.07924007410317531,0.03273809288486975,0.9861548455775142,0.04208699356774661,-0.16649473740938994,-2.8521731135941293
1782664838869179136,2.7442312240600586,-0.4323841333389282,-0.4255029857158661,-0.09531048685312271,-0.16989070177078247,-0.03765149414539337,-0.9847433567047119,0.13825924694538116,-0.04526476189494133,0.03520423173904419,-0.14138030149773312,0.0817260235623841,0.03080859085722311,0.9860949983421563,0.03766039669083841,-0.17084108677355175,-2.8535605588950235
1782664838879099136,2.7541511058807373,-0.528859555721283,-0.2918357253074646,-0.027382569387555122,-0.1735255867242813,-0.03334682434797287,-0.984264612197876,0.1411769688129425,-0.03296786919236183,0.15224868059158325,-0.14091389252099512,0.08386189924064125,0.0288940709286818,0.9860403331535118,0.0333530087697705,-0.17450648996237028,-2.8547793451892685
1782664838889019136,2.764071226119995,-0.5527004599571228,-0.14950154721736908,-0.041328780353069305,-0.17566265165805817,-0.028036439791321754,-0.9840511083602905,0.12810100615024567,-0.028848327696323395,0.298061728477478,-0.14042934903616516,0.08531834515494327,0.02636709906875206,0.9860553764138754,0.02804011452210864,-0.1766490208252341,-2.856181419546188
1782664838898939136,2.773991107940674,-0.6671279668807983,0.020225979387760162,-0.022174790501594543,-0.1762460321187973,-0.022318711504340172,-0.9840930700302124,0.129081130027771,-0.08217348158359528,0.3491901755332947,-0.13996531082187152,0.08602317516856628,0.023525872053766744,0.9861320275729316,0.022320564249812765,-0.1772160795442925,-2.85762581612915
1782664838908858112,2.783910036087036,-0.8387554883956909,0.25344598293304443,-0.07011651992797852,-0.17477554082870483,-0.014998388476669788,-0.9844940900802612,0.09884780645370483,-0.08891396969556808,0.46581733226776123,-0.13943344096644925,0.08581098655867263,0.0197342975010314,0.9863090122099778,0.014998951068274887,-0.17569776392320322,-2.859395032714636
1782664838918778112,2.793830156326294,-1.1030553579330444,0.466828852891922,-0.020844841375947,-0.17102664709091187,-0.005791228264570236,-0.985249400138855,0.053930699825286865,-0.10555215924978256,0.53044593334198,-0.13874149367281985,0.08458939823260689,0.014830431036221246,0.9865979959304814,0.005791260530724346,-0.17187449209318062,-2.861673734885617
1782664838928698112,2.8037500381469727,-1.3189148902893066,0.7767332792282104,-0.0601833239197731,-0.16450941562652588,0.006182468496263027,-0.9863561391830444,0.08314955234527588,-0.1197231188416481,0.6014074087142944,-0.138182755179445,0.08216954603916528,0.008372382984626461,0.9869567659908539,-0.006182507844791117,-0.16526381852178867,-2.8638953222208556
1782664838938618112,2.8136701583862305,-1.2961992025375366,0.8466212749481201,-0.00012265238910913467,-0.156479150056839,0.018943339586257935,-0.9874995946884155,0.08033779263496399,-0.07544663548469543,0.596035361289978,-0.13746020798376013,0.07904565686419592,0.0014118261731478174,0.987347143540089,-0.018944472940025842,-0.15715330600713126,-2.86641917298751
1782664838948538112,2.823590040206909,-1.071355938911438,0.9683350324630737,-0.03118123672902584,-0.14716750383377075,0.030734321102499962,-0.9886339902877808,0.10902053117752075,0.08417962491512299,0.6002215147018433,-0.13692834518747007,0.07521090669367327,-0.00513173356747516,0.987708253283801,-0.030739161840563484,-0.1477743071165701,-2.868359478512507
1782664838958457344,2.8335092067718506,-0.7436524033546448,1.1211161613464355,-0.015928246080875397,-0.13679425418376923,0.03948051854968071,-0.989812433719635,0.09741131961345673,0.1380860060453415,0.57150799036026,-0.1364653382924762,0.07063484739343683,-0.01022300613883625,0.9880705460773942,-0.03949078286250967,-0.1373322663431869,-2.8698195711127483
1782664838968377088,2.8434290885925293,-0.4214583933353424,1.2731746435165405,-0.023788433521986008,-0.12477517127990723,0.04513678327202797,-0.9911578297615051,0.07658791542053223,0.10818353295326233,0.5432208180427551,-0.13607726548579416,0.06502643897807711,-0.013879884463359858,0.9884644189071478,-0.045152124345328476,-0.1252295283228737,-2.8708132152652017
1782664838978297344,2.853349208831787,-0.21648581326007843,1.4515385627746582,0.019091123715043068,-0.11086797714233398,0.0479004867374897,-0.9926801323890686,0.08894109725952148,0.044903464615345,0.4958844780921936,-0.13592182836652633,0.058285727463789565,-0.016208326653016848,0.9888707748586624,-0.04791882289885163,-0.11122456721468638,-2.8710695741499155
1782664838988217088,2.863269090652466,-0.03765593469142914,1.4715166091918945,0.09514058381319046,-0.09573250263929367,0.04908028990030289,-0.994196355342865,0.09547309577465057,0.014915067702531815,0.52303546667099,-0.1360371063861921,0.050837007339092376,-0.01781616045268288,0.9892381797166191,-0.049100017127522565,-0.09599537865964795,-2.87063187559732
1782664838998136064,2.873188018798828,0.10673026740550995,1.5394469499588013,0.07496953010559082,-0.07779011130332947,0.04815485700964928,-0.995806097984314,0.12065204977989197,0.03495976701378822,0.49455487728118896,-0.13633377181697245,0.0418610473782233,-0.018563335351947475,0.9896041304250062,-0.04817348605731635,-0.0779594067806378,-2.869663429586392
1782664839008056064,2.883108139038086,0.3769700229167938,1.5402358770370483,0.08104274421930313,-0.061521418392658234,0.0455453135073185,-0.997066080570221,0.10862530022859573,0.0922262966632843,0.49381595849990845,-0.13658523621488677,0.03360935804973719,-0.018367856706455417,0.9898876290252917,-0.04556107353089524,-0.06162432436279942,-2.86876765551674
1782664839017976064,2.8930280208587646,0.5663886666297913,1.5943387746810913,-0.02723712846636772,-0.045382048934698105,0.04074687138199806,-0.9981383681297302,0.1266808807849884,0.10196858644485474,0.5105437636375427,-0.13667644722831743,0.02527551846518817,-0.017087248608399275,0.9901458110192948,-0.04075815521642217,-0.04543540065875097,-2.8681791684253555
1782664839027896064,2.9029481410980225,0.8666014075279236,1.6625806093215942,-0.01781493052840233,-0.029084691777825356,0.03363870456814766,-0.9990107417106628,0.0900130420923233,0.10761190205812454,0.5154750347137451,-0.13645955800120596,0.016706105776507864,-0.014680638797698457,0.9903959402736692,-0.033645053034485506,-0.029105270354758534,-2.868240870892097
1782664839037815040,2.9128670692443848,0.9044899344444275,1.6980270147323608,-0.044089946895837784,-0.012224539183080196,0.02450137585401535,-0.999625027179718,0.10569988191127777,0.06818050891160965,0.4737309217453003,-0.13632031564866365,0.0077260982317490816,-0.011304058595695112,0.9905701765292046,-0.024503827032620835,-0.012228515027621697,-2.8682244797095833
1782664839047735296,2.9227871894836426,0.7421598434448242,1.7044528722763062,-0.027075674384832382,0.004821054637432098,0.016321564093232155,-0.9998551607131958,0.1171577051281929,-0.011713411659002304,0.5172044634819031,-0.13606536349377643,-0.0012777136908571861,-0.008413185619560011,0.9906633778227907,-0.01632228935926516,0.004821715600937325,-2.868565911313487
1782664839057655040,2.9327070713043213,0.6353257894515991,1.7513344287872314,-0.00118095928337425,0.02219179831445217,0.009441746398806572,-0.9997091293334961,0.14008542895317078,-0.16386069357395172,0.5129995942115784,-0.1359379619559258,-0.010351844809747726,-0.006185957960981726,0.9906439390096852,-0.00944188643903073,0.022194609035273042,-2.8687475975861965
1782664839067575296,2.942627191543579,0.19693134725093842,1.6722224950790405,-0.016361676156520844,0.039239559322595596,0.005186912138015032,-0.9992163777351379,0.1458037793636322,-0.20716750621795654,0.5021460652351379,-0.13578623628552972,-0.019089506898311855,-0.005235069435351749,0.9905404925744327,-0.005186935184215001,0.03925016493650923,-2.8690231934450994
1782664839077495040,2.952547073364258,0.10133051127195358,1.6580421924591064,-0.006786813959479332,0.05592437461018562,0.003976156935095787,-0.9984270930290222,0.17469696700572968,-0.15284089744091034,0.5059801936149597,-0.13566589251348093,-0.027444435234392377,-0.005766958987595514,0.9903577233749129,-0.003976167623431722,0.05595401085658033,-2.869202597003127
1782664839087414272,2.962466239929199,0.2456286996603012,1.6202876567840576,-0.04756879806518555,0.07226833701133728,0.002426112536340952,-0.9973822832107544,0.18244662880897522,-0.10668941587209702,0.4309760332107544,-0.1353574514372118,-0.035660222605640675,-0.006100103740684265,0.990136134271234,-0.0024261149537746075,0.07233160657448694,-2.869777462676754
1782664839097334272,2.972386121749878,0.2452998012304306,1.615045189857483,0.05428406223654747,0.08842715620994568,-0.00048061515553854406,-0.9960825443267822,0.17179623246192932,-0.052925147116184235,0.3883249759674072,-0.13536385309862475,-0.043881389395956656,-0.005758340861424959,0.9898070471806508,0.0004806151850051667,0.08854281762565476,-2.8697846108837477
1782664839107254272,2.9823062419891357,0.43692275881767273,1.5693986415863037,0.08637009561061859,0.10439927130937576,-0.0033642100170254707,-0.9945297837257385,0.13801711797714233,0.0822216346859932,0.400550901889801,-0.1355025316225625,-0.052016296334989984,-0.005423749439701046,0.9893957772584923,0.0033642164389477134,0.1045904465705598,-2.8695526204304427
1782664839117174272,2.9922261238098145,0.8400755524635315,1.566584825515747,0.13639278709888458,0.11989299207925797,-0.010188808664679527,-0.9927345514297485,0.11045368760824203,0.08797811716794968,0.27026140689849854,-0.13589533063410272,-0.06019134229187218,-0.003119986902873915,0.988888148698891,0.010188984874129918,0.12018836644619148,-2.8690718076054615
1782664839127092992,3.0021450519561768,0.9795587062835693,1.489558458328247,0.08830255270004272,0.13499267399311066,-0.019170919433236122,-0.9906611442565918,0.11328308284282684,0.16406838595867157,0.2496333122253418,-0.13612595638816516,-0.06833269830716163,0.00028695390291433884,0.9883320966354221,0.019172093814521545,0.13543111159065335,-2.8691492562832495
1782664839137013248,3.0120651721954346,1.4320290088653564,1.4536378383636475,0.10012219846248627,0.14954692125320435,-0.03114316426217556,-0.9882640242576599,0.20259541273117065,0.1767730563879013,0.1906260848045349,-0.13618560014728748,-0.07642411825953511,0.005227930396636275,0.9877173930016598,0.031148200859951923,0.15018342885062322,-2.8699058099834747
1782664839146932992,3.0219850540161133,1.5005301237106323,1.2757699489593506,0.22687554359436035,0.16283901035785675,-0.046188220381736755,-0.9855709671974182,0.23305027186870575,0.11125169694423676,0.09706693887710571,-0.13643176521260456,-0.08411881961045062,0.011770632425572565,0.987001386041672,0.04620465753568832,0.16374371780340988,-2.8706683935373998
1782664839156853248,3.031905174255371,1.0688397884368896,1.1319608688354492,0.2744619846343994,0.1743304580450058,-0.05919262766838074,-0.9829064607620239,0.278153657913208,0.05292126536369324,0.13764584064483643,-0.13713977349046094,-0.09079967508911549,0.017383469885818684,0.986228131112519,0.05922724859703202,0.17553675464984203,-2.8704682189557116
1782664839166772992,3.04182505607605,0.7020132541656494,1.0397374629974365,0.2817997634410858,0.18496516346931458,-0.06838643550872803,-0.9803627729415894,0.2938556373119354,-0.04262125492095947,0.11421287059783936,-0.13827389726592823,-0.0968132206691009,0.021114224167574695,0.9854246186549527,0.06843985160532971,0.1864780966642893,-2.869177153150613
1782664839176692224,3.051744222640991,0.492453932762146,0.70634925365448,0.4550786018371582,0.19333693385124207,-0.0747307762503624,-0.9782822132110596,0.18358565866947174,-0.05873784422874451,0.043666183948516846,-0.13979359422932397,-0.10151348016665422,0.023534961785700317,0.9846820554565969,0.07480051101999591,0.19511470672568498,-2.8668649095176253
1782664839186612224,3.06166410446167,0.23774614930152893,0.6123912334442139,0.18648503720760345,0.19924896955490112,-0.07900306582450867,-0.976759135723114,0.08287078142166138,0.035179831087589264,-0.058122456073760986,-0.14156568749873344,-0.10484508709315546,0.025058956855917195,0.9840420734052392,0.07908548382451173,0.20122902539345053,-2.8638186957106706
1782664839196532224,3.0715842247009277,0.4409370720386505,0.16505391895771027,0.14046534895896912,0.20305775105953217,-0.08210859447717667,-0.975718080997467,-0.046746715903282166,0.30310162901878357,-0.14590972661972046,-0.14193992698647215,-0.10700270773855018,0.026294319715806397,0.9837235706580002,0.08220113848885628,0.2051823763342497,-2.863461326153999
1782664839206452224,3.0815041065216064,0.7482434511184692,0.13846826553344727,0.08225581049919128,0.20407205820083618,-0.08863553404808044,-0.9749350547790527,-0.08972269296646118,0.5459872484207153,-0.34723901748657227,-0.1423237237427646,-0.10801038855390369,0.02943186349617689,0.9834690846225362,0.08875200661569764,0.2063394980178133,-2.8633512233913008
1782664839216372224,3.0914242267608643,0.7440220713615417,0.40810269117355347,0.2128516435623169,0.20681831240653992,-0.096013642847538,-0.9736567735671997,-0.2156531661748886,0.6569877862930298,-0.3015812039375305,-0.1426448646555005,-0.10995753534708334,0.03287765519020616,0.9830975539849895,0.09616177449809771,0.20930308272733142,-2.8635171640582984
1782664839226291200,3.1013431549072266,1.1735508441925049,0.3879838287830353,0.5546731948852539,0.20981943607330322,-0.10523664951324463,-0.9720602035522461,-0.19158518314361572,0.5790525674819946,-0.2782602310180664,-0.144055382926646,-0.11221995499863822,0.037102256131581975,0.9824856858400284,0.10543186774473148,0.21258870199442084,-2.861680137727466
1782664839236210944,3.1112630367279053,1.7816511392593384,0.23192764818668365,0.6307644844055176,0.2124282717704773,-0.12075235694646835,-0.9696871042251587,-0.2584182620048523,0.5028781890869141,-0.4211515188217163,-0.14611860728872647,-0.11481966277366012,0.044417196503465775,0.9815767712377833,0.12104774844091795,0.2156619969653173,-2.8591601618363307
1782664839246131200,3.121183156967163,1.6349302530288696,0.6078968644142151,0.4109758734703064,0.2157602608203888,-0.13894034922122955,-0.9665107727050781,-0.3050699532032013,0.35411977767944336,-0.4440116882324219,-0.1480776965318119,-0.11803708400423889,0.053026943119174476,0.9804735345007265,0.13939130337665534,0.21963506327246435,-2.85719888269115
1782664839256050944,3.131103038787842,1.2212189435958862,0.1730542927980423,0.8959338068962097,0.2191694974899292,-0.15414629876613617,-0.9634332656860352,-0.2558211088180542,0.041612714529037476,-0.26219844818115234,-0.1502954688749483,-0.12112014047088165,0.06011057787581377,0.9793507266453011,0.15476336093707885,0.22368128583460967,-2.85445558606146
1782664839265970176,3.141022205352783,0.41012224555015564,0.23534759879112244,1.5030303001403809,0.21980446577072144,-0.16402363777160645,-0.9616559743881226,-0.050782859325408936,-0.35529398918151855,-0.04900991916656494,-0.1557911891361642,-0.12261600738231009,0.06432200686326937,0.9780373475601636,0.16476816183715406,0.22470858152675308,-2.844299920521547
1782664839275890176,3.150942087173462,-0.6134626269340515,0.05655336007475853,0.33491888642311096,0.21930666267871857,-0.16613949835300446,-0.961406409740448,-0.18904848396778107,-0.45454227924346924,-0.2187541127204895,-0.16102638078505035,-0.12289289262203304,0.06476217123821229,0.9771252399194218,0.16691345842800576,0.2242728487180901,-2.833775655845677
1782664839285810176,3.1608622074127197,-2.9191081523895264,0.7550839185714722,-1.5124496221542358,0.22401580214500427,-0.14825767278671265,-0.963242769241333,-0.3804641664028168,-0.35964637994766235,-0.237013578414917,-0.15906916035095225,-0.1235974059551369,0.055698381107586716,0.9779152905549241,0.14880623732000098,0.22850240742225936,-2.8362009785220095
1782664839295730176,3.1707820892333984,-4.9331512451171875,0.4658638834953308,-1.0210849046707153,0.23144474625587463,-0.10709652304649353,-0.9669352173805237,-0.014144331216812134,-0.43840518593788147,-0.02548116445541382,-0.1549431684228871,-0.12369431725861368,0.03510153518187333,0.9795204698966924,0.10730231415236233,0.23493890483884464,-2.840502131317306
1782664839305649152,3.1807010173797607,-6.447937488555908,0.6164023280143738,-0.7596240639686584,0.23732350766658783,-0.050555743277072906,-0.9701142311096191,0.4030420780181885,0.1627078503370285,-0.19013357162475586,-0.1544106849667165,-0.12206499030265802,0.006558171602786975,0.9804154620562369,0.050577303779825576,0.23992252604573744,-2.835266546386807
1782664839315569152,3.1906211376190186,-8.034232139587402,0.5617385506629944,-0.8298625349998474,0.24341808259487152,0.02150595374405384,-0.9696829915046692,0.2998558282852173,0.5692228078842163,-0.19505083560943604,-0.15496535638203499,-0.11944567188441718,-0.029853482219088852,0.9802179016536082,-0.021507611289241068,0.24594644146366712,-2.825344085249667
1782664839325489152,3.2005410194396973,-8.682225227355957,0.5244431495666504,-0.9576119780540466,0.24835503101348877,0.10431338846683502,-0.963036060333252,0.30035102367401123,0.30976438522338867,-0.26038306951522827,-0.15533491410149614,-0.11553663612888485,-0.07164664325941543,0.9784627114106236,-0.10450350038530519,0.2523883652342811,-2.8134422956346614
1782664839335409152,3.210461139678955,-8.538604736328125,0.827897846698761,-0.8120630383491516,0.254017174243927,0.18938730657100677,-0.9484765529632568,0.394603431224823,-0.007639855146408081,-0.21372437477111816,-0.15555593344423985,-0.11194913381132478,-0.11501791759495929,0.9747003595761372,-0.1905381235977639,0.2616750819062129,-2.79992719095213
1782664839345329152,3.220381021499634,-7.577363967895508,0.9900389313697815,-0.7822872996330261,0.2611134648323059,0.2662643790245056,-0.927859365940094,0.3656565248966217,-0.033812016248703,-0.22474372386932373,-0.15550727207843926,-0.10982066914715553,-0.15495072929734063,0.969405603856147,-0.2695154241099333,0.27432027562480493,-2.786049964248192
1782664839355248128,3.230300188064575,-6.493957996368408,0.8665912747383118,-1.0720988512039185,0.266990065574646,0.3332509696483612,-0.9042456150054932,0.3576894998550415,0.2481088936328888,-0.30277037620544434,-0.1541250249483323,-0.10812029694632405,-0.19022935266668523,0.9635186737921817,-0.33974956218520314,0.2871050656242269,-2.774781477299781
1782664839365168128,3.240220069885254,-4.6813645362854,0.7091213464736938,-1.273642897605896,0.2697317898273468,0.3858349621295929,-0.882256269454956,0.3225991427898407,0.2859790027141571,-0.5576698780059814,-0.1506720305943053,-0.1064476181770514,-0.21803845448802928,0.9583454726054492,-0.39611270563850526,0.29670490250944886,-2.76973607923801
1782664839375088128,3.2501401901245117,-3.109403610229492,0.3457771837711334,-1.358129858970642,0.26936542987823486,0.42307883501052856,-0.8651280403137207,0.44042766094207764,0.28315892815589905,-0.542113721370697,-0.14594907660303055,-0.10475876792465608,-0.23761644535452014,0.9546008474153854,-0.43684055332242033,0.30184505823002805,-2.7706763255980102
1782664839385008128,3.2600600719451904,-1.6363939046859741,0.41830766201019287,-1.1123473644256592,0.26761162281036377,0.44666770100593567,-0.8537399768829346,0.36106571555137634,0.44337743520736694,-0.37619465589523315,-0.1407220191439815,-0.10358386580215334,-0.24980070262966103,0.9524007623199868,-0.46303736980225013,0.30375739491613196,-2.776071255692985
1782664839394927360,3.269979238510132,-0.4238329231739044,0.41053467988967896,-1.1829863786697388,0.2674165964126587,0.4577232301235199,-0.84792560338974,0.2688993215560913,0.5042823553085327,-0.1944480538368225,-0.13556814293990657,-0.10413123757896728,-0.2553309522935806,0.9516217646820152,-0.4754327275379708,0.3055041474012938,-2.7840072000248277
1782664839404847104,3.2798991203308105,-0.4666699469089508,0.6666229963302612,-1.3659470081329346,0.26772353053092957,0.46450725197792053,-0.8441309928894043,0.08985096216201782,0.5962532162666321,0.017714977264404297,-0.12913342942378828,-0.10561117137535594,-0.258419800111696,0.9515198290089016,-0.4830781224094602,0.30712348372791654,-2.795592318535614
1782664839414767360,3.2898192405700684,-0.3879362642765045,0.9156051278114319,-1.4064639806747437,0.2686404585838318,0.4716126024723053,-0.8398891687393188,0.07057765126228333,0.5968993306159973,0.24839752912521362,-0.12208137078947118,-0.10761099482123296,-0.26167781099897885,0.9513363047246097,-0.49111864185373955,0.309568929881484,-2.8081663309114577
1782664839424687104,3.299739122390747,-0.6844769716262817,0.9517863392829895,-1.551086187362671,0.27022838592529297,0.4801677465438843,-0.8345151543617249,0.09442615509033203,0.38921698927879333,0.28068214654922485,-0.1141740950326708,-0.11018662470204194,-0.2657091289013912,0.9509057474677154,-0.5008459515913702,0.3131595933684863,-2.8218779865357813
1782664839434607360,3.309659242630005,-1.0124250650405884,1.0358344316482544,-1.7544007301330566,0.27070939540863037,0.4915899634361267,-0.8276809453964233,0.14526045322418213,0.2315545678138733,0.35877835750579834,-0.10552237320946023,-0.11234424944879627,-0.27117943737212274,0.9501082108352553,-0.5139146150460132,0.31610275170421753,-2.836661469301426
1782664839444526080,3.319578170776367,-1.5560855865478516,1.2289162874221802,-1.7830486297607422,0.27208757400512695,0.5069348216056824,-0.8179153203964233,0.12366437911987305,0.2526476979255676,0.40182340145111084,-0.09644699278076281,-0.11506762217035689,-0.27892970815718815,0.9485018246800913,-0.5316251014218929,0.3211442688626949,-2.8507869122914595
1782664839454446080,3.329498052597046,-1.6637852191925049,1.2348884344100952,-1.9615041017532349,0.27336859703063965,0.5253791809082031,-0.8057582378387451,0.11243459582328796,0.2901725769042969,0.3093440532684326,-0.08698914114718494,-0.11793474143297163,-0.2884653730275441,0.9462093110304437,-0.5531606672400543,0.32708290222324105,-2.864626827362056
1782664839464366080,3.3394181728363037,-1.72379732131958,1.2746033668518066,-1.8566805124282837,0.27450883388519287,0.5441598296165466,-0.7928019762039185,0.20911848545074463,0.23004060983657837,0.14869797229766846,-0.07728719245470864,-0.12102661332441307,-0.298247494800091,0.9436247454458468,-0.5753873588125161,0.33333146062494656,-2.878673169313033
1782664839474286080,3.3493380546569824,-1.9538826942443848,1.2935853004455566,-1.9216922521591187,0.2751080393791199,0.5636466145515442,-0.7788568735122681,0.3430255055427551,0.1770302653312683,0.17044317722320557,-0.06784432621330543,-0.1239788431280798,-0.30854628371587467,0.9406516625548067,-0.5987939020416265,0.33954077555617246,-2.8918643274629288
1782664839484206080,3.3592581748962402,-2.215352773666382,1.3776752948760986,-2.0356180667877197,0.27446573972702026,0.5853140354156494,-0.7629390954971313,0.33526021242141724,0.21296477317810059,0.29498255252838135,-0.05789083454041043,-0.12667025226901837,-0.32013295181967255,0.9370795954725094,-0.6252672978654226,0.3453324012661984,-2.9055670082246277
1782664839494125056,3.3691771030426025,-2.3418900966644287,1.4133646488189697,-1.793358564376831,0.27444568276405334,0.6078616976737976,-0.7451065182685852,0.39715465903282166,0.3939846158027649,0.320332407951355,-0.04838142936062185,-0.1298533478558727,-0.3325429835623501,0.932851847273425,-0.6533648684452175,0.3529109085770756,-2.917273462686431
1782664839504045312,3.3790972232818604,-2.489624500274658,1.6184364557266235,-1.7221661806106567,0.2748551368713379,0.630374014377594,-0.726004958152771,0.4165511131286621,0.4788941740989685,0.313590407371521,-0.03932332895724025,-0.1334396337053015,-0.3452410521605484,0.9281465775652091,-0.6820349218704178,0.361910631073533,-2.9272340248860744
1782664839513965056,3.389017105102539,-3.0264804363250732,1.634069561958313,-1.7616337537765503,0.27583685517311096,0.6545678377151489,-0.7038856744766235,0.38334280252456665,0.3371618986129761,0.35305559635162354,-0.030478049812255388,-0.13763288812463118,-0.35932486862883134,0.9225041661080912,-0.7136108048663327,0.3734845686772785,-2.9349108045322767
1782664839523885312,3.398937225341797,-3.4285061359405518,1.7902380228042603,-1.8258006572723389,0.2758571207523346,0.6819633841514587,-0.6773691177368164,0.2593143582344055,0.09791338443756104,0.4188089370727539,-0.02139426720424367,-0.1418710502666641,-0.37574997310806685,0.9155473862059479,-0.7504437190178443,0.38673887767377485,-2.9409133392954105
1782664839533804288,3.408856153488159,-3.732870578765869,1.9194517135620117,-1.723427653312683,0.27619147300720215,0.7103173732757568,-0.647431492805481,0.25412771105766296,0.044595956802368164,0.38687241077423096,-0.012351333938792156,-0.14681729975797442,-0.39335598935803273,0.9075038847403323,-0.7899490319361516,0.40322143181947373,-2.944373673413299
1782664839543724032,3.418776035308838,-4.42779541015625,2.0513837337493896,-1.593397855758667,0.277084082365036,0.7404247522354126,-0.6123688220977783,0.359024316072464,0.0608295202255249,0.4288208484649658,-0.004108350977748262,-0.15241122196625526,-0.4130210810407496,0.8978683159556415,-0.8337021019438089,0.42491362933790283,-2.9419840437177514
1782664839553644288,3.4286961555480957,-5.345425605773926,2.175083637237549,-1.56992506980896,0.2779976725578308,0.7735471129417419,-0.5695105195045471,0.3032553791999817,-0.023379147052764893,0.5048437714576721,0.0034990616106834824,-0.15863093227481695,-0.4359827442605049,0.8858573248316562,-0.8844193447616439,0.45411014402613553,-2.9315730536187425
1782664839563564032,3.4386160373687744,-6.307433605194092,2.422571897506714,-1.4645030498504639,0.2794070839881897,0.8095847964286804,-0.5162405371665955,0.2504238486289978,-0.16598433256149292,0.638692319393158,0.010336187827421527,-0.16595709852870283,-0.46296648960590275,0.8706397416046607,-0.9434444091514643,0.49608838459678933,-2.908366141126535
1782664839573484288,3.4485361576080322,-6.802017688751221,2.609252691268921,-1.2057502269744873,0.28208017349243164,0.845376193523407,-0.45361846685409546,0.22174978256225586,-0.32941561937332153,0.6405234336853027,0.016158805575969843,-0.17480459902248213,-0.49257904317658985,0.8523778742569852,-1.0072690855622761,0.5563269923995724,-2.867349584040002
1782664839583403008,3.4584550857543945,-7.00138521194458,2.719491481781006,-1.0073784589767456,0.2839551568031311,0.8773912191390991,-0.38672247529029846,0.3183702826499939,-0.4572252035140991,0.6112860441207886,0.0213320821269386,-0.18394713926460438,-0.5223047141612526,0.8324099215353731,-1.0703973309200079,0.633351693784,-2.8090120450840748
1782664839593323264,3.4683752059936523,-6.917831897735596,2.547011375427246,-0.7611124515533447,0.28552356362342834,0.904376208782196,-0.31714382767677307,0.40048107504844666,-0.4162474274635315,0.6672567129135132,0.025295123240570587,-0.19320063746939234,-0.551454083187191,0.8111302385989002,-1.1299157310973418,0.7329790519859605,-2.726614793969171
1782664839603243008,3.478295087814331,-6.281697750091553,2.299807548522949,-0.5549899935722351,0.28657713532447815,0.9248495101928711,-0.25005409121513367,0.48255738615989685,-0.2608022689819336,0.7142417430877686,0.028219185489376193,-0.20200575730261133,-0.578071472465524,0.7900827616124665,-1.1806396626660467,0.8533531937172945,-2.6216641552323323
