time,seconds_elapsed,rotationRateX,rotationRateY,rotationRateZ,gravityX,gravityY,gravityZ,accelerationX,accelerationY,accelerationZ,quaternionW,quaternionX,quaternionY,quaternionZ,pitch,roll,yaw
1782664653463901696,0.18007159233093262,-0.348829060792923,0.1655512899160385,-0.43482932448387146,0.11628936231136322,0.5924030542373657,-0.7972047328948975,0.09243560582399368,-0.05500376224517822,-0.002783060073852539,0.8468625827915586,-0.30670764046134696,-0.08560401639417521,0.42594152345077474,-0.6340383704026609,0.14484975879399678,0.9796295156542129
1782664653473821952,0.18999171257019043,-0.37234824895858765,0.26635774970054626,-0.4950374960899353,0.12334657460451126,0.5945379137992859,-0.794550359249115,0.05421995371580124,0.012380421161651611,-0.01621013879776001,0.846748500671934,-0.30971438482668817,-0.08247311420423986,0.424608219986924,-0.6366908315553272,0.15401136897195744,0.980470212159599
1782664653483741696,0.19991159439086914,-0.26479703187942505,0.3617473840713501,-0.565500795841217,0.1311245858669281,0.5965548753738403,-0.7917882204055786,0.0946749597787857,0.08229333162307739,-0.02185612916946411,0.8467495997963747,-0.3128691444586407,-0.07885926221347067,0.42297664567036075,-0.6392016502156826,0.16411613563617625,0.9809651970048576
1782664653493661952,0.20983171463012695,-0.08067197352647781,0.4737105369567871,-0.7085176110267639,0.13952584564685822,0.5987008213996887,-0.7887266874313354,0.11225943267345428,0.1205984354019165,-0.02182018756866455,0.8470019566431026,-0.31631053856962116,-0.07472808215645926,0.4206554538491165,-0.6418781468079433,0.17508871833210912,0.9802504117708472
1782664653503580928,0.21975064277648926,0.1374901831150055,0.5714845061302185,-0.7606023550033569,0.1466505229473114,0.600525975227356,-0.7860420942306519,0.1850297749042511,0.13455086946487427,-0.032866597175598145,0.8477651252433738,-0.3193279517929638,-0.07077154612415863,0.4175109286905726,-0.644158758510959,0.18444772216758865,0.9769393331655188
1782664653513498880,0.22966861724853516,0.3439905643463135,0.5892258286476135,-0.8039383292198181,0.15175768733024597,0.6008775234222412,-0.784803032875061,0.23303845524787903,0.1259748935699463,-0.029497504234313965,0.8491816464008772,-0.3210790059447216,-0.06713233395456875,0.41387443281264485,-0.6445984494014511,0.1910129093217875,0.9709622797043126
1782664653523418880,0.23958873748779297,0.5992963910102844,0.5935896635055542,-0.8926463723182678,0.15583032369613647,0.599521815776825,-0.7850417494773865,0.255592405796051,0.11654263734817505,-0.036369383335113525,0.851156988646632,-0.32165553883327686,-0.06337856013880949,0.4099424601324434,-0.6429035493561915,0.19595226179882652,0.9631260308766966
1782664653533338880,0.24950861930847168,0.8041231036186218,0.6365732550621033,-1.00864839553833,0.15912780165672302,0.5963621139526367,-0.7867849469184875,0.2766784727573395,0.13631916046142578,-0.02038973569869995,0.8537606714576363,-0.32107257329760563,-0.05932898215314738,0.4055676694196598,-0.6389614533295852,0.199558755469496,0.9531689780217352
1782664653543258880,0.2594287395477295,0.8011816143989563,0.7038026452064514,-1.189024806022644,0.16181603074073792,0.5926828384399414,-0.789013683795929,0.2790561616420746,0.1047201156616211,0.04766547679901123,0.8568281429674702,-0.3200785934629297,-0.05516194347336638,0.4004401618679153,-0.6343856527039967,0.20228157839385175,0.940986242420104
1782664653553177856,0.2693476676940918,0.6539020538330078,0.7620252966880798,-1.4144678115844727,0.1639779508113861,0.5901172757148743,-0.7904890179634094,0.2782064974308014,-0.03127938508987427,0.12718945741653442,0.8601163822524305,-0.31958874681369215,-0.051171546314117106,0.39426437668517295,-0.6312040907308599,0.20453773552640164,0.926603376291034
1782664653563097600,0.2792675495147705,0.44334983825683594,0.8004363179206848,-1.5785906314849854,0.16609270870685577,0.5893443822860718,-0.7906240820884705,0.3130943179130554,-0.13298451900482178,0.16502898931503296,0.8633632978127992,-0.32007145236830414,-0.04735208533445838,0.3871898091902752,-0.6302470697038189,0.20706686981410397,0.9108737603053709
1782664653573017856,0.2891876697540283,0.22514919936656952,0.7891428470611572,-1.734278678894043,0.16882392764091492,0.5908024311065674,-0.7889556288719177,0.3611443042755127,-0.1657688021659851,0.19537347555160522,0.8663034442799806,-0.32190707443058725,-0.04356622482877839,0.37946832197264135,-0.6320530290151462,0.21080490774675179,0.8948721473268728
1782664653582937600,0.29910755157470703,0.17553557455539703,0.7247846126556396,-1.8336199522018433,0.17253756523132324,0.5935574173927307,-0.7860791683197021,0.40830349922180176,-0.1521206498146057,0.18668341636657715,0.8689371670984033,-0.32465307705229374,-0.03950708154113752,0.3714671515430212,-0.6354719678323166,0.21606507665821062,0.8792724973205692
1782664653592857856,0.30902767181396484,0.18664513528347015,0.6959766745567322,-1.9264419078826904,0.17765581607818604,0.5967784523963928,-0.7824921011924744,0.41600263118743896,-0.09163624048233032,0.20714420080184937,0.871317369715608,-0.32793512170661565,-0.03482120431916669,0.36338965822751507,-0.6394802437575007,0.22325386119565382,0.8644426635342625
1782664653602777600,0.31894755363464355,0.367786169052124,0.7011586427688599,-1.979993462562561,0.18440312147140503,0.5995820164680481,-0.7787790894508362,0.39877253770828247,-0.0659821629524231,0.20092874765396118,0.8736015353660918,-0.3312985265307812,-0.029184516109776737,0.35526024852133226,-0.6429787108267561,0.2325027573891129,0.8502168572629768
1782664653612696832,0.32886672019958496,0.5828949213027954,0.7500075697898865,-2.0396313667297363,0.19275887310504913,0.6012458205223083,-0.7754659652709961,0.35698479413986206,-0.05621713399887085,0.2158651351928711,0.8759491222745677,-0.3343113210299728,-0.022426495622721372,0.3470534771231089,-0.6450592736482678,0.243633900634912,0.8362390543959157
1782664653622616832,0.33878660202026367,0.8596775531768799,0.8394450545310974,-2.116424083709717,0.20372991263866425,0.6016780138015747,-0.7723196744918823,0.31737300753593445,-0.06160843372344971,0.19654452800750732,0.878329269037349,-0.33711113463961073,-0.014009007044041722,0.3386701427089974,-0.6456002850050937,0.2579144339117756,0.8227349715734771
1782664653632536832,0.3487067222595215,1.0265774726867676,0.9891975522041321,-2.192173957824707,0.21821723878383636,0.6008459329605103,-0.7690028548240662,0.29835382103919983,-0.06510984897613525,0.15331071615219116,0.8806627483919115,-0.3398331177148482,-0.003467953761751051,0.330052337302403,-0.6445589628514299,0.27649793498665537,0.8100051637811857
1782664653642456832,0.3586266040802002,0.9047024250030518,1.0572566986083984,-2.3204240798950195,0.23462513089179993,0.600575864315033,-0.7643688321113586,0.24936838448047638,-0.16812652349472046,0.14745604991912842,0.8827349504256679,-0.3431457231996992,0.008161323521152394,0.32087906610533246,-0.6442211159789051,0.2978232202690048,0.7973621806296299
1782664653652376832,0.368546724319458,0.7474389672279358,1.0698217153549194,-2.3680858612060547,0.24984703958034515,0.6009487509727478,-0.7592345476150513,0.21514929831027985,-0.3201259970664978,0.07315361499786377,0.8847631783051361,-0.34642115503606574,0.019368123173793456,0.3111453193233897,-0.6446875902040029,0.31791548496513633,0.7833076404465692
1782664653662295808,0.3784656524658203,0.4882739782333374,1.058629035949707,-2.4295992851257324,0.26103663444519043,0.6017419695854187,-0.7548288106918335,0.18192601203918457,-0.3243677020072937,0.025962233543395996,0.8870452720739986,-0.3489393357684592,0.028756539895267722,0.30094046547564823,-0.645680345250553,0.3329482065326719,0.7664614131319014
1782664653672215808,0.388385534286499,0.3843746781349182,1.0581361055374146,-2.5528650283813477,0.2630468010902405,0.6039295196533203,-0.7523798942565918,0.15388435125350952,-0.2735920548439026,-0.0582127571105957,0.890214595606373,-0.3502279555709049,0.033918003545390284,0.289323281413285,-0.6484221342054108,0.3363359495260316,0.7424574085515981
1782664653682135808,0.39830565452575684,0.5019545555114746,1.0613033771514893,-2.6400530338287354,0.26203370094299316,0.6061680912971497,-0.7509317994117737,0.13528990745544434,-0.21009576320648193,-0.09901326894760132,0.893744670854203,-0.3508547272121617,0.03788231338595192,0.2769229881069609,-0.6512337566095383,0.3357344301471796,0.7152377778450302
1782664653692055808,0.40822553634643555,0.7612035870552063,1.0695791244506836,-2.6835732460021973,0.260131299495697,0.606816291809082,-0.7510696649551392,0.10775810480117798,-0.1651049256324768,-0.09376370906829834,0.8976485653775004,-0.3503086970981291,0.04182093796716029,0.2641246134196078,-0.6520490135136692,0.3334174755597557,0.6859873632452366
1782664653701975808,0.41814565658569336,1.2011144161224365,1.0678387880325317,-2.727144479751587,0.25773757696151733,0.6047753095626831,-0.753537118434906,0.06498581171035767,-0.1824730634689331,-0.08488750457763672,0.9020980394540499,-0.3480119551502405,0.046033738752519815,0.250973695347541,-0.6494836784231679,0.3295632931547151,0.6545476089975081
1782664653711894784,0.42806458473205566,1.6761060953140259,1.0575988292694092,-2.766050338745117,0.2543961703777313,0.5992264747619629,-0.7590851187705994,0.04005268216133118,-0.20750290155410767,-0.06325674057006836,0.9073076310197146,-0.3433966337650259,0.050360630765479,0.23735088066169377,-0.642534574510028,0.32337137267998245,0.6201887898328775
1782664653721814784,0.4379847049713135,1.852970004081726,1.0368543863296509,-2.807119369506836,0.24993674457073212,0.5910307168960571,-0.766951322555542,0.022951439023017883,-0.24729597568511963,-0.019044160842895508,0.9130323465006405,-0.3369829590437074,0.05446863846659565,0.22326572469712153,-0.6323360279389224,0.31503075272544806,0.5834789491686203
1782664653731734784,0.4479045867919922,1.6856366395950317,0.9680407047271729,-2.8689723014831543,0.24412858486175537,0.5831283330917358,-0.77483069896698,-0.02797257900238037,-0.39256131649017334,0.04680335521697998,0.9186053306902945,-0.3305264102837362,0.0577663516282657,0.2087573365166727,-0.6225742324939719,0.305227651501475,0.5458139417722943
1782664653741654784,0.45782470703125,1.4329956769943237,0.9025900363922119,-2.8865458965301514,0.23679721355438232,0.5768944025039673,-0.7817415595054626,-0.07236848771572113,-0.5792900919914246,0.04115629196166992,0.9237072408029479,-0.32486195140117463,0.05994932075824614,0.19399927099185876,-0.6149215253446286,0.2941242169727328,0.5080305477601992
1782664653751574784,0.4677445888519287,1.1040595769882202,0.853299081325531,-2.919121742248535,0.22850888967514038,0.572822093963623,-0.7871838808059692,-0.11547178030014038,-0.6621471047401428,0.022993266582489014,0.9281644956654651,-0.3204010190658547,0.06124731810773203,0.17917188646354562,-0.6099446668191766,0.2825217012315185,0.47085908229842394
1782664653761494784,0.4776647090911865,0.8167707324028015,0.8277894854545593,-2.9909374713897705,0.21938998997211456,0.5710515379905701,-0.7910550832748413,-0.14866548776626587,-0.6399908065795898,-0.013373017311096191,0.9319791165788925,-0.31725386263412464,0.06182599269070372,0.16414129911003045,-0.607786237427431,0.2705389520066764,0.43397913637387103
1782664653771413760,0.48758363723754883,0.6754608154296875,0.8201993703842163,-3.019294500350952,0.20972482860088348,0.5708420872688293,-0.7938229441642761,-0.17069284617900848,-0.5511582493782043,-0.021957755088806152,0.9352790919855382,-0.3150366330902206,0.06197146183668714,0.14887729680808642,-0.6075310727475365,0.2582943263114903,0.3970853219329418
1782664653781333760,0.49750351905822754,0.7942356467247009,0.8079421520233154,-2.987014055252075,0.19991479814052582,0.5704315900802612,-0.7966441512107849,-0.18248926103115082,-0.47437751293182373,-0.03213697671890259,0.9383341753135029,-0.31278626151986516,0.06198942207829932,0.13360755549297346,-0.6070311989348973,0.24586898732922194,0.36023056888204014
1782664653791253760,0.5074236392974854,1.0340129137039185,0.8156054615974426,-2.9456613063812256,0.19022801518440247,0.5681021213531494,-0.8006705045700073,-0.20502902567386627,-0.4216482639312744,-0.005909085273742676,0.9414426346790362,-0.30952942431284214,0.062099021336995235,0.1184098888607322,-0.6041978424093201,0.23326111490872117,0.3232277501174006
1782664653801173760,0.5173435211181641,1.2753839492797852,0.8390292525291443,-2.9028098583221436,0.1810242086648941,0.563439130783081,-0.8060809969902039,-0.2331024706363678,-0.42563700675964355,0.015599489212036133,0.944658683859356,-0.3050518548804234,0.06247284316104127,0.10324995989053144,-0.5985427214512005,0.22090819112972596,0.28614355060042795
1782664653811093760,0.5272636413574219,1.3667445182800293,0.8226352334022522,-2.876701831817627,0.17221075296401978,0.5569971203804016,-0.8124639987945557,-0.2551727890968323,-0.4857843518257141,0.012064218521118164,0.9478701657713628,-0.2996721649957548,0.06296511843551177,0.0881717530040822,-0.5907657104148603,0.2088697161896397,0.24927429123154604
1782664653821012736,0.5371825695037842,1.2361441850662231,0.531703531742096,-3.072413206100464,0.16250744462013245,0.5505842566490173,-0.8188090920448303,-0.29103225469589233,-0.5736708045005798,-0.012688100337982178,0.9508331059520446,-0.2943507846698577,0.06287339485584871,0.0729456840875476,-0.5830639690509768,0.19592210175909275,0.21209974589462216
1782664653830932736,0.547102689743042,0.8239725828170776,0.6548669338226318,-2.929837465286255,0.1476818174123764,0.545564591884613,-0.8249542117118835,-0.3496471643447876,-0.637086808681488,-0.19392096996307373,0.9534888843375283,-0.2897167081972809,0.05989271243574184,0.05775943037646857,-0.5770626395689668,0.17714179017319917,0.1737098875821798
1782664653840852736,0.5570225715637207,1.2376736402511597,1.073624849319458,-2.908409595489502,0.14216536283493042,0.5399526953697205,-0.8296023607254028,-0.19189375638961792,-0.6387534141540527,-0.43115508556365967,0.9554879992392963,-0.28532053681944314,0.061571068884532724,0.04294210812968789,-0.5703809297947885,0.16971716322914404,0.1396922820201043
1782664653850772736,0.5669426918029785,1.0432943105697632,0.1811143457889557,-3.150092363357544,0.13087303936481476,0.5341287851333618,-0.8352118134498596,-0.17391809821128845,-0.5512949228286743,-0.08840268850326538,0.957525095100277,-0.280637832410555,0.060303439195523105,0.02741776311544556,-0.5634768537970953,0.15543054873655426,0.10232291472292901
1782664653860692736,0.5768625736236572,0.9637135863304138,0.43102753162384033,-3.154946804046631,0.1167498230934143,0.528833270072937,-0.8406573534011841,-0.2458086609840393,-0.7372378706932068,0.010350346565246582,0.9511546332700325,-0.28120386222386207,0.024406987317580356,0.12503417792133797,-0.5572253239349154,0.13799652056330733,0.3009433257866377
1782664653870611968,0.5867817401885986,0.9974331259727478,0.37911146879196167,-2.7858548164367676,0.10508868843317032,0.522928774356842,-0.8458734154701233,-0.2722792625427246,-0.8118234276771545,0.01962524652481079,0.949988266619932,-0.2772712080597906,0.013563150271357488,0.1430350856073073,-0.5502833560632061,0.12360355908455556,0.3338195750471552
1782664653880531712,0.5967016220092773,0.9855192303657532,0.4079844057559967,-2.652890682220459,0.09456368535757065,0.5164657235145569,-0.8510704636573792,-0.31586191058158875,-0.6512008905410767,-0.03123849630355835,0.9508330760967868,-0.2727734373512529,0.007709359391712028,0.146464143820864,-0.5427184457497478,0.11065757172508386,0.33648929800128563
1782664653890451968,0.6066217422485352,1.2732601165771484,0.23669570684432983,-2.7782175540924072,0.08376201242208481,0.5084584355354309,-0.857002854347229,-0.354300320148468,-0.5163777470588684,-0.137565016746521,0.9532262689337574,-0.2673558151866235,0.004408982843106951,0.14092922321447374,-0.5333936193387169,0.0974288579330901,0.3201999024256851
1782664653900371712,0.6165416240692139,1.5887693166732788,-0.05441230535507202,-2.8737359046936035,0.07050100713968277,0.4974738359451294,-0.86460942029953,-0.29788750410079956,-0.3450080156326294,-0.14021235704421997,0.9563468278291034,-0.26018236778118653,0.000658799284250181,0.1330622936193816,-0.5206842669798594,0.08136087218992158,0.2981816482704974
1782664653910291968,0.6264617443084717,1.7353144884109497,-0.29194289445877075,-3.0435242652893066,0.05457720160484314,0.4837719202041626,-0.8734907507896423,-0.28828081488609314,-0.1396404504776001,-0.060621798038482666,0.9599961542991454,-0.2514757318157142,-0.0038199422955632104,0.1230962961255114,-0.5049594051871098,0.062400600355674636,0.27116311671698407
1782664653920210944,0.636380672454834,1.5831968784332275,-0.3503817021846771,-3.279315948486328,0.036906350404024124,0.46978849172592163,-0.8820071816444397,-0.3015090227127075,-0.03437891602516174,0.011188089847564697,0.9636668274818936,-0.24273072167113746,-0.008842787259287927,0.11113004610285308,-0.4890511644704554,0.04181919821743717,0.24006175771177815
1782664653930130688,0.6463005542755127,1.6268357038497925,-0.35351330041885376,-3.398315668106079,0.01853473298251629,0.4557896852493286,-0.8898944854736328,-0.28374776244163513,-0.2029973268508911,-0.016187667846679688,0.967070195043566,-0.23419729933563338,-0.014295896548226956,0.09860276890324537,-0.4732592130617358,0.020825001033657586,0.20824040178268308
1782664653940050944,0.6562206745147705,1.7246602773666382,-0.3031183183193207,-3.379326820373535,0.0006914188852533698,0.4401930570602417,-0.8979029059410095,-0.21037769317626953,-0.4896162450313568,-0.05098015069961548,0.970468484107066,-0.22511791599452033,-0.019247900053461508,0.0845121089128528,-0.4558136592097072,0.0007700373509874956,0.17390795985618024
1782664653949970688,0.6661405563354492,1.664063572883606,-0.3154381215572357,-3.337759256362915,-0.01635662466287613,0.42381998896598816,-0.9055987596511841,-0.13234028220176697,-0.713752269744873,-0.06128966808319092,0.9736005029156024,-0.21593539158054983,-0.02392771786406712,0.07001041223363233,-0.4376586845028853,-0.01805970534306795,0.13955400676815283
1782664653959890944,0.676060676574707,1.599570631980896,-0.4665600061416626,-3.559563636779785,-0.03364124149084091,0.40659260749816895,-0.9129899740219116,-0.3381849527359009,-0.6615822315216064,-0.02965223789215088,0.9764523038587141,-0.206569102932613,-0.02888264714780014,0.055099756029477434,-0.41872135840699876,-0.0368306637172151,0.10491107983240264
1782664653969810688,0.6859805583953857,1.4981987476348877,-0.3655112385749817,-2.9254491329193115,-0.049437589943408966,0.3906353712081909,-0.919217050075531,0.05282503738999367,-0.4928387403488159,0.038937509059906006,0.9787216111909254,-0.19814192335876776,-0.03363428422545774,0.04138349414765611,-0.40132170567356173,-0.053730518419743904,0.07358488074312823
1782664653979729920,0.6958997249603271,1.771937608718872,-0.6537853479385376,-3.079258918762207,-0.06544911116361618,0.3726319372653961,-0.9256682991981506,-0.05057872086763382,-0.4840821325778961,-0.07849729061126709,0.9808374865739856,-0.18884326969785972,-0.03878216712091551,0.02814211038637982,-0.3818436170888545,-0.07058724065718731,0.043719830920755154
1782664653989649664,0.7058196067810059,1.6308717727661133,-0.7266181111335754,-3.0074636936187744,-0.08275589346885681,0.35358861088752747,-0.9317330718040466,-0.05117049813270569,-0.37875038385391235,0.019028663635253906,0.9826722307499898,-0.17923232564144845,-0.04482439126133403,0.014895408409857688,-0.3614047793134472,-0.08858684921958693,0.014119171285235344
1782664653999569920,0.7157397270202637,1.6968926191329956,-0.6117173433303833,-2.8039112091064453,-0.09882459789514542,0.33438432216644287,-0.9372410774230957,-0.05661667883396149,-0.34295979142189026,0.0015873908996582031,0.9841827995170424,-0.16976871813853306,-0.05057719620390002,0.002149443058292706,-0.3409518799453489,-0.10505384396638158,-0.013732877030576466
1782664654009489664,0.7256596088409424,1.8507342338562012,-0.8490812182426453,-2.8769690990448,-0.1143890991806984,0.3139231503009796,-0.9425324201583862,-0.02974541485309601,-0.161304771900177,0.041592538356781006,0.9854787922569909,-0.15984070897438804,-0.05643340873709706,-0.009888730325015225,-0.31932225424777944,-0.12077291860250096,-0.03953954867425284
1782664654019409920,0.7355797290802002,2.1027605533599854,-0.916045606136322,-2.9233505725860596,-0.1316460520029068,0.2905634641647339,-0.9477564096450806,0.0086602121591568,0.020410656929016113,0.17047369480133057,0.9865984655095141,-0.1486931257281245,-0.06334156950897869,-0.0223973352239229,-0.29481564572478747,-0.13801970508192538,-0.06592105572043655
1782664654029328896,0.7454986572265625,2.5299065113067627,-0.7267094254493713,-3.049140214920044,-0.14735077321529388,0.2634139955043793,-0.9533628821372986,-0.10397672653198242,-0.15460357069969177,0.038323819637298584,0.9876549811322873,-0.13582051322374367,-0.06979500835378333,-0.03491372439009781,-0.2665594944770456,-0.15334557721290715,-0.09127020758053984
1782664654039248640,0.7554185390472412,2.975405216217041,-0.6937834024429321,-3.0514516830444336,-0.16130425035953522,0.23176038265228271,-0.9593060612678528,0.012546300888061523,-0.2978004217147827,0.15152102708816528,0.9886056093266167,-0.12089770925856216,-0.07570155965028137,-0.04808308904349266,-0.23388694277600305,-0.166588464173776,-0.11681345550069396
1782664654049168896,0.765338659286499,3.4842450618743896,-0.7636997103691101,-2.985042095184326,-0.17446304857730865,0.19473423063755035,-0.9652156233787537,0.11788345873355865,-0.37501680850982666,0.09712785482406616,0.9894154894280547,-0.1034159599026383,-0.08183715913149515,-0.060537773604389715,-0.19598648194764146,-0.17881963000076725,-0.13984437996895296
1782664654059088640,0.7752585411071777,2.7925033569335938,-0.5031623840332031,-3.1606478691101074,-0.18551889061927795,0.15769600868225098,-0.9699044823646545,0.11783090233802795,-0.409923791885376,0.25553375482559204,0.9897245576908342,-0.08614904480167127,-0.08732753786280474,-0.07346846424860319,-0.15835703286631395,-0.18899264519206055,-0.16323068194189033
1782664654069008896,0.7851786613464355,2.360945701599121,-0.27140799164772034,-3.1745786666870117,-0.19346705079078674,0.12610407173633575,-0.9729688167572021,-0.017165273427963257,-0.6577507853507996,0.18991827964782715,0.9893223693474986,-0.07185237966142835,-0.09139387936512659,-0.08789570603747565,-0.12644071127978396,-0.19628184082399658,-0.18968884433871083
1782664654078927872,0.7950975894927979,1.9234850406646729,-0.13939085602760315,-3.1217339038848877,-0.19830837845802307,0.09834636002779007,-0.975193202495575,0.10097256302833557,-0.651004433631897,0.03120821714401245,0.9884497727746894,-0.059534671467715475,-0.09412237692102532,-0.1027795070616716,-0.09850559041551978,-0.2006174203084612,-0.21713853013932424
1782664654088847872,0.8050177097320557,1.4033138751983643,0.02042761817574501,-3.08475661277771,-0.20104511082172394,0.07509877532720566,-0.9766990542411804,0.19449909031391144,-0.5011241436004639,0.05409163236618042,0.9871468973078102,-0.049490763253141265,-0.095922563683739,-0.11785825214610737,-0.07516954581634157,-0.2030059407515558,-0.24532046780133807
1782664654098767872,0.8149375915527344,1.1179121732711792,0.08642899990081787,-3.067822217941284,-0.2018655687570572,0.05599508807063103,-0.9778112769126892,0.04930819571018219,-0.42441853880882263,0.11199706792831421,0.9854584992428739,-0.04150842221448586,-0.0968061233974105,-0.13333126992455896,-0.05602439118102738,-0.2035862312045246,-0.2746883449788737
1782664654108687872,0.8248577117919922,0.8853695392608643,0.2563410699367523,-3.042264223098755,-0.2008962482213974,0.03887457028031349,-0.9788408875465393,0.0191640704870224,-0.4291486144065857,0.1227007508277893,0.9835542565950878,-0.03439444006295455,-0.09693596842016756,-0.14846411684046362,-0.038884368052711206,-0.20242787412797936,-0.30358073504201594
1782664654118607872,0.8347775936126709,1.139697790145874,0.28227680921554565,-2.9548940658569336,-0.19872042536735535,0.022394293919205666,-0.9798003435134888,-0.12751248478889465,-0.4971410036087036,0.08330070972442627,0.9814355910579454,-0.02749784993722086,-0.09666283103382366,-0.1633536007488724,-0.02239616642478376,-0.20010300259550312,-0.33211150742241613
1782664654128526592,0.8446965217590332,1.3953375816345215,0.4247572720050812,-2.838303327560425,-0.19488494098186493,0.00308882724493742,-0.9808212518692017,-0.01814301311969757,-0.4533604383468628,0.00785982608795166,0.9792337396144484,-0.018992082850258496,-0.0960660017591767,-0.17751623179611822,-0.003088832264731927,-0.19614109337603194,-0.3589703787747832
1782664654138446848,0.854616641998291,1.8463680744171143,0.36989855766296387,-2.764441728591919,-0.19008366763591766,-0.01885763555765152,-0.981586754322052,-0.04146844148635864,-0.3361991345882416,-0.11089670658111572,0.9767956734958629,-0.009071895933781817,-0.09552127237368253,-0.19147783071094743,0.018858752485354433,-0.19128179885638252,-0.38533477468251615
1782664654148366592,0.8645365238189697,2.4509787559509277,0.2998919188976288,-2.682316780090332,-0.18551835417747498,-0.04607672616839409,-0.9815599322319031,0.060655683279037476,-0.2586565613746643,-0.13372021913528442,0.9741510858692414,0.003508350957491505,-0.09595692301677558,-0.20447404295652985,0.04609304736386047,-0.1868000774485208,-0.4094738933302805
1782664654158286848,0.8744566440582275,3.061797618865967,0.11632823199033737,-2.6310932636260986,-0.1809851974248886,-0.07866711169481277,-0.9803345799446106,0.06356881558895111,-0.2877269387245178,-0.1061674952507019,0.9711537962247275,0.018759288969379447,-0.09736945226152206,-0.21685858755442497,0.07874847872891427,-0.182560207422539,-0.4321795634074041
1782664654168206592,0.8843765258789062,3.5704185962677,0.027785398066043854,-2.6243746280670166,-0.1767681986093521,-0.11630357056856155,-0.9773569107055664,-0.006749257445335388,-0.27429091930389404,-0.057875633239746094,0.9676481936025653,0.03646373903529524,-0.09995976028306727,-0.22876921538554656,0.11656738035632426,-0.17892922681459517,-0.4538418311128497
1782664654178125824,0.8942956924438477,4.139316082000732,-0.21821904182434082,-2.7239255905151367,-0.1734086126089096,-0.15921178460121155,-0.9718955755233765,0.04029093682765961,-0.23295435309410095,-0.08410418033599854,0.9633253591281941,0.05660933061815474,-0.10415173310600169,-0.2407323466619073,0.15989220723924813,-0.17656509903412965,-0.47558142353367533
1782664654188045824,0.9042155742645264,4.980433464050293,-0.43852490186691284,-2.7895233631134033,-0.17078262567520142,-0.20864197611808777,-0.9629651308059692,0.07749038934707642,-0.19589903950691223,-0.15089595317840576,0.957898547679857,0.07981919902121544,-0.11021042078482605,-0.25280994659461653,0.2101861644543923,-0.17552569360550763,-0.49751338218000885
1782664654197965824,0.9141356945037842,6.0246381759643555,-0.669384777545929,-2.9976806640625,-0.16846273839473724,-0.2669045031070709,-0.9488847851753235,0.12523457407951355,-0.20366129279136658,-0.1816999316215515,0.9508802271951481,0.10731139859627006,-0.1184984461834444,-0.26508333664737016,0.2701795745988742,-0.1757068044488111,-0.5198059865759936
1782664654207885824,0.9240555763244629,6.860572814941406,-0.936568021774292,-3.240834951400757,-0.16582204401493073,-0.33333292603492737,-0.9281122088432312,0.15498831868171692,-0.29404741525650024,-0.1116827130317688,0.941733256320729,0.1389124706821722,-0.12902416588523172,-0.2778391742063809,0.3398364732993079,-0.1768004541255347,-0.543370119733191
1782664654217805824,0.9339756965637207,7.47316837310791,-1.1304025650024414,-3.4168319702148438,-0.16215938329696655,-0.40491291880607605,-0.8998610377311707,0.19003719091415405,-0.40455058217048645,-0.042903244495391846,0.9302174323681659,0.173425296494189,-0.1413971426009741,-0.29090563983999773,0.4168835926566745,-0.17829141515314637,-0.568379513261791
1782664654227725824,0.9438955783843994,7.937592029571533,-1.2254489660263062,-3.4135353565216064,-0.15662148594856262,-0.47896867990493774,-0.8637468814849854,0.24596171081066132,-0.35475629568099976,0.05170464515686035,0.916305919442939,0.20995872653225187,-0.155060905240894,-0.3037381836364243,0.4994794901847534,-0.17937895029779793,-0.5942971182129607
1782664654237644800,0.9538147449493408,8.002362251281738,-1.2222843170166016,-3.395782947540283,-0.14850115776062012,-0.5519022345542908,-0.8205798268318176,0.1886317878961563,-0.33075761795043945,0.1704791784286499,0.9003210275293385,0.24717222344316256,-0.16916256434402044,-0.3157718577333833,0.5846436509638054,-0.17903331672921216,-0.6206443152967955
1782664654247564800,0.9637346267700195,8.095925331115723,-1.3159030675888062,-3.344867467880249,-0.13768711686134338,-0.6214475035667419,-0.7712621092796326,0.13790073990821838,-0.3142671585083008,0.26134395599365234,0.8829774468050198,0.2844865328026823,-0.182856079282321,-0.32554876273839045,0.6705889684138167,-0.1766607683766279,-0.6447633352949006
1782664654257484800,0.9736545085906982,7.966855525970459,-1.2474446296691895,-3.110466241836548,-0.12502165138721466,-0.6858479976654053,-0.7169255018234253,0.23677703738212585,-0.2662851810455322,0.3964756727218628,0.8641929750178097,0.3208836071854131,-0.19639490513028704,-0.33411575684463535,0.7557682802414498,-0.17264969405344816,-0.6691619395203475
1782664654267404800,0.983574628829956,7.79945182800293,-1.1509045362472534,-2.95249080657959,-0.11028439551591873,-0.7443965673446655,-0.6585675477981567,0.21534118056297302,-0.377597451210022,0.47004520893096924,0.8443193950517351,0.3562596639687217,-0.2092731993341676,-0.3411871561620231,0.8396306524268033,-0.16592146739014949,-0.693871624810841
1782664654277324800,0.9934945106506348,7.083655834197998,-1.092121958732605,-2.724076509475708,-0.09419780969619751,-0.7943702340126038,-0.6000854969024658,0.18877175450325012,-0.39554059505462646,0.5757172703742981,0.8242734659230007,0.388769036716602,-0.22094317001940578,-0.3472979461107229,0.9179700894245408,-0.15570338859835847,-0.720465883345997
1782664654287243776,1.0034136772155762,6.0819010734558105,-1.1381208896636963,-2.4567980766296387,-0.07813479751348495,-0.834635853767395,-0.5452321767807007,0.13900211453437805,-0.32703113555908203,0.5628102421760559,0.8050282527733916,0.41697989817747416,-0.23132594067564724,-0.3529103425700493,0.9874712937571989,-0.1423364758903827,-0.7496051999705807
1782664654297163776,1.0133335590362549,5.456898212432861,-1.1474473476409912,-2.1533145904541016,-0.06319223344326019,-0.8665872812271118,-0.4950084090232849,0.035436488687992096,-0.20567834377288818,0.4414653182029724,0.7869990071937266,0.441056277378898,-0.24075955235211327,-0.35796205839615514,1.0483223890212354,-0.1269721342107807,-0.7802821469831582
1782664654307083776,1.0232536792755127,5.139154434204102,-1.1814039945602417,-1.8607712984085083,-0.04959573224186897,-0.8929151892662048,-0.4474847912788391,-0.047495950013399124,-0.06027078628540039,0.3934992253780365,0.7697984084925111,0.4624598857297002,-0.24977682092559192,-0.36215018523414494,1.1037791773487258,-0.11038172156182133,-0.8114497873627876
1782664654317003776,1.0331735610961914,5.072320938110352,-1.325734257698059,-1.6290283203125,-0.0378335677087307,-0.9155905842781067,-0.40032804012298584,-0.076973557472229,0.01405555009841919,0.31704556941986084,0.7527360772221625,0.48229543006071773,-0.25928188656194706,-0.3654483017358362,1.1569741955510238,-0.09422655432393515,-0.8423932930333744
1782664654326923776,1.0430936813354492,5.126674175262451,-1.449716329574585,-1.489479899406433,-0.027335744351148605,-0.9355528950691223,-0.3521271049976349,-0.06209602952003479,-0.01400148868560791,0.2538299858570099,0.7352098942591396,0.5012578436345441,-0.2695867707133022,-0.3681438438979353,1.2098212163365827,-0.07747494914708229,-0.8748896217509702
1782664654336842752,1.0530126094818115,5.0551066398620605,-1.49373459815979,-1.3602726459503174,-0.01746274344623089,-0.952768087387085,-0.3031962513923645,-0.036797523498535156,-0.013357341289520264,0.2371104657649994,0.7172790015787002,0.5194416751959253,-0.2803252094736594,-0.37028221656299143,1.262223897723462,-0.05753195228411334,-0.9110461384264378
1782664654346763008,1.0629327297210693,5.020504474639893,-1.4330544471740723,-1.268279790878296,-0.0075819483026862144,-0.9671009182929993,-0.2542802691459656,-0.03769084811210632,-0.011628329753875732,0.19149035215377808,0.6991738697078551,0.5368433328126374,-0.2909623760094055,-0.3718818957418998,1.3135763817978823,-0.029808457142528447,-0.9546803513758122
1782664654356682752,1.072852611541748,4.976398944854736,-1.35873281955719,-1.1084506511688232,0.0020759969484061003,-0.9787680506706238,-0.20496053993701935,0.027465010061860085,-0.02960902452468872,0.18867939710617065,0.6809173086448983,0.5537389800285731,-0.3014844467788459,-0.3726015036741094,1.3643621594078463,0.010128417934479016,-1.009616995624858
1782664654366603008,1.0827727317810059,4.865137577056885,-1.3140013217926025,-0.9058226346969604,0.01086172554641962,-0.987647533416748,-0.1563149243593216,0.049334198236465454,-0.06066173315048218,0.1889992505311966,0.6628959397391609,0.5697004425037171,-0.3119037363186471,-0.3724599231358443,1.4134558610517662,0.06937465536356194,-1.083060388817542
1782664654376522752,1.0926926136016846,4.7986273765563965,-1.2848093509674072,-0.7095838785171509,0.018350202590227127,-0.9939655065536499,-0.10814803093671799,-0.00339658185839653,-0.0858532190322876,0.15831893682479858,0.6450905427481999,0.5847709537002383,-0.32244211123232486,-0.37139234888447686,1.4608819141571445,0.16807593604064824,-1.195370379114765
1782664654386443008,1.1026127338409424,4.705633163452148,-1.249049186706543,-0.5649799108505249,0.02493385598063469,-0.9978523850440979,-0.06057290732860565,-0.1169138178229332,-0.1150473952293396,0.16527873277664185,0.6274176379577078,0.5990032708437575,-0.3330294704773071,-0.3696398706284215,1.50524644125803,0.39049510839024065,-1.4310699010754768
1782664654396361728,1.1125316619873047,4.513585090637207,-1.2052865028381348,-0.3743801414966583,0.030497301369905472,-0.9994304776191711,-0.014451272785663605,-0.20440170168876648,-0.15950506925582886,0.162339448928833,0.6101898864301422,0.6121962378927741,-0.3434969143078906,-0.36727928082790107,1.5370458005892729,1.1282833331161541,-2.1816434241086897
1782664654406281728,1.1224515438079834,4.079804420471191,-1.1773051023483276,-0.1758839637041092,0.034607335925102234,-0.9989868998527527,0.028765225782990456,-0.2790073752403259,-0.15202927589416504,0.11906194686889648,0.5939197402262605,0.6238792607964319,-0.3537757494753142,-0.36452256714584774,1.5257793230897565,2.264267555951729,2.953096386831347
1782664654416201728,1.1323716640472412,3.331052303314209,-1.2436670064926147,-0.0009406423196196556,0.03739296272397041,-0.9971306324005127,0.06582199037075043,-0.3199246823787689,-0.051194071769714355,0.043568260967731476,0.5795626458699135,0.6331166300756172,-0.363420319143755,-0.36221023435018795,1.4950235505908736,2.6249652347490295,2.579781765200786
1782664654426121728,1.14229154586792,2.9947144985198975,-1.335141658782959,0.15431858599185944,0.03899440914392471,-0.9945173263549805,0.0970296710729599,-0.3703390061855316,0.01883983612060547,-0.0718832015991211,0.5669334309422416,0.6399862690913243,-0.3727363847918016,-0.36065449169726665,1.4660328606517292,2.759465531879924,2.4316614694496987
1782664654436041728,1.1522116661071777,3.0269761085510254,-1.3954670429229736,0.23963108658790588,0.03966102376580238,-0.9911611080169678,0.12659646570682526,-0.3096958100795746,-0.003803431987762451,-0.07389259338378906,0.5547886255317117,0.6458926078984288,-0.382257731664905,-0.35904227901753577,1.4377404505869884,2.837990986115267,2.338964171702536
1782664654445960704,1.16213059425354,3.347393035888672,-1.4817758798599243,0.2586880624294281,0.040475793182849884,-0.9866288900375366,0.15787681937217712,-0.1493472456932068,-0.1362043023109436,-0.010125994682312012,0.54176497317634,0.6518959636948781,-0.39239018710687956,-0.3571446510737039,1.4070832064521386,2.8906222956085736,2.2711567711930987
1782664654455880960,1.1720507144927979,3.718508243560791,-1.502933144569397,0.31877297163009644,0.041381172835826874,-0.9804574251174927,0.19233018159866333,-0.02778559923171997,-0.3064383268356323,0.07744525372982025,0.5274104875435653,0.6584043188064829,-0.4033222560579884,-0.3545040157435454,1.3727731887588408,2.9296664829313857,2.2162034623387994
1782664654465800704,1.1819705963134766,4.052107334136963,-1.5016008615493774,0.4309313893318176,0.04216870665550232,-0.9722731113433838,0.2300146371126175,0.04372299462556839,-0.47262734174728394,0.09276972711086273,0.5117745159200517,0.6654393399892675,-0.4149672336610303,-0.35082688104750637,1.334762544863393,2.960275590726062,2.169436645205769
1782664654475720960,1.1918907165527344,4.187166213989258,-1.5024964809417725,0.6624380946159363,0.0420062318444252,-0.9620281457901001,0.26969853043556213,0.1317913681268692,-0.5273669362068176,0.10777339339256287,0.49534506567150405,0.672426667932311,-0.4274244230714815,-0.346098252135342,1.2943379460373403,2.9870815485697366,2.126028961765258
1782664654485640704,1.201810598373413,4.415960788726807,-1.4921399354934692,0.9895555973052979,0.039907947182655334,-0.9498273134231567,0.310217946767807,0.19330735504627228,-0.4874284267425537,0.22585377097129822,0.47868648164575234,0.678833467634575,-0.4407880364506568,-0.34022077551174834,1.2526832911760393,3.013650480833755,2.0824116635966035
1782664654495559680,1.2117295265197754,4.983269691467285,-1.5520317554473877,1.3389649391174316,0.03589267283678055,-0.9344216585159302,0.35435524582862854,0.22408656775951385,-0.4690816402435303,0.13795432448387146,0.4606238796974319,0.6851388761454145,-0.45580955214305197,-0.3326378174572052,1.2066317636144583,3.040646857723776,2.0370919795550266
1782664654505479936,1.2216496467590332,5.342095851898193,-1.544289469718933,1.6848994493484497,0.02952616848051548,-0.9151077270507812,0.4021267592906952,0.22112993896007538,-0.472282350063324,0.23016688227653503,0.44113670593393,0.6911580219106837,-0.47261397779231273,-0.3230092841389559,1.1557750740928345,3.068299150934826,1.9898621849221723
1782664654515400448,1.2315702438354492,5.66557502746582,-1.4243122339248657,1.8518614768981934,0.02239660546183586,-0.8917797207832336,0.4519152045249939,0.29684779047966003,-0.49316906929016113,0.2740369439125061,0.42052270400818337,0.6969656708697252,-0.49009842009383925,-0.31177405806687225,1.1012634035676818,3.0920738604532554,1.9462741198924687
1782664654525320448,1.241490364074707,5.638405799865723,-1.3792762756347656,2.2772388458251953,0.013981092721223831,-0.864513635635376,0.5024147033691406,0.4375264644622803,-0.478427529335022,0.2972373366355896,0.3992256798468189,0.7020237768321577,-0.5083010565412417,-0.299017481069919,1.044181899327604,3.1137720385213865,1.9042277812606714
1782664654535240448,1.2514102458953857,5.253052234649658,-1.1509666442871094,2.4466114044189453,0.00522218644618988,-0.8354364633560181,0.5495620965957642,0.4054071009159088,-0.45216113328933716,0.40363913774490356,0.37860845977720825,0.7055304009291724,-0.5263153979598651,-0.28613728778068154,0.988926498895931,3.1320904894006367,1.8648619011505838
1782664654545159424,1.261329174041748,4.812598705291748,-0.9329702258110046,2.5594589710235596,0.0002851559838745743,-0.804939866065979,0.5933566093444824,0.43446826934814453,-0.46173810958862305,0.39281898736953735,0.35787826173512577,0.7086025785390225,-0.5427344669442374,-0.27430812628639695,0.9355741183306203,3.141112072541645,1.8346082194394713
1782664654555079424,1.2712492942810059,4.030734062194824,-0.6585794687271118,2.6487574577331543,0.008996712975203991,-0.7720958590507507,0.6354426741600037,0.4802305996417999,-0.4445333480834961,0.2916356921195984,0.33353247842083295,0.7129653415709948,-0.5562389469389125,-0.26652363052233463,0.8821324870358387,3.1274354172259544,1.823204010669385
1782664654564999424,1.2811691761016846,2.8952059745788574,-0.3564167022705078,2.8377537727355957,-0.004043427761644125,-0.748929500579834,0.6626372933387756,0.5289915204048157,-0.476747989654541,0.1598266363143921,0.3216821382345233,0.7110590160066207,-0.5707133527185575,-0.2553467062171706,0.8464451453682127,-3.135490706614285,1.7861657156806539
1782664654574919424,1.2910892963409424,1.883823037147522,-0.20423249900341034,2.9849393367767334,-0.021092945709824562,-0.7321079969406128,0.6808616518974304,0.557805597782135,-0.4798516035079956,0.06605595350265503,0.3150927568389947,0.7065998174684338,-0.5840783442983899,-0.24553131636033632,0.8214114443674966,-3.110622776867371,1.7465975653974282
1782664654584839424,1.301009178161621,0.9484449625015259,-0.11746914684772491,3.1987056732177734,-0.0404285192489624,-0.7213518619537354,0.6913877129554749,0.5551074743270874,-0.3696972727775574,0.08488792181015015,0.31272142321522495,0.6998149495361615,-0.5966178857707461,-0.23772132291525444,0.8057522619099967,-3.083184713330045,1.7047643487416413
1782664654594759424,1.310929298400879,0.5460764765739441,-0.009806870482861996,3.3221144676208496,-0.06176057830452919,-0.7147021889686584,0.6966965198516846,0.5322806239128113,-0.267261803150177,0.11479628086090088,0.31339822742862783,0.69142037294368,-0.6085114125179983,-0.2311562035927959,0.7961982586168159,-3.0531760279252964,1.6609786504367832
1782664654604678400,1.3208482265472412,0.6688050031661987,0.006549125071614981,3.515718936920166,-0.08455485105514526,-0.7078629732131958,0.7012709379196167,0.5977842211723328,-0.264656126499176,0.09113341569900513,0.3146677890652782,0.6821185113205513,-0.6207655012011309,-0.2243854687876478,0.7864681395411335,-3.021598182542911,1.6150792279957111
1782664654614598400,1.330768346786499,0.5969534516334534,0.09184964001178741,3.3649351596832275,-0.10769772529602051,-0.7001181244850159,0.7058582305908203,0.6523144245147705,-0.31370633840560913,0.1432018280029297,0.3160118278585393,0.6726206121417947,-0.6328590791921833,-0.2172726902346466,0.7755629216754433,-2.9901833678689007,1.5697484945684566
1782664654624518400,1.3406882286071777,0.7967740893363953,0.1194743812084198,3.5642669200897217,-0.1309676170349121,-0.6910841464996338,0.7108093500137329,0.7938857078552246,-0.42016762495040894,0.09665518999099731,0.31720803398822667,0.6630696975009581,-0.6447815556192433,-0.20970055181986783,0.7629879859166632,-2.9593848149379363,1.5254990480999047
1782664654634438400,1.3506083488464355,0.8237708210945129,0.27138590812683105,3.709284782409668,-0.15599468350410461,-0.6803421378135681,0.716100811958313,0.8543589115142822,-0.4131789803504944,0.147394061088562,0.31857691147812905,0.6529220789774713,-0.657071661023485,-0.20114271771516426,0.7482293919013738,-2.927104527836681,1.4799781075850913
1782664654644358400,1.3605282306671143,1.1811747550964355,0.24639679491519928,3.8737998008728027,-0.18214091658592224,-0.6670811176300049,0.7223765850067139,0.9143795967102051,-0.31248754262924194,0.08000701665878296,0.31964810868133153,0.6424813679140925,-0.6696312352205666,-0.19140773310250753,0.7302838175698535,-2.8945997493438638,1.434585529918276
1782664654654277376,1.3704471588134766,1.7696247100830078,0.2855926752090454,4.151801109313965,-0.2093805968761444,-0.6488187313079834,0.7315697073936462,0.9637293815612793,-0.2294924259185791,0.044812798500061035,0.3193146888082081,0.63172508485356,-0.6831604928042566,-0.1795921755856587,0.7060310652209565,-2.8628372334917964,1.389315024989782
1782664654664197376,1.3803672790527344,2.3742072582244873,0.20207920670509338,4.2748260498046875,-0.23672877252101898,-0.6244692206382751,0.7443103194236755,0.9603615999221802,-0.20284706354141235,0.05462467670440674,0.3169701707990279,0.6209499304385199,-0.6975502377132615,-0.1654533248403263,0.6744517793389226,-2.833658498601454,1.3460121730469141
1782664654674117376,1.390287160873413,2.8415725231170654,0.132953941822052,4.303277969360352,-0.26281753182411194,-0.5944581031799316,0.7599650621414185,0.916031002998352,-0.1701904535293579,0.03799349069595337,0.3125259753872478,0.6103144176783504,-0.7123895301856931,-0.14948273663147096,0.636591569885251,-2.808638974976333,1.306138796998528
1782664654684037376,1.400207281112671,3.0560431480407715,0.0655427873134613,4.408956527709961,-0.2873765528202057,-0.5602386593818665,0.7768828272819519,0.8498308658599854,-0.1603270173072815,0.04834282398223877,0.30667257129116104,0.5996057789279481,-0.7272649643538915,-0.13232684945793988,0.5946738872061564,-2.7872921080543778,1.2693599002590163
1782664654693957376,1.4101271629333496,3.130558967590332,0.10377033054828644,4.4908037185668945,-0.31108009815216064,-0.5231978297233582,0.7934060096740723,0.7993613481521606,-0.14715129137039185,0.07655853033065796,0.30032008036046476,0.5881854848038913,-0.7421191632607083,-0.11447620832909396,0.5505990031503114,-2.7679308718545297,1.2337016218260164
1782664654703877376,1.4200472831726074,3.15972900390625,0.13007044792175293,4.421322345733643,-0.3330797851085663,-0.48429033160209656,0.8090243339538574,0.8207049369812012,-0.19747227430343628,0.03750264644622803,0.2936063703488838,0.5765086177577183,-0.7564059710147656,-0.09634847298324145,0.5055518435199603,-2.7510362387428993,1.2003922304562218
1782664654713796352,1.4299662113189697,3.1968882083892822,0.11004161834716797,4.521171569824219,-0.35359564423561096,-0.44383499026298523,0.8233956098556519,0.8457984924316406,-0.2863742709159851,0.0025625228881835938,0.2867338512667281,0.5644142191299262,-0.7701521810991936,-0.07801163439593996,0.45987376058353513,-2.7359707398716693,1.1686866661118664
1782664654723716608,1.4398863315582275,3.332798719406128,0.14984062314033508,4.619597434997559,-0.3727090060710907,-0.40089941024780273,0.8368797302246094,0.8014199733734131,-0.34929895401000977,-0.029048919677734375,0.27939907207004727,0.5515733859189123,-0.7837133738172576,-0.05912954426653335,0.4124983972302159,-2.7226077694342283,1.1376279637282807
1782664654733636352,1.4498062133789062,3.201702833175659,0.24282622337341309,4.615166664123535,-0.39062872529029846,-0.35635611414909363,0.8487752079963684,0.7296180129051208,-0.4137396812438965,-0.012288510799407959,0.27207334539863964,0.5381817346946263,-0.7967107574865477,-0.03985530523391961,0.36436506085958775,-2.710267104476496,1.1075198148991743
1782664654743556608,1.459726333618164,2.9129245281219482,0.232866570353508,4.661697864532471,-0.40689927339553833,-0.31275951862335205,0.8582625985145569,0.7026298642158508,-0.49618518352508545,-0.04892110824584961,0.2653484733944728,0.5240195229669128,-0.8090332652305664,-0.02142306657034085,0.31809690606213187,-2.6988817566099734,1.0773644863730005
1782664654753476352,1.4696462154388428,2.4429988861083984,0.23799927532672882,4.810313701629639,-0.4214838445186615,-0.2709575593471527,0.8654094934463501,0.6266534924507141,-0.5692982077598572,-0.12091779708862305,0.25937702775396354,0.5085718883395064,-0.8210111878877528,-0.00434454666896446,0.2743876784904158,-2.6883715281712464,1.0455463177826683
1782664654763395328,1.479565143585205,1.886993408203125,0.18028442561626434,4.874807357788086,-0.4342065453529358,-0.23254862427711487,0.8702788352966309,0.5007960200309753,-0.596583366394043,-0.20708632469177246,0.2544568603738432,0.49160664936473747,-0.8327438531052586,0.01058953831113664,0.2346973292441996,-2.6788029534423656,1.0110414947431188
1782664654773315328,1.489485263824463,1.6164205074310303,0.098566934466362,4.953619480133057,-0.444645494222641,-0.1968449503183365,0.8738089203834534,0.46315449476242065,-0.5252619385719299,-0.30056697130203247,0.25006940160928154,0.47352022905032437,-0.8442055837393103,0.02367959141346321,0.19813886756325208,-2.670883030240116,0.9746953860238509
1782664654783235328,1.4994051456451416,1.2356593608856201,-0.03567088022828102,4.988770008087158,-0.45258182287216187,-0.1634421944618225,0.8766161203384399,0.4194856584072113,-0.4806007146835327,-0.29267776012420654,0.24588189866612845,0.4545599412497822,-0.8553849028805308,0.03512683080188354,0.16417877199485015,-2.6650038279258923,0.9369519522922879
1782664654793155328,1.5093252658843994,1.1008179187774658,-0.18191276490688324,4.921354293823242,-0.4576752781867981,-0.13191266357898712,0.8792792558670044,0.36378803849220276,-0.5270228385925293,-0.4125588536262512,0.24150548967111682,0.4349359011266591,-0.8662969448946727,0.04511509916988031,0.1322982651525104,-2.6616705333018706,0.8981791036694348
1782664654803075328,1.5192451477050781,0.8859143853187561,-0.36772671341896057,4.840667724609375,-0.4595679044723511,-0.10261888056993484,0.8821942806243896,0.3693732023239136,-0.5887263417243958,-0.5052716732025146,0.2366995518453396,0.41540036757347276,-0.8766639407167083,0.05363017524459125,0.10279984600409225,-2.661335830795151,0.859814812482482
1782664654812994560,1.5291643142700195,0.5380797386169434,-0.5382614135742188,4.836994171142578,-0.45830026268959045,-0.07591206580400467,0.8855494260787964,0.3502834141254425,-0.6152194738388062,-0.5410062074661255,0.23146311898896946,0.39544784085945345,-0.8867895615164493,0.06041518795108723,0.07598516394404795,-2.664017936228923,0.8204259914378174
1782664654822914304,1.5390841960906982,0.3773232102394104,-0.6707953810691833,4.85456657409668,-0.45422494411468506,-0.05265742167830467,0.8893293142318726,0.2789778411388397,-0.55595463514328,-0.6387953758239746,0.22601834519032823,0.3751387317013922,-0.8966245590942682,0.06519955734302368,0.052681787200324924,-2.66938207702514,0.7798395586896832
1782664654832834560,1.549004316329956,0.4015244245529175,-0.8048235177993774,4.753371715545654,-0.4471554756164551,-0.031424153596162796,0.8939040303230286,0.2088436782360077,-0.4540494680404663,-0.5928481817245483,0.21982550602176146,0.35480844964058317,-0.90612526045206,0.06873649003286732,0.03142932817238046,-2.677762993161802,0.7390073116678755
1782664654842754304,1.5589241981506348,0.03801765292882919,-0.9661055207252502,4.702187538146973,-0.43524250388145447,-0.016645001247525215,0.9001595377922058,0.10409626364707947,-0.30066150426864624,-0.512555718421936,0.2125887899426962,0.33514091661407003,-0.9152924779237315,0.06874818967812939,0.016645770775729568,-2.6912181121538166,0.6981781027170428
1782664654852674560,1.5688443183898926,-0.29667991399765015,-1.2202012538909912,4.506122589111328,-0.4137294888496399,-0.020324060693383217,0.910173237323761,-0.06593063473701477,-0.15770025551319122,-0.5128341913223267,0.20359854190592822,0.3170345124192427,-0.9244326615116685,0.0588314722067899,0.020325459520598534,-2.714952064836332,0.6563586435319069
1782664654862594304,1.5787642002105713,-0.5085858702659607,-1.4581753015518188,4.214444637298584,-0.3989347815513611,-0.013194032944738865,0.9168844819068909,-0.026373445987701416,-0.0680437684059143,-0.5500936508178711,0.19614453366226672,0.2977341945495886,-0.9326288574610974,0.05554397972691242,0.013194415625736566,-2.7311999212102736,0.6152840896181497
1782664654872513536,1.5886833667755127,-0.23916953802108765,-1.6137150526046753,4.076470851898193,-0.38387641310691833,-0.0035235052928328514,0.9233778715133667,0.07287174463272095,-0.04542669653892517,-0.5729596614837646,0.18815477223801705,0.27886222227660123,-0.9401727445254805,0.053934243065419454,0.003523512473855174,-2.7475994011507967,0.575979679190624
1782664654882433536,1.5986032485961914,0.020347312092781067,-1.645745038986206,3.86149001121521,-0.3679778575897217,0.008724631741642952,0.9297938942909241,0.09502860903739929,0.0007510688155889511,-0.5537256002426147,0.17940362981903338,0.2608133226821448,-0.9470339824095225,0.054014083415053336,-0.008724742145947697,-2.764744351202645,0.5391401894043873
1782664654892353536,1.6085233688354492,0.046996235847473145,-1.6559419631958008,3.6574137210845947,-0.35159188508987427,0.021218478679656982,0.9359129667282104,0.031874507665634155,-0.0022060293704271317,-0.5571134686470032,0.1704357550762157,0.24381985929533465,-0.9531570446924261,0.05472850624247454,-0.021220071398056685,-2.7822370973155355,0.5047189888261596
1782664654902273536,1.618443250656128,-0.37399399280548096,-1.5786203145980835,3.261706590652466,-0.3353346884250641,0.030673304572701454,0.9415994882583618,-0.14714819192886353,0.0861022099852562,-0.5225932598114014,0.16197175349895165,0.22760904353278325,-0.9586416807972323,0.054455057408405796,-0.030678115612528218,-2.799464599450151,0.47152470350479947
1782664654912193280,1.6283631324768066,-0.6909809708595276,-1.560495138168335,2.873534917831421,-0.3193725347518921,0.03467104583978653,0.9469947218894958,-0.2948700189590454,0.29105833172798157,-0.5648841857910156,0.15421935506327156,0.21330785227421875,-0.963326072041164,0.052144049900441004,-0.0346779967238626,-2.8163226239005144,0.441515563128155
1782664654922112512,1.638282299041748,-1.1159732341766357,-1.5161237716674805,2.6899333000183105,-0.3037774860858917,0.033835187554359436,0.9521421194076538,-0.40506958961486816,0.40335965156555176,-0.5310146808624268,0.1471049202884599,0.19969248433425038,-0.9675711684302583,0.047844894138415174,-0.03384164546296215,-2.8327549903834215,0.4123235986872814
1782664654932032256,1.6482021808624268,-1.445836067199707,-1.4631636142730713,2.2625205516815186,-0.2888471484184265,0.02846803329885006,0.9569520354270935,-0.525712788105011,0.4845171868801117,-0.47686469554901123,0.1406430857694203,0.18717042367668058,-0.9713100708762019,0.041756225886262786,-0.028471880171583613,-2.848447925703281,0.38493475823318857
1782664654941952512,1.6581223011016846,-1.7278485298156738,-1.3704367876052856,1.9532140493392944,-0.2747281491756439,0.0184604674577713,0.961344838142395,-0.5054842829704285,0.5620449185371399,-0.36699962615966797,0.13483502373031603,0.17632389330754386,-0.9744651425233017,0.0338697289172278,-0.01846151643756738,-2.8632370373016722,0.36060111580039816
1782664654951872256,1.6680421829223633,-1.7615447044372559,-1.3282248973846436,1.5322034358978271,-0.26182666420936584,0.005501709878444672,0.9650992155075073,-0.40377697348594666,0.42169860005378723,-0.2871206998825073,0.1297156039629432,0.1669894862736719,-0.9770691515887762,0.02498492254549608,-0.005501737768593062,-2.876674133344538,0.3392791881995203
1782664654961792512,1.677962303161621,-1.5906764268875122,-1.0977321863174438,1.4275814294815063,-0.2503676414489746,-0.006906319409608841,0.9681259989738464,-0.3076004385948181,0.32956868410110474,-0.23999202251434326,0.12512109352612297,0.15892712228040295,-0.9791859730759738,0.016781261166116265,0.006906374475850233,-2.8885264694545025,0.3209258991386348
1782664654971711488,1.6878812313079834,-1.7385215759277344,-1.0057507753372192,1.0849790573120117,-0.2407870888710022,-0.020564444363117218,0.9703601002693176,-0.4668239951133728,0.4617112874984741,-0.0613025426864624,0.12145253079363609,0.1518650600720984,-0.9808756537051176,0.008321313007077539,0.02056589481297381,-2.898363458158501,0.3046991655414269
1782664654981631488,1.6978013515472412,-2.06290864944458,-0.9029159545898438,0.6389234662055969,-0.23192989826202393,-0.03669311851263046,0.9720404744148254,-0.6014747023582458,0.7197680473327637,0.0011194944381713867,0.1182320995960623,0.14657420780995853,-0.982108060840188,-0.001035306813479482,0.03670135784265571,-2.907370834045229,0.2919836196014029
1782664654991551488,1.70772123336792,-1.8821163177490234,-0.9361716508865356,0.5632897019386292,-0.2238922268152237,-0.05489090830087662,0.9730669260025024,-0.517486572265625,0.6807454228401184,-0.11202871799468994,0.11550529410902874,0.14244179536202098,-0.9829770071323958,-0.011183041186004761,0.05491850957690257,-2.9154395080715867,0.2815756026728388
1782664655001471488,1.7176413536071777,-1.1603634357452393,-1.068138837814331,-0.04596730321645737,-0.2132577896118164,-0.06874628365039825,0.9745742678642273,-0.5158224105834961,0.5972954630851746,-0.35384678840637207,0.11112121912890614,0.14022451455898116,-0.9836789207768974,-0.01910300425245522,0.06880054846428968,-2.9261667398523388,0.2757518341385948
1782664655011391488,1.7275612354278564,-0.3627171814441681,-0.7661923766136169,-0.16569316387176514,-0.2039860337972641,-0.0767340362071991,0.9759619235992432,-0.4903804063796997,0.4085669219493866,-0.30849671363830566,0.10703746885915302,0.14050329313518425,-0.9839917675347791,-0.023707414246490068,0.07680953795154413,-2.935548607095336,0.2757156887378759
1782664655021311488,1.7374813556671143,0.4583020806312561,-1.0998693704605103,0.28834009170532227,-0.19566437602043152,-0.0762983113527298,0.9776983261108398,-0.2677450180053711,0.2185407429933548,-0.26830196380615234,0.10280342586755102,0.13999858987202904,-0.9845047302245497,-0.024130734558909153,0.07637253612907231,-2.9440744451867245,0.27493926428306337
1782664655031230464,1.7474002838134766,0.8986964821815491,-1.061944842338562,0.31817203760147095,-0.18489739298820496,-0.06934896111488342,0.9803081750869751,-0.37044626474380493,0.34988176822662354,-0.052024245262145996,0.09686247671205979,0.13893181429324544,-0.9853182371114388,-0.021533347858685135,0.06940466700719934,-2.9551711653751185,0.2736664165390854
1782664655041150208,1.7573201656341553,1.8147587776184082,-1.0703274011611938,1.1337488889694214,-0.1755189299583435,-0.056644126772880554,0.9828454256057739,-0.35113823413848877,0.33629193902015686,0.2524758577346802,0.09120338314368492,0.13636780831581574,-0.986319693792397,-0.016105182352867415,0.056674462801256965,-2.9648731331916416,0.2697543614380873
1782664655051070464,1.767240285873413,1.931720495223999,-1.7424960136413574,-0.14635702967643738,-0.15766651928424835,-0.03773146867752075,0.9867712259292603,-0.7513605356216431,0.6787989735603333,0.48295527696609497,0.0809284396493617,0.13478417378739121,-0.987531691468808,-0.008058336132363689,0.03774042893276645,-2.9831516916688923,0.2682990831091561
1782664655060990208,1.7771601676940918,1.474127173423767,-1.2992388010025024,0.02521396242082119,-0.14981941878795624,-0.019663691520690918,0.9885177612304688,-0.9654912352561951,0.5515698194503784,0.787528932094574,0.07576926270987944,0.13405305605186488,-0.9880732069148721,0.00032918142084903683,0.01966495917471889,-2.991177720685178,0.26821386713421724
1782664655070910464,1.7870802879333496,0.8846415281295776,-0.36816173791885376,-0.10864689946174622,-0.14418545365333557,-0.009988535195589066,0.9894999265670776,-0.9780831933021545,0.40397047996520996,0.8585832118988037,0.07229678798438532,0.13469219852916392,-0.9882347768809372,0.004800018863289018,0.009988701601210098,-2.9968955624100277,0.27019814615372256
1782664655080829440,1.796999216079712,1.119492769241333,-0.00042326003313064575,-0.6026723980903625,-0.1411156952381134,-0.0017625645268708467,0.989991307258606,-0.6914343237876892,0.4919664263725281,0.7093797922134399,0.07018247698032463,0.13740172256148406,-0.9879860380472841,0.008868456252565292,0.0017625654609296926,-3.000004097500603,0.2762473561715501
1782664655090749440,1.8069193363189697,0.8584814071655273,-0.05612087994813919,0.03865114226937294,-0.1408509910106659,0.008351345546543598,0.9899957776069641,-0.1351500153541565,0.4794416129589081,0.6744178533554077,0.06933385480820821,0.13873561661965364,-0.987800752272459,0.013965111705709413,-0.008351442578508148,-3.0002668058890887,0.2796636978760367
1782664655100669440,1.8168392181396484,2.215305805206299,0.04657765105366707,-0.2042461782693863,-0.14210404455661774,0.022424917668104172,0.9895977973937988,-0.44767868518829346,0.5128381252288818,-0.008915305137634277,0.06897827098084641,0.13887758720110277,-0.9876800690318475,0.021051345943125806,-0.02242679786354256,-2.998969850836204,0.28099020463296076
1782664655110589440,1.8267593383789062,2.214865207672119,0.028344321995973587,-0.6677278280258179,-0.14400847256183624,0.044039536267519,0.9885958433151245,-0.3163338899612427,0.9626590609550476,-0.25533491373062134,0.0683244529174761,0.1421616644957592,-0.9869589548206673,0.03215218424851088,-0.04405378449493581,-2.996940366347623,0.2893046122054864
1782664655120509440,1.836679220199585,2.6426241397857666,0.016631586477160454,-0.44910362362861633,-0.1452520340681076,0.06466054171323776,0.98727947473526,0.2646368145942688,0.9407563209533691,-0.15395128726959229,0.06733036014001122,0.14580529341794127,-0.9860935798250418,0.04274177870889306,-0.06470568376803053,-2.995517072501902,0.2983317546590744
1782664655130429440,1.8465993404388428,4.18241548538208,0.03424280509352684,-0.8551424741744995,-0.1486745923757553,0.09723632037639618,0.9840937852859497,0.304054856300354,0.6103442311286926,-0.45198947191238403,0.06639659413039062,0.15059012237155253,-0.9845656431489201,0.05953572544713115,-0.09739019941856797,-2.991648917340788,0.3108701171179967
1782664655140348416,1.856518268585205,2.9459915161132812,0.10613776743412018,-1.6131887435913086,-0.15109872817993164,0.1299014687538147,0.9799461960792542,0.7058320641517639,0.7800105810165405,0.0661504864692688,0.06462385702387029,0.1577111347030851,-0.9823951820397167,0.07648921714854183,-0.13026961026432826,-2.988606618521785,0.328356578280354
1782664655150268416,1.8664381504058838,2.4145021438598633,-0.9813345074653625,-1.8653839826583862,-0.15106040239334106,0.15163788199424744,0.9768248796463013,1.2473280429840088,0.5683633089065552,0.14037787914276123,0.062070014880217406,0.16713319363876603,-0.9800402766003031,0.08794832250632645,-0.15222510177506648,-2.9881637321424743,0.34954754049657605
1782664655160188416,1.8763582706451416,2.9573965072631836,-0.6785357594490051,-1.5978211164474487,-0.14775356650352478,0.17570683360099792,0.9732912182807922,1.1245907545089722,0.2334423065185547,0.1608486771583557,0.05744736763357935,0.1767741396872767,-0.9774438603028651,0.10027033974919176,-0.17662373054763897,-2.9909347905647286,0.37120369241448015
1782664655170108416,1.8862781524658203,2.4098169803619385,-1.0028668642044067,-1.164985179901123,-0.14215528964996338,0.2001110315322876,0.969406008720398,0.8921399712562561,0.028145238757133484,0.22723424434661865,0.05165856960819649,0.1842664025636686,-0.9750635306608584,0.112376732987129,-0.20147124212520054,-2.9959887700260754,0.38829557266270903
1782664655180028416,1.8961982727050781,2.7373414039611816,-1.2767422199249268,-1.8507169485092163,-0.134050652384758,0.22120912373065948,0.9659692645072937,0.4450553059577942,-0.21766914427280426,-0.08930623531341553,0.044593290091070714,0.1930017702495596,-0.9724890458215331,0.1225835380168501,-0.22305413989259162,-3.0037001237690286,0.40729886337913696
1782664655189947392,1.9061172008514404,3.6951489448547363,-1.3568980693817139,-1.9298127889633179,-0.1267259418964386,0.24942225217819214,0.9600674510002136,0.5198991298675537,-0.03196921944618225,-0.3315119743347168,0.036713348418410514,0.2037070761454577,-0.9687812770362899,0.13644967978482914,-0.2520836058500909,-3.0103544300012612,0.4311576282612268
1782664655199867392,1.9160373210906982,3.6195526123046875,-1.2996245622634888,-0.9252253174781799,-0.11606151610612869,0.28316888213157654,0.952021598815918,0.6165803074836731,-0.16079336404800415,-0.09073925018310547,0.02652470318882482,0.21258713726581616,-0.9647888481745811,0.15259634848413242,-0.28709663195568863,-3.020280687911122,0.45131599642006376
1782664655209787392,1.925957202911377,3.4683446884155273,-1.5264191627502441,-0.5846126079559326,-0.10689423233270645,0.31522658467292786,0.9429771900177002,0.5198581218719482,-0.07738783955574036,0.1534888744354248,0.01760086190428916,0.2175067089174264,-0.9613425167996863,0.16793348528127494,-0.3206954051455815,-3.0287162619404526,0.46328877555838677
1782664655219707392,1.9358773231506348,3.2190065383911133,-1.2130920886993408,-0.3716929852962494,-0.09560603648424149,0.3456246256828308,0.933489978313446,0.4600774645805359,-0.10926595330238342,0.14355182647705078,0.007860424360553,0.22104480453419761,-0.9580627212527913,0.18219039255623135,-0.35290436074110426,-3.0395306644159494,0.4717190356844482
1782664655229627392,1.9457972049713135,2.3990848064422607,-1.3953508138656616,-1.065418004989624,-0.08646981418132782,0.37268200516700745,0.9239215850830078,0.215315043926239,0.08184677362442017,0.2756175994873047,-0.0009254424405007053,0.22620699266968075,-0.9543538033761716,0.19503423620743884,-0.38189757713481837,-3.04827448377841,0.48351415008500326
1782664655239546368,1.9557161331176758,1.4836452007293701,-1.0150607824325562,-1.0734403133392334,-0.07862762361764908,0.3889409303665161,0.9179011583328247,0.26743990182876587,0.1482904851436615,0.402731716632843,-0.008010254528065088,0.23183690094448273,-0.9514211566646673,0.20244808859903315,-0.39948173288839944,-3.056141019908903,0.49534148358038316
1782664655249466368,1.9656362533569336,0.890529215335846,-0.5125863552093506,-1.2840255498886108,-0.07675958424806595,0.39867478609085083,0.9138743877410889,0.21105217933654785,0.00269240140914917,0.34665417671203613,-0.011676786999410292,0.2387074978077113,-0.948660067343896,0.20718701765488837,-0.4100713608126618,-3.057795759259682,0.5104527800709159
1782664655259386368,1.9755561351776123,-0.19037996232509613,-0.7333756685256958,-0.7947554588317871,-0.07564510405063629,0.4017964005470276,0.9125992655754089,0.4468303918838501,-0.1823902726173401,0.3830549716949463,-0.013855209984989611,0.2442260643332506,-0.946917764262016,0.20858664630735485,-0.4134777285994849,-3.0588919846613387,0.522186396688898
1782664655269306368,1.9854762554168701,-0.9055710434913635,-0.5380445122718811,-0.8183073997497559,-0.07311706244945526,0.394883394241333,0.9158173203468323,0.5492064952850342,-0.24752917885780334,0.23187267780303955,-0.015079273225054108,0.24844511094328167,-0.9466697919246203,0.20460706505698353,-0.4059409321623847,-3.061923595716786,0.5297111633103827
1782664655279226368,1.9953961372375488,-0.5075424909591675,-0.70590740442276,-0.9598860144615173,-0.07014522701501846,0.3874431550502777,0.9192212820053101,0.41737422347068787,-0.23191025853157043,-0.09529232978820801,-0.016712268894237926,0.2540688787021725,-0.9460759153935281,0.20027517206051182,-0.397856514471954,-3.065430854296887,0.5400810737901008
1782664655289146368,2.0053162574768066,-1.0130895376205444,-0.6691469550132751,-0.9128913283348083,-0.0673411637544632,0.3801549971103668,0.9224681258201599,0.373310387134552,-0.19903311133384705,0.05484211444854736,-0.018074779849979433,0.25891375433500785,-0.9456202931384144,0.19605934226303132,-0.38996387617929107,-3.0687208462756588,0.5489038900734172
1782664655299065344,2.015235185623169,-0.9216198921203613,-0.36500033736228943,-0.788919985294342,-0.0664060115814209,0.3694116771221161,0.9268901944160461,0.4382474422454834,-0.2598535716533661,0.04169201850891113,-0.01794080489872834,0.26354733309023587,-0.9455093273308294,0.19034987862582198,-0.3783758325383867,-3.0700709754874222,0.5573725829090992
1782664655308985344,2.0251553058624268,-0.23543591797351837,-0.8603179454803467,-0.24376720190048218,-0.06276489794254303,0.36386898159980774,0.9293333888053894,0.5096642971038818,-0.028557032346725464,-0.18800008296966553,-0.019488353525131702,0.266399998683484,-0.9453558791694062,0.18695901133193524,-0.37241827441296044,-3.0741575092673785,0.5620605533861586
1782664655318905344,2.0350751876831055,0.333658367395401,-0.7122212648391724,-0.5517012476921082,-0.05633141100406647,0.36347296833992004,0.9299002885818481,0.2575185298919678,0.28589534759521484,-0.2550039291381836,-0.02302856277395586,0.26870697588489784,-0.9448527428845958,0.18579460644542847,-0.37199312558157593,-3.081088685476386,0.5655389074323947
1782664655328825600,2.0449953079223633,1.3529417514801025,-0.7855457663536072,-0.3539407551288605,-0.050030987709760666,0.37033772468566895,0.9275489449501038,0.23118332028388977,0.12427595257759094,-0.3731207847595215,-0.027766231655798494,0.2719545077325223,-0.9433001772530857,0.1882939383990534,-0.37937255952415444,-3.0877059534591704,0.5717276581740355
1782664655338745344,2.054915189743042,1.7795981168746948,-0.6349544525146484,-0.3409477770328522,-0.04538542777299881,0.38563665747642517,0.9215338230133057,0.2524471879005432,-0.08836492896080017,-0.23905396461486816,-0.03267423158096062,0.2735811453202596,-0.9412333819998183,0.19535992176139275,-0.39589776445465175,-3.092382539406863,0.5756089104744229
1782664655348665600,2.0648353099823,1.4638588428497314,-0.7488589286804199,-0.5766031742095947,-0.04064426198601723,0.40031877160072327,0.9154743552207947,0.27868136763572693,-0.285587877035141,-0.05724358558654785,-0.03778389854296736,0.2761154849062822,-0.9388809323831591,0.20207745048947973,-0.4118646781810372,-3.0972248452374878,0.5813216334838056
1782664655358584320,2.074754238128662,1.2040085792541504,-0.5636802911758423,-0.21201199293136597,-0.03634560853242874,0.41241705417633057,0.9102702140808105,0.36703404784202576,-0.49789664149284363,-0.05886000394821167,-0.04225718065501854,0.2782935710975444,-0.9368499353593089,0.20755578451925685,-0.4251056712453326,-3.1016854815551103,0.5861145453907685
1782664655368504576,2.08467435836792,0.2686513364315033,-0.4493989944458008,0.13615556061267853,-0.031192583963274956,0.4191371500492096,0.9073868989944458,0.4287145435810089,-0.5978633761405945,0.19223767518997192,-0.04598844833738469,0.2789316017674681,-0.935890278277692,0.2102179657559419,-0.4324947708493428,-3.1072299071762477,0.5868626783938781
1782664655378424320,2.0945942401885986,-0.7025373578071594,-0.6316409111022949,0.17408622801303864,-0.025639336556196213,0.4172496795654297,0.9084298610687256,0.3117416501045227,-0.6265240907669067,0.30032533407211304,-0.04830309340524058,0.27846487057243313,-0.9363077769544255,0.20845081726845655,-0.4304168537150015,-3.113376352354862,0.5843213675447729
1782664655388344576,2.1045143604278564,-1.1728261709213257,-0.6885886192321777,0.09602472186088562,-0.018963608890771866,0.40776312351226807,0.9128904938697815,0.38891297578811646,-0.43324539065361023,0.26455366611480713,-0.05015174213092291,0.27886503230905146,-0.9373790753604612,0.20258186343169454,-0.42000293616345713,-3.12082249337898,0.5827400999764193
1782664655398264320,2.114434242248535,-1.80112624168396,-0.522235631942749,0.29715219140052795,-0.012430914677679539,0.3950461447238922,0.9185775518417358,0.31997179985046387,-0.14884549379348755,0.1694965362548828,-0.051350369174075046,0.27893130691928597,-0.9388749108540906,0.19512700487245765,-0.4061180864178243,-3.1280606924444854,0.580358086275215
1782664655408183296,2.1243531703948975,-1.902861475944519,-0.6853872537612915,0.2803593575954437,-0.005388043820858002,0.37755805253982544,0.9259698987007141,0.2188585102558136,0.1013847291469574,0.04418361186981201,-0.05202822464562027,0.27882931179296055,-0.9408714853062402,0.18522405194585653,-0.3871577344996824,-3.135773908072145,0.5773542002664297
1782664655418103552,2.1342732906341553,-1.558484673500061,-0.704634428024292,0.10033148527145386,0.0015385315055027604,0.3610885739326477,0.9325301647186279,0.22314713895320892,0.1922561228275299,-0.13072669506072998,-0.05284844918616053,0.27882626372823605,-0.9426139183733725,0.17590314981686006,-0.3694349748454785,3.1399428087836356,0.5748920756750732
1782664655428023296,2.144193172454834,-1.2610745429992676,-0.6733697056770325,0.1597367525100708,0.008154491893947124,0.34772029519081116,0.9375630617141724,0.2680143415927887,0.09263312816619873,-0.1611652374267578,-0.054022069649298725,0.2788847650634658,-0.9439305109714381,0.168226593776605,-0.35513857221595274,3.1328953335591385,0.5729947394071453
1782664655437943552,2.154113292694092,-0.8744690418243408,-0.7853702306747437,-0.21577651798725128,0.014633608981966972,0.33797186613082886,0.9410425424575806,0.15570025146007538,0.0642193853855133,-0.12159967422485352,-0.055826918294363224,0.2797258790478365,-0.9446029402309195,0.16236419379942477,-0.34476111340675064,3.1260434852103915,0.5730990559048494
1782664655447863296,2.1640331745147705,-0.7356213927268982,-0.5264678001403809,0.06674572825431824,0.020837707445025444,0.33001869916915894,0.9437441825866699,0.2123623639345169,0.1320173740386963,0.008373558521270752,-0.057820826126475044,0.28088655014781505,-0.9449734550682776,0.15743114841628617,-0.33632338204565876,3.1195164143372023,0.5741026870974582
1782664655457783552,2.1739532947540283,-0.649944007396698,-0.6517677903175354,0.2026698738336563,0.02743680775165558,0.32417142391204834,0.9456002116203308,0.2691788077354431,0.108583003282547,0.04103291034698486,-0.060167435510863315,0.2810949638354552,-0.945402418132905,0.1535567726804476,-0.33013571193089675,3.1125855628072627,0.5731754411029553
1782664655467702272,2.1838722229003906,-0.33994755148887634,-0.7028184533119202,-0.1932913064956665,0.03361086547374725,0.318669855594635,0.9472694993019104,0.16902585327625275,0.07946237921714783,0.05616354942321777,-0.0624292558947383,0.2817411840592658,-0.9456514438565502,0.14989247147709536,-0.32432584419094046,3.1061256898403786,0.5733165562621596
1782664655477622528,2.1937923431396484,-0.3613314628601074,-0.6891964673995972,0.09938859194517136,0.0402047261595726,0.315384179353714,0.9481121897697449,0.2568381130695343,0.1265408992767334,0.03334856033325195,-0.06524820649578345,0.2824844371165169,-0.9456524880806677,0.14726392123689158,-0.3208614817898505,3.09921301275907,0.5737035502410144
1782664655487542272,2.203712224960327,-0.27924567461013794,-0.6140050292015076,0.15113674104213715,0.04674357548356056,0.312102347612381,0.9488978385925293,0.22188740968704224,0.12913605570793152,-0.018599987030029297,-0.06791233830298675,0.28240817892157144,-0.9458829446916244,0.14470308540240046,-0.3174051287342859,3.092371527739301,0.5724014383299447
1782664655497462528,2.213632345199585,-0.26113438606262207,-0.6723370552062988,-0.056956175714731216,0.05341658368706703,0.3094964921474457,0.949399471282959,0.25894609093666077,0.02407604455947876,-0.08376801013946533,-0.07079734438257197,0.28266386094501417,-0.9459391533846894,0.14243663384472863,-0.3146634667307282,3.085388363124073,0.5718259080990681
1782664655507382272,2.2235522270202637,-0.2067486196756363,-0.7698702812194824,0.10771533101797104,0.06062343344092369,0.3073716461658478,0.9496566653251648,0.251449316740036,-0.04824686050415039,-0.10195446014404297,-0.07408705136785805,0.2833942820060669,-0.9457885731208978,0.14029559942354786,-0.31242972569444394,3.077841950060237,0.5722055880201542
1782664655517302272,2.2334721088409424,0.07856028527021408,-0.6883322596549988,-0.05257850140333176,0.06810211390256882,0.3058755695819855,0.9496325254440308,0.15900969505310059,-0.013974994421005249,-0.12265211343765259,-0.07754989418936352,0.2837468617480128,-0.9456764690101013,0.138454581918212,-0.31085792883312574,3.070001040286787,0.5717761958419578
1782664655527222272,2.243391990661621,0.28770551085472107,-0.5206881761550903,-0.01429849211126566,0.07391037791967392,0.30764493346214294,0.9486264586448669,0.12112747132778168,-0.04522421956062317,-0.12608599662780762,-0.08070772800395078,0.2840981860173497,-0.9453049466606597,0.13846700575262372,-0.31271692815195556,3.0638366882315853,0.5716331204762548
1782664655537142272,2.253312110900879,0.39794546365737915,-0.6359244585037231,-0.14187882840633392,0.07886072993278503,0.31041544675827026,0.9473243355751038,0.20628026127815247,-0.15370768308639526,-0.13145208358764648,-0.08364853662348146,0.2847333463270542,-0.9447693241207947,0.13907119516617497,-0.31563004438912706,3.058538394618226,0.5722178318438619
1782664655547062272,2.2632319927215576,0.16788403689861298,-0.5659299492835999,-0.08443204313516617,0.0846465677022934,0.31316471099853516,0.9459189176559448,0.2647339105606079,-0.21694281697273254,-0.07630538940429688,-0.08705267463817186,0.2857382757083111,-0.9440937990721097,0.1395074053088277,-0.318523544964118,3.052344300833649,0.5734439397155446
1782664655556982272,2.2731521129608154,-0.042721666395664215,-0.5952015519142151,-0.0331755131483078,0.09006286412477493,0.3139033913612366,0.9451735615730286,0.21979734301567078,-0.22367826104164124,-0.0036606788635253906,-0.08989050150010534,0.286256047883026,-0.9437395065096182,0.139042601875327,-0.31930144667141763,3.0465923665177197,0.5736933468103511
1782664655566902272,2.283071994781494,-0.3129446506500244,-0.42806366086006165,-0.12862320244312286,0.09500958025455475,0.3119758367538452,0.9453278183937073,0.19322896003723145,-0.33239203691482544,0.004593014717102051,-0.09212016928915737,0.28707121310765427,-0.9435327420415437,0.13729556875906646,-0.3172719445455926,3.041424647159756,0.5746673719697916
1782664655576820992,2.2929909229278564,-0.7295631766319275,-0.4336938261985779,0.1535525619983673,0.09947139769792557,0.3067016899585724,0.9465937614440918,0.24366825819015503,-0.2775115966796875,-0.007979750633239746,-0.09353423176469836,0.2875778594389119,-0.9437138644183092,0.1339945024137496,-0.3117257674998791,3.0368933944446423,0.5751142131160333
1782664655586741248,2.3029110431671143,-1.032818078994751,-0.3669167160987854,0.057018596678972244,0.10351861268281937,0.29797229170799255,0.9489445686340332,0.17619022727012634,-0.1399829089641571,-0.0053414106369018555,-0.09413928106122692,0.28767400198943005,-0.9443071323939206,0.12909435427808721,-0.30256774103703543,3.032934163379055,0.5748361115226471
1782664655596660992,2.312830924987793,-1.2661933898925781,-0.35662442445755005,0.07237355411052704,0.10728465765714645,0.28684601187705994,0.9519503712654114,0.23120105266571045,-0.06470856070518494,0.0165250301361084,-0.09428311605591568,0.28815723249851716,-0.9449553422066272,0.12302660511814281,-0.2909328716211249,3.029366352223568,0.5755122031281394
1782664655606581248,2.322751045227051,-1.2073146104812622,-0.42156854271888733,-0.03389110043644905,0.11100967228412628,0.27473047375679016,0.955091655254364,0.2036418318748474,-0.05009055137634277,-0.03303349018096924,-0.09428488748981478,0.2888988565254223,-0.9455597760906593,0.11646692578463645,-0.27830937796870825,3.025882507290418,0.5768246099189951
1782664655616500992,2.3326709270477295,-1.3033726215362549,-0.314447820186615,-0.02102227509021759,0.11448757350444794,0.2629978358745575,0.9579795598983765,0.19966037571430206,0.010332852602005005,-0.046968817710876465,-0.09425867017206432,0.2899276881440852,-0.9460083028631224,0.11011607511370118,-0.2661281178471069,3.0226473807846523,0.5788327805166148
1782664655626420224,2.342590093612671,-1.2035051584243774,-0.27288198471069336,-0.03273751959204674,0.11738936603069305,0.2508695721626282,0.9608767628669739,0.13843947649002075,-0.02644333243370056,-0.07934600114822388,-0.09386040867799741,0.2907351602773223,-0.9465259840247914,0.10369104538384848,-0.2535784572147021,3.020026054088223,0.5805103641614885
1782664655636340224,2.3525099754333496,-1.1155527830123901,-0.2749349772930145,-0.018375258892774582,0.11997261643409729,0.2394341677427292,0.9634716510772705,0.2617870271205902,-0.03966614603996277,-0.07023751735687256,-0.09341075152437302,0.2915153760611523,-0.9469712877468273,0.09766549107306531,-0.24178303001041168,3.017709155116683,0.5821983063910652
1782664655646260224,2.3624300956726074,-0.962502121925354,-0.3042801022529602,-0.08569198846817017,0.12289237231016159,0.22929027676582336,0.9655689001083374,0.2143421173095703,-0.07049208879470825,-0.06984758377075195,-0.09333601435518407,0.29241997988217766,-0.9472460070118377,0.09221661688494046,-0.23134846932374797,3.014998706147255,0.584119570008214
1782664655656180224,2.372349977493286,-1.011212944984436,-0.19066141545772552,-0.1035425215959549,0.12495776265859604,0.2200479507446289,0.9674524664878845,0.17492321133613586,-0.1018991768360138,-0.022964060306549072,-0.09298592040982168,0.2933631402087643,-0.9474514782993826,0.08733464289315193,-0.22186363145748406,3.013142147126153,0.5862158792228169
1782664655666100224,2.382270097732544,-1.1423609256744385,-0.2518206536769867,0.12812532484531403,0.12759558856487274,0.20931680500507355,0.969487190246582,0.25327903032302856,-0.08285200595855713,0.05137133598327637,-0.09265598157231199,0.2940688436025951,-0.9477695413568108,0.08167719926411707,-0.21087622830250177,3.0107333262327587,0.5878438456550714
1782664655676020224,2.3921899795532227,-1.1761655807495117,-0.2848438620567322,-0.030617978423833847,0.13022680580615997,0.1978314220905304,0.9715473055839539,0.17475062608718872,-0.07060359418392181,0.05398082733154297,-0.09217753068166752,0.2944535213600288,-0.9481934314113789,0.07569522389662803,-0.1991451263144589,3.0083462506940153,0.588868278886582
1782664655685939200,2.402108907699585,-1.131313681602478,-0.22272910177707672,0.03883114084601402,0.13286997377872467,0.18645188212394714,0.9734378457069397,0.18405507504940033,-0.017277702689170837,0.05399739742279053,-0.09174431394422927,0.29512618423298687,-0.94848271642866,0.06974274623131012,-0.18754944750884117,3.005935400587525,0.5905420595906242
1782664655695859200,2.4120290279388428,-1.0373237133026123,-0.05629477649927139,0.031192926689982414,0.1347922682762146,0.17562930285930634,0.975184977054596,0.1494484692811966,0.04038938879966736,0.04573500156402588,-0.09102588320679203,0.29549990423025124,-0.9488267996302492,0.06420193231427336,-0.17654497540275546,3.0042407086021803,0.5916576171366307
1782664655705779200,2.4219489097595215,-0.8508707284927368,0.04949796199798584,-0.08891643583774567,0.1350322663784027,0.16644372045993805,0.9767614006996155,0.1703266203403473,0.04009923338890076,0.07397407293319702,-0.08975381344986393,0.2959780597149965,-0.9490930921125261,0.05969561969759952,-0.16722197402785732,3.004218510120776,0.5930608383873149
1782664655715699200,2.4318690299987793,-0.7097794413566589,0.12346550822257996,0.061320867389440536,0.13421989977359772,0.15934708714485168,0.9780560731887817,0.22889350354671478,-0.035186320543289185,0.12278926372528076,-0.08829245894797838,0.29641431645600597,-0.9492979396428385,0.056359963566667226,-0.1600292594961438,3.0052132195199,0.5943540232135096
1782664655725619200,2.441788911819458,-0.8017274737358093,0.31233981251716614,-0.014908656477928162,0.13250093162059784,0.151401087641716,0.9795515537261963,0.23009364306926727,-0.06627233326435089,0.2325913906097412,-0.08625060720419216,0.29664179963816184,-0.9496206698933599,0.052773715801987926,-0.15198555239032152,3.0071417745695,0.5952973635299142
1782664655735538176,2.4517080783843994,-0.8151530027389526,0.3213737905025482,0.0059392014518380165,0.12980008125305176,0.143462672829628,0.981106698513031,0.29588961601257324,-0.09699967503547668,0.273989737033844,-0.08373543810040908,0.2968150964919887,-0.94997585958112,0.049345878195232784,-0.14395939855578888,3.0100568689485856,0.5961713761187445
1782664655745458176,2.461627960205078,-0.5683826804161072,0.46641701459884644,-0.051497992128133774,0.1265268325805664,0.1369446963071823,0.9824649691581726,0.2884054183959961,-0.14226999878883362,0.2823362350463867,-0.08116579957313583,0.2970044158678019,-0.9502740925224585,0.04668731596256625,-0.13737638861102555,3.0135125554908644,0.597030222047047
1782664655755378176,2.471548080444336,-0.6300932765007019,0.5662481784820557,0.03771863505244255,0.12213288992643356,0.13064025342464447,0.9838781952857971,0.28408655524253845,-0.06724001467227936,0.35208964347839355,-0.07808731677822324,0.297111161153609,-0.950612459315691,0.04430776803450746,-0.13101474622711606,3.0180902728017536,0.5977433063387934
1782664655765298176,2.4814679622650146,-0.5914984941482544,0.44892337918281555,-0.0026413036976009607,0.11740731447935104,0.12448495626449585,0.98525071144104,0.31481313705444336,-0.05485910922288895,0.3913208842277527,-0.07487658684887552,0.29724437749753335,-0.9509317137479009,0.042049113205833974,-0.12480873604790767,3.0229870365809903,0.5984997918561499
1782664655775218176,2.4913880825042725,-0.36803480982780457,0.6309676170349121,-0.06713054329156876,0.1125849112868309,0.11961497366428375,0.9864159226417542,0.2631474733352661,-0.15448133647441864,0.4166752099990845,-0.07182425443016872,0.2975158906027967,-0.9511531155955041,0.0404126616956127,-0.11990206118128147,3.027949090970425,0.5994784823371921
1782664655785138176,2.501307964324951,-0.5068286061286926,0.6688529253005981,0.04529506340622902,0.10704302042722702,0.11499688774347305,0.9875818490982056,0.19047287106513977,-0.14015860855579376,0.512265682220459,-0.06845432502625964,0.29749222873468767,-0.9514669160998699,0.03902796048132259,-0.11525186470807226,3.0336251307456967,0.5998392497622539
1782664655795057152,2.5112268924713135,-0.5761396884918213,0.8537725210189819,-0.02460063248872757,0.10082873702049255,0.10899373888969421,0.9889156222343445,0.11050549894571304,-0.14532490074634552,0.5493687391281128,-0.06455681352019688,0.2975274279733202,-0.9518063109463248,0.03707629027276105,-0.10921070234490773,3.039984887858747,0.600379522982197
1782664655804977152,2.5211470127105713,-0.7077651023864746,1.0659774541854858,-0.014407915063202381,0.09360143542289734,0.10138852149248123,0.9904339909553528,0.09052639454603195,-0.29993584752082825,0.535643458366394,-0.05993721696310657,0.29763075041333453,-0.9521727425694791,0.0345053986587969,-0.10156303246191398,3.0473670338257772,0.6011241117255315
1782664655814897152,2.53106689453125,-1.206022024154663,1.2144341468811035,0.0062638078816235065,0.08709311485290527,0.08878712356090546,0.9922359585762024,0.19249370694160461,-0.39582446217536926,0.610227108001709,-0.054905482315467026,0.2974686208402287,-0.9526963787761619,0.029454194452217086,-0.08890419451952665,3.054042435256734,0.6013967194141278
1782664655824817152,2.540987014770508,-1.576385259628296,1.2836494445800781,-0.03676115721464157,0.07582439482212067,0.07421144098043442,0.9943559169769287,0.23769794404506683,-0.3191607594490051,0.6251052618026733,-0.047316590432416886,0.2976813623438322,-0.9531861143656766,0.024151057157883033,-0.07427972614395759,3.06548515941903,0.602578630725864
1782664655834737152,2.5509068965911865,-1.5908454656600952,1.1550763845443726,-0.0331314355134964,0.0643281564116478,0.057982802391052246,0.9962432980537415,0.2550840973854065,-0.04144224897027016,0.612857460975647,-0.03938546476977462,0.29805171399300834,-0.9535653228886009,0.018092620163749996,-0.05801533993760794,3.0771114427907227,0.604017750896833
1782664655844657152,2.5608270168304443,-1.2825238704681396,1.24453866481781,-0.09041815996170044,0.05236928164958954,0.043602265417575836,0.997675359249115,0.18119700253009796,0.14563722908496857,0.544942319393158,-0.03152010583346403,0.2985667483991486,-0.9537796336440402,0.012990713352989137,-0.04361609429125769,3.0891494825156025,0.6056008987636153
1782664655854576128,2.5707459449768066,-0.8608940243721008,1.3408242464065552,-0.03402146324515343,0.03990284726023674,0.03282115235924721,0.998664140701294,0.18467599153518677,0.1572423130273819,0.5499653816223145,-0.023953269635193713,0.29888033526133057,-0.9539405687866355,0.009698103637367688,-0.03282704702044547,3.1016576737915464,0.6065918984993106
1782664655864496128,2.5806660652160645,-0.41583505272865295,1.4200183153152466,-0.04434574022889137,0.02662685327231884,0.026451565325260162,0.9992956519126892,0.1748044192790985,0.019584206864237785,0.5673701763153076,-0.01666276654332344,0.29905163780535926,-0.9540523836263504,0.008639730487066448,-0.026454651780979613,3.114953336337557,0.6071553713488366
1782664655874416128,2.590585947036743,-0.5078609585762024,1.714431643486023,-0.010562409646809101,0.011294495314359665,0.022103633731603622,0.9996921420097351,0.15679633617401123,-0.15712864696979523,0.6807891130447388,-0.00869563693464734,0.2991462137596072,-0.9541266192642641,0.00885684340790201,-0.02210543410693526,3.130295160904101,0.6075189971675202
1782664655884336128,2.600506067276001,-0.7325209975242615,1.779065489768982,-0.004070156253874302,-0.006069107912480831,0.015842100605368614,0.9998559355735779,0.1778830736875534,-0.23842206597328186,0.7321842908859253,0.0005258462676012607,0.2991595670305955,-0.9541653503970146,0.008466417226532982,-0.015842762764767784,-3.1355227456036636,0.6076941489242471
1782664655894256128,2.6104259490966797,-0.6968788504600525,1.9270355701446533,0.15703564882278442,-0.02427569217979908,0.008288038894534111,0.9996708035469055,0.24447527527809143,-0.25308477878570557,0.6632318496704102,0.010345397271926411,0.2988457400161079,-0.954215192522695,0.007582878037563584,-0.008288133935365637,-3.117313739442118,0.6071179134037562
1782664655904175360,2.620345115661621,-0.5547515153884888,1.9759482145309448,0.07422944158315659,-0.04354890435934067,0.002164743607863784,0.9990487694740295,0.17878755927085876,-0.12811078131198883,0.5390369892120361,0.020466321900162093,0.29807466678901023,-0.9542933909892853,0.007526892631740536,-0.0021647453154468193,-3.0980298630207153,0.6055456717843927
1782664655914095104,2.6302649974823,-0.1500357985496521,2.0553715229034424,0.26381146907806396,-0.06334398686885834,-0.0013176288921386003,0.9979909062385559,0.29460617899894714,0.05335009843111038,0.43671679496765137,0.030451224776679463,0.2971349306232004,-0.9543093185038024,0.00879097366578043,0.0013176293281350186,-3.078206175205839,0.6036523933129667
1782664655924015360,2.6401851177215576,0.24151864647865295,2.057143211364746,0.24013754725456238,-0.08324946463108063,-0.0010360389715060592,0.9965283274650574,0.26467645168304443,0.13021694123744965,0.3762744665145874,0.03994676734691112,0.2957990871560729,-0.9543411700123616,0.011838740874716775,0.0010360391817473647,-3.05824669251328,0.6010789366388192
1782664655933935104,2.6501049995422363,0.5352747440338135,2.2910587787628174,0.28694385290145874,-0.10471560060977936,0.0035155026707798243,0.9944961667060852,0.22731995582580566,0.10112927109003067,0.3530229330062866,0.04957993983248921,0.2944558955483354,-0.9542241961774478,0.017141523939480322,-0.0035155098768462315,-3.036684095958945,0.5988065876768934
1782664655943855360,2.660025119781494,0.7027673125267029,2.33699107170105,0.2880123257637024,-0.12718330323696136,0.009663966484367847,0.9918320178985596,0.25613534450531006,0.04395541921257973,0.3934827446937561,0.05949232748095997,0.2929865078764754,-0.9539784732484486,0.023336409579878238,-0.009664116645614179,-3.0140579483903287,0.596570364302382
1782664655953775104,2.669945001602173,0.7066922783851624,2.189401388168335,0.19642888009548187,-0.14963068068027496,0.017035387456417084,0.9885952472686768,0.27958977222442627,-0.11885728687047958,0.41481661796569824,0.06924947651891186,0.29166978999722337,-0.953533619492059,0.030115009148159063,-0.017036210865781977,-2.9913759580773656,0.5949726793926519
1782664655963694080,2.679863929748535,0.5931657552719116,2.173068046569824,0.24654264748096466,-0.17075270414352417,0.02389339916408062,0.9850242733955383,0.26866835355758667,-0.22367672622203827,0.39443135261535645,0.0784744354364907,0.29056368117713044,-0.9529348789891378,0.03646473725259825,-0.023895672304024198,-2.969949634580066,0.5939747529430263
1782664655973614336,2.689784049987793,0.3830462098121643,2.218994379043579,0.20212452113628387,-0.19221681356430054,0.02855180762708187,0.9809369444847107,0.20547673106193542,-0.19694779813289642,0.38628095388412476,0.08822886747552526,0.2893228999048763,-0.9522398562106096,0.04179885473831118,-0.02855568795463753,-2.9480921597640046,0.592712701141515
1782664655983534080,2.6997039318084717,0.3748897612094879,2.129220724105835,0.135243758559227,-0.21292486786842346,0.03268175944685936,0.9765220284461975,0.2738379240036011,-0.22175341844558716,0.2618051767349243,0.09772265652171098,0.28831631994733614,-0.9513856732177686,0.04679061098290818,-0.032687581135220224,-2.926908713448331,0.5920257186808247
1782664655993454336,2.7096240520477295,0.41101840138435364,1.9879119396209717,0.2461290955543518,-0.23268388211727142,0.03669876232743263,0.9718597531318665,0.2589290142059326,-0.13632339239120483,0.16025078296661377,0.1068256266011531,0.28701752930081764,-0.9505529069872133,0.05155968494267197,-0.036707004625022834,-2.90659497164527,0.5908194162761633
1782664656003374080,2.719543933868408,0.4562212824821472,1.7866883277893066,0.273050457239151,-0.2507203221321106,0.04151245206594467,0.9671691656112671,0.2607910931110382,-0.04436584189534187,0.07018446922302246,0.11502306578536775,0.28555562406990465,-0.9497592237771013,0.056437155522690984,-0.04152438358734444,-2.8879449478847263,0.5894218194117636
1782664656013294336,2.729464054107666,0.3698914647102356,1.7456655502319336,0.45359349250793457,-0.26728355884552,0.04654966667294502,0.9624928832054138,0.2676650583744049,0.01430237665772438,0.035996437072753906,0.1225496827887944,0.283427725917434,-0.9491655133728327,0.061115591093783735,-0.04656649458649348,-2.8707186918394885,0.586703940469336
1782664656023213056,2.7393829822540283,0.6166338324546814,1.463513970375061,0.4691769778728485,-0.2825535833835602,0.051957469433546066,0.9578434824943542,0.2751530408859253,0.049940723925828934,-0.026355385780334473,0.1294351702359015,0.28125184659196717,-0.9485879709943449,0.06576365901447102,-0.05198087611215246,-2.854739133587414,0.5839853901013864
1782664656033133312,2.749303102493286,0.9802502989768982,1.3121238946914673,0.6194974184036255,-0.2957141399383545,0.061469417065382004,0.9532970190048218,0.27601495385169983,0.013039253652095795,-0.14075100421905518,0.13476753348770643,0.2787450190945765,-0.948129590149112,0.07203707935777123,-0.06150819188401772,-2.8408031948658126,0.5812002871084635
1782664656043053056,2.759222984313965,0.7036554217338562,1.1108214855194092,0.7156165242195129,-0.30652356147766113,0.07115351408720016,0.9491997361183167,0.20973709225654602,-0.003221385180950165,-0.04731392860412598,0.13901197992262956,0.27561675621236564,-0.9479637478819943,0.07794684966287842,-0.07121369032361494,-2.82923558389764,0.5771089395052407
1782664656052973312,2.7691431045532227,0.5428224802017212,0.9702468514442444,0.7080348134040833,-0.31572604179382324,0.07961341738700867,0.9455042481422424,0.15862160921096802,-0.22225259244441986,-0.17965060472488403,0.14269428504266998,0.2723040863138323,-0.9479465298061792,0.08298247287109808,-0.07969776359973003,-2.819311100423847,0.5724118538090261
1782664656062893056,2.7790629863739014,-0.13290934264659882,0.8246409296989441,0.5749145746231079,-0.3233868479728699,0.08363208919763565,0.9425639510154724,0.08141294121742249,-0.24062976241111755,-0.17352092266082764,0.14626227870235303,0.2689252063908708,-0.9481356533688579,0.08558865602148623,-0.08372988542971968,-2.811084496497473,0.5667259760375993
1782664656072812032,2.7889819145202637,-0.7076753377914429,0.5641201138496399,0.32068249583244324,-0.3292328715324402,0.08108337223529816,0.9407607316970825,-0.10329267382621765,-0.14690980315208435,-0.21529710292816162,0.14976533505861608,0.2662633648114266,-0.9484113953237074,0.0847930638916061,-0.08117248316293085,-2.80494943875176,0.5612028470022388
1782664656082732288,2.7989020347595215,-0.9385135769844055,0.428396075963974,0.326084703207016,-0.3336239755153656,0.07450207322835922,0.9397574663162231,-0.13018208742141724,-0.03476819396018982,-0.28134095668792725,0.15305304314926646,0.2638880950571241,-0.9488107344531909,0.08182866325318021,-0.0745711702477504,-2.80046094949282,0.5553883763240715
1782664656092652032,2.8088219165802,-1.2703138589859009,0.5084558129310608,0.5313059687614441,-0.33769652247428894,0.06556937098503113,0.9389684200286865,-0.20116758346557617,0.18162301182746887,-0.2708165645599365,0.15653306605788456,0.26089465003542706,-0.9494304486013051,0.07754472620984804,-0.06561644473455933,-2.7963502098021094,0.5477878424119164
1782664656102572288,2.818742036819458,-1.4206756353378296,0.4461865723133087,0.2539880573749542,-0.3417128324508667,0.053792018443346024,0.9382637143135071,-0.2514267861843109,0.2952680289745331,-0.2874153256416321,0.16033459630687374,0.2579339341686312,-0.950053659108148,0.07183988145034635,-0.05381799383239789,-2.7923265905545684,0.5397050765463556
1782664656112492032,2.8286619186401367,-1.2910552024841309,0.4367530643939972,0.24147139489650726,-0.3456519544124603,0.04262722656130791,0.9373939633369446,-0.14664232730865479,0.1947537511587143,-0.32371610403060913,0.16396987699502566,0.2552829674313031,-0.9505406835034145,0.06645936560963077,-0.04264014817167401,-2.7883239880306294,0.5323618164842832
1782664656122412288,2.8385820388793945,-1.2583105564117432,0.2697795033454895,0.08153899013996124,-0.3487869203090668,0.030828697606921196,0.9366945624351501,-0.08978110551834106,0.32279375195503235,-0.24330496788024902,0.16721185133741,0.2533792292699899,-0.9508660579534968,0.06076813649438836,-0.03083358216099816,-2.785139149550365,0.5263960385715749
1782664656132331008,2.848500967025757,-0.6727693676948547,0.301052451133728,0.1128152534365654,-0.35115841031074524,0.021796124055981636,0.9360625147819519,-0.07201367616653442,0.3404017388820648,-0.3873562812805176,0.1696598322034725,0.2520896292314666,-0.9510426198607606,0.05643022225771735,-0.021797850592948885,-2.7826955715710717,0.5221702257847652
1782664656142251264,2.8584210872650146,-0.6234934329986572,0.30360057950019836,0.05078436806797981,-0.35395553708076477,0.016403451561927795,0.9351184964179993,-0.12118789553642273,0.2828366756439209,-0.354933500289917,0.1718301551993407,0.25110914981888693,-0.9510538522122608,0.05399257829447471,-0.016404186495534885,-2.7797446963975956,0.5192838500613818
1782664656152171008,2.8683409690856934,-0.47368019819259644,0.4275657832622528,-0.059053145349025726,-0.35722237825393677,0.010963247157633305,0.9339552521705627,-0.04309198260307312,0.13962574303150177,-0.3104046583175659,0.1742163602397215,0.25062300317599506,-0.9508762942565426,0.05168311715189913,-0.010963466643787148,-2.7762773923905852,0.5174444423555608
1782664656162091264,2.878261089324951,-0.2448432743549347,0.34444159269332886,-0.1301203966140747,-0.3604636490345001,0.00722767598927021,0.9327454566955566,0.10855627059936523,-0.010203143581748009,-0.26355576515197754,0.17634270676574257,0.25066876390931886,-0.9505461041929951,0.050305236280188556,-0.0072277390041025555,-2.7728177180620786,0.5170285447093428
1782664656172011264,2.88818097114563,-0.3880392611026764,0.08935117721557617,-0.01335992757230997,-0.36231911182403564,0.003898519789800048,0.9320460557937622,0.23831090331077576,0.02350626513361931,-0.23638248443603516,0.17770923812131462,0.25081638225730696,-0.9503231931051824,0.04895350172178864,-0.0038985296165940245,-2.7708348793883615,0.5168177181730164
1782664656181931264,2.8981010913848877,-0.20218469202518463,0.1527770310640335,0.12131106853485107,-0.36356011033058167,0.0011603462044149637,0.9315699934959412,0.31663936376571655,0.08474663645029068,-0.30319786071777344,0.17873628568674882,0.25000576811826936,-0.9504115470521288,0.04762702600926095,-0.0011603464148456585,-2.769505689868577,0.5146640258729344
1782664656191850240,2.90802001953125,0.12424241751432419,0.10127399861812592,0.13342538475990295,-0.36413246393203735,0.001473208423703909,0.9313459992408752,0.28249794244766235,0.11562274396419525,-0.36597740650177,0.1790067196818877,0.2496149169237773,-0.9504553667145362,0.047786938006299434,-0.0014732089823948642,-2.7688910915657288,0.5139314006984769
1782664656201769984,2.9179399013519287,0.1939847469329834,-0.18944385647773743,0.10795118659734726,-0.363613098859787,0.0034216702915728092,0.9315436482429504,0.3758354187011719,0.18104183673858643,-0.3147377371788025,0.1785150068193919,0.24914234022230938,-0.9506313328431306,0.048585061415635136,-0.0034216769288074695,-2.769446761778763,0.5132765732192672
1782664656211690240,2.9278600215911865,0.6750530004501343,-0.30262666940689087,0.21154022216796875,-0.36083734035491943,0.008114427328109741,0.9325932264328003,0.4476599097251892,0.13656941056251526,-0.3854285478591919,0.1765158129474063,0.24882990493930313,-0.9509891054604904,0.050452341107306946,-0.008114516614355222,-2.772414261524807,0.5133480593380244
1782664656221609984,2.9377799034118652,0.8283669352531433,-0.3906518816947937,0.1526489406824112,-0.35743650794029236,0.01580982282757759,0.9338034391403198,0.31112614274024963,0.09397716820240021,-0.34109121561050415,0.17380758724555898,0.24872242379704487,-0.9513353104739313,0.0537505076212662,-0.015810481650242198,-2.7760231286853427,0.5143658291724924
1782664656231530240,2.947700023651123,0.6541736125946045,-0.3968016803264618,0.15580366551876068,-0.3536238670349121,0.02339988760650158,0.9350950121879578,0.3298048973083496,0.12276405096054077,-0.288732647895813,0.17090039188356468,0.2487768777263211,-0.9516604257284202,0.05696991124490118,-0.023402024167804878,-2.780046645200995,0.5156605332133621
1782664656241449216,2.9576189517974854,0.8193849325180054,-0.5857508182525635,0.021032001823186874,-0.34921473264694214,0.03027348406612873,0.9365534782409668,0.277788370847702,0.02000422403216362,-0.34146082401275635,0.16775746023943772,0.24931111112648838,-0.9519037236908202,0.05983855285197921,-0.030278111037715157,-2.7846887688343904,0.5177703103487127
1782664656251369216,2.967539072036743,0.5076030492782593,-0.5280652642250061,0.14260686933994293,-0.343464732170105,0.037040166556835175,0.9384348392486572,0.28882303833961487,-0.12837928533554077,-0.293537437915802,0.16396362781639362,0.24968651223637614,-0.9522993604556234,0.062437917673553806,-0.037048640334323014,-2.790737927408639,0.5194103321988129
1782664656261289216,2.977458953857422,0.1873113363981247,-0.6646646857261658,0.11894547939300537,-0.33761364221572876,0.04010660946369171,0.9404301643371582,0.28872445225715637,-0.05928691104054451,-0.26954686641693115,0.16063109657898844,0.24951966361477235,-0.9528667391754411,0.0631084287965125,-0.040117371128179244,-2.7969233634334647,0.5192067156985591
1782664656271209216,2.9873790740966797,0.1184740737080574,-0.6884557604789734,-0.17794591188430786,-0.33070436120033264,0.04130956903100014,0.9428300857543945,0.29435786604881287,0.0007131397724151611,-0.31596827507019043,0.15696455565670478,0.2500069960185728,-0.9533685205239688,0.06282672487891548,-0.04132132743948008,-2.804243485252629,0.5199593262334693
1782664656281129216,2.9972989559173584,0.1853545755147934,-0.8358068466186523,-0.07782623916864395,-0.3226751387119293,0.04211884364485741,0.9455722570419312,0.3360571265220642,0.040354907512664795,-0.31892430782318115,0.1527586046594151,0.2510109699065326,-0.9538236851583475,0.06227933742489043,-0.042131306297823856,-2.8127354164618,0.5216484516235913
1782664656291049216,3.007219076156616,0.11531157046556473,-0.8637305498123169,-0.04182322695851326,-0.3140363097190857,0.04300861805677414,0.9484365582466125,0.3105419874191284,0.02089519426226616,-0.2535511255264282,0.1482629311647404,0.25176182310997663,-0.9543763740943133,0.06164366195837584,-0.04302188765610172,-2.8218449166469877,0.5227814382368192
1782664656300968192,3.0171380043029785,0.013702926225960255,-0.8812277913093567,-0.034812457859516144,-0.3049508333206177,0.04293777048587799,0.9513999223709106,0.3174019157886505,-0.08641006052494049,-0.20704543590545654,0.1436945010668395,0.25223954507817237,-0.9550262740702541,0.06043218051542118,-0.04295097390014351,-2.831410352859458,0.5231590007330378
1782664656310887936,3.0270578861236572,-0.10792770236730576,-0.9448367357254028,-0.13022689521312714,-0.2949768304824829,0.04171489551663399,0.9545935988426208,0.27373650670051575,-0.10606120526790619,-0.17805838584899902,0.13881877482508345,0.2530806040673769,-0.9556395861231661,0.058588810935150316,-0.041727003014010305,-2.841892502696328,0.5240719360426119
1782664656320808192,3.036978006362915,-0.4025217890739441,-0.9037140607833862,-0.04592745751142502,-0.2837776243686676,0.0382169708609581,0.9581282734870911,0.2603553831577301,-0.1521848738193512,-0.14709317684173584,0.13366276736528943,0.25352685694481214,-0.9564456514788501,0.0554088843384703,-0.03822627935795524,-2.8536449023409363,0.5237684119394779
1782664656330727936,3.0468978881835938,-0.658598780632019,-0.9102476239204407,0.04083796218037605,-0.2719014585018158,0.03120936080813408,0.9618186950683594,0.23697412014007568,-0.19273890554904938,-0.1842309832572937,0.12865353626361078,0.2536604080408776,-0.9573744037758619,0.050386754182212154,-0.03121442914499902,-2.8660865187060303,0.5223335349244481
1782664656340648192,3.0568180084228516,-0.600918710231781,-0.9472178816795349,-0.08122776448726654,-0.2597912847995758,0.023641010746359825,0.9653753638267517,0.2218121588230133,-0.06863917410373688,-0.2925848960876465,0.12362285200515784,0.2536234450803999,-0.9583124975724471,0.04505227549767625,-0.023643212778284368,-2.8787113980486905,0.5205749707357453
1782664656350567936,3.0667378902435303,-0.5144361853599548,-0.9946619868278503,-0.10388852655887604,-0.2494867444038391,0.01746850088238716,0.9682207107543945,0.2223718911409378,0.03048987127840519,-0.32407093048095703,0.11930224697670998,0.2539565460080851,-0.9589663295279665,0.04070198938871518,-0.017469390127412627,-2.889403141487313,0.5199756924056
1782664656360487168,3.0766570568084717,-0.33162716031074524,-1.0293992757797241,-0.13164612650871277,-0.23945891857147217,0.012839135713875294,0.9708214402198792,0.21145910024642944,0.011559669859707355,-0.350994348526001,0.11492447903040792,0.25446951489135566,-0.9595082012331506,0.03716940039219063,-0.01283948893378115,-2.8997637673679275,0.5200407307586276
1782664656370407168,3.0865769386291504,-0.11689077317714691,-1.0562477111816406,-0.11027206480503082,-0.22889207303524017,0.010267224162817001,0.973397433757782,0.19335439801216125,-0.030988655984401703,-0.3192533850669861,0.1100225454982551,0.25512413460232497,-0.9600054132491724,0.03458628303236499,-0.010267404853174312,-2.9106408235005947,0.5206889125189068
1782664656380327168,3.096497058868408,-0.19202680885791779,-1.2007068395614624,-0.13227376341819763,-0.21766364574432373,0.008428102359175682,0.975987434387207,0.16247260570526123,-0.06697607040405273,-0.22331714630126953,0.1047120414311611,0.255804827318497,-0.9604986314058995,0.03227479522629479,-0.008428201716538986,-2.922164656869974,0.5214952470499014
1782664656390247168,3.106416940689087,-0.2808390259742737,-1.1830497980117798,-0.17667654156684875,-0.2058553248643875,0.005920464172959328,0.9785646796226501,0.12113848328590393,-0.11660771816968918,-0.22366642951965332,0.09921410623675958,0.2565580690739241,-0.9609684099850313,0.029568517758322244,-0.00592049853745252,-2.934251318843499,0.5224033432308736
1782664656400167168,3.1163370609283447,-0.3881564438343048,-1.1282984018325806,-0.16244035959243774,-0.19466663897037506,0.0020871616434305906,0.9808670282363892,0.10462456941604614,-0.15229468047618866,-0.18217647075653076,0.09420301776002411,0.2574066355756285,-0.9613403833708769,0.026309164889948042,-0.002087163112949564,-2.9456746032854486,0.5234471574474675
1782664656410086144,3.126255989074707,-0.6366009712219238,-1.1018643379211426,-0.13070739805698395,-0.18371282517910004,-0.003294918453320861,0.9829745888710022,0.16666874289512634,-0.1017618477344513,-0.11165189743041992,0.08952831747750933,0.25799393890361577,-0.9617309549941002,0.02230385109242971,0.003294924478437894,-2.956829430183978,0.5238734738731682
1782664656420006400,3.136176109313965,-0.7011645436286926,-1.0995683670043945,-0.23151895403862,-0.1727135181427002,-0.010382493957877159,0.9849172234535217,0.17863397300243378,-0.03345600143074989,-0.12233805656433105,0.08506436511484813,0.2586616963505132,-0.9620565191687004,0.01747469696577042,0.010382680227571774,-2.9679992458820346,0.5244006494983724
1782664656429926144,3.1460959911346436,-0.7692000865936279,-1.0437757968902588,-0.2565256655216217,-0.1618901789188385,-0.018201708793640137,0.986640989780426,0.1916905790567398,-0.0029164589941501617,-0.13970184326171875,0.08079148063665277,0.25962346522353313,-0.9622453752801171,0.012340417393189099,0.01820271438991499,-2.978959687578411,0.5255860853714811
1782664656439846400,3.1560161113739014,-0.7135328054428101,-0.9904844164848328,-0.3044106364250183,-0.15158361196517944,-0.02598518133163452,0.9881031513214111,0.18332183361053467,0.020720886066555977,-0.18465125560760498,0.07678021708866155,0.26079511781935955,-0.9623084123536549,0.007306716632651443,0.025988106975643233,-2.989370702188874,0.5273239361593314
1782664656449766144,3.16593599319458,-0.5660267472267151,-0.9525752663612366,-0.27427777647972107,-0.14204850792884827,-0.03295145928859711,0.9893109202384949,0.21231524646282196,0.1309434175491333,-0.2165297269821167,0.07305370853628759,0.2618769208818599,-0.9623283945878287,0.002759297717702209,0.032957425439260266,-2.9989840552095752,0.5290349212452452
1782664656459686400,3.175856113433838,-0.26641395688056946,-0.9350298047065735,-0.3686647415161133,-0.13265739381313324,-0.03724027797579765,0.9904623627662659,0.18488821387290955,0.17638516426086426,-0.23968398571014404,0.06905605440496976,0.2632658143369988,-0.9622485616382108,-0.00045730496284522413,0.037248891965368826,-3.008450193811968,0.5316343331039408
1782664656469605120,3.1857750415802,-0.12442798167467117,-0.8647235631942749,-0.366644024848938,-0.12352690100669861,-0.039914321154356,0.9915381073951721,0.1752084195613861,0.1424686461687088,-0.14198988676071167,0.0649830784770549,0.2649454171619119,-0.9620670308849023,-0.0028482342653824376,0.039924928113538545,-3.0176501403238833,0.5349832250092182
1782664656479525120,3.195694923400879,0.06202125549316406,-0.7970632910728455,-0.425626665353775,-0.11498569697141647,-0.04058850556612015,0.9925376772880554,0.13321995735168457,0.07902538776397705,-0.10783302783966064,0.06093934755293523,0.26680594086313436,-0.9618125753476285,-0.004195486772723787,0.04059965649466506,-3.0262565939313397,0.5388463264319947
1782664656489445120,3.2056150436401367,0.08248364925384521,-0.6735904216766357,-0.3664083480834961,-0.10725006461143494,-0.04058719426393509,0.9934033751487732,0.12441618740558624,0.09460330009460449,0.028325200080871582,0.05720271815764901,0.2687257963391761,-0.9615030635900278,-0.005118808756377418,0.04059834420072289,-3.0340469576431963,0.542876907451607
1782664656499365120,3.2155349254608154,0.15363718569278717,-0.46582868695259094,-0.34825196862220764,-0.10104382783174515,-0.039627064019441605,0.9940926432609558,0.09213268011808395,0.028915390372276306,0.10695123672485352,0.0540802174229806,0.27050505491496823,-0.9611833029875833,-0.005393933940648779,0.039637441275368744,-3.040296268307297,0.546657529991649
1782664656509285120,3.2254550457000732,0.037486884742975235,-0.28397247195243835,-0.2580859959125519,-0.09676292538642883,-0.03893483802676201,0.9945457577705383,0.15668419003486633,-0.11723886430263519,0.25315022468566895,0.05192536921465823,0.2719796342280839,-0.9608849870958448,-0.005562347442868383,0.038944681897750945,-3.0446043291305327,0.5497813608403851
1782664656519204608,3.2353744506835938,-0.12328974157571793,-0.05803975835442543,-0.2098207175731659,-0.09495335817337036,-0.039786819368600845,0.9946863651275635,0.23736363649368286,-0.20551347732543945,0.3564794659614563,0.05117500238459626,0.2730802558953327,-0.9606093630827425,-0.006161220813310194,0.03979732280901782,-3.046420445495007,0.5520473504510133
1782664656529123840,3.245293617248535,-0.11504387110471725,0.037357255816459656,-0.04982602596282959,-0.09470663964748383,-0.04119759052991867,0.9946525692939758,0.32853227853775024,-0.15422174334526062,0.345023512840271,0.05125381725389345,0.2736461283890362,-0.9604395294323601,-0.006844143587821811,0.041209252025575314,-3.0466630464004107,0.5531682077434937
1782664656539043584,3.255213499069214,0.23930968344211578,0.11611917614936829,0.049798835068941116,-0.09540645033121109,-0.04082817956805229,0.9946005344390869,0.3192223906517029,-0.035282645374536514,0.316892147064209,0.05154086630476135,0.2736560886568522,-0.9604231490173847,-0.006569623448491705,0.04083953217904115,-3.045960870257303,0.5531994780643441
1782664656548963840,3.2651336193084717,1.023421049118042,0.06552524864673615,0.1683807671070099,-0.09599577635526657,-0.034653667360544205,0.9947782754898071,0.25906646251678467,0.041199691593647,0.2998383641242981,0.05097401524991625,0.27333657038803416,-0.9605603827510564,-0.0035331160235133447,0.03466060712194319,-3.0453908561812666,0.5527947007348095
1782664656558883584,3.2750535011291504,1.116512417793274,0.22946864366531372,0.21880772709846497,-0.09726802259683609,-0.023479722440242767,0.9949811100959778,0.11789790540933609,-0.017444346100091934,0.5470109581947327,0.05005439106384167,0.27267428062929694,-0.9608013738593805,0.0019865540369189737,0.023481880375753394,-3.044143636515687,0.5519105566815149
1782664656568803584,3.284973382949829,0.7380620837211609,0.5106433033943176,0.1952972412109375,-0.10056545585393906,-0.013998648151755333,0.9948322176933289,-0.0036673471331596375,-0.3751462399959564,0.726862907409668,0.050353918553987645,0.2719147745351529,-0.9609778744186918,0.0069644166389877735,0.01399910546573089,-3.0408470317340033,0.5507902892206717
1782664656578722816,3.2948925495147705,0.10649291425943375,0.7492987513542175,0.09597545117139816,-0.10626942664384842,-0.009938054718077183,0.9942878484725952,0.042304567992687225,-0.5943862795829773,0.7634637355804443,0.05256097757588713,0.27132266591740334,-0.9610036119470472,0.009669013780899993,0.00993821837923103,-3.035116924663271,0.5498112995285644
1782664656588642560,3.304812431335449,-0.35530713200569153,0.7760280966758728,0.041643936187028885,-0.11095241457223892,-0.012370693497359753,0.9937487840652466,0.18234828114509583,-0.4899181127548218,0.6994885206222534,0.05515880997833268,0.27099254518307864,-0.9609565264693798,0.009118289189637009,0.01237100914120429,-3.0304027900982806,0.5490416216594937
1782664656598562816,3.314732551574707,-0.5634142756462097,0.6690865159034729,0.0766325443983078,-0.11747221648693085,-0.017292004078626633,0.9929255843162537,0.25237518548965454,-0.25577929615974426,0.6538486480712891,0.058985201651749614,0.27057628979525183,-0.9608596475904652,0.007611928477376076,0.01729286607582999,-3.0238308738584463,0.5479606545259071
1782664656608482560,3.3246524333953857,-0.4269024431705475,0.7083960175514221,0.15156753361225128,-0.12385932356119156,-0.022208187729120255,0.9920512437820435,0.19086065888404846,-0.12728217244148254,0.576170802116394,0.06274966157368478,0.2699201664003635,-0.9608166906940317,0.006071194600442938,0.02221001390966195,-3.0173836415354227,0.5463565994522752
1782664656618402816,3.3345725536346436,-0.17505554854869843,0.8457480072975159,0.10872393101453781,-0.13138146698474884,-0.02539266273379326,0.9910067915916443,0.12648336589336395,-0.020154830068349838,0.5474913120269775,0.06683086134910132,0.2691433648274981,-0.9607628519259572,0.005506823719607756,0.025395392074983973,-3.009787532719464,0.5445918028919023
1782664656628322560,3.3444924354553223,0.31301388144493103,0.9579593539237976,0.09850306063890457,-0.14008118212223053,-0.024509958922863007,0.9898369312286377,0.13100218772888184,0.03937201201915741,0.5126352310180664,0.07093342314109925,0.26866022101157677,-0.9605936436890259,0.007081047495974354,0.024512414520687604,-3.0010067777364187,0.5437006713271352
1782664656638241792,3.3544116020202637,0.8194621801376343,1.0476210117340088,0.08723122626543045,-0.14965137839317322,-0.018947672098875046,0.9885571002960205,0.1373528242111206,0.09499748051166534,0.5186143517494202,0.07482869702704445,0.26838319234727814,-0.9603379717711121,0.011047078074842263,0.018948806000496407,-2.991349784438381,0.5436033560924072
1782664656648161536,3.3643314838409424,1.261610507965088,1.280970573425293,0.11565248668193817,-0.16092926263809204,-0.008571048267185688,0.9869285821914673,0.12218719720840454,0.06356372684240341,0.49970459938049316,0.07890911044262347,0.2681577380943437,-0.9599769436949609,0.01757809358541027,0.008571152976208186,-2.979954535494144,0.544094609054542
1782664656658081792,3.3742516040802,1.4449185132980347,1.4820573329925537,0.043030209839344025,-0.17431659996509552,0.0049109673127532005,0.9846773147583008,0.1461641490459442,-0.061307452619075775,0.5283230543136597,0.08359953964978038,0.2682074433099525,-0.9593765871674665,0.02593090426025338,-0.004910987020361231,-2.9663788010646774,0.5456405869033929
1782664656668001536,3.384171485900879,1.253507375717163,1.6143234968185425,0.05446425825357437,-0.1894378513097763,0.018348952755331993,0.9817214012145996,0.22483821213245392,-0.24646785855293274,0.6130205392837524,0.08914935346748423,0.2682881229260684,-0.9585834266571511,0.03452197115137502,-0.01834998318823851,-2.9509705926982615,0.5475488073836897
1782664656677921792,3.3940916061401367,0.9595977663993835,1.6105958223342896,0.0450715571641922,-0.20498520135879517,0.029181990772485733,0.9783297777175903,0.27928027510643005,-0.34592393040657043,0.6459071040153503,0.09527410526835753,0.2683022919862001,-0.9576945126440798,0.04192699804387697,-0.029186133725174666,-2.935054809627927,0.5493286236472064
1782664656687841536,3.4040114879608154,0.5208431482315063,1.5425516366958618,0.08143479377031326,-0.22016920149326324,0.03649035096168518,0.9747790694236755,0.30421459674835205,-0.3643864691257477,0.6443158388137817,0.10172873729420422,0.26798082692936087,-0.9568572534521459,0.04755832428549519,-0.036498455776549636,-2.919454334467292,0.5502063218516481
1782664656697760512,3.4139304161071777,0.19172805547714233,1.5113561153411865,0.13300450146198273,-0.23489663004875183,0.040059223771095276,0.9711944460868835,0.2791013717651367,-0.35901370644569397,0.6075407862663269,0.10850153232256092,0.26731674553938384,-0.9561061480062447,0.051284984002344776,-0.04006994585755175,-2.9042862620456233,0.5500325174792721
1782664656707680768,3.4238505363464355,-0.08566480129957199,1.453681468963623,0.11480360478162766,-0.24907056987285614,0.04075834900140762,0.9676270484924316,0.21270892024040222,-0.285021036863327,0.5601894855499268,0.11542716747474044,0.26634199220664984,-0.9554451745560092,0.053506238258253194,-0.04076964419143301,-2.889658238907423,0.5488846532754451
1782664656717600512,3.4337704181671143,-0.13826756179332733,1.481479287147522,0.03986091539263725,-0.2629767954349518,0.039772775024175644,0.9639819860458374,0.14293593168258667,-0.17524030804634094,0.4501414895057678,0.1224602090944806,0.26551166987147434,-0.9547222391941704,0.05488612197271366,-0.03978326670934694,-2.875270507513966,0.5478283757620178
1782664656727520768,3.443690538406372,-0.10601934045553207,1.5079790353775024,0.027666833251714706,-0.277147501707077,0.0387495756149292,0.9600456953048706,0.11364954710006714,-0.0711439847946167,0.3609992265701294,0.12964005408948562,0.2648568155682655,-0.953873012955749,0.05630816539910119,-0.03875927880426823,-2.8605518151752127,0.5471669275025081
1782664656737440512,3.453610420227051,-0.12083690613508224,1.6077892780303955,0.06833863258361816,-0.29186132550239563,0.037721093744039536,0.9557164907455444,0.09989053010940552,-0.050858914852142334,0.3395867943763733,0.13711687998067865,0.26413976748964607,-0.9529367412011126,0.057798765549976684,-0.03773004415271083,-2.8452029894549478,0.5464262345338922
1782664656747360768,3.4635305404663086,-0.13542011380195618,1.5739350318908691,0.09950587153434753,-0.3068782687187195,0.0366935171186924,0.9510415196418762,0.10286819934844971,-0.0797843337059021,0.30945682525634766,0.14478504997244643,0.26319554878600143,-0.9519710415505216,0.059301740911301484,-0.036701757861283386,-2.8294641820210793,0.5452482302945793
1782664656757279744,3.473449468612671,-0.14279040694236755,1.532633900642395,0.1782797873020172,-0.32140591740608215,0.03571796789765358,0.9462680220603943,0.10552448034286499,-0.09957600384950638,0.2752135992050171,0.1522463634003971,0.26201396682643624,-0.9510429484493738,0.060722449826361324,-0.0357255672558115,-2.814162238779242,0.5435675331112054
1782664656767199744,3.4833695888519287,-0.06485293805599213,1.427363634109497,0.24882693588733673,-0.3351922035217285,0.035382576286792755,0.9414850473403931,0.0717034637928009,-0.09437305480241776,0.19874310493469238,0.15930390129520544,0.26047416969627707,-0.950208258565897,0.06228722980641478,-0.03538996438706907,-2.7995604880810068,0.5412143814879612
1782664656777119744,3.4932894706726074,-0.028554849326610565,1.282050609588623,0.31902840733528137,-0.3475985825061798,0.036051664501428604,0.9369499087333679,0.05517923831939697,-0.052866846323013306,0.11930906772613525,0.16558323815123105,0.25863619273028327,-0.9495168634653393,0.06408696040816445,-0.036059476777419316,-2.786342674391959,0.5383448078556075
1782664656787039744,3.5032095909118652,0.08852909505367279,1.3758563995361328,0.3721660375595093,-0.35970041155815125,0.037440892308950424,0.9323164820671082,0.012089937925338745,0.038395289331674576,0.05128037929534912,0.17165987749836092,0.2565470552955253,-0.9488634568133777,0.0661415317745423,-0.03744964587881398,-2.7733754199970955,0.5350935038740326
