time,seconds_elapsed,rotationRateX,rotationRateY,rotationRateZ,gravityX,gravityY,gravityZ,accelerationX,accelerationY,accelerationZ,quaternionW,quaternionX,quaternionY,quaternionZ,pitch,roll,yaw
1782665009170894080,0.1716752052307129,0.12175622582435608,0.4413371682167053,-1.2365975379943848,0.09777089208364487,0.7410122752189636,-0.6643354892730713,-0.03833789378404617,-0.14642304182052612,0.1457808017730713,0.6218400429698472,-0.2376530794896409,0.3336963875498702,-0.6674448819951992,-0.8345766382498623,0.14612201857104304,-1.5766390458258754
1782665009180814080,0.1815950870513916,0.03708234801888466,0.4887174665927887,-1.2890336513519287,0.09073962271213531,0.741988480091095,-0.6642435789108276,-0.016383543610572815,-0.11421138048171997,0.10302531719207764,0.616797216708935,-0.2383501269037513,0.33326781928396615,-0.6720736983661488,-0.83603153645597,0.1357655996038857,-1.5961381713616958
1782665009190733056,0.1915140151977539,0.09271006286144257,0.5193244218826294,-1.3241044282913208,0.08386161178350449,0.7428589463233948,-0.6641745567321777,0.01876901090145111,-0.08865362405776978,0.032277584075927734,0.6115648136867006,-0.23888585578370014,0.3329358395907694,-0.6768129479696501,-0.8373308959977058,0.12559975959698222,-1.6160496942294944
1782665009200653056,0.20143413543701172,0.2539096176624298,0.5384570956230164,-1.3491040468215942,0.07743333280086517,0.7426119446754456,-0.6652305126190186,0.043584100902080536,-0.027447760105133057,-0.018882036209106445,0.6064222615557572,-0.23873054226556376,0.3322536119878815,-0.6818118769779027,-0.8369620203423876,0.11587927689629204,-1.6361227098144313
1782665009210573056,0.21135401725769043,0.5350814461708069,0.5928271412849426,-1.3573471307754517,0.07179512828588486,0.7405484318733215,-0.6681568026542664,0.054349273443222046,0.013861358165740967,-0.05344653129577637,0.601536228738889,-0.23746546943556784,0.3309558000904078,-0.6871918709544538,-0.8338861143506189,0.10704180120054944,-1.6560853556003547
1782665009220493056,0.22127413749694824,0.805320680141449,0.6642872095108032,-1.366670846939087,0.06725066155195236,0.736265242099762,-0.6733430624008179,0.04476410895586014,0.006868302822113037,-0.02618086338043213,0.5969597804839601,-0.2348072327929903,0.3289286318152776,-0.693044377053139,-0.8275345029093903,0.09954566364681243,-1.6757481967274728
1782665009230412032,0.23119306564331055,1.1480164527893066,0.7301295399665833,-1.3504213094711304,0.06379929929971695,0.7298080921173096,-0.6806685924530029,0.02761610597372055,-0.010371506214141846,0.015232861042022705,0.5926450800849893,-0.23080009200687582,0.3261855550593648,-0.6993611439026356,-0.8180411865844789,0.09345728739133975,-1.695081743630207
1782665009240332032,0.24111318588256836,1.6218189001083374,0.7678899765014648,-1.3215487003326416,0.06102027744054794,0.7206529974937439,-0.6906054019927979,0.018386464565992355,0.0029187798500061035,0.02812981605529785,0.5886928571025012,-0.22545158332389648,0.3222869743389341,-0.7062177098385313,-0.8047437524903993,0.08812879629335764,-1.7142917517220164
1782665009250252032,0.25103306770324707,2.0936777591705322,0.7946450114250183,-1.2789585590362549,0.05878834426403046,0.7080092430114746,-0.7037520408630371,-0.007289964705705643,0.06696939468383789,0.04873800277709961,0.5852456087983717,-0.21857767119670424,0.31677717076266293,-0.7136972221063526,-0.7866752176984184,0.08334209029417851,-1.7333339006970034
1782665009260171008,0.2609519958496094,2.391608476638794,0.9035219550132751,-1.299290418624878,0.05712929740548134,0.6929959654808044,-0.71867436170578,-0.046326085925102234,0.09550189971923828,0.11334294080734253,0.5818994736288838,-0.21064406831665974,0.3103093659917932,-0.7216163660957191,-0.765636445820253,0.07932580149612088,-1.7523930287460294
1782665009270091008,0.2708721160888672,2.474740982055664,0.9971281886100769,-1.3266345262527466,0.05574219673871994,0.6769824624061584,-0.7338852882385254,-0.08073610067367554,-0.017909586429595947,0.1473679542541504,0.5781646802153794,-0.2022765606816473,0.303548262168134,-0.729841292119592,-0.7436549096667636,0.07580935361861764,-1.7721104046625253
1782665009280011008,0.2807919979095459,2.5430428981781006,1.0587178468704224,-1.3846511840820312,0.0542752780020237,0.6602848172187805,-0.749051570892334,-0.07522562146186829,-0.13159829378128052,0.15417242050170898,0.573999325046371,-0.19378094723569683,0.296518403299469,-0.7382754909640796,-0.721197924832463,0.07233225752741923,-1.7925836309906147
1782665009289929984,0.2907111644744873,2.8894591331481934,1.0747734308242798,-1.4549059867858887,0.05277998000383377,0.6414483785629272,-0.7653483748435974,-0.05265790969133377,-0.14961189031600952,0.09052854776382446,0.56960198758009,-0.184629814418623,0.2885093246867759,-0.7471463652249523,-0.6963847727985927,0.06885301929160664,-1.8138495438087212
1782665009299849984,0.300631046295166,3.6418709754943848,1.0166685581207275,-1.523546576499939,0.05113067477941513,0.617534339427948,-0.7848802804946899,-0.000227365642786026,-0.0859944224357605,-0.03950631618499756,0.565355343713971,-0.1739210954682109,0.27804912345227645,-0.7568444719588727,-0.6656040096242898,0.06505263510709422,-1.8359557662059953
1782665009309769984,0.31055116653442383,4.534117221832275,0.8859984874725342,-1.619492530822754,0.04890348017215729,0.5859944820404053,-0.8088379502296448,0.058838825672864914,-0.010890722274780273,-0.12783801555633545,0.5614969057778273,-0.16115210055969778,0.26383899686932755,-0.7675546238706444,-0.6261068089997325,0.060387893391855955,-1.858876490590409
1782665009319688960,0.32047009468078613,5.316579341888428,0.7065911293029785,-1.7837004661560059,0.04564951732754707,0.5461592674255371,-0.8364365696907043,0.08450794219970703,0.02282571792602539,-0.14964735507965088,0.4786223273222261,-0.12170762834589077,0.2587836097785749,-0.8301439770641479,-0.5777724146510784,0.05452209508083249,-2.079383252293211
1782665009329609216,0.33039021492004395,5.7932634353637695,0.4345175623893738,-2.002603054046631,0.04075329005718231,0.49929916858673096,-0.8654707074165344,0.078829824924469,0.002119898796081543,-0.16182726621627808,0.45717125007312304,-0.10377832951207382,0.23768615013971656,-0.8507231698624698,-0.5227897127208135,0.04705324995387355,-2.142780454507237
1782665009339528960,0.34031009674072266,5.784267425537109,-0.4984130561351776,-2.0669283866882324,0.028556592762470245,0.4477590322494507,-0.8936981558799744,0.030327083542943,-0.08105981349945068,-0.31261593103408813,0.44094259158862853,-0.09117898213819456,0.21174826689120577,-0.8674206623983847,-0.4642575244217434,0.03194241892191193,-2.193450158377023
1782665009349447936,0.35022902488708496,4.7340168952941895,1.0248520374298096,-2.2406842708587646,0.030471118167042732,0.3992798328399658,-0.916322648525238,0.13536140322685242,-0.2815430164337158,-0.6966687440872192,0.42974998382709145,-0.07555716253583958,0.19007842020493354,-0.8794750400371119,-0.4107312120895541,0.03324145230796969,-2.2256250341023676
1782665009359368192,0.3601491451263428,5.925352096557617,-0.7997328639030457,-2.7601029872894287,0.020148474723100662,0.3452870547771454,-0.9382808208465576,0.19202497601509094,-0.5734822750091553,0.007052183151245117,0.41963185591537244,-0.0654964674307628,0.16300245825549214,-0.8905333160726784,-0.3525446268220908,0.021470522330615353,-2.257058511778604
1782665009369287936,0.3700690269470215,6.155820846557617,-0.103489950299263,-1.8989113569259644,0.009409205056726933,0.27830544114112854,-0.9604465365409851,0.12952205538749695,-0.5334476232528687,0.09118384122848511,0.41071651611375054,-0.05398174484750991,0.12985646257311467,-0.900852529339829,-0.2820293894050485,0.00979638495133909,-2.2846701788455777
1782665009379207168,0.3799881935119629,6.410454273223877,-0.09044446051120758,-1.5932971239089966,0.006036470178514719,0.20870937407016754,-0.9779590964317322,0.04250174015760422,-0.29986536502838135,0.18361705541610718,0.40617848013749774,-0.04008864452255214,0.09702248594212583,-0.9077436078407964,-0.2102550831495048,0.006172439750063739,-2.29946282768064
1782665009389126912,0.3899080753326416,7.446479320526123,-0.24203070998191833,-1.9170820713043213,0.002012238372117281,0.13721473515033722,-0.9905393123626709,-0.09965323656797409,-0.19277198612689972,0.0822293758392334,0.40084994770870785,-0.026708445179165246,0.06337994237882101,-0.9135585129181149,-0.13764899614686793,0.0020314545028420118,-2.314486476311337
1782665009399047168,0.3998281955718994,8.434184074401855,-0.4613422751426697,-1.8465352058410645,-0.003235759912058711,0.05533888190984726,-0.9984623789787292,-0.008589801378548145,-0.14223769307136536,0.07936447858810425,0.39443201427235874,-0.01240928812789686,0.0247954871140958,-0.9185066697747811,-0.05536716549759533,-0.003240731634837007,-2.3304527619861415
1782665009408966144,0.4097471237182617,9.046256065368652,-0.48828667402267456,-1.6879788637161255,-0.008170734159648418,-0.034411992877721786,-0.9993743300437927,0.0835033729672432,-0.14843407273292542,0.18072503805160522,0.3881659385560949,0.002915354915896282,-0.01744520071640326,-0.9214198393225035,0.03441878635281722,-0.008175666911929943,-2.3440390160354077
1782665009418885888,0.41966700553894043,9.369321823120117,-0.5506693720817566,-1.6539913415908813,-0.011856741271913052,-0.12810754776000977,-0.9916893839836121,0.037934016436338425,-0.20335912704467773,0.28774040937423706,0.3818835803550165,0.01907462313781272,-0.061574799758100256,-0.9219597289044195,0.12846056258896676,-0.011955533902771572,-2.355434190769174
1782665009428806144,0.42958712577819824,9.404301643371582,-0.6365393996238708,-1.7035605907440186,-0.014817211776971817,-0.22189836204051971,-0.9749572277069092,0.007157300598919392,-0.2767283320426941,0.3605926036834717,0.3750651819462252,0.035236839883961514,-0.10620620494009121,-0.9202199661935987,0.2237609414084282,-0.015196637445134243,-2.365834276597009
1782665009438725120,0.43950605392456055,9.211526870727539,-0.6463843584060669,-1.834578275680542,-0.016132717952132225,-0.31286758184432983,-0.9496597051620483,-0.017024630680680275,-0.3511948883533478,0.3701614737510681,0.36459960297078364,0.05091597789194481,-0.15025876665452592,-0.9175494567804018,0.31821069900774296,-0.016986258792760573,-2.382406014525826
1782665009448645120,0.44942617416381836,8.943685531616211,-0.7545158267021179,-1.9155961275100708,-0.015838168561458588,-0.3988562226295471,-0.9168766736984253,-0.04814193397760391,-0.3538598418235779,0.3818730115890503,0.35840801384267523,0.06704873526666219,-0.19252563113845594,-0.9110335154821494,0.41026921169507813,-0.017272325873024824,-2.3883771496803976
1782665009458565120,0.45934605598449707,8.844181060791016,-0.7004008889198303,-2.0620617866516113,-0.013793460093438625,-0.4792804718017578,-0.877553403377533,-0.0352482907474041,-0.3081951141357422,0.35820525884628296,0.34936680183822344,0.08254316263498312,-0.23325936430979424,-0.9037253467549594,0.49983471551709713,-0.01571679176942231,-2.3998035141299043
1782665009468484096,0.4692652225494385,9.324689865112305,-0.7132555246353149,-2.1595771312713623,-0.009047613479197025,-0.5585276484489441,-0.8294366002082825,-0.09124839305877686,-0.2605946660041809,0.25076228380203247,0.338834101567695,0.09902295640736374,-0.2747292574412374,-0.8943767972553704,0.5926097288349786,-0.010907710650762443,-2.4139802839597904
1782665009478404096,0.4791851043701172,9.274292945861816,-0.966916024684906,-2.178698778152466,-0.0032019256614148617,-0.6340272426605225,-0.7733041048049927,-0.076754130423069,-0.09995102882385254,0.2750588655471802,0.32659215645358614,0.11517509488839463,-0.3163584126139348,-0.8831702154283513,0.686749928468044,-0.004140553928811146,-2.431712619230107
1782665009488323840,0.4891049861907959,9.419261932373047,-1.1463093757629395,-2.232253074645996,0.002736202906817198,-0.7042853236198425,-0.7099117636680603,-0.044804684817790985,-0.004698991775512695,0.3584408164024353,0.31314699037606786,0.13037241195171922,-0.3578367790556492,-0.8699970350233812,0.7814159480028205,0.0038542668717114984,-2.452174714450494
1782665009498243072,0.4990241527557373,9.810969352722168,-1.3594090938568115,-2.0752463340759277,0.009628182277083397,-0.7701243758201599,-0.6378211379051208,-0.06301866471767426,-0.026735365390777588,0.3501777648925781,0.2982838682348267,0.1452793627494744,-0.39997915721796196,-0.8543637499820311,0.8790360921362551,0.015094279097723212,-2.476891264534934
1782665009508163072,0.508944034576416,9.206135749816895,-1.4673817157745361,-1.9140268564224243,0.016746260225772858,-0.8273265361785889,-0.5614717602729797,-0.08266419917345047,0.14124548435211182,0.5300538539886475,0.2830465253948978,0.15894554873414793,-0.44045480788876634,-0.837030881035455,0.9743314287807211,0.029816809955720006,-2.50522093208103
1782665009518083072,0.5188641548156738,8.71022891998291,-1.4505319595336914,-2.1554229259490967,0.02598986215889454,-0.8741670846939087,-0.4849293828010559,-0.1445964276790619,0.3269869089126587,0.6670735478401184,0.2674528328777071,0.171783848669783,-0.4775202814144876,-0.8191054268133426,1.0637179726696044,0.05354391878275757,-2.5418948528324976
1782665009528002048,0.5287830829620361,8.175084114074707,-1.2726765871047974,-2.168407440185547,0.03907499462366104,-0.9116886854171753,-0.40901926159858704,-0.44013702869415283,0.11638540029525757,0.47730234265327454,0.251273258984319,0.18479271252643525,-0.5112162142943284,-0.8008565914991331,1.1473754060033148,0.09524433325664863,-2.595108248341314
1782665009537922048,0.538703203201294,7.426046848297119,-1.2013405561447144,-2.1234066486358643,0.05416329205036163,-0.940105140209198,-0.3365541696548462,-0.4627631604671478,-0.005390465259552002,0.4115968942642212,0.2351508720899463,0.1971283107959506,-0.5411685045894744,-0.7829311336919781,1.2229385780110142,0.15956664208140145,-2.670037019836527
1782665009547842048,0.5486230850219727,6.9604620933532715,-1.3957780599594116,-2.0655040740966797,0.0700153261423111,-0.9607563018798828,-0.2684125602245331,-0.3349078893661499,-0.05579948425292969,0.29513072967529297,0.21928920978828811,0.20835969537134397,-0.5677851314780421,-0.7655838392005814,1.2897159436371448,0.255163751683021,-2.7760298819727836
1782665009557761024,0.558542013168335,6.561858654022217,-1.5533745288848877,-2.0218844413757324,0.08581984788179398,-0.9753727316856384,-0.20318222045898438,-0.23726332187652588,-0.021392405033111572,0.13624191284179688,0.2028890471879646,0.21787108346307746,-0.5924028043236913,-0.7486168538562994,1.3484048144172611,0.39964832462465105,-2.9331737753509497
1782665009567681024,0.5684621334075928,6.069732666015625,-1.6369174718856812,-1.9481545686721802,0.10224276781082153,-0.984617292881012,-0.14168652892112732,-0.28008395433425903,0.07208073139190674,-0.008032724261283875,0.1864460198692481,0.22636481257844185,-0.6147484888087712,-0.7321755962836738,1.395170127228999,0.6250841731436676,3.111298030279626
1782665009577601024,0.5783820152282715,5.74126672744751,-1.5961631536483765,-1.8404594659805298,0.11854387819766998,-0.9893908500671387,-0.08398383110761642,-0.3580763339996338,0.10033750534057617,-0.049759507179260254,0.17020094527495397,0.23367789685480428,-0.6351399265630873,-0.7162566822552834,1.425002079130586,0.9544137430258276,2.768001384361398
1782665009587520000,0.5883011817932129,5.0068769454956055,-1.5516538619995117,-1.93538498878479,0.13588279485702515,-0.990219235420227,-0.03164733946323395,-0.44739100337028503,0.0706789493560791,-0.08335816860198975,0.15447374851376156,0.24065497610613984,-0.6528870590386058,-0.7013996260608222,1.430819507500599,1.3419737330012442,2.36738079130924
1782665009597440000,0.5982210636138916,4.355151653289795,-1.467952847480774,-1.9111305475234985,0.15445248782634735,-0.987909197807312,0.013404189608991146,-0.46345824003219604,0.019021987915039062,-0.042502760887145996,0.13952622794188196,0.24747435821743005,-0.6674268025116421,-0.6883532767186452,1.4151347507368772,1.6573646256270207,2.040328046184834
1782665009607360000,0.6081411838531494,3.827644109725952,-1.399097204208374,-1.7921189069747925,0.17277085781097412,-0.983569860458374,0.052351146936416626,-0.4198259115219116,-0.04644417762756348,-0.08257877826690674,0.12545063107035723,0.253600658933499,-0.679604502629061,-0.6768209521352974,1.3892731532447742,1.8650115155843836,1.8215762896870968
1782665009617280000,0.6180610656738281,3.4858312606811523,-1.3512674570083618,-1.6642969846725464,0.1901998072862625,-0.9779177904129028,0.08660762757062912,-0.4119710326194763,0.022030949592590332,-0.08030569553375244,0.11252337385662833,0.2592314317706878,-0.6900020855488377,-0.6663592789048612,1.3602542749003619,1.9980910125081561,1.6785276349846732
1782665009627198976,0.6279799938201904,3.491358757019043,-1.3456292152404785,-1.5295089483261108,0.20671817660331726,-0.9711692929267883,0.11873577535152435,-0.4366985857486725,0.14357823133468628,-0.020392760634422302,0.1000678817976196,0.2642050086454396,-0.6996882163824782,-0.656215448335877,1.3300877664129764,2.092168117152055,1.5743451275459726
1782665009637118976,0.6379001140594482,3.596529722213745,-1.3523752689361572,-1.4545172452926636,0.2224549651145935,-0.9631696939468384,0.1510564386844635,-0.451016366481781,0.19713270664215088,0.012990713119506836,0.08780294059896127,0.26878074061435664,-0.7094259165230922,-0.6455714251693473,1.29855141117203,2.167318123955592,1.4889297240322794
1782665009647038976,0.647819995880127,3.5321364402770996,-1.3975107669830322,-1.4825196266174316,0.2383880615234375,-0.9537388682365417,0.1831761598587036,-0.4621581435203552,0.1933322548866272,0.06650342047214508,0.07542677498427726,0.27327743880801697,-0.7189628119682943,-0.6346044563702549,1.2654366442279836,2.22596658008655,1.419899119617061
1782665009656958208,0.6577391624450684,3.2281370162963867,-1.3918064832687378,-1.483245611190796,0.2548031210899353,-0.943313717842102,0.21268340945243835,-0.47578099370002747,0.18100005388259888,0.08510704338550568,0.06295272443683929,0.2774570496696574,-0.7275708133248945,-0.6242556486876404,1.2324767525039855,2.2663388420396804,1.3686248612614507
1782665009666877952,0.6676590442657471,2.8107717037200928,-1.3841007947921753,-1.4336133003234863,0.2712193727493286,-0.9325706362724304,0.238226518034935,-0.494302898645401,0.16375666856765747,0.04146704077720642,0.050952469599855964,0.2813581441891938,-0.7348134816707824,-0.615053277836541,1.201469780945567,2.2915225615859725,1.3328307182989398
1782665009676798208,0.6775791645050049,2.754930257797241,-1.344162106513977,-1.3758383989334106,0.287173330783844,-0.9216469526290894,0.2609565854072571,-0.4798155725002289,0.13765043020248413,0.0010368525981903076,0.03953658319003815,0.28501294546179134,-0.7411112667788134,-0.6065958714621464,1.1723036983275652,2.308401448955188,1.3058240365847047
1782665009686716928,0.6874980926513672,2.6378085613250732,-1.3280084133148193,-1.2968289852142334,0.302713543176651,-0.9101749658584595,0.28274768590927124,-0.4210759401321411,0.03529691696166992,-0.10270914435386658,0.028347911105659943,0.28843342888605594,-0.7471144529122097,-0.5981827874188063,1.1437063000885501,2.322104916169141,1.2820086918362372
1782665009696637184,0.697418212890625,2.4334683418273926,-1.3169898986816406,-1.1925973892211914,0.31735074520111084,-0.8988125920295715,0.30236518383026123,-0.37144312262535095,0.0035945773124694824,-0.017514079809188843,0.017808517088513724,0.29148638508765895,-0.7524747674366098,-0.5903391952154871,1.1170529966426284,2.332017832518002,1.2623452157035508
1782665009706556928,0.7073380947113037,2.2843403816223145,-1.1819562911987305,-1.1051136255264282,0.33116278052330017,-0.887590765953064,0.3201774060726166,-0.39175549149513245,-0.013867795467376709,0.01498192548751831,0.007886809580401314,0.2942780190879985,-0.7572906673126355,-0.5829656979230665,1.0920883120493237,2.3393303211671617,1.2457531809520521
1782665009716475904,0.717257022857666,2.216531276702881,-1.0576077699661255,-1.0574967861175537,0.3438190221786499,-0.8764506578445435,0.33707958459854126,-0.4071125090122223,0.04155081510543823,0.0007195174694061279,-0.001205468833690316,0.29700175129562023,-0.7617937681384217,-0.5757245382593712,1.0684404874587257,2.346296924572226,1.2305954256649327
1782665009726396160,0.7271771430969238,2.1419334411621094,-0.9503766894340515,-1.0895304679870605,0.3564072549343109,-0.8649486899375916,0.3533240258693695,-0.4196396470069885,0.1013224720954895,-0.020972341299057007,-0.009912883678102566,0.30008576399583975,-0.7659050464603948,-0.5685418182733243,1.045048073099586,2.3518502603821285,1.217972376777869
1782665009736315904,0.7370970249176025,2.031764268875122,-0.8467925190925598,-0.8576101660728455,0.36769774556159973,-0.8537349104881287,0.3686937093734741,-0.37341979146003723,0.09973710775375366,-0.06869065761566162,-0.017789088998591752,0.3030113117952828,-0.7697603511234763,-0.5615484854843465,1.0231164560468498,2.3575469619184832,1.2061487229208399
1782665009746235136,0.747016191482544,2.0752668380737305,-0.8464459776878357,-0.6136927604675293,0.3765757083892822,-0.8432199358940125,0.3836285471916199,-0.23665261268615723,-0.004329502582550049,-0.0624004602432251,-0.025922386313379918,0.30333614009351295,-0.7744685010491735,-0.5545392167915655,1.0032451607764488,2.365471772082992,1.1876862715951613
1782665009756155136,0.7569360733032227,2.0644843578338623,-0.8077728748321533,-0.6308174133300781,0.38450315594673157,-0.832592248916626,0.3986823558807373,-0.1636321246623993,-0.1323125958442688,-0.09680241346359253,-0.03387492386461976,0.3030435594995873,-0.779426575293216,-0.5472763286907328,0.983771508559929,2.374297041604234,1.1676326869095022
1782665009766075136,0.7668561935424805,1.457842469215393,-0.769295334815979,-0.6412684917449951,0.3927372694015503,-0.82264244556427,0.4111172556877136,-0.17479586601257324,-0.0937090516090393,-0.10305741429328918,-0.04133240753006604,0.30309581799256197,-0.7833846751070045,-0.5410482414375815,0.9660431248069966,2.379055316204732,1.1527921003244432
1782665009775994112,0.7767751216888428,0.5423711538314819,-0.7318403720855713,-0.6274834275245667,0.4008241891860962,-0.815744936466217,0.4170133173465729,-0.10770288109779358,0.0033060312271118164,-0.10982337594032288,-0.047416342784153485,0.3034196862569979,-0.7851389415266101,-0.5378150417945083,0.9540159710964629,2.375986974683253,1.1478984147304783
1782665009785913856,0.7866950035095215,-0.00738551514223218,-0.7275041937828064,-0.622660756111145,0.4087330102920532,-0.8119091391563416,0.4168225824832916,-0.06740909814834595,0.002109825611114502,-0.12280088663101196,-0.05231363362855375,0.3038516630061655,-0.7849111102049612,-0.5374495971735332,0.947415022054359,2.365993099872433,1.1515462128919334
1782665009795834112,0.7966151237487793,-0.4674769639968872,-0.7072525024414062,-0.6269756555557251,0.4165036976337433,-0.8101337552070618,0.4125630557537079,-0.01733371615409851,-0.03976565599441528,-0.13505131006240845,-0.0563406567617495,0.3044768800375792,-0.783310509137216,-0.5390216290986826,0.9443802408919959,2.3514414027332013,1.1611381339577576
1782665009805753088,0.8065340518951416,-0.7566424608230591,-0.5315185189247131,-0.605434775352478,0.42387446761131287,-0.809907853603363,0.4054378867149353,0.031829267740249634,-0.09715086221694946,-0.08240926265716553,-0.05947936711049467,0.305365972358041,-0.7806859542468271,-0.5419809253781456,0.9439949817520151,2.333966955959562,1.1752336766336202
1782665009815673088,0.8164541721343994,-0.7089489698410034,-0.5322410464286804,-0.7019572854042053,0.4310532212257385,-0.8098329305648804,0.39794957637786865,0.06974023580551147,-0.14310896396636963,-0.12596166133880615,-0.062172591032584754,0.3066651503357799,-0.7777732792289962,-0.5451236662735367,0.9438672420808726,2.31628380812131,1.1908166866188896
1782665009825593088,0.8263740539550781,-0.6268522143363953,-0.5750753879547119,-0.8201392292976379,0.4388684332370758,-0.8090049028396606,0.3910311758518219,0.06972217559814453,-0.0902564525604248,-0.1911258101463318,-0.0650645517811507,0.30845775716328355,-0.7748350805789554,-0.5479515948885453,0.9424572285778131,2.298615986586895,1.2069065251841167
1782665009835512064,0.8362932205200195,-0.6024762988090515,-0.6106626987457275,-0.6675419807434082,0.4468766748905182,-0.8079394698143005,0.38410329818725586,0.03159317374229431,-0.04064756631851196,-0.2594693899154663,-0.0682883323161365,0.3100000912160732,-0.7719790076784273,-0.5507133202055728,0.9406469019050596,2.280796295876958,1.2222923372952386
1782665009845432064,0.8462131023406982,-0.31772753596305847,-0.7123717665672302,-0.7324074506759644,0.45485571026802063,-0.806462824344635,0.37778815627098083,-0.023245662450790405,-0.08004224300384521,-0.260173499584198,-0.07195494493587734,0.31107626626143947,-0.7694970056012858,-0.5531079002764993,0.9381452368100948,2.2638998258157943,1.2354198585252698
1782665009855352064,0.856133222579956,0.049845416098833084,-0.7147137522697449,-0.5945858955383301,0.4629055857658386,-0.803659200668335,0.3739657402038574,-0.05703705549240112,-0.11290574073791504,-0.2632937431335449,-0.07638011252714484,0.3117684311790596,-0.7679735130674182,-0.554241137515687,0.9334189415518787,2.250315316773669,1.2436375025655755
1782665009865271040,0.8660521507263184,0.49958348274230957,-0.8382222056388855,-0.5092305541038513,0.469679057598114,-0.8000731468200684,0.37320834398269653,0.012834340333938599,-0.08568429946899414,-0.1794370412826538,-0.08107575647516573,0.31158049376121594,-0.7678032122821825,-0.5539156442752912,0.9274171838301136,2.2422376803850432,1.2446773829500835
1782665009875191040,0.8759720325469971,0.49210718274116516,-0.8900566101074219,-0.4954545795917511,0.47669222950935364,-0.7957374453544617,0.3735858201980591,0.029640138149261475,-0.10784220695495605,-0.12630191445350647,-0.08651706885484013,0.3108620264103916,-0.7682172240196935,-0.5529212086885786,0.9202242404124479,2.2355216649843883,1.242485466700854
1782665009885111040,0.8858921527862549,0.43045806884765625,-0.7989505529403687,-0.32690903544425964,0.4829195737838745,-0.7918643951416016,0.37381711602211,0.0005245804786682129,-0.1265162229537964,-0.061607152223587036,-0.09151103292867935,0.30999418359639735,-0.7686430714847098,-0.5520118547639601,0.9138558873692056,2.229529743194868,1.2399636982277422
1782665009895030016,0.8958110809326172,0.18218275904655457,-0.9108238220214844,-0.286124587059021,0.4881717562675476,-0.7892003059387207,0.3726278841495514,0.06839266419410706,-0.19589197635650635,-0.027443498373031616,-0.09590732637669225,0.30872442963548996,-0.768767303268817,-0.5518042775139738,0.9095057565324156,2.2227634951481257,1.238392520706056
1782665009904950016,0.905731201171875,-0.32771873474121094,-0.8818635940551758,-0.1395288109779358,0.4930144250392914,-0.7882575988769531,0.36822083592414856,0.16219794750213623,-0.2683371901512146,0.00888475775718689,-0.09978643718718114,0.3071239508177429,-0.7679748067609852,-0.5531113654017323,0.9079722236709951,2.2122953369548513,1.2406468354270404
1782665009914870016,0.9156510829925537,-0.4997035264968872,-0.8263590335845947,-0.030658790841698647,0.49647387862205505,-0.7893607020378113,0.3611416518688202,0.16851937770843506,-0.29968953132629395,0.11249110102653503,-0.10247117811489301,0.3053262781977488,-0.7663854686198422,-0.5558136530508967,0.9097670188031123,2.199684480551008,1.2463790166031685
1782665009924788992,0.925570011138916,-0.5736700296401978,-0.7888234853744507,-0.032508157193660736,0.49936360120773315,-0.7909574508666992,0.35358431935310364,0.1997787058353424,-0.30741578340530396,0.11659994721412659,-0.10466207108147263,0.3036118909533535,-0.7645992259069577,-0.5587965140832141,0.9123722343185205,2.1869177858775375,1.2531052997474659
1782665009934708992,0.9354901313781738,-0.8264529705047607,-0.8011221885681152,0.04980695620179176,0.5018988847732544,-0.7933511137962341,0.34451615810394287,0.25382310152053833,-0.2935475707054138,0.14579448103904724,-0.10658886942837281,0.30167694212734725,-0.7623969417392105,-0.5624772746450674,0.9162941765457979,2.172353594129164,1.2616381741291611
1782665009944628992,0.9454100131988525,-0.9640671610832214,-0.7584559917449951,0.09846621006727219,0.5038535594940186,-0.7965515851974487,0.33412209153175354,0.2780068516731262,-0.2744324207305908,0.15252652764320374,-0.10791119650627486,0.29981699826025415,-0.7597175888675888,-0.5668282758935569,0.9215697078003734,2.156348779629811,1.2725825220426288
1782665009954548224,0.955329179763794,-1.0655287504196167,-0.7001815438270569,0.2444809377193451,0.504568338394165,-0.8007134199142456,0.32290706038475037,0.38631606101989746,-0.2425605058670044,0.14392030239105225,-0.10855493426452884,0.2976041080763801,-0.7568918818662046,-0.5716313290976931,0.9284852224405651,2.140086039012664,1.2842093411715025
1782665009964467968,0.9652490615844727,-1.2200003862380981,-0.6338728070259094,0.20338819921016693,0.5047091245651245,-0.8053364753723145,0.31096896529197693,0.4156857132911682,-0.26248878240585327,0.1241200864315033,-0.10867784258700094,0.2954827739505281,-0.7537734456309099,-0.5768054920585445,0.936242819460605,2.1229954003481812,1.2975611780586724
1782665009974388224,0.9751691818237305,-1.2907252311706543,-0.6143297553062439,0.3213649094104767,0.5044639706611633,-0.8103369474411011,0.29811105132102966,0.41968458890914917,-0.3065453767776489,0.14822375774383545,-0.1084279892289442,0.29340223866276366,-0.7503137037649628,-0.5823983850482037,0.944726920432832,2.104531987962993,1.3128892965988563
1782665009984307968,0.9850890636444092,-1.297729253768921,-0.505332350730896,0.4064088463783264,0.5027866959571838,-0.8158857226371765,0.2855447828769684,0.4265955686569214,-0.3637712001800537,0.13199672102928162,-0.10740745111479301,0.29110828711290854,-0.7470129520185956,-0.5879550627937007,0.9542593246295079,2.0872967536565974,1.3277917800394035
1782665009994226944,0.9950079917907715,-1.6179804801940918,-0.42826762795448303,0.5684805512428284,0.5001745223999023,-0.8220926523208618,0.2720099985599518,0.42310434579849243,-0.40469884872436523,0.1368187963962555,-0.1057101841256079,0.2887312943581738,-0.7433970929793667,-0.5939869433309958,0.9650768212513936,2.0688902854878712,1.344713280658692
1782665010004146944,1.0049281120300293,-1.9561023712158203,-0.325787216424942,0.6028032302856445,0.49574506282806396,-0.8297514319419861,0.2564164996147156,0.42596209049224854,-0.4378114342689514,0.16826605796813965,-0.1025050491405564,0.28634778877663086,-0.7390623751584965,-0.6010694388718189,0.9786621698259321,2.0481363661820406,1.3661195451603547
1782665010014065920,1.0148470401763916,-2.580760955810547,-0.3335423171520233,0.6520394682884216,0.49129384756088257,-0.8381248712539673,0.23701678216457367,0.40410709381103516,-0.46286994218826294,0.15237222611904144,-0.09861919676895886,0.2842781597072328,-0.733276428320916,-0.6097260317279001,0.9938365304097933,2.020292519140789,1.396042120960698
1782665010023986176,1.0247671604156494,-3.0487730503082275,-0.3604038953781128,0.8503656983375549,0.48527437448501587,-0.8480623364448547,0.212836354970932,0.4257974922657013,-0.4781249165534973,0.1662682592868805,-0.093408951069105,0.28181193164253276,-0.7259478054010043,-0.6203681990264341,1.0123178674830986,1.9841210753076002,1.4355454816573805
1782665010033905920,1.0346870422363281,-3.5716147422790527,-0.3352908194065094,0.988581657409668,0.4776581823825836,-0.8588292598724365,0.18508067727088928,0.3903074562549591,-0.5596887469291687,0.1672142595052719,-0.08688870247867303,0.2790963791583106,-0.7173880066521455,-0.6323843409818343,1.0329798021071905,1.9404590182446497,1.4840316070280304
1782665010043826176,1.044607162475586,-3.8662593364715576,-0.32770267128944397,1.0466947555541992,0.4672141671180725,-0.8699776530265808,0.15763744711875916,0.4459937810897827,-0.6225149035453796,0.20411787927150726,-0.07868862782881032,0.2760337403708036,-0.7089598678711992,-0.6441966115376492,1.0551570059567348,1.8962012194627136,1.5350301865524016
1782665010053745152,1.0545260906219482,-4.214221000671387,-0.2802424728870392,1.1184749603271484,0.45757222175598145,-0.880574643611908,0.12335287779569626,0.49726176261901855,-0.6358590722084045,0.22956764698028564,-0.07037315530589501,0.27292082569923315,-0.69799044490859,-0.6583093280730922,1.0770733999679882,1.8341177874545702,1.603960560932453
1782665010063665152,1.064446210861206,-4.335667610168457,-0.37576526403427124,1.3626562356948853,0.4466766119003296,-0.8906707167625427,0.0847683995962143,0.5517212152481079,-0.6436920762062073,0.295068621635437,-0.06153991166418268,0.2688936584055153,-0.6856240960429597,-0.6736680371731947,1.0988182354825098,1.7583418512874815,1.6860075217363333
1782665010073585152,1.0743660926818848,-4.360625743865967,-0.27020663022994995,1.4666825532913208,0.43404045701026917,-0.8997561931610107,0.0452539399266243,0.5390735864639282,-0.6434720754623413,0.3445013761520386,-0.05193752993241511,0.2642675634047644,-0.672896443895061,-0.6889670929167507,1.1192105325390125,1.6746830019745638,1.7762426102293603
1782665010083503872,1.084285020828247,-4.34131383895874,-0.428305983543396,1.6952461004257202,0.420065313577652,-0.9074788689613342,0.005212061572819948,0.5443512201309204,-0.6556772589683533,0.36490511894226074,-0.04200607980181225,0.25896009016702864,-0.659958864285499,-0.704009520450094,1.137243272444704,1.5832034315057535,1.8738678706309775
1782665010093424128,1.0942051410675049,-4.505317211151123,-0.5277859568595886,1.8722128868103027,0.40359798073768616,-0.9142181277275085,-0.03624856472015381,0.6142243146896362,-0.6469390988349915,0.3804868459701538,-0.03151039688037436,0.2522824962216128,-0.6467064712080955,-0.7191185095549759,1.1535742530397077,1.4812231149563724,1.9808778369590834
1782665010103343872,1.1041250228881836,-4.841708660125732,-0.5560961961746216,1.908456802368164,0.3861451745033264,-0.9189179539680481,-0.08050920069217682,0.5985655188560486,-0.6215025782585144,0.4046058654785156,-0.020615648135290827,0.24504069493031147,-0.6322186799997676,-0.7347309565766039,1.1653284023756028,1.3652463458387634,2.1018016703566214
1782665010113263104,1.114044189453125,-5.212917327880859,-0.6255378127098083,2.0214879512786865,0.367559015750885,-0.9211268424987793,-0.1281626671552658,0.58651202917099,-0.6337590217590332,0.462482750415802,-0.009186198616332273,0.23717695046886206,-0.6161702387051678,-0.7509972774282694,1.1709654339260631,1.2352926356605975,2.236781539606359
1782665010123183104,1.1239640712738037,-5.6910400390625,-0.5276209115982056,2.1470634937286377,0.3475467562675476,-0.9202571511268616,-0.1798275262117386,0.6214320659637451,-0.6123203039169312,0.5336330533027649,0.003292590405042999,0.22881633621193267,-0.5981047726494282,-0.7680513279230323,1.168737063308957,1.093310286980456,2.384866550818888
1782665010133103104,1.1338841915130615,-6.071475028991699,-0.4803634285926819,2.261157989501953,0.3264094591140747,-0.9155714511871338,-0.23491615056991577,0.6536930203437805,-0.6334549188613892,0.6144938468933105,0.016856044712037145,0.2201457824130983,-0.5779946013255698,-0.7856041190235833,1.156926607008699,0.9469723689736986,2.5387939736865905
1782665010143022080,1.1438031196594238,-6.055490016937256,-0.2921704053878784,2.317765951156616,0.3045511841773987,-0.9069554805755615,-0.2909986972808838,0.6493977308273315,-0.6449090838432312,0.8052961826324463,0.03135261802995289,0.21141349624441694,-0.5566012741889169,-0.8028177145330045,1.135999063194721,0.8081504744374141,2.6868777951298064
1782665010152941824,1.1537230014801025,-5.7319159507751465,-0.07750153541564941,2.4393041133880615,0.2828120291233063,-0.8953189849853516,-0.34412381052970886,0.5772495269775391,-0.6333522200584412,0.9819564819335938,0.04644484810589932,0.20314955099150656,-0.5354141902517588,-0.8184770823777859,1.1091468318146036,0.6879122425593194,2.8182932085805343
1782665010162862080,1.1636431217193604,-5.198888778686523,0.18133732676506042,2.5849032402038574,0.2607520520687103,-0.8823127746582031,-0.3918321430683136,0.5285545587539673,-0.5535239577293396,1.0744646787643433,0.06238731456435933,0.1953967605589496,-0.5156588318845488,-0.8318797055008417,1.0807536919484897,0.5871728332514426,2.9324523700782357
1782665010172781056,1.1735620498657227,-4.3884663581848145,0.2209305465221405,2.6224260330200195,0.23905901610851288,-0.86918705701828,-0.43285632133483887,0.49696388840675354,-0.3615410327911377,0.8785961270332336,0.07831684165815367,0.18811970021047908,-0.4981795091812625,-0.8427897298507994,1.0535558570097359,0.5045940026274436,3.0292688747896004
1782665010182701056,1.1834821701049805,-3.3560845851898193,-0.019213762134313583,2.897686719894409,0.21601502597332,-0.858284592628479,-0.4654945135116577,0.5456122159957886,-0.1854318380355835,0.5274451971054077,0.09363053149105167,0.1802548131753455,-0.48452136231753684,-0.8508705060234673,1.0319175072747653,0.4344803465343209,3.1116963986270454
1782665010192621056,1.1934020519256592,-2.7299954891204834,-0.1345938891172409,2.971709728240967,0.1904437094926834,-0.850247859954834,-0.49072378873825073,0.5484173893928528,-0.11271905899047852,0.28863638639450073,0.10861116155951334,0.171365381992965,-0.4746282893293985,-0.8564844326957768,1.0164560055827772,0.3701948765565169,-3.097165828413928
1782665010202540032,1.2033212184906006,-2.773773431777954,-0.11393909156322479,2.7738280296325684,0.16578060388565063,-0.8419315218925476,-0.513486385345459,0.34879159927368164,-0.14583104848861694,0.2924322485923767,0.12277901904871259,0.16263247001986134,-0.4656259023774007,-0.8612018874130716,1.000852936418987,0.3122887400721854,-3.03012224396311
1782665010212460032,1.2132411003112793,-3.0314369201660156,-0.07071119546890259,2.704465866088867,0.14264295995235443,-0.8311871290206909,-0.5373833775520325,0.22962568700313568,-0.22665894031524658,0.36268556118011475,0.13658461842100136,0.1541988916953746,-0.45555572240137093,-0.8660463115114447,0.9812393883495943,0.25945666070109186,-2.9679038842708594
1782665010222380288,1.223161220550537,-3.4308929443359375,0.009429104626178741,2.5323050022125244,0.12098336219787598,-0.8173150420188904,-0.5633464455604553,0.21712088584899902,-0.3218603730201721,0.4605632424354553,0.15018273166033305,0.14594094210745343,-0.443878384216929,-0.8712740096924781,0.9567356169209055,0.21154519316229362,-2.9101986603110954
1782665010232299008,1.2330801486968994,-4.007573127746582,-0.021667562425136566,2.407435417175293,0.10138992220163345,-0.7988923192024231,-0.5928669571876526,0.21147629618644714,-0.3407561182975769,0.5398427248001099,0.16341586542184203,0.13780515710939914,-0.4296233820416295,-0.8773419062274185,0.925451303532788,0.16937775828770996,-2.8579340927853005
1782665010242219008,1.2430000305175781,-4.587451457977295,-0.167698472738266,2.4745934009552,0.0817912369966507,-0.7754417657852173,-0.626099169254303,0.1745564043521881,-0.26645880937576294,0.5261846780776978,0.176697430116037,0.12873706438662216,-0.41276771255745864,-0.8842101009157781,0.8874144543377014,0.1299006133477136,-2.808927279007606
1782665010252139008,1.252920150756836,-5.337769985198975,-0.27831846475601196,2.379761219024658,0.06205116584897041,-0.745745837688446,-0.6633346080780029,0.02310812473297119,-0.12719422578811646,0.47647547721862793,0.19003902815709187,0.11847681429539576,-0.39280523631482434,-0.8919374619029494,0.8416536455906813,0.09327286679814137,-2.763514147387898
1782665010262057984,1.2628390789031982,-6.087776184082031,-0.31299275159835815,2.0794332027435303,0.04383173584938049,-0.7083913087844849,-0.7044575810432434,-0.1916588842868805,0.03615009784698486,0.3740437626838684,0.20260853968327971,0.10736752637867972,-0.3691116575725813,-0.9006544650324403,0.7872163736003066,0.06214043838984779,-2.7248580371856654
1782665010271978240,1.272759199142456,-6.433237552642822,-0.4612160325050354,1.8502328395843506,0.027872690930962563,-0.6640981435775757,-0.7471257448196411,-0.3668466806411743,0.18407189846038818,0.2337743043899536,0.2138507168760396,0.09580184663251991,-0.3424312284416484,-0.9098520785392665,0.7262868730876093,0.037289267884833166,-2.6940660419345677
1782665010281897984,1.2826790809631348,-6.16024923324585,-0.5984089374542236,1.6534219980239868,0.012447385117411613,-0.6165565848350525,-0.7872121930122375,-0.47643664479255676,0.33291095495224,0.16360074281692505,0.2237523329357715,0.0835872790298871,-0.31528886400648304,-0.9184449138076713,0.6643615556507033,0.01581066408082531,-2.669115277140788
1782665010291816960,1.292598009109497,-5.271269798278809,-0.5792394876480103,1.2798036336898804,-0.0009047978674061596,-0.5711967945098877,-0.8208127021789551,-0.5800735950469971,0.4412987232208252,0.13601350784301758,0.2318040714107624,0.07225799951742677,-0.2904693533330702,-0.9255664457428114,0.6079631476093825,-0.0011023191154633355,-2.650450801742728
1782665010301736960,1.3025181293487549,-3.9434924125671387,-0.7484145760536194,1.104453682899475,-0.012776721268892288,-0.5331489443778992,-0.8459249138832092,-0.5609689950942993,0.5012580752372742,0.14324241876602173,0.2378417602234814,0.06225197859226636,-0.27048518945424194,-0.9308027507918659,0.5623182962939494,-0.015102699751413911,-2.636890299132955
1782665010311656960,1.3124380111694336,-2.1274261474609375,-0.8837300539016724,1.0663182735443115,-0.025316471233963966,-0.5076016783714294,-0.8612198233604431,-0.5501840114593506,0.5804471373558044,0.10571140050888062,0.2427242087644586,0.053497501356625364,-0.25793043891622935,-0.9336459676805573,0.5323989387046898,-0.029387598562008115,-2.6248904610554034
1782665010321576192,1.322357177734375,-0.6769561767578125,-1.0558452606201172,0.855998694896698,-0.03872494027018547,-0.49611225724220276,-0.8673943877220154,-0.644258439540863,0.7608979940414429,0.03202146291732788,0.2462855151658952,0.04605453679663013,-0.2533412604588597,-0.9343664098191753,0.5191153861106773,-0.04461551125241922,-2.614295918624304
1782665010331495936,1.3322770595550537,0.2283729463815689,-1.131039023399353,0.4275062084197998,-0.05139414221048355,-0.4946342706680298,-0.8675802946090698,-0.8347447514533997,1.0127464532852173,0.035137057304382324,0.24801415001571628,0.03998557974599536,-0.25418693906736606,-0.933958875382666,0.517413972516017,-0.05916933515861761,-2.6068081235989546
1782665010341416192,1.3421971797943115,0.6532386541366577,-1.0470753908157349,-0.1038697212934494,-0.06183076649904251,-0.49904727935791016,-0.8643661141395569,-1.0597665309906006,1.1599512100219727,0.08761745691299438,0.24721860875632132,0.03522192274805375,-0.25802396239590547,-0.9333091463999734,0.5224990155313434,-0.07141143654460227,-2.604617954819957
1782665010351335936,1.3521170616149902,0.8921617269515991,-0.8448034524917603,-0.5052011609077454,-0.06844732165336609,-0.5062692761421204,-0.8596547842025757,-1.1631505489349365,1.2140328884124756,0.2673543691635132,0.2444839526860661,0.03222602853316708,-0.26293360382926795,-0.9327673661156966,0.5308531533591129,-0.07945424305326235,-2.6073037629364593
1782665010361254912,1.3620359897613525,1.042955994606018,-0.6971117854118347,-0.7456591725349426,-0.07175010442733765,-0.5156020522117615,-0.8538187742233276,-1.1338467597961426,1.1224288940429688,0.48910319805145264,0.24030852604272568,0.030753705551169346,-0.26859790841565856,-0.932288122680104,0.5417101328117624,-0.0838373766468149,-2.6137587567448235
1782665010371175168,1.3719561100006104,0.903834342956543,-0.28521162271499634,-0.9981257319450378,-0.0718446895480156,-0.5249531865119934,-0.8480933904647827,-1.0455106496810913,0.8813527822494507,0.6170753836631775,0.23562158917982517,0.030699057955702855,-0.27388110792384845,-0.9319490494793676,0.5526601242115972,-0.08451140278164054,-2.622338665662429
1782665010381094912,1.381875991821289,0.3419097661972046,-0.5015672445297241,-1.232762336730957,-0.06907548010349274,-0.532066285610199,-0.8438803553581238,-1.0712138414382935,0.7358779311180115,0.5161826014518738,0.2297500948647339,0.03137093473532042,-0.27762507972728573,-0.9322848860036085,0.561039086174188,-0.0816725073663018,-2.634803320716954
1782665010391014144,1.3917951583862305,0.9020958542823792,-0.2120286375284195,-1.1019306182861328,-0.06677940487861633,-0.5378062725067139,-0.8404195308685303,-0.951042890548706,0.7509562969207764,0.3343617916107178,0.22373945539220072,0.031533796077743474,-0.2807060133208487,-0.9328185269591105,0.5678328395240017,-0.07929300490676192,-2.647631668681865
1782665010400933888,1.4017150402069092,0.8898001909255981,-0.4271579384803772,-1.3483411073684692,-0.06355209648609161,-0.5478609800338745,-0.8341519832611084,-0.9497230052947998,0.9131869077682495,-0.0532076358795166,0.21801059919055663,0.03280941414523518,-0.28609010163578824,-0.9324953061364021,0.5798051646388543,-0.0760407727109025,-2.659564211386789
1782665010410854144,1.411635160446167,1.2099984884262085,-0.6389751434326172,-1.685996651649475,-0.06039904057979584,-0.5578480362892151,-0.8277424573898315,-0.9787702560424805,1.4153308868408203,-0.010071873664855957,0.20979643392836023,0.033211843431775266,-0.29159176752499527,-0.9326610264475464,0.5917905933215379,-0.07283930975429322,-2.676856895934446
1782665010420773120,1.4215540885925293,2.3038880825042725,-1.0456805229187012,-1.6207430362701416,-0.0601431168615818,-0.5747818946838379,-0.8160935044288635,-0.736014723777771,1.189802646636963,-0.1431959867477417,0.2014806504214121,0.03292333120479909,-0.30144533549032065,-0.931371265389746,0.6123375671412807,-0.0735633655723335,-2.6922411315532
1782665010430693120,1.431474208831787,1.7063452005386353,-0.7594938278198242,-1.4669296741485596,-0.06175144016742706,-0.5943266153335571,-0.8018495440483093,-0.8307504057884216,0.6690489649772644,0.048965632915496826,0.19326232628045745,0.031898402933883796,-0.3131417079904141,-0.9292870940236956,0.6364280786281324,-0.07685955414283419,-2.7061722150734973
1782665010440613120,1.4413940906524658,0.11731467396020889,-0.6340553760528564,-1.3397722244262695,-0.06815159320831299,-0.6063289642333984,-0.7922881841659546,-0.793664813041687,0.18582725524902344,0.6094421148300171,0.18699239049540542,0.027972312791637925,-0.32105056284709205,-0.9279967683317568,0.6514360391816999,-0.08580747258140942,-2.7149186149289495
1782665010450531840,1.4513130187988281,-1.5528854131698608,-0.018650542944669724,-1.5735005140304565,-0.06567854434251785,-0.6026182174682617,-0.7953222990036011,-0.7286482453346252,-0.3652467131614685,0.5220679640769958,0.1802880000171268,0.02648811569836026,-0.3188059297505921,-0.9301383542292067,0.6467779217680554,-0.08239407805422899,-2.731053694187159
1782665010460452096,1.461233139038086,-1.7683731317520142,0.07263930886983871,-0.9280970692634583,-0.06001533195376396,-0.5906199216842651,-0.8047150373458862,-0.6186193227767944,-0.28756916522979736,0.22640693187713623,0.17551431591446098,0.02639405776092069,-0.31136125843057655,-0.9335696896516037,0.6318268719525072,-0.07444179363912672,-2.745582119334463
1782665010470371840,1.4711530208587646,-1.519197940826416,-0.004245619289577007,-1.2064210176467896,-0.05692002922296524,-0.5793675780296326,-0.8130764961242676,-0.33683300018310547,0.26506704092025757,-0.11001920700073242,0.17085491685301302,0.025190672210303924,-0.30467552962669453,-0.9366680382264225,0.6179525417586559,-0.06989172248862238,-2.7584281429588193
1782665010480291072,1.481072187423706,-2.446019172668457,0.02315271645784378,-0.3369266092777252,-0.0550784096121788,-0.5647739171981812,-0.8234056234359741,-0.2700100839138031,0.39338719844818115,-0.19141066074371338,0.16750833346674096,0.02348865665616159,-0.2962186315479172,-0.9400233303544732,0.6001592980024316,-0.06679148109746744,-2.7682290171579904
1782665010490211072,1.4909920692443848,-1.7892447710037231,-0.49823057651519775,-1.204452633857727,-0.05733555927872658,-0.5472845435142517,-0.8349803686141968,0.3353049159049988,0.337369441986084,-0.27477604150772095,0.1656120103347101,0.019915594300355714,-0.28655395959252145,-0.9434314503072336,0.5791163211914486,-0.06855933121319582,-2.7736160166375696
1782665010500131072,1.5009121894836426,-1.5542950630187988,0.31629201769828796,-1.156669020652771,-0.0534367673099041,-0.5353468060493469,-0.8429402709007263,0.3982854187488556,0.16558057069778442,-0.5065774917602539,0.15955068835899433,0.01890065015774279,-0.2795936711701515,-0.9465800884215078,0.5649183190700585,-0.06330858508550206,-2.7892431824227484
1782665010510050048,1.5108311176300049,-1.6271164417266846,-0.31490910053253174,-1.2776875495910645,-0.04932321608066559,-0.5226042866706848,-0.851147472858429,1.0943671464920044,0.1744140386581421,-0.28087157011032104,0.1543126320821644,0.018262492060203663,-0.2721998507365203,-0.9496111847839753,0.5499027423747384,-0.05788435121522756,-2.8030740538180305
1782665010519970048,1.5207509994506836,-0.7751765847206116,-0.05588039010763168,-0.8767762780189514,-0.04922148212790489,-0.513268232345581,-0.8568155765533447,1.1295742988586426,-0.038336992263793945,-0.3798329830169678,0.1502711929620602,0.016309066139906205,-0.2670696809458569,-0.9517490824143989,0.5389885661320716,-0.0573839253373343,-2.8125448355250726
1782665010529890048,1.5306711196899414,-0.5579949617385864,-0.6018515825271606,-0.7438672780990601,-0.05223604291677475,-0.5086606740951538,-0.8593809604644775,0.9441275000572205,-0.15416580438613892,-0.3891388773918152,0.14608418210559918,0.013188515211513988,-0.2648312094322014,-0.9530738896673445,0.5336284846782118,-0.0607086433283035,-2.820808014612077
1782665010539809024,1.5405900478363037,0.24071496725082397,-0.35230499505996704,-0.3585253059864044,-0.054633766412734985,-0.5077610015869141,-0.8597639203071594,0.6378399729728699,0.07857704162597656,-0.22226738929748535,0.14266942471906227,0.010935908266020021,-0.2645722195268419,-0.9536914820977882,0.5325838135217718,-0.06345975800328992,-2.8272857081484113
1782665010549729024,1.5505101680755615,1.36147940158844,-0.619935929775238,-0.5042228102684021,-0.059638768434524536,-0.5156105756759644,-0.8547449707984924,0.41677072644233704,-0.042922139167785645,-0.30287832021713257,0.1403777645426535,0.008390096218140372,-0.26936429262166267,-0.9527154045226244,0.5417201150446497,-0.06966085705543186,-2.829657184579368
1782665010559649024,1.5604300498962402,0.9840624928474426,-0.2974703311920166,-0.3487513065338135,-0.061089444905519485,-0.5270893573760986,-0.8476112484931946,0.016243860125541687,-0.1494547724723816,-0.18104469776153564,0.1378780258704285,0.007883325292601733,-0.27592068003864645,-0.9512072308526226,0.5551718721626712,-0.0719480747688266,-2.833187419048263
1782665010569569024,1.570350170135498,0.18176336586475372,-0.3950701355934143,-0.4820702075958252,-0.06168258190155029,-0.5323843359947205,-0.8442524075508118,0.06366622447967529,-0.31083160638809204,0.05088698863983154,0.13646132297677707,0.007601355023583901,-0.2789552045666897,-0.950528493564018,0.5614147530276726,-0.07293219107345972,-2.835377535836799
1782665010579488000,1.5802690982818604,-0.5913208723068237,0.030974268913269043,-0.4720979928970337,-0.05855555832386017,-0.5301377773284912,-0.8458872437477112,-0.07001499831676483,-0.3767836093902588,0.18920999765396118,0.13388151761157263,0.008272594954879437,-0.27746702459127076,-0.9513250872589835,0.5587630479793974,-0.06911358025918793,-2.8421309527544736
1782665010589408256,1.5901892185211182,-0.9631151556968689,0.07734975218772888,-0.2935871183872223,-0.05596483126282692,-0.5242133140563965,-0.84974604845047,0.22362841665744781,-0.3050103187561035,0.03662043809890747,0.13254462673758702,0.00874375172024703,-0.273953492543839,-0.9525255769614445,0.5517910357934995,-0.06576567616099065,-2.8464413983825847
1782665010599328000,1.6001091003417969,-1.1212787628173828,0.357921838760376,-0.20800741016864777,-0.05256671458482742,-0.5157679915428162,-0.8551141023635864,0.11775226145982742,-0.31565290689468384,0.023937344551086426,0.1311893312673333,0.009437836947014751,-0.26898676144664097,-0.9541207270306452,0.5419038129541839,-0.061396074263836864,-2.851251233346269
1782665010609246976,1.6100280284881592,-1.1033247709274292,0.20741090178489685,-0.12048021703958511,-0.04997244477272034,-0.5070053339004517,-0.8604930639266968,0.37576285004615784,-0.25675809383392334,-0.06080210208892822,0.13132360014532635,0.010122350146829303,-0.2639147559588064,-0.9555106560566912,0.5317069008167262,-0.05800904190144203,-2.852627844203909
1782665010619166976,1.619948148727417,-0.7446659803390503,-0.1641809195280075,-0.13045239448547363,-0.04827478528022766,-0.4986150562763214,-0.8654782176017761,0.43125513195991516,-0.1601068675518036,-0.0227663516998291,0.1310185510727349,0.010257854422831033,-0.25914407842216464,-0.9568559598033214,0.5220003102512507,-0.0557204231458419,-2.854546850672354
1782665010629086976,1.6298680305480957,-1.2421202659606934,0.5218759775161743,-0.08349394053220749,-0.0490574911236763,-0.4906579554080963,-0.8699702024459839,0.5260777473449707,-0.3801001012325287,-0.1320286989212036,0.1314555308842206,0.009360657187330392,-0.2548083271359437,-0.957968986276584,0.5128447062071102,-0.05633019494495711,-2.8540766747411994
1782665010639006208,1.639787197113037,-1.1433331966400146,-0.16817572712898254,-0.06471173465251923,-0.046110350638628006,-0.48039597272872925,-0.8758387565612793,0.3559400737285614,-0.21363478899002075,0.0414118766784668,0.13046188061606445,0.009821878882854856,-0.24896615905751265,-0.9596348708957481,0.501106143543525,-0.05259851776071325,-2.8578859257884623
1782665010648925952,1.6497070789337158,-1.5492665767669678,0.06526018679141998,0.09123259037733078,-0.04736265912652016,-0.46803030371665955,-0.8824422955513,0.47856080532073975,-0.34567514061927795,-0.06454867124557495,0.13079036660957744,0.008331569614534299,-0.24230028190903968,-0.9613090760236334,0.48706056463923725,-0.05362079381457195,-2.857818685535066
1782665010658846208,1.6596271991729736,-1.1345239877700806,-0.04610525816679001,-0.01629200205206871,-0.047073036432266235,-0.45675814151763916,-0.8883445858955383,0.11691251397132874,-0.12621912360191345,-0.0664130449295044,0.13057800343422224,0.0075819205549333656,-0.2361571811771742,-0.9628715604373078,0.4743475503958372,-0.052940098194852014,-2.85921134622625
1782665010668765184,1.669546127319336,-0.8744375705718994,0.15977226197719574,-0.019548514857888222,-0.04779326543211937,-0.4480457603931427,-0.8927322030067444,0.21702849864959717,0.0668201744556427,-0.10296481847763062,0.13095857781124734,0.006659533188348347,-0.2314941625777203,-0.9639584815437958,0.46457822376928476,-0.05348489004083558,-2.8588808041814473
1782665010678684928,1.6794660091400146,-0.5716863870620728,-0.010586605407297611,-0.2994273900985718,-0.04682726785540581,-0.44243791699409485,-0.895575761795044,0.1632670909166336,0.08013322949409485,-0.12091898918151855,0.12989654864383146,0.006483714976469084,-0.22840773757548166,-0.9648392445025313,0.45831532708533085,-0.05223976227280455,-2.8617536941165667
1782665010688605184,1.6893861293792725,-0.15081185102462769,-0.1378185898065567,-0.4914727509021759,-0.04584506154060364,-0.4392155706882477,-0.8972111940383911,0.29764559864997864,0.15788927674293518,-0.07327830791473389,0.12827373836281764,0.006365839005992103,-0.22661396128985806,-0.9654798467325311,0.4547253225269652,-0.051052890899488494,-2.8656053827436025
1782665010698523904,1.6993050575256348,-0.0055954717099666595,-0.139229878783226,-0.05558940768241882,-0.046049054712057114,-0.43877172470092773,-0.8974179029464722,0.2172068953514099,0.27075719833374023,-0.04699432849884033,0.12626798584113763,0.005759800855705842,-0.2264020418543241,-0.9657977677824984,0.4542313438593797,-0.05126786854532044,-2.869737607966217
1782665010708444160,1.7092251777648926,-0.39900320768356323,0.3943365514278412,-0.16395075619220734,-0.04508176073431969,-0.4374274015426636,-0.8981229662895203,0.1942974478006363,-0.14370357990264893,-0.0027406811714172363,0.12644222759014936,0.006196771166974205,-0.22561053007908236,-0.9659574375099189,0.4527358663564887,-0.050153439240320154,-2.86972259337932
1782665010718363904,1.7191450595855713,-1.106596827507019,-0.014181301929056644,-0.12834063172340393,-0.043650221079587936,-0.43131130933761597,-0.901146650314331,0.20568330585956573,-0.30175143480300903,0.15099406242370605,0.12547761109092068,0.006267807028917294,-0.2222327628468619,-0.9668654498496251,0.44594571414068657,-0.048400702161366896,-2.8725032766620227
1782665010728282880,1.7290639877319336,-1.1241291761398315,0.11810802668333054,-0.11809573322534561,-0.04241494461894035,-0.42131558060646057,-0.9059216976165771,0.34092262387275696,-0.18934115767478943,0.19196295738220215,0.12486367406173646,0.006055740055787401,-0.21680053144439337,-0.968178655541381,0.4348954414140641,-0.046785492526068374,-2.8747347721276713
1782665010738203136,1.7389841079711914,-1.1731007099151611,0.0031210272572934628,-0.23552708327770233,-0.04116349294781685,-0.41121402382850647,-0.9106088876724243,0.24199968576431274,-0.03242000937461853,0.034052491188049316,0.1239239374426078,0.005783962568047768,-0.2113340673870074,-0.9695088382371619,0.4237855150842989,-0.04517360764127794,-2.8776093094078696
1782665010748122880,1.7489039897918701,-0.7089930176734924,-0.030954919755458832,-0.07619494944810867,-0.04025454446673393,-0.4022514522075653,-0.9146438241004944,0.22943302989006042,0.1571953296661377,-0.06437528133392334,0.12291018702615565,0.005414381144848709,-0.20651576627417786,-0.970677687270934,0.41397470886959364,-0.04398278581305934,-2.880449572888645
1782665010758043136,1.758824110031128,-0.4474443197250366,0.04167260229587555,-0.06639601290225983,-0.04086663946509361,-0.3985333740711212,-0.9162428975105286,0.2135045826435089,0.0005536675453186035,-0.24495089054107666,0.12288627641737256,0.004847505882563181,-0.2045850545243701,-0.9710924043807189,0.4099171780609556,-0.04457286470102093,-2.880574866542179
1782665010767961856,1.7687430381774902,-0.3341670334339142,-0.052892252802848816,0.31394973397254944,-0.04138152673840523,-0.3939536511898041,-0.91819828748703,0.17277497053146362,0.09639200568199158,-0.02642756700515747,0.12306029553496153,0.004313865429359025,-0.202193574859427,-0.9715736711053342,0.40492914753285913,-0.04503770370051574,-2.880366159544153
1782665010777882112,1.778663158416748,-0.2290051281452179,-0.1046738401055336,0.07699154317378998,-0.043128326535224915,-0.39206066727638245,-0.9189278483390808,0.2625497281551361,-0.046965211629867554,-0.1899893879890442,0.12398549947889334,0.0034938605269710233,-0.20130540515759107,-0.971643765007436,0.4028705214678167,-0.04689889600017824,-2.8781780754697546
1782665010787801856,1.7885830402374268,-0.33209529519081116,-0.29485630989074707,0.029538270086050034,-0.044267959892749786,-0.3892868459224701,-0.9200522303581238,0.1394370198249817,-0.10715785622596741,-0.05649501085281372,0.12335994386690567,0.002600654271505767,-0.19991779588584985,-0.9720125404087443,0.39985723431169146,-0.04807753836688524,-2.879374567870283
1782665010797721088,1.7985022068023682,-0.13131318986415863,-0.03055981919169426,0.33938175439834595,-0.046109843999147415,-0.38698333501815796,-0.9209331274032593,0.2576271891593933,-0.13996368646621704,-0.06257212162017822,0.1246431073665239,0.0017765116225786045,-0.19882226135972025,-0.9720754263971101,0.3973577678553221,-0.050026836441038815,-2.8764628220452093
1782665010807641088,1.8084220886230469,-0.15708991885185242,-0.13566972315311432,0.3445141911506653,-0.049409326165914536,-0.38566920161247253,-0.9213131666183472,0.20631545782089233,-0.08582738041877747,-0.08291351795196533,0.12608685890630453,0.00031363718711369576,-0.1983514694396792,-0.9719870128063214,0.39593302015541315,-0.05357791278493625,-2.872842082814893
1782665010817561088,1.8183422088623047,-0.13106776773929596,-0.1739596277475357,-0.08332962542772293,-0.05049348995089531,-0.38367071747779846,-0.9220885038375854,0.1566946804523468,-0.08152398467063904,0.01104724407196045,0.12632549436590834,-0.00032263323630526215,-0.19737183380439288,-0.9721555028554912,0.39376794562248046,-0.05470527788241564,-2.8722388471176825
1782665010827480064,1.828261137008667,-0.10208459943532944,-0.3236449658870697,-0.03851661458611488,-0.05200262740254402,-0.38345104455947876,-0.9220960140228271,0.2980963885784149,-0.18736499547958374,-0.04833245277404785,0.12556612450370905,-0.0012545642101489884,-0.197358616049843,-0.9722557591922063,0.39353007801145634,-0.05633643406793451,-2.8734828362326343
1782665010837400064,1.8381810188293457,0.007519398350268602,-0.20140023529529572,0.05801365524530411,-0.054003115743398666,-0.38290759921073914,-0.9222068190574646,0.28053510189056396,-0.16997936367988586,-0.0804939866065979,0.1257526999500391,-0.002264797098332475,-0.19720917354888412,-0.9722600672595894,0.3929417311708349,-0.05849177577126147,-2.872694324312179
1782665010847320064,1.8481011390686035,-0.13634775578975677,-0.26722636818885803,0.0856333002448082,-0.05676005035638809,-0.382282018661499,-0.9223007559776306,0.12348672747612,-0.12632393836975098,-0.06269979476928711,0.12575850973323882,-0.0036995455832576235,-0.19706831981684428,-0.9722834268914613,0.39226463945631246,-0.061464281661882524,-2.872118136386078
1782665010857239040,1.8580200672149658,0.05451959744095802,-0.3328072428703308,0.17784267663955688,-0.059982918202877045,-0.38161566853523254,-0.9223727583885193,0.22218385338783264,0.006539404392242432,-0.05463218688964844,0.12597233679445904,-0.0053303053485022804,-0.19693958542852943,-0.9722743035921432,0.3915436035268082,-0.0649396601205897,-2.871016345415963
1782665010867159040,1.8679401874542236,0.14438024163246155,-0.34778621792793274,0.2142867147922516,-0.06317686289548874,-0.38294899463653564,-0.9216066002845764,0.17319273948669434,-0.10348594188690186,-0.12581771612167358,0.12673374365384393,-0.006699593348531227,-0.19786815579947678,-0.9719783111464221,0.3929865284427871,-0.06844371513553762,-2.8686510742283584
1782665010877079040,1.8778600692749023,-0.029999416321516037,-0.22692875564098358,0.07239968329668045,-0.06605567038059235,-0.38335874676704407,-0.9212343692779541,0.23016394674777985,-0.15462037920951843,-0.010925054550170898,0.12721490999384108,-0.00802882358522426,-0.19828858702621036,-0.9718197140939926,0.3934301442438658,-0.07158092814817658,-2.866993877549663
1782665010886998016,1.8877789974212646,-0.1799553483724594,-0.29882824420928955,0.2693747878074646,-0.06881771236658096,-0.382899671792984,-0.9212231040000916,0.21856746077537537,-0.237553209066391,0.010761678218841553,0.12762585690154185,-0.00937246908031714,-0.1982438348888926,-0.9717629190096271,0.39293315405570434,-0.07456405648946322,-2.8655713397358418
1782665010896918016,1.8976991176605225,-0.38914963603019714,-0.27235129475593567,0.28686508536338806,-0.07224427163600922,-0.3795074224472046,-0.9223637580871582,0.21041260659694672,-0.2100769281387329,0.1194157600402832,0.12866726126610914,-0.011124534228611307,-0.19670884994348198,-0.9719190307741983,0.3892638310789302,-0.07816555818285026,-2.8629377222185894
1782665010906838016,1.9076189994812012,-0.5588585138320923,-0.0014862408861517906,0.36648401618003845,-0.07427803426980972,-0.3750467300415039,-0.924025297164917,0.15974251925945282,-0.1937704086303711,0.08088564872741699,0.13004638021521747,-0.012181168040477993,-0.19452242444408935,-0.9721629031379534,0.38444719019231827,-0.08021280596701146,-2.8600116915854996
1782665010916758016,1.917539119720459,-0.8380955457687378,-0.055266913026571274,0.4112606346607208,-0.07591099292039871,-0.36837679147720337,-0.9265722036361694,0.2351669818162918,-0.12677091360092163,0.11510980129241943,0.13214511665102574,-0.013052655262736303,-0.1911635870023419,-0.9725348076404614,0.37726242685007316,-0.08174412452358099,-2.8558794451404763
1782665010926676992,1.9274580478668213,-0.8621843457221985,-0.21827101707458496,0.36640581488609314,-0.07827725261449814,-0.3601819574832916,-0.9295921921730042,0.23835720121860504,-0.06886467337608337,0.02325063943862915,0.13353953424928738,-0.014549530508986048,-0.18706207902933894,-0.9731203205933984,0.36846292208216613,-0.0840078326775045,-2.853176560708976
1782665010936596992,1.937378168106079,-0.9623146057128906,-0.26214078068733215,0.48215365409851074,-0.08189301192760468,-0.35165202617645264,-0.9325419068336487,0.27152925729751587,-0.07121479511260986,-0.04768270254135132,0.13545029330672867,-0.016610669521869938,-0.18290197809507416,-0.9736140035609465,0.3593352458483534,-0.08759227618727718,-2.849206029791975
1782665010946516992,1.9472980499267578,-0.8774886727333069,-0.2374466061592102,0.47318971157073975,-0.08573374897241592,-0.3426547050476074,-0.9355412721633911,0.20282968878746033,-0.028851032257080078,-0.07927501201629639,0.1374429934900653,-0.01881549378074164,-0.17853667488997588,-0.9741047149941446,0.3497412337683853,-0.09138555329167901,-2.845093318146585
1782665010956436224,1.9572172164916992,-0.7053457498550415,-0.07894621789455414,0.34161457419395447,-0.08890673518180847,-0.3351011574268341,-0.9379780292510986,0.17891833186149597,-0.042141854763031006,-0.11205548048019409,0.13948222337160124,-0.02058518779184619,-0.17489204711532555,-0.9744401983117579,0.3417125816295652,-0.09450317529371044,-2.840925221501137
1782665010966355968,1.967137098312378,-0.7763270139694214,-0.21237272024154663,0.22665895521640778,-0.09149781614542007,-0.3279176950454712,-0.9402649402618408,0.19568482041358948,-0.04819619655609131,-0.06951594352722168,0.14052203904142324,-0.02222350655561818,-0.1713874394579069,-0.9748773973563871,0.33409854914281883,-0.09700525060692314,-2.8389085519829766
1782665010976276224,1.9770572185516357,-0.7889211773872375,-0.14591601490974426,0.46126705408096313,-0.09459860622882843,-0.32059982419013977,-0.942479133605957,0.21441063284873962,-0.10739395022392273,-0.08719921112060547,0.14197761119675884,-0.024060906595053815,-0.1678735185130191,-0.9752343358566918,0.32636266405769315,-0.1000370541367584,-2.8359737968607
1782665010986195200,1.986976146697998,-0.6759916543960571,-0.20252229273319244,0.31149405241012573,-0.09741634875535965,-0.31343525648117065,-0.9445995688438416,0.13173335790634155,-0.062342941761016846,-0.06203794479370117,0.14357064818211365,-0.02572966175140219,-0.1644329200818233,-0.9755445939861641,0.3188084162768022,-0.10276647250631915,-2.8328152310921553
1782665010996114944,1.9968960285186768,-0.7685707807540894,-0.1396135687828064,0.35346075892448425,-0.10010167211294174,-0.3063608705997467,-0.9466375708580017,0.12755224108695984,-0.061971038579940796,-0.06982666254043579,0.14514517401849017,-0.027337292718339862,-0.16104002914463217,-0.9758338177607968,0.311367703517476,-0.10535293994610001,-2.829727956420864
1782665011006035200,2.0068161487579346,-0.7445951104164124,-0.11916980147361755,0.3009016513824463,-0.10240177065134048,-0.2989501357078552,-0.9487584829330444,0.11509709060192108,-0.07196050882339478,-0.06918585300445557,0.1465091003966218,-0.028819866385616434,-0.15744892694643262,-0.976173346561986,0.3035922986378055,-0.10751617893696688,-2.8271837265956554
1782665011015953920,2.016735076904297,-0.8655998706817627,-0.10296983271837234,0.30990350246429443,-0.10380394756793976,-0.2911103367805481,-0.9510412812232971,0.15531761944293976,-0.0886809229850769,-0.05967038869857788,0.14792395510035344,-0.029885058607736128,-0.15357813689878977,-0.9765444941808158,0.2953872353148249,-0.10871731938511728,-2.8247343116352477
1782665011025875456,2.0266566276550293,-0.8069860935211182,-0.024523228406906128,0.3211236596107483,-0.10542774200439453,-0.28265172243118286,-0.9534112215042114,0.21329213678836823,-0.010698467493057251,0.006313502788543701,0.14949150471929437,-0.031094138126531112,-0.1494240025355138,-0.976912487748375,0.28655744412275,-0.11013206559750512,-2.821995424353817
1782665011035795712,2.036576747894287,-0.8536456823348999,-0.08055464923381805,0.4429822564125061,-0.10703103989362717,-0.27443480491638184,-0.9556306004524231,0.21115702390670776,-0.030267924070358276,-0.012814164161682129,0.151136884136709,-0.03227420266107144,-0.14540654784950727,-0.9772271315781228,0.27800188873737713,-0.1115356060518513,-2.8190861680929546
1782665011045715456,2.046496629714966,-0.7138829827308655,-0.06579115986824036,0.33278143405914307,-0.10850386321544647,-0.2664432227611542,-0.9577237963676453,0.22086958587169647,-0.048696547746658325,0.0013791918754577637,0.15309516312626714,-0.03333809549894964,-0.1415155828566454,-0.9774577873508251,0.2697009557814188,-0.1128124561154744,-2.8155437373500285
1782665011055634688,2.0564157962799072,-0.7891710996627808,-0.057461585849523544,0.3801308572292328,-0.11015965789556503,-0.25925934314727783,-0.9595047831535339,0.17432287335395813,-0.03171050548553467,0.008424460887908936,0.15457655296865258,-0.0345115240567171,-0.1380454918800337,-0.9776801869596896,0.26225524223447927,-0.1143083853513797,-2.81288614497265
1782665011065554688,2.066335678100586,-0.7679851055145264,-0.10621261596679688,0.2506445050239563,-0.11164999008178711,-0.25122693181037903,-0.9614672660827637,0.2165083885192871,-0.013070553541183472,0.08376646041870117,0.14552438299321882,-0.037119801834885974,-0.13374783788957653,-0.9795694721880631,0.25394762596736564,-0.11560679583014155,-2.8318562880808558
1782665011075474688,2.0762557983398438,-0.7744488716125488,-0.11958247423171997,0.2557825446128845,-0.11337465792894363,-0.24403226375579834,-0.9631170630455017,0.20817752182483673,-0.05000460147857666,-0.006838381290435791,0.13658563588723446,-0.03969225458180275,-0.12986916861908715,-0.9812762234742883,0.24652166868808525,-0.11717712385839602,-2.850452933157265
1782665011085393664,2.086174726486206,-0.6461198925971985,-0.18299926817417145,0.1957913488149643,-0.11536280065774918,-0.2368633896112442,-0.9646694660186768,0.22980371117591858,-0.0039050430059432983,-0.009024381637573242,0.12764004552923724,-0.04232464156961797,-0.12599165607974083,-0.982874734775001,0.23913609361738725,-0.11902266530826369,-2.8689939496597225
1782665011095313664,2.0960946083068848,-0.5333542227745056,-0.22601650655269623,0.2360341101884842,-0.1181579977273941,-0.23104481399059296,-0.9657416939735413,0.2308899313211441,0.014125868678092957,-0.10165637731552124,0.11883730438910224,-0.045194289397749304,-0.12282768503518887,-0.9842502195304794,0.23315141869958766,-0.12174441539815652,-2.887003588166823
1782665011105233664,2.1060147285461426,-0.3647548258304596,-0.21517691016197205,0.21186086535453796,-0.12089484184980392,-0.22704678773880005,-0.9663509726524353,0.18467658758163452,0.03959256410598755,-0.1593661904335022,0.11037488570960977,-0.04783900494992192,-0.12056511551455011,-0.9853896813513152,0.2290442029866161,-0.12445787643329266,-2.9041656602242636
1782665011115152640,2.115933656692505,-0.30185142159461975,-0.3381134271621704,0.16376355290412903,-0.12374777346849442,-0.22322040796279907,-0.9668811559677124,0.17712301015853882,0.07365375757217407,-0.1171489953994751,0.10173030739411723,-0.050518158756832285,-0.11835263879894507,-0.9864539520841026,0.22511698913793618,-0.12729450293816605,-2.9216565266427823
1782665011125072640,2.1258537769317627,-0.2837568521499634,-0.3539440631866455,0.26259133219718933,-0.12772652506828308,-0.22051243484020233,-0.9669851064682007,0.22669503092765808,0.01969151198863983,-0.14870703220367432,0.09361184926030057,-0.05361492619979368,-0.11675995160055312,-0.987283824350891,0.22233981008088077,-0.13132714257789238,-2.937841854341432
1782665011134992640,2.1357736587524414,-0.09116150438785553,-0.34897300601005554,0.1851760745048523,-0.13115467131137848,-0.21831582486629486,-0.9670246243476868,0.14497914910316467,0.028679609298706055,-0.12432968616485596,0.08567924057627625,-0.05636813057049872,-0.11537033872782251,-0.9880138290302977,0.22008832974884682,-0.1348044749935568,-2.9536711774616236
1782665011144911616,2.1456925868988037,0.05912839621305466,-0.3448634743690491,0.15058746933937073,-0.1347426325082779,-0.2182876169681549,-0.966537594795227,0.1375807821750641,-0.05092319846153259,-0.19601428508758545,0.07778106211992473,-0.05909897733413453,-0.11505872279711511,-0.9885438434062426,0.22005943140096806,-0.13851483367499787,-2.9692245159713915
1782665011154831616,2.1556127071380615,-0.24445851147174835,-0.2764350175857544,0.11677523702383041,-0.13796499371528625,-0.21710333228111267,-0.966349720954895,0.14269521832466125,-0.07704035937786102,-0.13502967357635498,0.07824275024339196,-0.06071457693707566,-0.11462491884330749,-0.9884599209989413,0.21884603393490637,-0.14181088057065486,-2.9680041902361354
1782665011164751616,2.1655325889587402,-0.3003289997577667,-0.2581055462360382,0.18701957166194916,-0.14059673249721527,-0.21437595784664154,-0.966579258441925,0.15835797786712646,-0.09005211293697357,-0.11143887042999268,0.07872858968198757,-0.062087232607353125,-0.11338226517189039,-0.9884792901409378,0.2160528930019156,-0.1444450127235938,-2.9669439970505795
1782665011174670592,2.1754517555236816,-0.4170244336128235,-0.3742328882217407,0.16604012250900269,-0.14390011131763458,-0.2104007750749588,-0.9669665098190308,0.22356626391410828,-0.1231105625629425,-0.06521421670913696,0.07927991717107088,-0.0638391643549822,-0.11154056903893632,-0.9885331726854795,0.21198489629677708,-0.14773182818682543,-2.9657904137990565
1782665011184590592,2.1853716373443604,-0.10024381428956985,-0.30756595730781555,0.18401218950748444,-0.14750558137893677,-0.20782418549060822,-0.9669804573059082,0.23876839876174927,-0.022705599665641785,-0.0929255485534668,0.07986789975553453,-0.06568912726563393,-0.11042965756206839,-0.9884893723349777,0.2093500457583677,-0.15137552894923206,-2.964413575249158
1782665011194510592,2.195291757583618,0.07884863764047623,-0.2737977206707001,0.2240578532218933,-0.15053945779800415,-0.2077433466911316,-0.9665301442146301,0.19852836430072784,-0.0037434548139572144,-0.1025005578994751,0.08069048196346727,-0.067131717149173,-0.11058140595739316,-0.9883087005960183,0.20926741177539454,-0.15451102507812817,-2.9624056670598176
1782665011204430592,2.205211639404297,-0.21884644031524658,-0.26053279638290405,0.16132548451423645,-0.1535196602344513,-0.20692965388298035,-0.9662359356880188,0.1964884102344513,-0.09575894474983215,-0.0445978045463562,0.0815239066801249,-0.06857425947781662,-0.11036129281158878,-0.9881659021129395,0.2084356368557325,-0.15756716258388592,-2.9604502174393286
1782665011214349824,2.2151308059692383,-0.3923574388027191,-0.28929486870765686,0.1712302267551422,-0.15609455108642578,-0.2036241590976715,-0.9665255546569824,0.16621112823486328,-0.1451917588710785,0.021457195281982422,0.08191485184532084,-0.06995782681192807,-0.10882606914688876,-0.9882068061505906,0.20505821377706313,-0.160118145966976,-2.9596765064246955
1782665011224269568,2.225050687789917,-0.6574418544769287,-0.3571133315563202,0.2256372720003128,-0.15955501794815063,-0.19815291464328766,-0.9670975208282471,0.23066096007823944,-0.21621476113796234,-0.0008437633514404297,0.08261392093172713,-0.07184034858260055,-0.10625537010871296,-0.988293280660606,0.19947310480388503,-0.16351043444184019,-2.9583969503836114
1782665011234189568,2.2349705696105957,-0.5629042387008667,-0.43950778245925903,0.2124331146478653,-0.16345557570457458,-0.1918138712644577,-0.9677239656448364,0.20506629347801208,-0.0858503133058548,-0.0037115812301635742,0.0831954881212198,-0.07399509972122893,-0.10326050664573369,-0.9884029994473391,0.1930100044681278,-0.16732788537886553,-2.9574094399303013
1782665011244108800,2.244889736175537,-0.16315314173698425,-0.4178112745285034,0.27035820484161377,-0.16835616528987885,-0.18810690939426422,-0.9676114916801453,0.17554306983947754,0.03484763205051422,-0.09620076417922974,0.08406108297957782,-0.0765263577903279,-0.10167581161108569,-0.98830138432619,0.18923429457035237,-0.17226696018762636,-2.9555004935371376
1782665011254028544,2.254809617996216,-0.40384218096733093,-0.37456271052360535,0.1437212973833084,-0.17218905687332153,-0.18551889061927795,-0.967436671257019,0.17218905687332153,0.07493844628334045,-0.11293137073516846,0.0847677802357285,-0.07849332036873902,-0.10060056529693105,-0.988196712241583,0.1865998893630639,-0.1761403349420965,-2.953926956125955
1782665011263948800,2.2647297382354736,-0.25730520486831665,-0.4322158992290497,0.1541246771812439,-0.17620420455932617,-0.181789368391037,-0.9674216508865356,0.20896483957767487,0.09194563329219818,-0.04948502779006958,0.08506807948969357,-0.08064094070612565,-0.09892522768903478,-0.9881671003758296,0.18280583778926113,-0.18016302447441726,-2.9532847409233343
1782665011273867520,2.274648666381836,-0.3475668430328369,-0.43726158142089844,0.18811877071857452,-0.1807878464460373,-0.17881780862808228,-0.9671297669410706,0.2514970898628235,-0.10632318258285522,-0.13174718618392944,0.08560810168304529,-0.08302378811167825,-0.09768406377169213,-0.9880466583489785,0.17978476103023108,-0.1847995330157624,-2.952032651182326
1782665011283787776,2.2845687866210938,-0.5970550179481506,-0.420632541179657,0.07491230964660645,-0.18472565710544586,-0.17403113842010498,-0.9672588109970093,0.21509064733982086,-0.13408958911895752,-0.07497751712799072,0.0858674967232871,-0.08518239258792168,-0.09547018998864956,-0.9880567639215881,0.1749218049388692,-0.18870619864167354,-2.9516218707857518
1782665011293707520,2.2944886684417725,-0.6174482107162476,-0.49801886081695557,0.17097555100917816,-0.18950869143009186,-0.16751885414123535,-0.9674832820892334,0.18168093264102936,-0.04198431968688965,-0.0887911319732666,0.0859441911574253,-0.08785719801264463,-0.09240927631227404,-0.9881069173101034,0.16831242288911963,-0.1934289767113182,-2.9517046036914674
1782665011303627776,2.3044087886810303,-0.5104232430458069,-0.5201705098152161,0.16712462902069092,-0.19496549665927887,-0.16218064725399017,-0.9673085808753967,0.14674772322177887,-0.03920485079288483,-0.18965858221054077,0.08626085532108708,-0.0908057429285436,-0.09000014946378922,-0.988035101290914,0.16290016182904465,-0.19888992820696472,-2.951134475698289
1782665011313546752,2.3143277168273926,-0.3678312599658966,-0.4593575894832611,0.0667218267917633,-0.19996199011802673,-0.15763041377067566,-0.9670407772064209,0.10113081336021423,0.045936062932014465,-0.1842043399810791,0.08636772763612889,-0.09351095498341531,-0.0879506292325932,-0.9879580477926149,0.1582905981623454,-0.2039035334082317,-2.9509674661911895
1782665011323466496,2.3242475986480713,-0.24941858649253845,-0.4448593258857727,0.14634448289871216,-0.20462864637374878,-0.1544136255979538,-0.9665834307670593,0.11083287000656128,0.0340217649936676,-0.22311383485794067,0.08651314123633379,-0.09599358897000565,-0.08656505082935452,-0.9878295787869574,0.15503392911201458,-0.2086227306904879,-2.9506174765032065
1782665011333386752,2.334167718887329,-0.12810207903385162,-0.4926535189151764,0.06562017649412155,-0.20933568477630615,-0.1525532752275467,-0.9658706188201904,0.18948401510715485,-0.026554375886917114,-0.2177535891532898,0.08677491184562874,-0.09843353478055472,-0.08588087160094181,-0.9876262059835752,0.15315127628463832,-0.21343165199104214,-2.949880811663892
1782665011343305472,2.3440866470336914,-0.2059422880411148,-0.55613774061203,0.15711785852909088,-0.21414537727832794,-0.15099383890628815,-0.9650609493255615,0.22108812630176544,-0.06864117085933685,-0.17417550086975098,0.08690156381601684,-0.10092699592518849,-0.08534208973115294,-0.987410003983616,0.1515735613462134,-0.2183602373694819,-2.949379402681242
1782665011353225728,2.354006767272949,-0.14775069057941437,-0.4933992922306061,0.08166022598743439,-0.2191609889268875,-0.14894621074199677,-0.9642528295516968,0.2607564330101013,-0.062342241406440735,-0.10552561283111572,0.08728179284080359,-0.10352499621772396,-0.08459414058264787,-0.9871718719121391,0.14950251748192472,-0.22348904466996822,-2.948412392469607
1782665011363145472,2.363926649093628,-0.19968925416469574,-0.49743637442588806,0.25317445397377014,-0.2240155041217804,-0.1472807228565216,-0.9633926749229431,0.1727612316608429,-0.0836763083934784,-0.09787136316299438,0.08779901095254794,-0.10601629488478645,-0.08404884168828973,-0.9869081653416151,0.14781844958373264,-0.2284677826601404,-2.947142183895747
1782665011373064448,2.3738455772399902,-0.4254322052001953,-0.4770953357219696,0.18754225969314575,-0.22852405905723572,-0.1437218189239502,-0.9628711342811584,0.18378528952598572,-0.12173531949520111,-0.03711360692977905,0.0884453458523832,-0.10840108263096561,-0.08254482154086884,-0.9867182591409103,0.1442212646372444,-0.233024636769578,-2.9458898095892305
1782665011382984704,2.383765697479248,-0.5122067928314209,-0.5186545252799988,0.29892924427986145,-0.23378288745880127,-0.13856326043605804,-0.962364673614502,0.19214165210723877,-0.16298091411590576,-0.04468488693237305,0.08917769219863193,-0.11123095235584761,-0.08028284479851724,-0.9865240021356935,0.1390105400673144,-0.23830927293097512,-2.9446218905325443
1782665011392904448,2.3936855792999268,-0.5430068969726562,-0.49200886487960815,0.27534812688827515,-0.23895485699176788,-0.13297028839588165,-0.9618833065032959,0.17152626812458038,-0.12264494597911835,-0.1237185001373291,0.09014964123936776,-0.11402166905748348,-0.07782935445938413,-0.9863137243273776,0.13336529021910004,-0.24349477450406343,-2.942956585595251
1782665011402824704,2.4036056995391846,-0.539746880531311,-0.4627007842063904,0.26798421144485474,-0.24369104206562042,-0.1272020787000656,-0.9614750742912292,0.15543420612812042,-0.08173651993274689,-0.13349562883377075,0.09090616942755826,-0.11662153265591675,-0.07524550515381047,-0.9861407164654051,0.12754763051909257,-0.2482281488007336,-2.941811171943921
1782665011412743680,2.413524627685547,-0.4545111060142517,-0.5608100891113281,0.3157694339752197,-0.248716339468956,-0.12142197042703629,-0.9609354138374329,0.2207164615392685,-0.10594924539327621,-0.12394922971725464,0.09185244160144924,-0.119361695333051,-0.07269851531951485,-0.9859162639983315,0.12172232794585565,-0.2532693241558837,-2.94028382355944
1782665011422663680,2.4234447479248047,-0.5804588794708252,-0.5448760986328125,0.264084130525589,-0.2542021572589874,-0.11619845777750015,-0.9601454138755798,0.22846058011054993,-0.13525111973285675,-0.13746505975723267,0.09275674546777492,-0.12232327169843236,-0.07045793793568432,-0.9856311531011396,0.11646154859342817,-0.25881568259636367,-2.938754782217047
1782665011432583680,2.4333646297454834,-0.6277892589569092,-0.5050413608551025,0.2419181764125824,-0.2591169476509094,-0.1099013090133667,-0.9595729112625122,0.19104748964309692,-0.1168748140335083,-0.07588851451873779,0.09346764833677518,-0.12506117332634487,-0.06762589135184734,-0.9854188750108911,0.11012376001424383,-0.2637431777296901,-2.9378356813483295
1782665011442502656,2.443283796310425,-0.9173665046691895,-0.5553527474403381,0.3460046350955963,-0.26459988951683044,-0.10175560414791107,-0.9589748382568359,0.14571866393089294,-0.18591834604740143,-0.05480384826660156,0.09418751877326505,-0.1281789315842399,-0.06389641833682687,-0.9851985594748086,0.10193203053271048,-0.26922089580894265,-2.9371505362001122
1782665011452422656,2.4532036781311035,-1.0826547145843506,-0.47897785902023315,0.2261807918548584,-0.2698237895965576,-0.09154272079467773,-0.9585484266281128,0.14714312553405762,-0.20316553115844727,-0.05590164661407471,0.0948950644882619,-0.13126840585999625,-0.05911346053579581,-0.9850224233790554,0.09167106092054163,-0.2743917837458403,-2.9368443903645387
1782665011462342656,2.4631237983703613,-1.0159542560577393,-0.5927323698997498,0.2580375075340271,-0.27489009499549866,-0.08072827011346817,-0.9580805897712708,0.13006892800331116,-0.13605335354804993,-0.10400742292404175,0.09498775647950375,-0.13435075202953534,-0.053940598274008496,-0.984894748894278,0.08081621418498948,-0.2794117203480368,-2.9379276556133913
1782665011472261632,2.4730427265167236,-0.8691827654838562,-0.6836854219436646,0.2352430522441864,-0.28109994530677795,-0.0716024860739708,-0.9570035934448242,0.20230355858802795,-0.0948098674416542,-0.21760272979736328,0.09556993186694515,-0.13792417549302682,-0.04975054714087109,-0.9845650128842693,0.07166381298040685,-0.28569392609447153,-2.93775113980912
1782665011482181632,2.4829626083374023,-0.7226638793945312,-0.7004271149635315,0.2308373898267746,-0.2875635027885437,-0.06333646923303604,-0.9556650519371033,0.1478693187236786,-0.050616174936294556,-0.18709611892700195,0.09591740732619132,-0.1416103317418249,-0.04597797974364554,-0.9841913221955703,0.0633788880221765,-0.29228599535995814,-2.9379581792458063
1782665011492101632,2.49288272857666,-0.6628791093826294,-0.7058293223381042,0.2683192789554596,-0.29396486282348633,-0.056164417415857315,-0.9541646838188171,0.17984437942504883,-0.10119947046041489,-0.20159703493118286,0.09657839989061777,-0.14520900469782286,-0.04280199449572686,-0.9837453176101875,0.056193986582296976,-0.2988586088494782,-2.937409174531268
1782665011502021632,2.502802610397339,-0.827140748500824,-0.6524379849433899,0.35324883460998535,-0.30054718255996704,-0.04822847247123718,-0.9525467753410339,0.19387301802635193,-0.15330961346626282,-0.1347792148590088,0.09737091570433833,-0.14894330142612974,-0.03927459708045437,-0.9832559725799938,0.04824718905656285,-0.3056334544053932,-2.9367458651998253
1782665011511940608,2.5127217769622803,-0.9013827443122864,-0.5867577791213989,0.41656675934791565,-0.3061951994895935,-0.03929959237575531,-0.9511572122573853,0.1970948576927185,-0.22756138443946838,-0.061843276023864746,0.09850317741300114,-0.1522452145857266,-0.03525314618324173,-0.9827898207837893,0.039309714805141636,-0.3114423465779167,-2.935631560641836
1782665011521860608,2.522641658782959,-1.2711869478225708,-0.5236384868621826,0.4569658637046814,-0.3115636706352234,-0.02777756191790104,-0.9498192071914673,0.1828557848930359,-0.2401820421218872,0.010030388832092285,0.09965073331101347,-0.15554846896121044,-0.02991783787263288,-0.982333679743748,0.027781134942565292,-0.31696473658294483,-2.934958313501756
1782665011531780608,2.532561779022217,-1.507908582687378,-0.6518043279647827,0.40620049834251404,-0.31709131598472595,-0.013275946490466595,-0.9483020901679993,0.22453150153160095,-0.10612408816814423,-9.268522262573242e-05,0.10063837673763575,-0.15911236967744855,-0.023069570398628798,-0.9818468060527671,0.013276336832934273,-0.32269041538059307,-2.935147096185093
1782665011541699584,2.542480707168579,-1.3625073432922363,-0.6712424755096436,0.42791885137557983,-0.3234441876411438,0.0017648066859692335,-0.9462456107139587,0.1725652813911438,-0.004953903146088123,-0.09881359338760376,0.10149516537684666,-0.16316221586905727,-0.015977596108813694,-0.9812347650940715,-0.0017648075526614227,-0.32936758911163794,-2.93574671014653
1782665011551619584,2.552400588989258,-1.273260474205017,-0.640399158000946,0.2730191946029663,-0.32953181862831116,0.015170647762715816,-0.9440225958824158,0.11720576882362366,-0.014178825542330742,-0.18941551446914673,0.10196512001389625,-0.16702077908587212,-0.009631636980343155,-0.9806193926859039,-0.015171229533498691,-0.33584781764938837,-2.9369485461164233
1782665011561539584,2.5623207092285156,-1.1501539945602417,-0.7133402228355408,0.2694191336631775,-0.3357262909412384,0.02720772847533226,-0.9415665864944458,0.1338525116443634,-0.05571114271879196,-0.2087477445602417,0.1021955062101072,-0.170883601444513,-0.003938564625053878,-0.9799690550057083,-0.027211087317976685,-0.34250816164575065,-2.938481379562174
1782665011571458560,2.572239637374878,-1.1841715574264526,-0.6844804286956787,0.20575380325317383,-0.3420705795288086,0.038804542273283005,-0.9388726949691772,0.1801290512084961,-0.0960250049829483,-0.18972837924957275,0.10241725743401595,-0.17481793963792458,0.0015296235670591892,-0.9792584481123556,-0.03881428665928299,-0.34939391261358715,-2.940028681213182
1782665011581378816,2.5821597576141357,-1.0149675607681274,-0.7135895490646362,0.18518835306167603,-0.3483508229255676,0.04993676766753197,-0.9360331296920776,0.16091185808181763,-0.07970666885375977,-0.13980305194854736,0.1023134265995167,-0.1787086284580983,0.006830648798906548,-0.9785440944664462,-0.049957544083496994,-0.3562754073120709,-2.942232617812896
1782665011591298560,2.5920796394348145,-0.9587929248809814,-0.6971933841705322,0.13362622261047363,-0.3546634316444397,0.05934687703847885,-0.9331086874008179,0.1776309609413147,-0.07709285616874695,-0.11706221103668213,0.10235384091503177,-0.1825358191721046,0.011239804253892854,-0.9777924515914119,-0.05938176836485349,-0.36322390845062474,-2.9439030574483818
1782665011601218816,2.6019997596740723,-0.9295735359191895,-0.5643407702445984,0.1083562895655632,-0.36026498675346375,0.0686083659529686,-0.930323600769043,0.12543222308158875,0.010157495737075806,0.0012769699096679688,0.10204703912750902,-0.1859898325350668,0.015683428308990284,-0.977112226992653,-0.06866230137988265,-0.3694642545591646,-2.9463076747900003
1782665011611137536,2.6119186878204346,-0.7611408233642578,-0.6482106447219849,0.17231756448745728,-0.3657662272453308,0.07677766680717468,-0.9275345206260681,0.1322457194328308,0.008427418768405914,0.008818089962005615,0.10197985962197684,-0.189343368556553,0.019540677992501823,-0.9764053287716935,-0.07685329695175667,-0.3756196928234962,-2.9480717830045133
1782665011621057536,2.6218385696411133,-0.5658480525016785,-0.5641441941261292,0.10979878902435303,-0.37101200222969055,0.0834541767835617,-0.9248705506324768,0.17090824246406555,0.04221720993518829,0.023396551609039307,0.10206650080490723,-0.19249058804468983,0.02262983808517644,-0.9757139660925711,-0.08355135535538126,-0.38149755047076966,-2.949279336250966
1782665011630977536,2.631758689880371,-0.3736332952976227,-0.46451130509376526,0.01635316014289856,-0.37562114000320435,0.087556853890419,-0.9226280450820923,0.11913618445396423,0.0428294837474823,-0.01941901445388794,0.10206298580005321,-0.19515960870238042,0.02446814336985331,-0.9751395803408879,-0.08766911399649391,-0.3866299359348596,-2.9501947056738467
1782665011640896512,2.6416776180267334,-0.21439754962921143,-0.37860172986984253,-0.030008479952812195,-0.3793501555919647,0.09075099974870682,-0.9207918643951416,0.11709737777709961,0.06928317248821259,0.028152763843536377,0.10176846702737553,-0.19730820647254887,0.02595235497125828,-0.974699477467004,-0.0908760320051497,-0.3907932519883395,-2.9515246046066044
1782665011650816768,2.651597738265991,-0.09590806066989899,-0.30121782422065735,-0.021747155115008354,-0.3824763298034668,0.09150818735361099,-0.9194226861000061,0.14997819066047668,0.011015601456165314,-0.004252791404724121,0.10147346492771708,-0.19899866312381342,0.02623312546349578,-0.9743790962379179,-0.09163638062188774,-0.39421968839108773,-2.9523698056229084
1782665011660736512,2.66151762008667,-0.2813604772090912,-0.24686376750469208,0.06853214651346207,-0.3848371207714081,0.09354756027460098,-0.9182316064834595,0.14411446452140808,-0.007411696016788483,0.14902079105377197,0.10143060530077533,-0.20036678418751275,0.027154355111707055,-0.9740778429757084,-0.09368454122884513,-0.39686850525995115,-2.952932129867232
1782665011670655744,2.6714367866516113,-0.29679808020591736,-0.06668544560670853,0.09749332070350647,-0.38619887828826904,0.09624689072370529,-0.9173804521560669,0.11268511414527893,-0.005487620830535889,0.18640822172164917,0.10149207992448973,-0.20124813089138385,0.02844202860966123,-0.9738529498946721,-0.09639610916207003,-0.39846080125827343,-2.953385992499984
1782665011680575488,2.68135666847229,-0.4205775260925293,0.14147867262363434,0.09621686488389969,-0.3856755495071411,0.09961355477571487,-0.9172412753105164,0.101785808801651,-0.04103507101535797,0.25673407316207886,0.10164989584916313,-0.20117283551734103,0.03014742041167729,-0.9738007520346103,-0.09977903879648299,-0.3980303442854418,-2.9537165627515294
1782665011690495744,2.691276788711548,-0.7804093360900879,0.3611636459827423,0.20755396783351898,-0.38316866755485535,0.10554361343383789,-0.9176286458969116,0.07599398493766785,-0.0888352319598198,0.3438829183578491,0.10174414562566808,-0.2001966021093643,0.03327168741932912,-0.9738903357229379,-0.1057405526641598,-0.3955554600895051,-2.9546132388094146
1782665011700415488,2.7011966705322266,-0.9557929039001465,0.3314387798309326,0.2941778004169464,-0.3795500099658966,0.11460165679454803,-0.9180458784103394,0.0931577980518341,-0.08924153447151184,0.43652427196502686,0.10194950121196218,-0.19882539019384507,0.038020116596987424,-0.9739759126893548,-0.11485400272856361,-0.3920322367045208,-2.9558353355176155
1782665011710334464,2.711115598678589,-0.663738489151001,0.43504562973976135,0.4658065438270569,-0.3753427267074585,0.12336777150630951,-0.9186393618583679,0.132468581199646,-0.041153423488140106,0.4230033755302429,0.10298381151539078,-0.19716889248507766,0.04248239466438309,-0.9740195585119683,-0.12368287242551507,-0.3878856893518253,-2.955236484502844
1782665011720254720,2.7210357189178467,-0.5672915577888489,0.5018206238746643,0.4527013897895813,-0.3703610599040985,0.13062511384487152,-0.9196574091911316,0.08579990267753601,0.10570301115512848,0.4195658564567566,0.10449368080026131,-0.19504812767760932,0.04612497080363347,-0.9741200482060839,-0.130999467056494,-0.382845828574047,-2.9532924253831276
1782665011730174464,2.7309556007385254,-0.2538948357105255,0.5420383810997009,0.5214642882347107,-0.3648107051849365,0.13612213730812073,-0.9210776090621948,0.04777884483337402,0.22006377577781677,0.3946341276168823,0.10621798835357701,-0.19254450841242624,0.0488653165050838,-0.9742980078953564,-0.13654605929633237,-0.37711340284517936,-2.950505629881659
1782665011740093696,2.740874767303467,-0.024028075858950615,0.7768381237983704,0.6127081513404846,-0.3578827977180481,0.13918766379356384,-0.923334538936615,0.0771668553352356,0.16723932325839996,0.317316472530365,0.10875736533892919,-0.1892178007569883,0.05029258800989132,-0.9745969551979207,-0.13964104760441615,-0.36976965926835614,-2.94548472770044
1782665011750013696,2.7507946491241455,-0.23743076622486115,0.9374850392341614,0.5754592418670654,-0.3490511178970337,0.14236362278461456,-0.9262267351150513,0.07900106906890869,0.03669826686382294,0.36316215991973877,0.11131904794460674,-0.1849158512262646,0.05189187944959889,-0.9750495041520626,-0.14284894523304992,-0.36039402930817027,-2.940307967236073
1782665011759933696,2.7607147693634033,-0.07121969014406204,0.9833766222000122,0.6208195686340332,-0.33940157294273376,0.14610229432582855,-0.9292258620262146,0.11373934149742126,-0.14314208924770355,0.3688926100730896,0.11364737548304249,-0.18023147958582628,0.05388583887279876,-0.9755497122593774,-0.14662713607924388,-0.3501971771585418,-2.9356316570216467
1782665011769853696,2.770634651184082,0.11727578938007355,1.1170488595962524,0.7953624129295349,-0.32868319749832153,0.14806219935417175,-0.9327620267868042,0.18517428636550903,-0.29291391372680664,0.2888869047164917,0.11686649433707838,-0.17494293955441867,0.05489957767900842,-0.9760754992115004,-0.14860858918533826,-0.3387901878478503,-2.928727858135565
1782665011779772416,2.7805535793304443,0.41808438301086426,1.0076619386672974,0.7695865035057068,-0.31725457310676575,0.14823219180107117,-0.9366838932037354,0.19049981236457825,-0.20142433047294617,0.30759453773498535,0.12068818360306384,-0.16921985687729324,0.054978958246797105,-0.9766147123869918,-0.14878047773505051,-0.32657250682075645,-2.920239339704194
1782665011789692672,2.790473699569702,1.048533320426941,0.9077080488204956,0.7837572693824768,-0.3072054088115692,0.14377479255199432,-0.940719723701477,0.1939089000225067,-0.015829846262931824,0.29689037799835205,0.12474440713026017,-0.16391711947814613,0.052643178754121146,-0.9771379960516262,-0.1442747859213941,-0.31564602806176023,-2.910639979214739
1782665011799612416,2.800393581390381,1.7250356674194336,0.9707690477371216,0.7954605221748352,-0.2970863878726959,0.13317187130451202,-0.9455183148384094,0.1493660807609558,0.15985789895057678,0.2810286283493042,0.12955723243365544,-0.15817194086795708,0.047143058927281004,-0.9777392319251876,-0.133568677512969,-0.30443721711851385,-2.8986336028732125
1782665011809531648,2.8103127479553223,2.028319835662842,0.8775714039802551,0.5489142537117004,-0.2869749963283539,0.11709951609373093,-0.950753927230835,0.06953725218772888,0.258648157119751,0.27512526512145996,0.13426789303153278,-0.15199824220612557,0.03898163745531818,-0.9784421156839365,-0.11736880128493372,-0.29314346399366453,-2.886190452355403
1782665011819451648,2.820232629776001,2.287126064300537,0.7975545525550842,0.06038137152791023,-0.27845123410224915,0.09786318242549896,-0.9554516077041626,0.06675079464912415,0.39465999603271484,0.3412243127822876,0.13703609929933172,-0.14630199167372732,0.029494705257877427,-0.979258391014791,-0.09802007008893934,-0.28357981653550524,-2.8775242674833272
1782665011829371648,2.830152750015259,3.1734983921051025,0.7138385772705078,0.2514384686946869,-0.2716709077358246,0.07223452627658844,-0.9596754908561707,0.13687479496002197,0.5173803567886353,0.08183741569519043,0.13964558784137104,-0.14100088231201108,0.016762910222513867,-0.9799677715103455,-0.07229749157324193,-0.2758682497510409,-2.8685385196957
1782665011839290624,2.840071678161621,3.5243723392486572,0.7373369932174683,0.15342536568641663,-0.26411157846450806,0.04035826772451401,-0.9636473655700684,0.16232022643089294,0.600358247756958,-0.11665958166122437,0.14296294579009597,-0.13481636633917266,0.0009233930596386602,-0.9805026030444673,-0.04036923223642465,-0.2675059614975408,-2.8574542961679192
1782665011849210624,2.849991798400879,3.441507577896118,0.5651848316192627,-0.04684072360396385,-0.25711551308631897,0.006836888380348682,-0.9663565158843994,0.13330569863319397,0.4512014389038086,0.011278390884399414,0.14565964459063627,-0.12875276184163836,-0.015635903404783973,-0.9807963704336895,-0.00683694170805346,-0.2600424062001594,-2.8476186717532292
1782665011859130624,2.8599116802215576,3.2821128368377686,0.6797382831573486,-0.041081637144088745,-0.25052130222320557,-0.02528395876288414,-0.9677808880805969,0.11763250827789307,0.06790176033973694,0.11656934022903442,0.14761670976623892,-0.12297898349524873,-0.031396445968644535,-0.9808668242394751,0.02528665336215307,-0.25330143345782524,-2.8396223270025596
1782665011869050624,2.8698318004608154,3.0691397190093994,0.6593351364135742,-0.17018772661685944,-0.24328160285949707,-0.056589897722005844,-0.9683035016059875,0.16588902473449707,-0.16226691007614136,0.09827786684036255,0.14931988892164924,-0.11692634086286906,-0.046652802670664184,-0.9807423176437773,0.056620146855073814,-0.2461502710695474,-2.832403791524761
1782665011878969600,2.8797507286071777,1.7396416664123535,0.5618876814842224,-0.08307758718729019,-0.23749475181102753,-0.08028965443372726,-0.9680649638175964,0.17938929796218872,-0.08648890256881714,0.2383439540863037,0.14993168587562564,-0.1122150702950239,-0.05809720082067042,-0.9805880920011177,0.08037617206933491,-0.24057794152453768,-2.8284228593007947
1782665011888889600,2.8896706104278564,0.9385470151901245,0.6559791564941406,-0.3403834402561188,-0.2311425805091858,-0.09346205741167068,-0.9684203267097473,0.1629815697669983,0.08160597831010818,0.3606627583503723,0.14989290440141873,-0.1080402736363132,-0.06416487110461166,-0.9806845877421306,0.0935986647937108,-0.2342965122643841,-2.8272266633996836
1782665011898809600,2.8995907306671143,0.9089867472648621,0.41517263650894165,-0.5899171233177185,-0.2248646318912506,-0.10336592048406601,-0.9688918590545654,-0.05272325873374939,0.2131834328174591,0.31706690788269043,0.14821993969566521,-0.10426402180210342,-0.06843316191675654,-0.9810589922993143,0.10355088348469843,-0.2280471116635976,-2.8298283882326554
1782665011908728576,2.9095096588134766,1.1354824304580688,0.7073866724967957,-0.6634225249290466,-0.21818412840366364,-0.11480291187763214,-0.9691315293312073,-0.03895696997642517,0.33303412795066833,0.25868237018585205,0.1458807199891511,-0.10024408335301295,-0.07338490988869889,-0.9814706272943411,0.11505659458599714,-0.22144165739374488,-2.8336781200500694
1782665011918648832,2.9194297790527344,1.4325311183929443,1.106040358543396,-0.5666717886924744,-0.2077760100364685,-0.12873142957687378,-0.9696686863899231,-0.011630117893218994,0.3664175868034363,0.2935212254524231,0.1438092237285037,-0.09418091859353397,-0.07934490874689488,-0.9819130506889008,0.12908966266994404,-0.21108333504447163,-2.837050083856721
1782665011928568576,2.929349660873413,0.7939820885658264,1.1378792524337769,-0.5430402159690857,-0.19479280710220337,-0.14140917360782623,-0.9705973267555237,0.12451083958148956,0.23927906155586243,0.41833603382110596,0.14194027483733812,-0.0869264060618732,-0.08452884858402183,-0.9824213143470971,0.14188474376564453,-0.19806252104454247,-2.840497783225962
1782665011938488832,2.939269781112671,-0.5403790473937988,0.8224431276321411,-0.5079618692398071,-0.18078139424324036,-0.1450383961200714,-0.9727702140808105,0.22155289351940155,-0.006786540150642395,0.6729045510292053,0.13974355562155202,-0.07983298938610739,-0.085097428488696,-0.9832887719967645,0.1455517831095234,-0.18374561187987107,-2.845812832723816
1782665011948407552,2.949188709259033,-1.4665025472640991,0.8742220401763916,-0.2509981691837311,-0.17134898900985718,-0.1360342800617218,-0.9757736325263977,0.2573933005332947,-0.4538246989250183,0.6394241452217102,0.1375130608683483,-0.07590124723607104,-0.07970057781987937,-0.9843662151008602,0.13645737924421594,-0.17383089687493272,-2.852086443986548
1782665011958327552,2.959108591079712,-2.9139020442962646,1.1293834447860718,-0.008917908184230328,-0.16088788211345673,-0.11580459028482437,-0.9801552891731262,0.24285809695720673,-0.9572849869728088,0.3450997471809387,0.13663576620157303,-0.07208935926209953,-0.06874213848157329,-0.9856004330739951,0.11606500470720937,-0.16269445088226603,-2.856611621991274
1782665011968247552,2.9690287113189697,-5.051318645477295,1.1278555393218994,-0.08677049726247787,-0.14932040870189667,-0.07699655741453171,-0.9857864379882812,0.14037877321243286,-1.1597435474395752,0.22901159524917603,0.13539489329357837,-0.06898223902908932,-0.048458450048179925,-0.9871987617039374,0.07707284029080744,-0.15033060198856363,-2.8631851995772992
1782665011978166528,2.978947639465332,-6.129806041717529,0.9918978810310364,-0.11046624183654785,-0.13849994540214539,-0.021700330078601837,-0.9901246428489685,0.04392598569393158,-1.088651180267334,0.07084369659423828,0.13306770875036564,-0.06735015478057088,-0.02004050021319787,-0.9886128344653757,0.021702033369323238,-0.13897953696139395,-2.8724895273608433
1782665011988086784,2.98886775970459,-6.343603610992432,0.9254851937294006,-0.12205095589160919,-0.12882402539253235,0.03952036052942276,-0.9908796548843384,0.03554704785346985,-0.7299195528030396,-0.20086228847503662,0.13047548254164654,-0.06659498828353315,0.011192616882343727,-0.9891491530465899,-0.039530656257099756,-0.12928460263575137,-2.881852642541201
1782665011998006528,2.9987876415252686,-6.248908996582031,1.0091614723205566,-0.12487576901912689,-0.11875852942466736,0.10121277719736099,-0.9877511858940125,-0.07122865319252014,-0.1569989025592804,-0.28461819887161255,0.1275553180361035,-0.06556728316464265,0.0427240401389797,-0.98873922411518,-0.10138638580239537,-0.11965686088955764,-2.891072054775833
1782665012007926784,3.0087077617645264,-5.5865936279296875,0.7497884631156921,0.05823599547147751,-0.10961516201496124,0.15898503363132477,-0.9811769723892212,-0.06886687874794006,0.4827691316604614,-0.39103060960769653,0.12518304365007665,-0.06467568284367131,0.0723088142464472,-0.9873791383714583,-0.15966251897424444,-0.11125670413711,-2.8982817744493694
1782665012017845504,3.0186266899108887,-3.9661407470703125,0.4227467179298401,0.008232482708990574,-0.10326220095157623,0.20542067289352417,-0.9732108116149902,-0.01127026230096817,0.8828819394111633,-0.45076990127563477,0.1237653828166065,-0.06445987512678276,0.09612244753040985,-0.9855391827996755,-0.20689353389901866,-0.10570914714228725,-2.902722404657548
1782665012027765248,3.0285463333129883,-2.670968770980835,0.5987552404403687,-0.40637561678886414,-0.09570208936929703,0.23447935283184052,-0.9673988819122314,-0.13073834776878357,0.7308679223060608,-0.640587568283081,0.12137994261599815,-0.062349575157744155,0.11141411002486395,-0.9843608621822928,-0.2366829566952808,-0.09860638920345643,-2.907947921993375
1782665012037685504,3.038466453552246,-3.008258581161499,0.462039977312088,-0.16933481395244598,-0.09049336612224579,0.260312020778656,-0.9612744450569153,-0.060614414513111115,0.5576963424682617,-0.6745897531509399,0.11885934668887847,-0.06113660149950029,0.12500033460576063,-0.9831122098434151,-0.2633453534815367,-0.09386232211943109,-2.913398364063697
1782665012047604224,3.0483853816986084,-3.2747247219085693,0.3743900656700134,-0.1378776580095291,-0.08652789145708084,0.2906184494495392,-0.9529185891151428,0.16189104318618774,0.053925007581710815,-0.21689647436141968,0.11692049427119372,-0.06087400792029048,0.14083699092898472,-0.9812180877629806,-0.294873115100504,-0.09055469297753681,-2.917851700904955
1782665012057524224,3.058305263519287,-3.4127092361450195,0.4264143705368042,-0.19504480063915253,-0.08323026448488235,0.32148849964141846,-0.9432485699653625,0.16378141939640045,-0.5115214586257935,-0.13211458921432495,0.1147284091041703,-0.06091201204327816,0.1570523547035365,-0.9790105250335256,-0.3273010105583871,-0.08800995427455346,-2.9228225077650625
1782665012067444224,3.068225383758545,-3.586306095123291,0.5635247826576233,-0.09446733444929123,-0.07873871177434921,0.35422393679618835,-0.9318398833274841,0.1553530991077423,-0.46837493777275085,-0.053038597106933594,0.11267322147938308,-0.06045361278870906,0.1744287969367915,-0.9763322503395473,-0.36208405390498005,-0.08429786721394687,-2.9272392614594316
1782665012077364224,3.0781452655792236,-2.885091781616211,0.6149352788925171,-0.1725115329027176,-0.07364144176244736,0.3840664029121399,-0.9203640222549438,0.16318000853061676,-0.1665523648262024,-0.04940831661224365,0.11053445395297552,-0.059443112523707306,0.19048490889636127,-0.9736345334738233,-0.39419645435121276,-0.0798432875962791,-2.9314574382810457
1782665012087283456,3.088064432144165,-2.3954806327819824,0.7022477984428406,-0.22235429286956787,-0.06804530322551727,0.4075072109699249,-0.910663366317749,0.22690454125404358,0.24559947848320007,-0.3061487674713135,0.10815861024904837,-0.0576632999982871,0.20333045294445887,-0.9714079912673859,-0.4197226788378349,-0.07458199509331212,-2.9357146994477574
1782665012097203200,3.0979843139648438,-2.018190622329712,0.5253851413726807,-0.3709421753883362,-0.06325393170118332,0.42707690596580505,-0.9020001292228699,0.3329530358314514,0.40083447098731995,-0.19132262468338013,0.10555556574699755,-0.05594251553326823,0.21417367251330052,-0.969462832685933,-0.4412575719115344,-0.0700116846536982,-2.9403944791435412
1782665012107123456,3.1079044342041016,-1.6006149053573608,0.4388458728790283,-0.32514435052871704,-0.06017700210213661,0.4428786337375641,-0.8945598006248474,0.3952600061893463,0.2693558633327484,-0.1719227433204651,0.10278307418741436,-0.054768487895182176,0.22298096055062683,-0.967840662095586,-0.458806807526428,-0.06716876294132561,-2.9456795193955285
1782665012117042176,3.117823362350464,-1.7668644189834595,0.42982468008995056,-0.3162563145160675,-0.057804543524980545,0.45693889260292053,-0.8876178860664368,0.37027400732040405,0.09645161032676697,-0.19210928678512573,0.10037349941090978,-0.05388857264531194,0.23083994789067067,-0.9662992260034353,-0.4745507600037131,-0.06503140244657864,-2.950318601920141
1782665012126962176,3.1277432441711426,-2.2117834091186523,0.31055110692977905,-0.23530997335910797,-0.05533227697014809,0.4744163453578949,-0.8785598874092102,0.2825203835964203,0.0074104368686676025,-0.0803787112236023,0.09814349617726689,-0.0531850431872726,0.24060633955942948,-0.9641824573387469,-0.49430090739351534,-0.06289758011512152,-2.954587247362398
1782665012136882432,3.1376633644104004,-2.282711982727051,0.29789867997169495,-0.20838966965675354,-0.053894318640232086,0.49377283453941345,-0.8679192662239075,0.2267458736896515,-0.12657007575035095,-0.03108280897140503,0.09608250883221224,-0.05314426287623513,0.25142804539605346,-0.9616277280348984,-0.5164230596180076,-0.062016377577502446,-2.958804519837606
1782665012146801152,3.1475822925567627,-2.2654221057891846,0.14248402416706085,-0.15649788081645966,-0.052573539316654205,0.5131720900535583,-0.8566740155220032,0.1897348016500473,-0.10149002075195312,0.006866335868835449,0.09447886579373624,-0.05326435096159873,0.26234689561116936,-0.9588590718663803,-0.5388765942925859,-0.061292491713961554,-2.9620925614544196
1782665012156721408,3.1575024127960205,-1.9055352210998535,0.1498900055885315,-0.3225792348384857,-0.05249650776386261,0.530713677406311,-0.8459238409996033,0.07236344367265701,0.057527899742126465,0.06386512517929077,0.09264853544632365,-0.05383138665011392,0.27228709771651977,-0.9562312515877346,-0.5594423726645656,-0.06197871249428424,-2.9662258902135368
1782665012166641152,3.167422294616699,-1.6654167175292969,0.34326064586639404,-0.5050368309020996,-0.05280297249555588,0.5452046990394592,-0.836638331413269,-0.021888811141252518,0.28450721502304077,0.09644973278045654,0.08984174448923087,-0.054098735586091184,0.2806317078949592,-0.9540690255996358,-0.5766332669456959,-0.0630296582942456,-2.972511563327278
1782665012176561408,3.177342414855957,-1.661691427230835,0.5293346643447876,-0.8383053541183472,-0.052595775574445724,0.5584892630577087,-0.827842652797699,-0.013017017394304276,0.48545604944229126,0.13597863912582397,0.08570588780212647,-0.05358475740154687,0.2884568535546027,-0.9521427610350252,-0.5925634511013521,-0.06344826558612149,-2.981423684414878
1782665012186480384,3.1872613430023193,-1.5225204229354858,0.6308078765869141,-0.8457098007202148,-0.05244084820151329,0.5711648464202881,-0.8191584944725037,0.02874394878745079,0.43156641721725464,0.07109642028808594,0.08033987323805758,-0.052619580210066526,0.2960606763242875,-0.950328778223492,-0.607924273937352,-0.06393070918447757,-2.9929757986318286
1782665012196400384,3.197181463241577,-1.350228190422058,0.5517237186431885,-0.7769011855125427,-0.05200151726603508,0.5822573900222778,-0.811339795589447,0.21105912327766418,0.12073028087615967,-0.056839585304260254,0.0753050021736495,-0.05144249145254531,0.3027933043660516,-0.9486828465763752,-0.621502530834512,-0.06400584283684452,-3.0037300508012157
1782665012206320384,3.207101345062256,-1.6587132215499878,0.5034224390983582,-0.8236979246139526,-0.05234037712216377,0.5936694741249084,-0.8030049800872803,0.2739895284175873,-0.05329471826553345,-0.06903481483459473,0.07038032027133065,-0.05066086738983191,0.3097272536360186,-0.946862805519209,-0.6356112316146646,-0.06508856137036016,-3.0146235219025637
1782665012216240384,3.2170214653015137,-1.9340639114379883,0.5000542998313904,-0.7660053372383118,-0.0529102087020874,0.6076197624206543,-0.7924637198448181,0.2469867467880249,-0.0953516960144043,-0.042359888553619385,0.06542786675756855,-0.05005699148076286,0.31821760256296727,-0.9444315793800243,-0.653060208113328,-0.06666778203348858,-3.0258432701578637
1782665012226159360,3.226940393447876,-1.9627944231033325,0.4631309509277344,-0.6492993831634521,-0.0532834529876709,0.6224839687347412,-0.7808166146278381,0.1748502254486084,-0.09788680076599121,-0.10265201330184937,0.060917368254237755,-0.049468452373470986,0.3273294567960483,-0.9416460939648078,-0.6719125962664027,-0.06813504261687026,-3.0361882602489447
1782665012236079104,3.2368602752685547,-2.1400957107543945,0.47073960304260254,-0.6937837600708008,-0.05372673273086548,0.6377635598182678,-0.7683560848236084,0.13337761163711548,-0.05275684595108032,-0.1291201114654541,0.05652040474396795,-0.04890132199295141,0.3367946162511457,-0.9386072144723039,-0.6915911684602712,-0.06981063039027978,-3.0464629289422493
1782665012245999360,3.2467803955078125,-2.2842583656311035,0.5081619620323181,-0.7010407447814941,-0.054560236632823944,0.6542202830314636,-0.75433349609375,0.07845550030469894,0.04200774431228638,-0.0457916259765625,0.05195645826980715,-0.048458208746067453,0.3471095775771875,-0.9351295279645097,-0.7131511788794481,-0.07220332897907446,-3.0574910534451596
1782665012255918336,3.256699323654175,-2.311244249343872,0.5856813192367554,-0.796684205532074,-0.054967962205410004,0.6708496809005737,-0.7395534515380859,0.03482634946703911,0.14450371265411377,-0.03414344787597656,0.04711015581018052,-0.047599861054025513,0.35771152808738965,-0.9314276356168008,-0.7353539429859262,-0.07418946590034123,-3.0691103396833324
1782665012265838336,3.2666194438934326,-2.3009579181671143,0.8128900527954102,-0.7609526515007019,-0.055153634399175644,0.6872290968894958,-0.7243440747261047,-0.03705524280667305,0.30454641580581665,-0.04120469093322754,0.04157027809109548,-0.046237216966052,0.36836136307552114,-0.9276012615860825,-0.7576678105005337,-0.0759962249271965,-3.0822863644617113
1782665012275758336,3.2765393257141113,-2.413095712661743,0.7640122175216675,-0.8220927119255066,-0.054637376219034195,0.703576922416687,-0.7085155248641968,0.025508355349302292,0.2913724184036255,-0.13576853275299072,0.0361547393682873,-0.04442346028902271,0.37916856081037714,-0.9235532060987178,-0.780418559544246,-0.0769629677520934,-3.0950055677719557
1782665012285678336,3.286459445953369,-2.3783135414123535,0.6935766935348511,-0.9139936566352844,-0.05573347955942154,0.7196561694145203,-0.6920900940895081,0.07212144136428833,0.13254714012145996,-0.17280852794647217,0.030157671228932297,-0.04310624382927697,0.38999591222676594,-0.9193124909018958,-0.8033070312259993,-0.08035582586979803,-3.1101526822142
1782665012295597312,3.2963783740997314,-2.2759597301483154,0.7150300741195679,-0.8145980834960938,-0.05687068775296211,0.7350825071334839,-0.6755881309509277,0.1831524521112442,0.024149000644683838,-0.223261296749115,0.02436169417430598,-0.04174282573182333,0.40057891562447256,-0.9149865906918789,-0.8257883945642929,-0.08398153018527801,-3.125162670606936
1782665012305517312,3.30629825592041,-1.9597362279891968,0.6623425483703613,-0.7716459035873413,-0.05805293470621109,0.7487620115280151,-0.660291850566864,0.1990441381931305,0.05113422870635986,-0.2766587734222412,0.0189756825791518,-0.04040867001425326,0.41014779498522613,-0.910925858993447,-0.8461924236621501,-0.08769462162637423,-3.139444579931364
1782665012315437312,3.316218376159668,-1.355116605758667,0.5257557034492493,-0.7822162508964539,-0.05968588590621948,0.7590165138244629,-0.6483298540115356,0.21215170621871948,0.1400008201599121,-0.30450522899627686,0.013956284841438751,-0.039295289760191386,0.41748168441025285,-0.9077280534987204,-0.8618012042244544,-0.0918022247805676,3.130114239476002
1782665012325356288,3.3261373043060303,-0.7079500555992126,0.3585551083087921,-0.7361270189285278,-0.06287646293640137,0.765271008014679,-0.6406300067901611,0.16422533988952637,0.22120970487594604,-0.29947924613952637,0.009356145806940644,-0.03907336998064584,0.42208800064536695,-0.9056640570903403,-0.8714622458783788,-0.09783451302207924,3.116675439764629
1782665012335276288,3.336057424545288,-0.16860929131507874,0.28978031873703003,-0.65632563829422,-0.06610055267810822,0.7673753499984741,-0.6377819776535034,0.19166511297225952,0.19427931308746338,-0.3572131395339966,0.0055506463115278185,-0.03912266996172229,0.42376693472694127,-0.9049090000846239,-0.8747376940653885,-0.10327257829082855,3.1055396401761897
1782665012345196288,3.345977306365967,-0.04167111590504646,0.197632297873497,-0.5485309958457947,-0.06872662156820297,0.7676827311515808,-0.6371341347694397,0.15643411874771118,0.10512000322341919,-0.2882808446884155,0.0024202925959434527,-0.03911590956420262,0.42414957957480587,-0.9047437583672708,-0.8752172073555347,-0.10745288786174483,3.0966319009774814
1782665012355116288,3.3558974266052246,0.2898450493812561,0.06312668323516846,-0.4697062373161316,-0.07194191217422485,0.7666537761688232,-0.6380175352096558,0.10621315240859985,-0.03281283378601074,-0.26453983783721924,-0.00019179435262948037,-0.03965753975022246,0.42357822356655545,-0.9049910221767827,-0.8736131016408214,-0.11228424654243316,3.0887018432982534
1782665012365035264,3.365816354751587,0.3210144639015198,-0.05132262036204338,-0.4366631805896759,-0.075001060962677,0.7641119956970215,-0.6407087445259094,0.1269267499446869,-0.08810192346572876,-0.2964403033256531,-0.0019700136965806895,-0.040485892929351786,0.4219082045647614,-0.9057319594213257,-0.8696635999598393,-0.11652920126094767,3.0830687208185887
1782665012374955264,3.3757362365722656,0.2667136788368225,0.01949988678097725,-0.35679951310157776,-0.07834337651729584,0.762113094329834,-0.6426866054534912,0.012394867837429047,-0.037763118743896484,-0.1606581211090088,-0.0038009851888231886,-0.041458679486047895,0.4206398329419849,-0.9062720342435985,-0.8665705812580252,-0.12130134189388521,3.0770360230392346
1782665012384875264,3.3856563568115234,0.2882966697216034,-0.022456008940935135,-0.29408183693885803,-0.08091478794813156,0.7599508166313171,-0.6449244618415833,-0.0015589669346809387,-0.09605616331100464,-0.15469712018966675,-0.005113888214608631,-0.042247477993544814,0.4192289610054192,-0.9068826502555496,-0.8632374858414417,-0.12481181094677885,3.0727699481999156
1782665012394794240,3.3955752849578857,0.20076867938041687,0.014015981927514076,-0.29557719826698303,-0.08316386491060257,0.7582318782806396,-0.6466593146324158,-0.007290244102478027,-0.10001349449157715,-0.054573655128479004,-0.006338125792359497,-0.042907001220659026,0.4181259904651766,-0.9073530245318485,-0.8605968945313156,-0.12790331941062974,3.068853706634738
1782665012404714240,3.4054954051971436,0.08897377550601959,0.01387635525316,-0.19860722124576569,-0.08472433686256409,0.7569873332977295,-0.6479135155677795,0.01622764766216278,-0.12711983919143677,-0.022527098655700684,-0.007493352932100012,-0.04322498486469206,0.4173425960229558,-0.9076896892162953,-0.8586901876831463,-0.13002710427049105,3.0654856949306484
1782665012414634240,3.4154152870178223,0.16615138947963715,0.07167413830757141,-0.16450756788253784,-0.0859421119093895,0.7560907602310181,-0.6487994194030762,0.07330784201622009,-0.11204785108566284,0.007228434085845947,-0.00821980140091276,-0.04355549881063874,0.4167771612098808,-0.9079274037288397,-0.8573191836252569,-0.13169659727512395,3.0632322117990003
1782665012424554240,3.42533540725708,0.1944938749074936,0.16959983110427856,-0.06808379292488098,-0.08575835824012756,0.7546964883804321,-0.6504449844360352,0.05214325338602066,-0.10033857822418213,-0.060645103454589844,-0.008942195997417779,-0.043110786253844416,0.4158352739486793,-0.9083735383989513,-0.8551914085966296,-0.13108957510598565,3.0620976639207926
1782665012434473216,3.4352543354034424,-0.07498739659786224,0.12420545518398285,-0.10672146826982498,-0.0852867141366005,0.7543410658836365,-0.6509190797805786,0.048940278589725494,-0.17420190572738647,-0.06421458721160889,-0.009505221622084526,-0.0425900080464953,0.41560382687953235,-0.9084982977232727,-0.8546498326239504,-0.13028289355967035,3.0612725140746364
1782665012444393472,3.4451744556427,0.09880843013525009,0.14125436544418335,0.08617930859327316,-0.08407250046730042,0.7544093728065491,-0.6509978771209717,0.04064599424600601,-0.23388636112213135,-0.07263487577438354,-0.009915416962271509,-0.04173287897874085,0.41564338390301253,-0.90851559228332,-0.8547538916328388,-0.1284331775923787,3.0612070765192385
1782665012454313216,3.455094337463379,0.07843658328056335,0.035607825964689255,0.18094338476657867,-0.08239002525806427,0.7540200352668762,-0.6516638398170471,0.11438769102096558,-0.24593287706375122,-0.11454099416732788,-0.009426092019009237,-0.04102571353531272,0.41531309702960856,-0.9087041168185258,-0.854160900261595,-0.12576300057176729,3.063553570966675
1782665012464232192,3.465013265609741,0.5207165479660034,0.1890578716993332,-0.02045632153749466,-0.08101249486207962,0.7524223327636719,-0.653680145740509,0.031009428203105927,-0.15560531616210938,-0.10552096366882324,-0.009392707902151328,-0.04027021218273656,0.4141717604787893,-0.9092590341052444,-0.8517319522828236,-0.1233042093343259,3.0649428424834984
