time,seconds_elapsed,rotationRateX,rotationRateY,rotationRateZ,gravityX,gravityY,gravityZ,accelerationX,accelerationY,accelerationZ,quaternionW,quaternionX,quaternionY,quaternionZ,pitch,roll,yaw
1782477541578474240,0.17311525344848633,1.3117778301239014,0.3654833734035492,0.2733381986618042,-0.05948721617460251,0.697053849697113,-0.714546799659729,0.0577324740588665,-0.09649848937988281,-0.03423243761062622,-0.17541499847400613,0.10285800373961444,-0.36352004715675784,0.9091220260567542,-0.7712803388268005,-0.08306013262234825,-2.7941134944457557
1782477541588394240,0.18303513526916504,1.1437021493911743,0.4649794101715088,0.23866663873195648,-0.05144358053803444,0.6845446228981018,-0.727153480052948,0.003988746553659439,-0.1558580994606018,0.06084799766540527,-0.17719566941633122,0.09740138409879201,-0.35628109178272704,0.9122381397912243,-0.7539788098438066,-0.07062884490647384,-2.785858868998168
1782477541598313216,0.19295430183410645,1.0178717374801636,0.45750686526298523,0.18892225623130798,-0.04425826296210289,0.6723780035972595,-0.7388836145401001,-0.017341453582048416,-0.1944117546081543,0.12107056379318237,-0.17843803312385545,0.09229096215130012,-0.34934306216622896,0.9152057587688518,-0.7374167298157834,-0.05982734574170865,-2.7796049270937813
1782477541608233216,0.20287418365478516,0.9995670914649963,0.3756469488143921,0.14896062016487122,-0.03920336440205574,0.6624249219894409,-0.7481018900871277,0.010837260633707047,-0.14858520030975342,0.14441841840744019,-0.17917378856091076,0.08847382963529653,-0.34368800899811663,0.9175771590081568,-0.724051130876765,-0.05235588852944439,-2.7757410827832567
1782477541618153216,0.21279430389404297,1.178995132446289,0.24945063889026642,0.1106334775686264,-0.035446591675281525,0.6525876522064209,-0.7568836212158203,0.04028363898396492,-0.07278424501419067,0.1543751358985901,-0.17986320508835496,0.08536787802393853,-0.3380391997886946,0.9198320408584225,-0.7109945197017319,-0.04679809188122217,-2.7727648133681773
1782477541628073216,0.22271418571472168,1.4648317098617554,0.158153235912323,0.08342695981264114,-0.03268590196967125,0.6414647698402405,-0.766455888748169,0.043275490403175354,-0.013580858707427979,0.14885640144348145,-0.180672936358682,0.08267435077723331,-0.3315675050435979,0.9222718458865792,-0.6964061245467988,-0.042619686834129644,-2.7701653324921267
1782477541637992448,0.23263335227966309,1.7054048776626587,0.1359906643629074,-0.007930385880172253,-0.030586563050746918,0.6287393569946289,-0.7770143747329712,0.008858051151037216,0.054839134216308594,0.1569277048110962,-0.18141454231255025,0.08010883600205967,-0.3241533616225992,0.9249842903184586,-0.6799309742065264,-0.03934390483339968,-2.7681722522538044
1782477541647912192,0.2425532341003418,2.03576397895813,0.13421578705310822,-0.08686941117048264,-0.029209520667791367,0.6141872406005859,-0.7886195778846741,-0.027949899435043335,0.07927894592285156,0.18991047143936157,-0.1818004417889681,0.07758336293121984,-0.3157071970210456,0.9280400504139485,-0.6613556299363988,-0.03702187336403171,-2.7674079498142765
1782477541657832448,0.2524733543395996,2.3350658416748047,0.13740545511245728,-0.10470353066921234,-0.028259387239813805,0.5974451303482056,-0.8014116883277893,-0.0199278537184,0.08724713325500488,0.2161150574684143,-0.18202729106336019,0.07498182141131957,-0.30605864467904814,0.9314353527048661,-0.6403113675133668,-0.035247406363300426,-2.767291871598162
1782477541667751424,0.2623922824859619,2.607440233230591,0.15656860172748566,-0.13656103610992432,-0.027415307238698006,0.578602135181427,-0.8151490688323975,-0.015583965927362442,0.111888587474823,0.26195693016052246,-0.18219019452069532,0.07219860534238558,-0.2953181878799615,0.9350835947618679,-0.6170137653023116,-0.03361958971931196,-2.7674523542259646
1782477541677671168,0.2723121643066406,2.867549419403076,0.1724674105644226,-0.16012042760849,-0.02666028030216694,0.5577002167701721,-0.8296141624450684,-0.03907458484172821,0.1183251142501831,0.27816158533096313,-0.18221422995155126,0.06922403059828935,-0.2835505971173886,0.9389382975306841,-0.5916125552225971,-0.03212470111189474,-2.76802031815232
1782477541687591424,0.28223228454589844,3.0783753395080566,0.2172594517469406,-0.1740891933441162,-0.025814589112997055,0.5347579717636108,-0.844610869884491,-0.06752341985702515,0.13766634464263916,0.27318447828292847,-0.18215131340899646,0.0660021857648883,-0.270810418123119,0.9429349476327209,-0.5642213140934486,-0.030554372449546282,-2.768800423432846
1782477541697510144,0.29215121269226074,3.118546485900879,0.33539196848869324,-0.24585339426994324,-0.02462695725262165,0.510517418384552,-0.8595147132873535,-0.1196296438574791,0.1500203013420105,0.24301385879516602,-0.1817940464371688,0.06245147305912738,-0.2575703036357751,0.946946865626723,-0.5357863981855087,-0.028644329069294813,-2.7701129351489233
1782477541707430400,0.30207133293151855,2.6869571208953857,0.6162099838256836,-0.5023692846298218,-0.02262374758720398,0.48752978444099426,-0.8728131651878357,-0.18846634030342102,0.11209484934806824,0.22541332244873047,-0.18031456175576344,0.058424335736146166,-0.24531612416384893,0.9507329872219831,-0.5092582793898183,-0.025914689563850502,-2.773473444773407
1782477541717350144,0.31199121475219727,1.8337079286575317,0.8726297616958618,-0.8786411881446838,-0.01995186135172844,0.4702152907848358,-0.8823261857032776,-0.25144097208976746,-0.007400959730148315,0.2859516739845276,-0.17665111332987662,0.054239522652644916,-0.23642119716180163,0.9539169110343543,-0.489534714236847,-0.0226089411404436,-2.781018740623658
1782477541727269120,0.32191014289855957,1.1227467060089111,0.9947982430458069,-1.1072502136230469,-0.017004309222102165,0.45935526490211487,-0.8880898356437683,-0.22760933637619019,-0.19209757447242737,0.2621133327484131,-0.13090500969170082,0.04051872240647633,-0.2330521471399757,0.9627610590736841,-0.47726922306341374,-0.01914471978426596,-2.8759709380560547
1782477541737189376,0.3318302631378174,0.4632519483566284,1.0065995454788208,-1.2525699138641357,-0.014200466684997082,0.45414066314697266,-0.8908168077468872,-0.11891721189022064,-0.21431827545166016,0.1813288927078247,-0.11485220323860758,0.03483669268986903,-0.23103678249094906,0.9655140632904464,-0.4714074420256214,-0.015939599976906305,-2.9086247160568104
1782477541747109120,0.3417501449584961,0.20010599493980408,0.9831917881965637,-1.3448446989059448,-0.011970369145274162,0.4527028799057007,-0.8915810585021973,-0.07720198482275009,-0.06964623928070068,0.08597803115844727,-0.10190226664434279,0.0305082170027885,-0.23082182842712828,0.9671640958432768,-0.46979430303797776,-0.013425195438398506,-2.934856297030225
1782477541757028352,0.3516693115234375,0.3698665201663971,1.0659713745117188,-1.366112470626831,-0.009724394418299198,0.4515635073184967,-0.8921859860420227,-0.13251805305480957,0.0969899594783783,-0.061930835247039795,-0.08937083050076403,0.02630568437885514,-0.23068379610013995,0.968558701685886,-0.4685169167740929,-0.010899082861060793,-2.9601707746290042
1782477541766948096,0.3615891933441162,0.9797279834747314,1.2343542575836182,-1.3558523654937744,-0.006297817919403315,0.4469943344593048,-0.8945146203041077,-0.21048378944396973,0.2827572524547577,-0.16230911016464233,-0.07781864489296361,0.02158566451602345,-0.22864110208890684,0.9701554271472953,-0.4634024961224131,-0.007040369785432334,-2.983171383574053
1782477541776868352,0.371509313583374,1.9224903583526611,1.4587095975875854,-1.3559671640396118,-0.0010779841104522347,0.43572720885276794,-0.9000781178474426,-0.2719475328922272,0.44951143860816956,-0.21031922101974487,-0.0663025244494239,0.015756240608353587,-0.2229633867189836,0.972441829343788,-0.4508460530605307,-0.0011976555389299295,-3.0057150648053117
1782477541786787328,0.38142824172973633,3.0462729930877686,1.6965820789337158,-1.3454327583312988,0.006406405009329319,0.4156196713447571,-0.909515917301178,-0.28211745619773865,0.5326682925224304,-0.24543702602386475,-0.05511708453538182,0.008723625569872287,-0.21252276483153293,0.9755614315032415,-0.428623995252882,0.007043635877314827,-3.0271839493236468
1782477541796707072,0.39134812355041504,3.979515790939331,1.7835073471069336,-1.2600635290145874,0.015611093491315842,0.3866916298866272,-0.922076940536499,-0.19951002299785614,0.5333980917930603,-0.19974923133850098,-0.04359547561699704,0.0008164030032185143,-0.19738506124830787,0.9793558598638179,-0.39704142693813377,0.016928741072887745,-3.0492168719399615
1782477541806627328,0.40126824378967285,4.205655097961426,1.7315925359725952,-1.3004215955734253,0.02513257972896099,0.3538973927497864,-0.9349465370178223,-0.05882399156689644,0.4698635935783386,-0.062352657318115234,-0.031824937527005805,-0.006948385919589016,-0.18021780835608545,0.9830872584987369,-0.36173490929598645,0.026874830465500647,-3.0719556035932607
1782477541816547072,0.41118812561035156,4.211285591125488,1.5713388919830322,-1.322995901107788,0.033432457596063614,0.32176971435546875,-0.946227490901947,0.026458285748958588,0.24715420603752136,0.1082758903503418,-0.019385808283802757,-0.013737254853232624,-0.1633937865103771,0.9862747713126925,-0.32759802239046265,0.035317674391436876,-3.096448652946706
1782477541826466304,0.42110729217529297,3.8954896926879883,1.3728537559509277,-1.4117742776870728,0.04067892208695412,0.2903791666030884,-0.9560466408729553,0.08305459469556808,-0.013935685157775879,0.19710499048233032,-0.0069213050127031545,-0.019538723605784927,-0.14695210206280854,0.9889264627597201,-0.29462306581760817,0.042523448820962984,-3.1212844399407613
1782477541836386304,0.4310271739959717,3.537139654159546,1.1438666582107544,-1.6010409593582153,0.04668337479233742,0.26043009757995605,-0.9643634557723999,0.10175412148237228,-0.15929484367370605,0.3229144811630249,0.005777563542175717,-0.024318037170049368,-0.13125134754015996,0.9910339769338223,-0.2634676356350535,0.04837072837355129,3.136343523886282
1782477541846306304,0.4409472942352295,3.405191421508789,0.9007850289344788,-1.669740080833435,0.05123171582818031,0.2310018092393875,-0.9716035723686218,0.14882627129554749,-0.2481832057237625,0.3537141680717468,0.01913018918947617,-0.02803625692454641,-0.11581100840648947,0.9926911926837936,-0.23310722009970508,0.05268024761256707,3.1092247845142715
1782477541856225280,0.4508662223815918,3.44823956489563,0.6764720678329468,-1.6518281698226929,0.05437706038355827,0.2008632868528366,-0.9781089425086975,0.20529700815677643,-0.2527278959751129,0.3529868721961975,0.032368586803025595,-0.030610880707707455,-0.10004253245902439,0.993985323459935,-0.20223908147834457,0.05553690633466349,3.0821232820106523
1782477541866145280,0.4607863426208496,3.764274835586548,0.5170103311538696,-1.512453556060791,0.05657060444355011,0.1681419312953949,-0.9841382503509521,0.2278532236814499,-0.1832939088344574,0.38648200035095215,0.044552194922513756,-0.0321452019430713,-0.08305160924183884,0.9950297743075756,-0.16894445567678457,0.05741918886299358,3.0569661786435685
1782477541876065280,0.4707062244415283,4.305870532989502,0.48568782210350037,-1.2520006895065308,0.058876220136880875,0.1304841935634613,-0.9897006750106812,0.21964246034622192,-0.054968446493148804,0.40138280391693115,0.055230787350464945,-0.03309094281926286,-0.06367606939813188,0.9958915258174487,-0.13085733286619025,0.05941888753881394,3.03468328236057
1782477541885984256,0.4806251525878906,4.445921421051025,0.577616274356842,-1.2032113075256348,0.06235074624419212,0.08833689242601395,-0.9941372871398926,0.22770357131958008,0.08819203823804855,0.3941769599914551,0.06250121037108894,-0.033928644893533914,-0.04219236554763236,0.9965752220742675,-0.08845218831641587,0.06263640212030405,3.0190975896302596
1782477541895904256,0.49054527282714844,3.3219807147979736,0.9597830772399902,-1.5974149703979492,0.06853319704532623,0.0509212352335453,-0.9963484406471252,0.22591565549373627,0.065350741147995,0.5320540070533752,0.07082706322188717,-0.03601822786768584,-0.0229883324676157,0.9965730042981383,-0.05094326564670762,0.06867619201137985,3.001440368072158
1782477541905824256,0.5004651546478271,2.250764846801758,1.306392788887024,-1.8704694509506226,0.0790398046374321,0.025903398171067238,-0.9965348839759827,0.2555549144744873,-0.3162171244621277,0.5851274132728577,0.0809513712153477,-0.040474420693986685,-0.009715573365891036,0.9958485195966447,-0.025906296093743328,0.07914894951055343,2.9803974737798264
1782477541915743232,0.5103843212127686,1.307218313217163,2.2437493801116943,-2.4002747535705566,0.09427442401647568,0.009606247767806053,-0.9954999089241028,0.4529820382595062,-0.7011955976486206,0.4092572331428528,0.09235129726617669,-0.047432784746935464,-0.0004249411133891951,0.9945959767662442,-0.009606395602356536,0.09441900373057305,2.956871303418817
1782477541925663232,0.5203042030334473,1.1861076354980469,-0.8860960006713867,-2.119025945663452,0.10197196155786514,0.0007462749490514398,-0.9947869777679443,0.8529382944107056,-0.6848740577697754,-0.43224549293518066,0.10459207501898155,-0.05081094326804933,0.004975095886453424,0.9932038741816742,-0.0007462750317224029,0.10214954545669415,2.9317886870995586
1782477541935583232,0.5302243232727051,2.8155083656311035,0.09503250569105148,-1.1965137720108032,0.10231518745422363,-0.016766874119639397,-0.9946107268333435,0.9449412822723389,-0.8551355600357056,-0.1057615876197815,0.11431772014245063,-0.04992895205072118,0.014203592196949758,0.9920871372683447,0.016767660014032983,0.10250900638339391,2.91128539721633
1782477541945503232,0.5401442050933838,4.106570243835449,-0.23526586592197418,-0.22631239891052246,0.10005425661802292,-0.05286233872175217,-0.99357670545578,1.014768123626709,-1.1028382778167725,0.3105781078338623,0.11877188303403305,-0.046602429958855586,0.03224667733532827,0.9913029982411111,0.052886990132734506,0.10036274722357164,2.9004449342778407
1782477541955422208,0.5500631332397461,3.729654550552368,0.6806343793869019,-0.5342094898223877,0.10397515445947647,-0.09228392690420151,-0.9902892708778381,0.6308881044387817,-0.9495556950569153,0.48046261072158813,0.1221511926191312,-0.0460582835597364,0.05228764751335436,0.9900624470371207,0.09241541511712292,0.1046114411371093,2.891237124337064
1782477541965342208,0.5599832534790039,3.7834033966064453,0.6732259392738342,-1.0791161060333252,0.11211998760700226,-0.12968426942825317,-0.9851959943771362,0.030000366270542145,-0.4989625811576843,0.37022101879119873,0.1272294391755311,-0.047496582955425755,0.07173625526078255,0.9881348860184844,0.13005054969632873,0.1133172254528771,2.878100620512164
1782477541975262208,0.5699031352996826,4.237647533416748,0.8928022384643555,-0.9926429986953735,0.12238797545433044,-0.16873623430728912,-0.9780333638191223,0.05617038160562515,-0.37884068489074707,0.21965628862380981,0.13346656358731981,-0.04959080803121016,0.09232587352931262,0.9854965539923668,0.16954737449383586,0.12448969653705368,2.8617767539387065
1782477541985181440,0.579822301864624,5.095633506774902,0.6514307856559753,-0.35225462913513184,0.13213300704956055,-0.21484042704105377,-0.9676696062088013,0.44332170486450195,-0.3641238212585449,0.24286186695098877,0.137895061791327,-0.05090414223131456,0.11650736856503663,0.982252405212454,0.21652843795552987,0.13570836757412236,2.847870067863674
1782477541995101184,0.5897421836853027,5.60847282409668,0.3736633360385895,-0.2360936850309372,0.13840270042419434,-0.2674005329608917,-0.9535940885543823,0.5100958347320557,-0.3095953166484833,0.3554800748825073,0.14086342340172323,-0.05002276321069856,0.1438773336472813,0.9782405459871872,0.2706943093584904,0.14413153781163104,2.835904146330736
1782477542005021440,0.5996623039245605,6.03502893447876,0.36737242341041565,-0.23186305165290833,0.14326579868793488,-0.32349151372909546,-0.9353225231170654,0.2862843871116638,-0.27454620599746704,0.35544276237487793,0.14371777133776736,-0.04801606010177475,0.1733009182171814,0.9731426389066825,0.3294170769311409,0.1519912974842451,2.823033541088831
1782477542014940160,0.6095812320709229,6.248622894287109,0.3801175057888031,-0.2170257717370987,0.14844892919063568,-0.38153815269470215,-0.9123549461364746,0.08157733082771301,-0.25400567054748535,0.2599196434020996,0.14615333058039728,-0.04589426764397849,0.2042455434769343,0.9668591927839386,0.3914597682532085,0.1612961196070601,2.809491676176681
1782477542024860416,0.6195013523101807,6.4452714920043945,0.36774471402168274,-0.33994337916374207,0.15418583154678345,-0.4395731985569,-0.8848741054534912,-0.010692179203033447,-0.13391312956809998,0.2325913906097412,0.1484367886241028,-0.043861528409163984,0.2358794622452586,0.9593766891464769,0.45512343377856146,0.17251404892684422,2.794539246053406
1782477542034780160,0.6294212341308594,6.344326972961426,0.16580654680728912,-0.4165806174278259,0.15934062004089355,-0.4959297776222229,-0.853618323802948,-0.0075004249811172485,-0.06701269745826721,0.215709388256073,0.15129268095670942,-0.041250157552031125,0.2673747814193245,0.950746889846508,0.5189052438125209,0.18454113314705511,2.776864854955633
1782477542044699136,0.6393401622772217,5.787533283233643,-0.07680997997522354,-0.525654673576355,0.16291409730911255,-0.5473363995552063,-0.8209031224250793,0.013446986675262451,-0.0850030779838562,0.25233012437820435,0.15464514316948055,-0.037756317183605406,0.29685502490572213,0.941560670170924,0.579178227991826,0.19591162364073086,2.757467110948563
1782477542054619392,0.6492602825164795,5.011725902557373,-0.2906820476055145,-0.6076853275299072,0.16574597358703613,-0.5909189581871033,-0.789520800113678,-0.06804394721984863,-0.19268089532852173,0.320801317691803,0.15851870594257877,-0.03402763436627237,0.3226170023518179,0.9325407389612127,0.632197485057931,0.20692742177263487,2.7369446927541343
1782477542064539136,0.6591801643371582,4.750245094299316,-0.14015386998653412,-0.6954166889190674,0.1691247820854187,-0.6283462047576904,-0.759327232837677,-0.13679145276546478,-0.2897750735282898,0.2972148060798645,0.1626816837858085,-0.030692416448033177,0.34553490621122723,0.9236872701829885,0.6794254946247995,0.21915257580683198,2.715200414119603
1782477542074458368,0.6690993309020996,4.356307029724121,-0.07223847508430481,-0.7550829648971558,0.17376986145973206,-0.6622335314750671,-0.7288694977760315,-0.27574434876441956,-0.17031651735305786,0.20347893238067627,0.1668801690715623,-0.02800967159238199,0.3671249097483025,0.9146506155629994,0.7237956836855728,0.23404113781426628,2.691708812436324
1782477542084378368,0.6790192127227783,4.020941257476807,-0.2001577764749527,-0.9847560524940491,0.17956045269966125,-0.6913785338401794,-0.6998240947723389,-0.32869985699653625,0.03834813833236694,0.24195361137390137,0.17179499149293004,-0.0258044601356705,0.3865515225800163,0.9057585259507213,0.7633953213768874,0.25116139302806323,2.6654477601603888
1782477542094298368,0.6889393329620361,3.807546854019165,-0.3155709207057953,-0.9678372144699097,0.1860005110502243,-0.7179069519042969,-0.6708303689956665,-0.324016273021698,0.15540695190429688,0.088478684425354,0.17762641031972565,-0.023488900999673618,0.40500998323470055,0.8965846074266003,0.8007909624783301,0.2704745213939515,2.635371852137453
1782477542104218368,0.6988592147827148,3.2912423610687256,-0.38426777720451355,-0.550703763961792,0.18999533355236053,-0.7402432560920715,-0.6449354290962219,-0.18624165654182434,0.33854037523269653,0.2038801908493042,0.18172131623013893,-0.020848387832685927,0.4208296772822112,0.8885072509124518,0.8334320774973314,0.2864915494483932,2.6105946975009116
1782477542114137088,0.7087781429290771,3.795240640640259,-0.6839735507965088,-0.6397971510887146,0.1918417066335678,-0.7620728015899658,-0.6184188723564148,-0.12084254622459412,0.20263981819152832,0.10990440845489502,0.1860437596230936,-0.016722064160164238,0.4364756017628603,0.8801120253169815,0.8665083601627157,0.30080018834316863,2.5849837186509776
1782477542124057344,0.718698263168335,3.920544147491455,-0.7041396498680115,-0.47114694118499756,0.1926945149898529,-0.78519207239151,-0.5885084867477417,-0.3087681233882904,0.02307659387588501,0.0847090482711792,0.19049539528843182,-0.011448938675610247,0.453447549987376,0.8706122700403925,0.9030062166880736,0.3164269219411411,2.5563456209200486
1782477542133977088,0.7286181449890137,3.941531181335449,-0.5188518166542053,-0.4330134093761444,0.19330134987831116,-0.8074439764022827,-0.5573768019676208,-0.35997307300567627,0.09127271175384521,0.17894357442855835,0.19398750233534853,-0.006272613791443183,0.4703958473388982,0.8608468865452084,0.9398065382770937,0.33382612682144,2.5275992974361348
1782477542143896320,0.7385373115539551,4.143538951873779,-0.38333141803741455,-0.5071333646774292,0.19533084332942963,-0.8289309740066528,-0.5241368412971497,-0.41258546710014343,0.09452545642852783,0.11533862352371216,0.1968931223766312,-0.0019109169436786289,0.4877785598658169,0.8504714386478452,0.9771937792656189,0.3567276541245693,2.495502566512279
1782477542153816320,0.7484571933746338,3.8593430519104004,-0.432948499917984,-0.4801477789878845,0.1980021595954895,-0.8487045764923096,-0.49040350317955017,-0.3336070775985718,0.06380778551101685,0.08265814185142517,0.19979975525721222,0.0022052170155565497,0.504770624897058,0.8398105264739852,1.013531019535714,0.38373801784057954,2.4596122746415583
1782477542163736320,0.7583773136138916,3.542294502258301,-0.620582640171051,-0.5184248089790344,0.20035839080810547,-0.8655050992965698,-0.45908322930336,-0.28365615010261536,0.0558738112449646,0.09128537774085999,0.20307488293147252,0.006536335241532855,0.5200150661239942,0.8296397760412525,1.0461578735973998,0.41151327598022946,2.421926582689172
1782477542173655296,0.7682962417602539,3.381399393081665,-0.6110879182815552,-0.5333326458930969,0.20260298252105713,-0.8801324963569641,-0.42932379245758057,-0.28832685947418213,0.015538990497589111,0.08023321628570557,0.20687888671473495,0.011203007773058197,0.5340529836677899,0.8196725667985615,1.0761412173158125,0.44092564142913243,2.381216716164914
1782477542183575040,0.7782161235809326,3.103482723236084,-0.556826651096344,-0.5783078670501709,0.20566426217556,-0.8926993012428284,-0.4009866416454315,-0.3435884714126587,0.01870638132095337,0.1231393814086914,0.2105453616839565,0.015244615032139624,0.5470596675931125,0.8100395452192893,1.1032998285499742,0.4739107551132311,2.337948657476542
1782477542193495296,0.7881362438201904,2.798915386199951,-0.44189420342445374,-0.654583752155304,0.2096482664346695,-0.9030967950820923,-0.3747851252555847,-0.3485184907913208,0.07085192203521729,0.17782467603683472,0.214174521198099,0.01855010499673289,0.5588052768059171,0.8009506218358874,1.126926981539542,0.5100181886767474,2.292555939651118
1782477542203414272,0.7980551719665527,2.5029640197753906,-0.2616959810256958,-0.6741246581077576,0.21490132808685303,-0.9113649129867554,-0.35104313492774963,-0.2919124960899353,0.10777610540390015,0.2197870910167694,0.21720792938453545,0.02043430059572324,0.5692634487101378,0.7926803753319729,1.1465881017364905,0.5493267575423044,2.2467687837439563
1782477542213334272,0.8079752922058105,2.339120626449585,-0.18986572325229645,-0.626638650894165,0.22069132328033447,-0.9182794690132141,-0.32872191071510315,-0.19278302788734436,0.05154979228973389,0.13899412751197815,0.219854459755116,0.021579594956577117,0.5789415933311718,0.7848725370315166,1.1637128013093325,0.591246018817856,2.19991985467201
1782477542223254272,0.8178951740264893,2.493786573410034,-0.2500324845314026,-0.5607733130455017,0.22571879625320435,-0.9247865676879883,-0.3063017427921295,-0.07195600867271423,0.05802637338638306,0.026974409818649292,0.222166737291903,0.02301463357804256,0.5884891268125462,0.7770410359269551,1.1804742803378185,0.6350749004363846,2.151202926063767
1782477542233173248,0.8278143405914307,2.661294460296631,-0.3357175588607788,-0.5483877062797546,0.230539932847023,-0.9310858845710754,-0.2827194929122925,-0.00844825804233551,0.12996894121170044,-0.054911673069000244,0.22472557551767688,0.02496960755431071,0.5983450224140356,0.7686729648823534,1.1973783357021912,0.684083100829235,2.096178983954572
1782477542243093248,0.8377342224121094,3.0985522270202637,-0.40808022022247314,-0.46113720536231995,0.23439045250415802,-0.9378231763839722,-0.2560252845287323,0.042770206928253174,0.16615569591522217,-0.07789808511734009,0.22732254707926924,0.028061885729070982,0.6092617608465148,0.7591687581658839,1.2163050288942507,0.7413114875394209,2.0312750459783153
1782477542253013248,0.8476543426513672,2.9158589839935303,-0.43709084391593933,-0.5322763919830322,0.23838984966278076,-0.9440584182739258,-0.22786806523799896,0.021589353680610657,0.20785242319107056,-0.04225824773311615,0.22999331503663445,0.03141004864660102,0.6205476424388896,0.7490240644593246,1.2347276944613321,0.8079607916977037,1.9564381356157248
1782477542262932224,0.8575732707977295,2.632479190826416,-0.31674373149871826,-0.7469510436058044,0.2437523603439331,-0.948516845703125,-0.20223845541477203,-0.05364315211772919,0.33142101764678955,0.07606354355812073,0.23292999578301438,0.033839169220054505,0.6306628926966514,0.7395016967682139,1.248519906738037,0.8782131542237173,1.8787931859992464
1782477542272852224,0.8674931526184082,2.2981343269348145,-0.3280581533908844,-0.9539838433265686,0.25166749954223633,-0.9511162638664246,-0.17900127172470093,-0.11211061477661133,0.27892082929611206,0.05169719457626343,0.23676357236485363,0.03509640048756547,0.639740267038888,0.7303722968670064,1.2568303720320704,0.9525525965822967,1.7972854540957797
1782477542282772224,0.877413272857666,1.7089675664901733,-0.40422114729881287,-1.175997257232666,0.2614297866821289,-0.9518013596534729,-0.1604013442993164,0.045348137617111206,0.2649422883987427,0.0966806560754776,0.24157682271420838,0.03540152498086767,0.6469513586410703,0.7223858267749005,1.2590564361942116,1.0204700721828162,1.7219642940701918
1782477542292692224,0.8873331546783447,1.2653611898422241,-0.4558965861797333,-1.1068154573440552,0.2720152735710144,-0.9510346055030823,-0.1467682421207428,0.1178010106086731,0.11117559671401978,0.19654244184494019,0.2470267259365729,0.03507585929664607,0.6522158858341616,0.7157946068407347,1.2565660705705766,1.076004711378038,1.6588616917972694
1782477542302611456,0.8972523212432861,0.919559895992279,-0.5172716975212097,-1.0207151174545288,0.28177741169929504,-0.9496018886566162,-0.13732373714447021,0.18718621134757996,-0.03962540626525879,0.21955335140228271,0.2523032074293842,0.03459536135107346,0.6558515807504292,0.7106370502210928,1.2519634413809269,1.1173212612943169,1.610377147449937
1782477542312531200,0.9071722030639648,1.2093161344528198,-0.8648864030838013,-1.2018077373504639,0.29169201850891113,-0.94779372215271,-0.12885096669197083,0.18294784426689148,0.02378261089324951,0.1203671246767044,0.25824718862529455,0.034526815438792116,0.6590769395982861,0.7055024909854766,1.2462445452642543,1.1548356582948758,1.5640594348107864
1782477542322451456,0.9170923233032227,1.6510436534881592,-0.6482765674591064,-1.061292052268982,0.3018953204154968,-0.9461406469345093,-0.11694884300231934,0.20291119813919067,0.05615651607513428,-0.062448740005493164,0.2646099321634265,0.03524306972120487,0.6635386242980977,0.6988962323625595,1.2410997485239579,1.2012145618947954,1.5071128360348998
1782477542332370176,0.927011251449585,1.744580864906311,-0.4687318503856659,-0.7140296697616577,0.3100658655166626,-0.9452247023582458,-0.10202620923519135,0.22551760077476501,-0.032161712646484375,-0.040857069194316864,0.26929468202214796,0.03635254209309264,0.66907801218441,0.6917322082342171,1.2382823378165735,1.2529084959271442,1.4468036555688826
1782477542342290176,0.9369311332702637,2.0355224609375,-0.34498515725135803,-0.5930050015449524,0.3157259523868561,-0.9450498819351196,-0.0848415270447731,0.2894224226474762,-0.09622526168823242,-0.056149668991565704,0.27240992985270973,0.038163966083922175,0.6753686013682594,0.6842614516922119,1.23774715969985,1.3082789482248411,1.3841699686050424
1782477542352210176,0.9468512535095215,2.265514373779297,-0.31126153469085693,-0.8949310779571533,0.32304689288139343,-0.9441468119621277,-0.06501923501491547,0.27973631024360657,-0.037374794483184814,-0.08686673641204834,0.27603335784865385,0.03980609153805607,0.6825729680856784,0.6755110675873912,1.234995764962766,1.3721811439067442,1.3124099072376119
1782477542362129152,0.9567701816558838,2.7813310623168945,-0.08670362085103989,-0.689801812171936,0.330891877412796,-0.9427558183670044,-0.04149951413273811,0.3342539966106415,0.041388630867004395,-0.05318129062652588,0.279272391239331,0.04139252374968458,0.6910404493708373,0.6653997021788943,1.230799718413229,1.446030637031914,1.2312824624230916
1782477542372049408,0.9666903018951416,2.718959093093872,-0.2000160664319992,-0.5203654170036316,0.3370600640773773,-0.9413616061210632,-0.015129083767533302,0.5012577772140503,-0.16909676790237427,-0.07933813333511353,0.28174846998968045,0.0440040187524593,0.7003564123787002,0.6543564493466746,1.2266434242654163,1.5259410103776903,1.1436944629769137
1782477542381969152,0.9766101837158203,2.5354676246643066,-0.390013724565506,-0.2828441560268402,0.3412717580795288,-0.9399219155311584,0.008968274109065533,0.5602632761001587,-0.23097652196884155,0.11229336261749268,0.28352464679435946,0.047029500841526205,0.7087117631851574,0.6443055492346172,1.2224014299544146,1.597069261443465,1.0652930375466994
1782477542391888384,0.9865293502807617,2.6587398052215576,-0.4557410776615143,0.22113002836704254,0.34209564328193665,-0.9391077160835266,0.03236621990799904,0.5218722820281982,-0.23684149980545044,0.11395037174224854,0.2845768596420171,0.051799750756450914,0.7165890697286875,0.6346912883946819,1.220024282535731,1.6651271409739223,0.9885201690815959
1782477542401808384,0.9964492321014404,2.807828664779663,-0.38275593519210815,0.23798304796218872,0.34056511521339417,-0.9384758472442627,0.05725676938891411,0.38801151514053345,-0.27055418491363525,0.043573372066020966,0.2846693419790533,0.057683967208460064,0.7247764787419818,0.6247678763290129,1.2181900500458096,1.7373614729283602,0.9073511443729816
1782477542411728384,1.0063693523406982,2.4831717014312744,-0.26818355917930603,0.4012340009212494,0.33852988481521606,-0.9373972415924072,0.0817544236779213,0.24604955315589905,-0.3563801646232605,-0.006208188831806183,0.28431037357079425,0.06348837213664012,0.7326980548854126,0.6150530979360204,1.2150798927048732,1.807757625481643,0.8287371937031353
1782477542421648384,1.016289234161377,1.711103916168213,-0.0075874244794249535,0.579696774482727,0.334491491317749,-0.936888575553894,0.1017601266503334,0.3052179515361786,-0.4454203248023987,0.03759836405515671,0.28273738568498374,0.06864084466416369,0.7390321354267602,0.6076013929811674,1.213622222844442,1.8661232534849148,0.7649896014055455
1782477542431567104,1.0262081623077393,0.6980588436126709,0.06867938488721848,0.5701368451118469,0.3298689126968384,-0.9371274709701538,0.11392548680305481,0.3235735297203064,-0.5535495281219482,0.08469821512699127,0.28052911855005525,0.07198094666639093,0.7428199558234253,0.6036065309856401,1.214306091462242,1.9033368539396578,0.7261282151110541
1782477542441487360,1.036128282546997,-0.10332851111888885,0.18572619557380676,0.7675340175628662,0.3242451250553131,-0.9386101365089417,0.11779731512069702,0.3699687719345093,-0.5256080031394958,0.0881352424621582,0.27817846624847004,0.07430489240748217,0.7438934330945167,0.6030904745993557,1.2185791202907652,1.9192676584170283,0.7104366841588192
1782477542451407104,1.0460481643676758,-0.7539486289024353,0.3605286180973053,0.8045218586921692,0.3173066973686218,-0.9412725567817688,0.11542387306690216,0.38281235098838806,-0.5212824940681458,0.1239103227853775,0.2751042086989128,0.0755449071321997,0.7429703260366354,0.6054798275755424,1.2263795408430391,1.9196776203848278,0.7131069734631962
1782477542461326848,1.0559678077697754,-1.0666056871414185,0.5352811217308044,0.9321696162223816,0.309533953666687,-0.9445585012435913,0.10953603684902191,0.3740140497684479,-0.5455843806266785,0.1339637190103531,0.2712137864995898,0.07576878964088445,0.7409636364758518,0.609651676879343,1.2362474460786326,1.9109182420251352,0.72773739968317
1782477542471246848,1.0658879280090332,-1.4493298530578613,0.5454323291778564,0.9643752574920654,0.3008286654949188,-0.9483630657196045,0.10054727643728256,0.4338515102863312,-0.5024731159210205,0.14667558670043945,0.2668599438696909,0.07560179327622825,0.7379417361869874,0.6152334498273127,1.2480346269729805,1.8933575684573276,0.7524844351027142
1782477542481166848,1.075807809829712,-1.6823952198028564,0.5187191367149353,1.0542501211166382,0.29188665747642517,-0.9523195028305054,0.08882560580968857,0.4889819324016571,-0.4999969005584717,0.17248117923736572,0.2625714180832321,0.07523783947426962,0.7339973225879916,0.621806704635088,1.260750290631686,1.866207491405437,0.7870140233071437
1782477542491086080,1.0857269763946533,-2.157132148742676,0.3105592727661133,1.123233437538147,0.28245019912719727,-0.9564931988716125,0.07309278845787048,0.5551199913024902,-0.4694405794143677,0.19346296787261963,0.25867626072734984,0.07504435857752895,0.7286389640528058,0.6297143347965871,1.2747355337837498,1.8240223963660993,0.8357520854084706
1782477542501005824,1.095646858215332,-2.112565755844116,0.06896986067295074,1.2005722522735596,0.2726640999317169,-0.9605261087417603,0.05516962334513664,0.6069439649581909,-0.4265892505645752,0.1703094244003296,0.2553672596280853,0.07545621754923593,0.7224203558961744,0.6381243479190184,1.2888873538758794,1.770436522906724,0.8941033681198226
1782477542510926080,1.1055669784545898,-2.437343120574951,-0.1636119931936264,1.2135390043258667,0.2630663812160492,-0.9640997648239136,0.03616714105010033,0.6303205490112305,-0.443035364151001,0.14048385620117188,0.2529100748989402,0.07652776524233627,0.7157004057470758,0.646492896367929,1.3020319577415924,1.7074227490536042,0.9595958291556825
1782477542520845056,1.1154859066009521,-3.0826117992401123,-0.10880820453166962,1.2986851930618286,0.25369569659233093,-0.9672022461891174,0.012592945247888565,0.5826843976974487,-0.4762793183326721,0.22156846523284912,0.2509683625801,0.07721111576330993,0.7073435631318197,0.6562915221978106,1.3139749704005093,1.6203936098593268,1.048852504251723
1782477542530764800,1.1254057884216309,-3.54425311088562,0.061560336500406265,1.320318341255188,0.24570783972740173,-0.9692518711090088,-0.013360309414565563,0.5386091470718384,-0.5310227870941162,0.17794162034988403,0.24886205187980284,0.0763290932849071,0.6982075013809728,0.6668941846303469,1.322172091191757,1.516475044463525,1.1573999548964546
1782477542540685056,1.1353259086608887,-3.9073469638824463,0.22413288056850433,1.3035635948181152,0.24886110424995422,-0.9680938720703125,-0.029368016868829727,0.5206701755523682,-0.4991912841796875,0.08552038669586182,0.24829956897468788,0.07079570553880345,0.6930396521772282,0.6730760673523372,1.3175090132615859,1.4533299346494448,1.229334304410057
1782477542550603776,1.145244836807251,-3.994363784790039,0.3054264187812805,1.3402552604675293,0.23891738057136536,-0.9689468741416931,-0.0637214258313179,0.5949143767356873,-0.4231582283973694,0.057297468185424805,0.24484751693995252,0.06873809428348134,0.6807454461199103,0.6869573640081897,1.32093571650201,1.3101543839499923,1.3806712652369117
1782477542560524032,1.1551649570465088,-3.9352197647094727,0.23432552814483643,1.3820730447769165,0.22741475701332092,-0.9686543941497803,-0.09995587170124054,0.6498740315437317,-0.36870211362838745,0.08970201760530472,0.24082868158826917,0.06706470335830912,0.6674761332493281,0.7014124776978543,1.3197554708913097,1.1566823031211817,1.5424294949900184
1782477542570443776,1.1650848388671875,-3.709324359893799,0.04208817705512047,1.4460185766220093,0.21486003696918488,-0.9672077298164368,-0.13544079661369324,0.661375880241394,-0.3873758912086487,0.17883677780628204,0.23683161905803524,0.06638783421844989,0.6541194493419838,0.7152839359252638,1.3139965572184917,1.0083464754127245,1.6974283620144006
1782477542580364032,1.1750049591064453,-3.46116304397583,-0.1457713544368744,1.4576679468154907,0.2016187608242035,-0.9647772312164307,-0.1689813882112503,0.6060594320297241,-0.36176079511642456,0.2995203137397766,0.2331387099859025,0.06683364157052353,0.64112601553691,0.728105072595645,1.3045952288315186,0.8732377932464479,1.8370076904055075
1782477542590283008,1.1849238872528076,-3.41253924369812,-0.24191999435424805,1.5105817317962646,0.187718465924263,-0.9613277912139893,-0.20152105391025543,0.5122937560081482,-0.34000277519226074,0.36981022357940674,0.22964620172109965,0.06808031553964564,0.6281755695252816,0.7402859038750246,1.2917836068581237,0.7499526444717949,1.9631912761700414
1782477542600202752,1.1948437690734863,-3.3238656520843506,-0.42043548822402954,1.56573486328125,0.17285168170928955,-0.9568706154823303,-0.23349757492542267,0.4422454237937927,-0.34587913751602173,0.40004727244377136,0.22617453408841423,0.07006494662301993,0.6150952096699613,0.7520598231524219,1.2760318870553202,0.6372459715274195,2.077578441411556
1782477542610123008,1.2047638893127441,-3.353182792663574,-0.5419818758964539,1.4950588941574097,0.157847061753273,-0.9511828422546387,-0.2652086019515991,0.4119466543197632,-0.35054445266723633,0.35129863023757935,0.22322258003680842,0.07257727936136248,0.601770921335375,0.7633976822260969,1.257046072982763,0.5368684323111316,2.1779684789384257
1782477542620041728,1.2146828174591064,-3.6999294757843018,-0.6861153841018677,1.4918862581253052,0.1426406055688858,-0.9436661005020142,-0.2985767126083374,0.4083695411682129,-0.39965665340423584,0.3063434362411499,0.22068864337287988,0.07524668589622555,0.587409214795165,0.7749741684158291,1.233540054380686,0.4456776736653151,2.2681233202500706
1782477542629961984,1.2246029376983643,-3.973977565765381,-0.9306995272636414,1.541226863861084,0.1264628916978836,-0.933722734451294,-0.3349164128303528,0.3688221573829651,-0.5013206005096436,0.3560803532600403,0.21872421731878344,0.07841800140160263,0.5713076335432095,0.7871581348039404,1.2046744894642571,0.36104414252782285,2.34986428069661
1782477542639881728,1.234522819519043,-4.2638421058654785,-1.075581669807434,1.505483865737915,0.10932103544473648,-0.9211300611495972,-0.37358832359313965,0.22594507038593292,-0.47752100229263306,0.35153940320014954,0.2172947606249908,0.08206885196815002,0.5535978144130226,0.7997356355910955,1.1709737286087472,0.2846764750109035,2.421517979285746
1782477542649800704,1.2444417476654053,-4.387189865112305,-1.0819714069366455,1.494288444519043,0.09203866869211197,-0.905876636505127,-0.41342052817344666,0.02676629275083542,-0.3717113733291626,0.42660409212112427,0.2161250047799281,0.08561498634572313,0.534752098349255,0.8124040735176179,1.1334449574695868,0.21905487010756433,2.4818456899821517
1782477542659720960,1.254361867904663,-4.4696197509765625,-0.9653052091598511,1.506172776222229,0.0747542679309845,-0.8882638812065125,-0.45320969820022583,-0.09262233227491379,-0.3990895748138428,0.4766167104244232,0.21467212155265866,0.08878137752936881,0.5152795536776423,0.824936767502343,1.0935515781047966,0.16347219809156807,2.5327867068564034
1782477542669640704,1.2642817497253418,-4.746793746948242,-0.9469520449638367,1.5529475212097168,0.057476311922073364,-0.8679283857345581,-0.4933527112007141,-0.13624218106269836,-0.4698706865310669,0.4286096692085266,0.2128704554604134,0.09148634327986531,0.49492816923888555,0.8374739495137715,1.0510161336261152,0.11597863523810278,2.5764660673661397
1782477542679559936,1.2742009162902832,-5.272416591644287,-0.9445258975028992,1.5940030813217163,0.0396728478372097,-0.8434126973152161,-0.5357994437217712,-0.1471710205078125,-0.49403536319732666,0.412966251373291,0.2108797777690579,0.09383717962399975,0.47254085888029185,0.8505465335853744,1.003603890025626,0.07390933760111454,2.61496243064741
1782477542689479936,1.284120798110962,-6.219337463378906,-0.9682570695877075,1.648655652999878,0.021437762305140495,-0.8124728798866272,-0.5826047658920288,-0.20051488280296326,-0.4812588095664978,0.3387387990951538,0.20894732372238936,0.09555610962511529,0.44672882286981674,0.8646638244167941,0.9483813386453934,0.03677981167942064,2.6485020603869085
1782477542699399936,1.2940409183502197,-7.260437965393066,-0.55533367395401,1.8336318731307983,0.0035356583539396524,-0.772048830986023,-0.6355533599853516,-0.2999681532382965,-0.39900219440460205,0.27459144592285156,0.20640544884492182,0.09552861553823758,0.41604998884813943,0.8804393850774777,0.8820585402646715,0.005563060429004587,2.6784145378324338
1782477542709318912,1.303959846496582,-7.841096878051758,-0.16247272491455078,1.7671152353286743,-0.01195901446044445,-0.7224546074867249,-0.6913148760795593,-0.4178200364112854,-0.27272355556488037,0.2094576358795166,0.20267729524076103,0.09291717573139759,0.3817184292313458,0.8969834200504002,0.8073458715270395,-0.017297214683320506,2.704535677577444
1782477542719238912,1.3138799667358398,-7.959090232849121,0.06456122547388077,1.642138123512268,-0.023455729708075523,-0.6658830642700195,-0.7456873059272766,-0.48582160472869873,-0.13639354705810547,0.3616083264350891,0.1987094151470334,0.08806251347559879,0.34554498575089687,0.9128845366831202,0.7286768171753326,-0.03144481316960343,2.7249279759119482
1782477542729158912,1.3237998485565186,-7.322474956512451,-0.1425234079360962,1.542887806892395,-0.033460769802331924,-0.6071686744689941,-0.7938681244850159,-0.4374864995479584,-0.10994857549667358,0.5097036957740784,0.19476404434738895,0.08320948814191766,0.3100679482860376,0.9268230620452962,0.6524924002599513,-0.04212409634827724,2.741591064070316
1782477542739077888,1.3337187767028809,-6.116420745849609,-0.30115044116973877,1.3341156244277954,-0.043323058634996414,-0.5526602268218994,-0.8322799205780029,-0.4247860610485077,-0.017499685287475586,0.5517165660858154,0.1911913362056158,0.07984309792663985,0.27836151434062173,0.937862387548228,0.585552838475483,-0.052006533001971146,2.7550666626397122
1782477542748997888,1.3436388969421387,-5.0935750007629395,-0.5698554515838623,1.0452169179916382,-0.05280376970767975,-0.5058416128158569,-0.8610087037086487,-0.43176957964897156,0.11391961574554443,0.5145732164382935,0.1884208996178641,0.0780576102209749,0.25179881551073424,0.9460454179654817,0.5303573135751549,-0.0612510852157976,2.7650430187150263
1782477542758917888,1.3535587787628174,-4.612774848937988,-0.5955941081047058,0.907245934009552,-0.062450554221868515,-0.46402058005332947,-0.8836203217506409,-0.4894903600215912,0.19644245505332947,0.41839510202407837,0.18640898359276095,0.07749724575462708,0.22843823340909367,0.9523979297092445,0.48252861637715516,-0.07055845587081151,2.7723957604125182
1782477542768837888,1.3634788990020752,-4.414547443389893,-0.5765466094017029,0.4482772946357727,-0.07023148238658905,-0.42429685592651367,-0.9027954936027527,-0.5934800505638123,0.41105222702026367,0.3219849467277527,0.18557453024108092,0.07672445811333359,0.20667752638304754,0.9575802570253634,0.4381852297969145,-0.07763698224702621,2.776043282596878
1782477542778756864,1.3733978271484375,-3.9742987155914307,-0.5840439200401306,0.20297636091709137,-0.07637561857700348,-0.38644692301750183,-0.9191439151763916,-0.6259711980819702,0.6082029342651367,0.2761385440826416,0.18624444793009734,0.07577584378356658,0.186241952809913,0.961709361063568,0.3967761044064928,-0.08290383934515218,2.775684447949404
1782477542788676864,1.3833179473876953,-3.1324126720428467,-0.4646938145160675,0.059258606284856796,-0.08153393864631653,-0.354387104511261,-0.9315374493598938,-0.5933623313903809,0.6759355664253235,0.1318548321723938,0.18755400612170292,0.07513198189727925,0.1690753341047727,0.9646720689928138,0.36225856107133125,-0.08730371877575607,2.7735371183642963
1782477542798596864,1.393237829208374,-1.9979491233825684,-0.1284049153327942,-0.10468912124633789,-0.08378434926271439,-0.3310414254665375,-0.9398892521858215,-0.6065843105316162,0.7041646242141724,-0.03571194410324097,0.18887822689719816,0.07397869604832369,0.1567881941821172,0.9665762616720768,0.337407012909098,-0.08890778957590956,2.7707897724601547
1782477542808515840,1.4031567573547363,-0.8822659850120544,-0.06597989797592163,-0.28992849588394165,-0.08393444120883942,-0.3185085654258728,-0.9441966414451599,-0.6252177953720093,0.6623959541320801,-0.1779193878173828,0.19041571728272388,0.07295879052577457,0.15026208017699746,0.9673883055173933,0.3241556878435529,-0.08866202622131333,2.7673986305232194
1782477542818435840,1.4130768775939941,-0.15569958090782166,-0.14221717417240143,-0.5337004661560059,-0.08329633623361588,-0.3149208426475525,-0.9454557299613953,-0.6273054480552673,0.6063637137413025,-0.15734273195266724,0.19273393595056887,0.07261265378861981,0.14832237805707083,0.9672546139684397,0.3203732640912492,-0.08787489241332318,2.762434165542129
1782477542828355840,1.4229967594146729,0.2637070119380951,-0.2575049102306366,-0.640388011932373,-0.08279798179864883,-0.3165268898010254,-0.9449630975723267,-0.6659965515136719,0.5029892921447754,-0.02772367000579834,0.19575545081865614,0.07300281992344054,0.14895989065923093,0.9665202240819006,0.32206587918268653,-0.0873971335836591,2.7561319297875517
1782477542838275072,1.4329159259796143,0.43259045481681824,-0.2914096713066101,-0.6036316752433777,-0.08332899212837219,-0.3210301995277405,-0.9433959126472473,-0.6677849292755127,0.3936620354652405,0.049032509326934814,0.19879025820861101,0.07423674172927527,0.1509666731788354,0.9654949359340318,0.3268170631732732,-0.08810011132469571,2.7500135967417587
1782477542848194816,1.442835807800293,0.025757167488336563,-0.4820954501628876,-0.6363102793693542,-0.08513301610946655,-0.32426878809928894,-0.9421263933181763,-0.6889148354530334,0.33632323145866394,0.05987846851348877,0.2017871245431477,0.07597229936316677,0.15220057956531202,0.9645440101517171,0.3302386354320914,-0.09011787870140513,2.74415877194773
1782477542858115072,1.4527559280395508,-0.41740682721138,-0.35695040225982666,-0.7002294063568115,-0.08637316524982452,-0.3232632875442505,-0.9423590302467346,-0.8136054873466492,0.2928982973098755,0.10709291696548462,0.20518666304367889,0.07701113714792933,0.15129366955209558,0.9638868964800835,0.3291759029039916,-0.09140094731558426,2.7372969440461103
1782477542868033792,1.462674856185913,-0.5939544439315796,-0.20506419241428375,-0.366661012172699,-0.08749569207429886,-0.31881949305534363,-0.943768322467804,-0.8259869813919067,0.16853567957878113,0.13937073945999146,0.20826500186373936,0.07753450039623293,0.14867495671768402,0.9635921697665943,0.324483724008723,-0.09244462296509776,2.7310149923949107
1782477542877954048,1.472594976425171,-0.06511355191469193,-0.04721426963806152,-0.04504093527793884,-0.0883614718914032,-0.31588464975357056,-0.9446740746498108,-0.6368582248687744,0.14074429869651794,0.10554754734039307,0.20950080117830885,0.07781231756901717,0.14699727117348996,0.9635592761509866,0.32138890453465757,-0.09326509563623038,2.7285372859953867
1782477542887873792,1.4825148582458496,0.7065455913543701,-0.17610114812850952,0.03362617641687393,-0.08978764712810516,-0.31835755705833435,-0.9437089562416077,-0.6380718350410461,0.36106690764427185,-0.036698758602142334,0.20929084052272107,0.07878065571651273,0.14811860767021304,0.9633543963837597,0.32399640013998066,-0.09485782575841487,2.729250910032625
1782477542897794048,1.4924349784851074,1.082096815109253,-0.06719916313886642,-0.32164430618286133,-0.09053164720535278,-0.3276021480560303,-0.940468430519104,-0.8004595637321472,0.5505177974700928,-0.1525338888168335,0.20981820000691154,0.0803230838702372,0.15268921030470986,0.9623982927279776,0.3337645635860329,-0.09596660038886129,2.7284559978723246
1782477542907713024,1.5023539066314697,1.0746335983276367,0.033184964209795,-0.2742975652217865,-0.09086321294307709,-0.3384955823421478,-0.9365706443786621,-0.8440122604370117,0.4826453924179077,-0.038267552852630615,0.2111337885637346,0.08199867750790497,0.15808504846603155,0.9610972487030377,0.34531765038736006,-0.09671425944671852,2.725981938795289
1782477542917632768,1.5122737884521484,0.29560354351997375,0.0976225808262825,0.34077581763267517,-0.09062497317790985,-0.3457093834877014,-0.9339551329612732,-0.654736340045929,-0.045846402645111084,0.1935834288597107,0.21052654959243688,0.0826445263028877,0.16184043981554092,0.9605499682048921,0.3529946866217004,-0.09673071431718942,2.7273354070327356
1782477542927553024,1.5221939086914062,-0.11957100033760071,-0.2698017656803131,-0.04225277528166771,-0.09243506193161011,-0.34583580493927,-0.9337309002876282,-0.4877346158027649,-0.16808021068572998,0.3112791180610657,0.20895283225921996,0.083299200024188,0.16185117925167547,0.9608350937518232,0.3531293967150836,-0.09867390352993659,2.7309404272946054
1782477542937471744,1.5321128368377686,0.3736411929130554,-0.0027443524450063705,-0.8833066821098328,-0.0912865400314331,-0.3479733169078827,-0.9330494999885559,-0.8375006914138794,0.1961483657360077,0.05527240037918091,0.21043791708591586,0.08323237884152367,0.16293442716465312,0.9603336102781765,0.3554084417774342,-0.09752637519324626,2.727681057960354
1782477542947392000,1.5420329570770264,-0.6048175096511841,0.7280510067939758,-0.34950509667396545,-0.08696181327104568,-0.3491581678390503,-0.9330199360847473,-0.7274608016014099,0.1960667371749878,0.20067435503005981,0.2132415002331068,0.08169232237258406,0.16375710694001427,0.9597073089601583,0.3566725848414419,-0.09293617392000056,2.721071535130028
1782477542957311744,1.551952838897705,-0.555753767490387,1.4205607175827026,-0.7107564806938171,-0.07469433546066284,-0.34047672152519226,-0.9372813701629639,-0.008450791239738464,-0.27497127652168274,0.5603587627410889,0.21468896143362748,0.07476459614472424,0.16052901689689206,0.9604944183874375,0.34742385972551626,-0.07952447867431335,2.7157457313035716
1782477542967230720,1.5618717670440674,-1.24225652217865,1.9672349691390991,-0.6513650417327881,-0.057978082448244095,-0.33431223034858704,-0.9406773447990417,0.42147296667099,-0.22928640246391296,0.04803818464279175,0.21686967462929968,0.06606592786564723,0.15904911332989127,0.9608882007343561,0.3408753719274461,-0.06155653015901613,2.7082345080473083
1782477542977150976,1.5717918872833252,-1.2467241287231445,1.3189786672592163,-0.748836874961853,-0.04322175681591034,-0.32213205099105835,-0.9457075595855713,0.645745575428009,0.11978524923324585,0.1400129795074463,0.21968875990553047,0.0577316708899941,0.15431548114462035,0.9615563504107872,0.32798073629280555,-0.04567130641917845,2.6999179840919756
1782477542987070720,1.581711769104004,-1.819093108177185,1.0352401733398438,-0.9663686752319336,-0.02821924351155758,-0.30840954184532166,-0.9508349895477295,1.104146957397461,-0.009934544563293457,-0.25821036100387573,0.22338560568873922,0.04923134497399077,0.14885821564832835,0.9620375964955509,0.3135206242751127,-0.029669672472474283,2.689967838591816
1782477542996989952,1.5916309356689453,-0.7942802906036377,-0.00474484171718359,-1.3417609930038452,-0.01873648352921009,-0.29543253779411316,-0.9551798701286316,1.027708649635315,0.09387919306755066,-0.04517108201980591,0.22740898377856517,0.04358305467042581,0.14321518628508856,0.9622240112387443,0.2999082343886524,-0.019613144860761277,2.680399125303805
1782477543006909952,1.601550817489624,0.4947805106639862,-1.2568472623825073,-0.8009047508239746,-0.02212938293814659,-0.2949482500553131,-0.9552569389343262,0.697925865650177,0.3855396807193756,-0.32587099075317383,0.23396836463839782,0.04616661934484089,0.14226796598058467,0.9606701872158157,0.29940135244162325,-0.023161753411979274,2.6672940155805716
1782477543016829952,1.6114709377288818,0.6766124367713928,-0.6602354049682617,-0.5398845076560974,-0.029359348118305206,-0.3001919388771057,-0.9534268975257874,0.8604750633239746,0.2714748978614807,-0.15445274114608765,0.23696352462030276,0.05083560488416905,0.14388293242884964,0.9594590463125255,0.30489385819094744,-0.030783769754230125,2.6620611903038274
1782477543026748928,1.6213898658752441,1.9662864208221436,-1.1403878927230835,-0.36295902729034424,-0.03626953810453415,-0.3119266927242279,-0.9494136571884155,0.24070678651332855,0.1772373616695404,-0.011203408241271973,0.23912901661229694,0.05608476095989719,0.14882096219477953,0.9578747959157192,0.3172202221284187,-0.038183471576563564,2.658411210525053
1782477543036668672,1.6313097476959229,2.3731603622436523,-0.8097536563873291,-0.8082693219184875,-0.04325214773416519,-0.33488258719444275,-0.941266655921936,0.1556026041507721,-0.15280357003211975,-0.27887189388275146,0.24222706348763248,0.06306292574519701,0.15934160304091474,0.9549655755721238,0.3414806183602064,-0.045918705206048537,2.6526891239755597
1782477543046588928,1.6412298679351807,2.403524398803711,-0.5810948610305786,-0.44525015354156494,-0.04725278913974762,-0.35587623715400696,-0.9333376884460449,0.18204893171787262,-0.16792747378349304,-0.008160114288330078,0.24456692551036122,0.06829323995187336,0.16931383370320507,0.9522898499211525,0.3638515084258462,-0.050584563006895546,2.6481262065129476
1782477543056508672,1.6511497497558594,2.0732734203338623,-0.4733416438102722,-0.7478663325309753,-0.04980678856372833,-0.37769749760627747,-0.9245885014533997,0.19555875658988953,-0.21765467524528503,-0.08990734815597534,0.24681406321085095,0.07300680126779883,0.1799326448658986,0.9494088305417226,0.3873083337700742,-0.05381712522947574,2.643476792927806
1782477543066427904,1.6610689163208008,1.3691232204437256,0.17586137354373932,-0.5789470672607422,-0.04894448444247246,-0.3939278721809387,-0.9178372621536255,0.060586944222450256,-0.21953648328781128,0.1818143129348755,0.24981296598141808,0.07547618530918607,0.1881082290189271,0.9468432536274756,0.40490111676130597,-0.05327542359295169,2.6366117857075086
1782477543076347904,1.6709887981414795,1.2507034540176392,-0.4572369158267975,-0.6450756192207336,-0.048865266144275665,-0.40456873178482056,-0.9132011532783508,0.08228200674057007,-0.08943456411361694,0.25905686616897583,0.25261541771716345,0.0775515962178077,0.19335247570570688,0.944873515798402,0.41650718855663194,-0.05345887669941944,2.6304046025183427
1782477543086267904,1.6809089183807373,1.0345001220703125,-0.18085671961307526,-0.5781498551368713,-0.048499442636966705,-0.41655927896499634,-0.9078139662742615,0.3145516812801361,-0.05403703451156616,0.037284791469573975,0.2555230672920377,0.0797557640922087,0.1993289653384931,0.9426637736119731,0.42965728775600065,-0.05337368754356189,2.6238329851032742
1782477543096186880,1.6908278465270996,0.6889179944992065,-0.2967497706413269,-0.10022412985563278,-0.04930958151817322,-0.42518168687820435,-0.9037638306617737,0.3432548940181732,-0.20018452405929565,0.17831522226333618,0.25703573230951365,0.08178321670606221,0.20354257014037444,0.9411772682014118,0.4391626237308912,-0.05450620773109684,2.6205619353176983
1782477543106106880,1.7007479667663574,0.1253587156534195,-0.044359058141708374,-0.4498292803764343,-0.0497417151927948,-0.4282197654247284,-0.9023045897483826,0.2743053436279297,-0.2831602394580841,0.21376705169677734,0.25771372646182106,0.08260787709470686,0.20499665686656784,0.9406041192785769,0.4425218624554756,-0.05507166431101287,2.619134521580685
1782477543116026880,1.7106678485870361,-0.16196878254413605,-0.5794912576675415,-0.7032606601715088,-0.04984240606427193,-0.42848441004753113,-0.9021733999252319,0.29476121068000793,-0.26180794835090637,0.24529778957366943,0.26122273353239467,0.08346338715651683,0.2048100744443595,0.9396006301374913,0.44281474354832734,-0.055190931301353455,2.611685508326978
1782477543125945856,1.7205867767333984,-1.0239453315734863,-0.16585710644721985,-0.5176548957824707,-0.05179770290851593,-0.4241218566894531,-0.9041225910186768,0.38305073976516724,-0.3491325378417969,0.21096158027648926,0.2642562189889764,0.08441101710450331,0.202023486720148,0.9392709208584459,0.4379919768283274,-0.05722801763603038,2.6058277619286145
1782477543135865856,1.7305068969726562,-1.4716360569000244,-0.7094919681549072,-0.7378206849098206,-0.052314162254333496,-0.4136602282524109,-0.9089270830154419,0.3978951871395111,-0.2434900403022766,0.2485877275466919,0.26818189530892084,0.08385971149835772,0.19622440301922253,0.939436982981278,0.4264707384982994,-0.057492524809092144,2.5978953246466077
1782477543145785856,1.740426778793335,-0.9373779892921448,-0.6432186961174011,-0.3120430111885071,-0.05520247295498848,-0.4022643566131592,-0.9138578176498413,0.3866996467113495,-0.15362858772277832,0.02385842800140381,0.2721194199349886,0.08429734518377509,0.18964456365754498,0.9396168442611504,0.41398878190459043,-0.060332666786766846,2.590476911715333
1782477543155705088,1.7503459453582764,-1.7018736600875854,-0.02140359953045845,-0.20780880749225616,-0.056096356362104416,-0.3901548385620117,-0.9190388321876526,0.2520802617073059,-0.18185138702392578,-0.06043809652328491,0.27364256505914974,0.08312730903052104,0.18322233780367025,0.9405526170788913,0.400799752793565,-0.06096243412316815,2.587734429263986
1782477543165624832,1.760265827178955,-2.0339279174804688,0.2138717770576477,-0.002367774723097682,-0.055711619555950165,-0.3732912242412567,-0.9260398745536804,-0.07922183722257614,-0.022491246461868286,-0.011292219161987305,0.27530523056946227,0.08060336808715002,0.1745942317246125,0.9419273268285852,0.3825541584917705,-0.06008871921172036,2.584515924526956
1782477543175545088,1.770185947418213,-0.6193443536758423,-0.335706502199173,-0.36288273334503174,-0.053263578563928604,-0.3612031936645508,-0.9309646487236023,0.3268384039402008,0.05317404866218567,-0.08018946647644043,0.2770053763707804,0.07782053864415996,0.16870573945987502,0.9427355155271393,0.3695578839114096,-0.05715101317970194,2.580701472544399
1782477543185463808,1.7801048755645752,-0.14477728307247162,-0.1742696464061737,0.21633829176425934,-0.05612839758396149,-0.35762256383895874,-0.9321779608726501,0.2926701307296753,0.19961780309677124,-0.25596290826797485,0.27743264017673547,0.07874089272189817,0.16646592236524238,0.942931644100356,0.3657208440553617,-0.06013949912172221,2.5804195429901293
1782477543195383808,1.790024757385254,-0.002112681046128273,-0.3511229157447815,0.06998009234666824,-0.05967311933636665,-0.35724687576293945,-0.9321017861366272,0.28690701723098755,0.06955766677856445,-0.0813259482383728,0.2763610848084332,0.08023096431351934,0.16586768643329194,0.9432260294223193,0.36531858185004323,-0.06393271130481576,2.583369167537968
1782477543205303808,1.7999448776245117,0.48859232664108276,0.004853837192058563,-0.4175190031528473,-0.05908402055501938,-0.3594215512275696,-0.9313029646873474,0.10782060027122498,0.09596329927444458,-0.05423170328140259,0.27773855880459586,0.08052510646108989,0.16692579278967512,0.942609605760228,0.3676479631775187,-0.06335740610834827,2.580296080327081
1782477543215223808,1.8098647594451904,0.2673918306827545,-0.13173729181289673,0.1653728187084198,-0.05995253100991249,-0.3645845651626587,-0.9292383193969727,0.3716895878314972,-0.1326230764389038,-0.10047054290771484,0.2779573181953209,0.08180122575686553,0.16937949565396324,0.9419973222024832,0.37318661728626024,-0.06442863231425343,2.579900478526206
1782477543225143040,1.8197839260101318,-0.3266552686691284,0.014424439519643784,-0.44351714849472046,-0.05803356319665909,-0.364484965801239,-0.9293991923332214,0.209568589925766,-0.222368061542511,0.062425315380096436,0.2791731792546979,0.08106331391732913,0.1694967712180171,0.9416803940944936,0.3730796760499915,-0.06236105582705945,2.5769490547049485
1782477543235062784,1.8297038078308105,0.22758689522743225,0.13967569172382355,0.4049051105976105,-0.05722440779209137,-0.3641602098941803,-0.9295766353607178,0.3912392854690552,-0.2064422070980072,-0.06241250038146973,0.27939991051703733,0.08065618495740044,0.16942924733124784,0.9416602112719885,0.3727309539825828,-0.061482059959146886,2.5763175471221462
1782477543244983040,1.8396239280700684,-0.024510864168405533,0.0245048850774765,0.5676847100257874,-0.05779958888888359,-0.36460715532302856,-0.9293658137321472,0.2861168384552002,-0.20425572991371155,-0.10716372728347778,0.2767108935729542,0.08052439013887677,0.1698025873903864,0.9423979414986291,0.37321089671829216,-0.06211250560917138,2.5821286557979026
1782477543254901760,1.8495428562164307,-0.7178060412406921,0.44518235325813293,-0.0382184162735939,-0.05621064826846123,-0.3607192039489746,-0.9309790730476379,0.021893635392189026,-0.08177042007446289,0.0039008259773254395,0.27614158102982694,0.07903544653549474,0.16811860006642595,0.9429928360416563,0.36903891285209006,-0.06030478369372788,2.5831099039066814
1782477543264822016,1.8594629764556885,-0.012784766033291817,-0.0462166890501976,0.6798920631408691,-0.05463042110204697,-0.35854846239089966,-0.9319112300872803,0.31180205941200256,-0.10425060987472534,0.024989843368530273,0.2748723048644484,0.0776976117836753,0.16735433536605687,0.9436104984080123,0.3667125017638156,-0.05855490172984644,2.5855444764692734
1782477543274742016,1.8693828582763672,-1.0967929363250732,0.2628522217273712,-0.06307972222566605,-0.055661726742982864,-0.3532615900039673,-0.9338672161102295,0.29891735315322876,-0.13439404964447021,-0.009644746780395508,0.27304079884153676,0.0770664231850818,0.16470321094604495,0.9446599022284723,0.3610551983942758,-0.05953303723869907,2.589725296015024
1782477543284660736,1.8793017864227295,-0.6331034898757935,-0.017231643199920654,0.27013418078422546,-0.053009383380413055,-0.3453815281391144,-0.9369640350341797,0.09169042110443115,-0.16276666522026062,0.11437797546386719,0.27345556373526575,0.07463194426341269,0.16108398286057846,0.9453593060206571,0.352645297673026,-0.05651543868770516,2.588513642562418
1782477543294580992,1.8892219066619873,-1.2210818529129028,0.39863380789756775,0.37503740191459656,-0.05262079834938049,-0.3365577459335327,-0.9401914477348328,0.364251047372818,-0.4261070191860199,-0.06733113527297974,0.2713979852978329,0.07275710085242573,0.15687793973080116,0.9468045660536186,0.34325900776654666,-0.055909843977408134,2.5929640828999774
1782477543304500736,1.899141788482666,-1.0992310047149658,0.17251041531562805,0.7554885745048523,-0.050280094146728516,-0.3258671760559082,-0.9440776109695435,0.16804742813110352,-0.3069758415222168,0.015687108039855957,0.2695777662019708,0.06971411212783549,0.15199062069406952,0.9483494289692298,0.33192883697421444,-0.05320816325758649,2.596598203515036
1782477543314419968,1.9090609550476074,-1.6919664144515991,-0.12581849098205566,0.22913016378879547,-0.05233334004878998,-0.31313779950141907,-0.9482647180557251,0.2660631835460663,-0.32080385088920593,-0.1800006628036499,0.26726788525797174,0.06847831071301787,0.14552791369280724,0.9501053331684614,0.31849520514599033,-0.05513260831355846,2.6020155907076425
1782477543324339968,1.9189808368682861,-1.4975380897521973,-0.34990194439888,-0.08273611962795258,-0.05469333380460739,-0.2978355884552002,-0.9530491232872009,0.324285626411438,-0.1596534252166748,-0.12376362085342407,0.26757960330333963,0.06744488985560934,0.1375741002315571,0.9512757910779607,0.30242452792433366,-0.05732486607525341,2.601930093504465
1782477543334259968,1.928900957107544,-1.1971673965454102,-0.5274336338043213,0.4099850356578827,-0.058854855597019196,-0.28500670194625854,-0.9567169547080994,0.3877275288105011,-0.057537853717803955,-0.20543819665908813,0.2680271502702214,0.06767766637111335,0.13061878879425737,0.9521133454818391,0.28901340562482225,-0.061440095703715315,2.601723869469903
1782477543344179968,1.9388208389282227,-0.6565435528755188,-0.4202863872051239,0.27241945266723633,-0.06653565913438797,-0.2765617072582245,-0.9586900472640991,0.3976513743400574,-0.04825213551521301,-0.2715803384780884,0.2665540230074184,0.07001112052790776,0.12551260437737027,0.9530445804177596,0.28021441448397577,-0.06929156891524332,2.605932193340777
1782477543354098688,1.948739767074585,-0.33151623606681824,-0.9223428964614868,0.16417713463306427,-0.07155308127403259,-0.27256667613983154,-0.9594725370407104,0.1806381642818451,0.17671096324920654,-0.17929089069366455,0.26704867263881366,0.07195131149597353,0.12282807179793499,0.95311139829022,0.276059709044496,-0.07443764478151817,2.6055749990411394
1782477543364018944,1.9586598873138428,-0.07594835758209229,-0.7150770425796509,0.15053056180477142,-0.08018290251493454,-0.2704932391643524,-0.9593769311904907,0.30050456523895264,0.18452522158622742,-0.16025197505950928,0.26617157485452236,0.07575801727874498,0.12071559447211151,0.9533315721633726,0.2739053299808576,-0.08338430366150618,2.608554647763364
1782477543373938688,1.9685797691345215,-0.10642297565937042,-0.30797648429870605,0.10647638142108917,-0.08382222801446915,-0.26967817544937134,-0.9592953324317932,0.06935689598321915,-0.13094133138656616,-0.04456514120101929,0.266054018182887,0.07740553168892703,0.11983623220802204,0.9533430267606694,0.27305881186127623,-0.08715758922951525,2.6092730395578716
1782477543383857920,1.978498935699463,-0.2761046886444092,-0.4770675003528595,0.1928482949733734,-0.0865410566329956,-0.26761481165885925,-0.9596316814422607,0.2269982099533081,-0.11364129185676575,0.03148531913757324,0.26564374090150594,0.07838771875161245,0.11848851192836253,0.9535455648287089,0.27091669013136593,-0.08993825011901307,2.6104660017095007
1782477543393777920,1.9884188175201416,-0.07016996294260025,-0.5010858178138733,0.34131893515586853,-0.0914251059293747,-0.2664177417755127,-0.9595118761062622,0.3452703356742859,-0.012451887130737305,-0.05403792858123779,0.2646341115448073,0.08048127984058336,0.1173321183659914,0.9537948905829617,0.2696745195394481,-0.09499614034729956,2.613197080321919
1782477543403697920,1.9983389377593994,-1.0153827667236328,-0.3289971947669983,0.09170619398355484,-0.09708059579133987,-0.26141729950904846,-0.960331380367279,0.24631154537200928,-0.13543328642845154,-0.06936222314834595,0.2642267396431199,0.08248616938400988,0.11415052642759808,0.9541226318465236,0.2644902773168338,-0.10074846523941648,2.6146832556626403
1782477543413616896,2.0082578659057617,-0.847112774848938,-0.24010930955410004,-0.21512988209724426,-0.09924265742301941,-0.2515356242656708,-0.9627464413642883,0.1651148498058319,-0.19908693432807922,0.05454331636428833,0.26530966152200086,0.08226098199808139,0.10890318622550127,0.9544548770078801,0.25426656322913216,-0.10272004626079304,2.6124837481738794
1782477543423536896,2.0181777477264404,-1.0323034524917603,-0.6226018667221069,0.3454761803150177,-0.10360995680093765,-0.24362944066524506,-0.9643182158470154,0.25004854798316956,-0.15184785425662994,-0.20406252145767212,0.2655947369648135,0.08330226124424851,0.10441078566126899,0.9547871877372869,0.24610630627862165,-0.1070331257605693,2.6122178058992636
1782477543433456896,2.0280978679656982,-0.8829915523529053,-0.563103199005127,0.03947930410504341,-0.10975633561611176,-0.23305653035640717,-0.9662495851516724,0.33926379680633545,0.052361950278282166,-0.08065593242645264,0.26533646790849397,0.08477850381704043,0.09842675839088652,0.9553645480966619,0.23521958413357888,-0.11310525982548199,2.6131597602540575
1782477543443375872,2.0380167961120605,-0.9886298179626465,-0.7784157395362854,0.3618808090686798,-0.11744803935289383,-0.22567453980445862,-0.9670971632003784,0.18345755338668823,-0.021990865468978882,-0.2505847215652466,0.2650653684650304,0.08746852138205513,0.09381187079615079,0.955661493146402,0.22763537943347692,-0.12085207061617402,2.6143001230797376
1782477543453296128,2.0479371547698975,-0.72356778383255,-0.630503237247467,0.10228396952152252,-0.12380438297986984,-0.21644103527069092,-0.9684140086174011,0.21352607011795044,0.014658823609352112,-0.0217592716217041,0.26483622608559776,0.0892530846901735,0.08846959177428934,0.9560694006882376,0.21816761657631775,-0.12715268554063,2.6150777496419657
1782477543463216384,2.0578572750091553,-0.2594344913959503,-1.1986310482025146,0.8145016431808472,-0.13359610736370087,-0.21245303750038147,-0.9679957628250122,0.22891776263713837,0.00487247109413147,-0.2760685682296753,0.2630442260778957,0.09332498591252084,0.08539654208643249,0.9564546882416552,0.21408462928466912,-0.13714671794240973,2.619582616810893
1782477543473136128,2.067777156829834,-0.8287901878356934,-0.6593952775001526,0.1834138184785843,-0.1436336785554886,-0.20584551990032196,-0.9679860472679138,0.2649562954902649,-0.08776409924030304,-0.12475687265396118,0.2612322135937808,0.09716711230955691,0.08102793837136506,0.9569487193025576,0.20732765581420762,-0.1473091641633415,2.623962744738912
1782477543483055360,2.0776963233947754,-0.44137799739837646,-0.9186241626739502,0.1966148465871811,-0.15196718275547028,-0.20000705122947693,-0.9679375886917114,0.19139589369297028,0.04000338912010193,-0.11508548259735107,0.2609578553989782,0.1004237339557414,0.07711214226423779,0.9570109256117239,0.20136511594403145,-0.15572977421298892,2.6249404020085243
1782477543492975360,2.087616205215454,-0.8335474133491516,-0.684429943561554,0.2837582230567932,-0.15933692455291748,-0.19342589378356934,-0.9680899381637573,0.21851052343845367,-0.04058288037776947,-0.0683174729347229,0.2606150780053339,0.1031040672124493,0.07296965260891883,0.9571441232054805,0.1946527937143898,-0.1631264469361742,2.625875679749374
1782477543502895360,2.097536325454712,-0.7548856139183044,-0.5702335834503174,0.11521448194980621,-0.1657383143901825,-0.1853623241186142,-0.9685925841331482,0.2366611808538437,-0.08046102523803711,0.0008497238159179688,0.2603175117681515,0.10511248574071978,0.06822803427039656,0.9573563789622994,0.18644056848078397,-0.16947122160935985,2.626486767956188
1782477543512814336,2.107455253601074,-1.1235636472702026,-0.7410317659378052,0.10690785199403763,-0.17271579802036285,-0.17691482603549957,-0.9689532518386841,0.23134006559848785,-0.08069930970668793,-0.04304015636444092,0.26049238426582644,0.10738882242030269,0.06317449292460305,0.957402917365842,0.1778509460383253,-0.176397221679396,2.6260576695855207
1782477543522734080,2.117375135421753,-1.5534207820892334,-1.2266576290130615,0.3952549397945404,-0.18267281353473663,-0.1634087860584259,-0.9694989323616028,0.20557627081871033,-0.0567602664232254,0.09820687770843506,0.26061609659612567,0.11043332549096342,0.05527210263372869,0.9575117485754286,0.16414489495255158,-0.18623637873291216,2.6254698264188208
1782477543532654336,2.1272952556610107,-1.9458924531936646,-1.2217354774475098,0.6825195550918579,-0.19578023254871368,-0.14607153832912445,-0.9697077870368958,0.3483070731163025,-0.19281090795993805,0.024669945240020752,0.25895371685363927,0.11442640900694762,0.04530672837500372,0.9580171632449235,0.14659603859942816,-0.19921808045740097,2.628283346433105
1782477543542573312,2.137214183807373,-2.406083583831787,-1.11276113986969,0.3841940760612488,-0.20663677155971527,-0.12412682175636292,-0.9705120921134949,0.21768414974212646,-0.1362338811159134,0.06603217124938965,0.2577744478363599,0.11675511597257766,0.033349432099891684,0.9585448658931592,0.12444780210668561,-0.20978261039951349,2.629296041885063
1782477543552493312,2.147134304046631,-2.7910213470458984,-1.2852590084075928,0.508105993270874,-0.2183465212583542,-0.0983540341258049,-0.9709023237228394,0.1369713991880417,-0.0165141299366951,-0.062468647956848145,0.25721602028455776,0.11905620204107843,0.019351186625557397,0.9587967121910345,0.09851329901124956,-0.22121003485204987,2.628345511592492
1782477543562413312,2.1570541858673096,-3.9722530841827393,-1.1519386768341064,0.24919265508651733,-0.23018497228622437,-0.0655021145939827,-0.9709399342536926,0.11528629064559937,-0.1004982516169548,-0.06423157453536987,0.25720931030227345,0.12052676608636817,0.0018256513114804091,0.9588082626895537,0.06554904230700627,-0.23277685532288006,2.6250815739628677
1782477543572332288,2.166973352432251,-4.399082660675049,-0.9581038951873779,0.23538467288017273,-0.239436075091362,-0.02380152978003025,-0.970620334148407,0.145777627825737,-0.1606772392988205,0.07814902067184448,0.25906339650380283,0.11955619862751875,-0.019903318249499775,0.9582256373191652,0.023803778035436374,-0.2418548698893346,2.616395603166051
1782477543582252288,2.1768932342529297,-4.128703594207764,-0.7631495594978333,0.7541899681091309,-0.24719072878360748,0.01807132549583912,-0.9687982797622681,0.2624342739582062,-0.22104373574256897,-0.17286425828933716,0.25881451457804744,0.11788230135685493,-0.04128690365012463,0.957817374054533,-0.01807230981322078,-0.24982160471463855,2.61150298140208
1782477543592172288,2.1868133544921875,-4.118093013763428,-1.1105308532714844,0.4287406802177429,-0.25570395588874817,0.05892474576830864,-0.9649577140808105,0.22813132405281067,-0.22768695652484894,-0.15708208084106445,0.25806457821261386,0.11679977917642048,-0.06228129250214564,0.957017036585732,-0.058958896879979544,-0.25903619874353145,2.607130490600692
1782477543602092288,2.196733236312866,-4.3000807762146,-1.4292100667953491,0.5800447463989258,-0.2673587203025818,0.10020685195922852,-0.9583725333213806,0.2172793745994568,0.026105396449565887,-0.16446071863174438,0.25776186191629263,0.1172396165626687,-0.08407501026536009,0.9553769794229746,-0.10037532042575158,-0.2720548192587247,2.6007896546550207
1782477543612011264,2.2066521644592285,-4.101786136627197,-1.4942948818206787,0.6270450353622437,-0.2799837589263916,0.1419982612133026,-0.9494448900222778,0.3623811900615692,0.2463684380054474,-0.13896453380584717,0.25646515953374455,0.11824671017138504,-0.10627921496558293,0.9533876874320271,-0.14247984695374805,-0.28676403632324604,2.5954216499150045
1782477543621931264,2.2165722846984863,-3.4512999057769775,-1.0687817335128784,1.01548433303833,-0.29095736145973206,0.17961543798446655,-0.9397245049476624,0.19014254212379456,0.24512821435928345,-0.24365562200546265,0.25429796916977543,0.11916435418599369,-0.1262442679520996,0.9514172583395986,-0.18059552388016892,-0.3002588265452224,2.5918455892629693
1782477543631851264,2.226492166519165,-2.6347460746765137,-1.20357084274292,0.5577256083488464,-0.2994215488433838,0.21001823246479034,-0.9307196736335754,0.2338850498199463,0.10394662618637085,-0.31281059980392456,0.2510417154293925,0.12000789122130999,-0.14226131258668118,0.9499146306967663,-0.21159360624737883,-0.31125307452354956,2.5915309247183673
1782477543641770240,2.2364113330841064,-2.351095199584961,-1.029924988746643,0.5185177326202393,-0.30853909254074097,0.23387786746025085,-0.9220112562179565,0.12373989820480347,-0.049673765897750854,-0.35028183460235596,0.2495181648468726,0.12182299664683854,-0.1554140509736186,0.9480222838121664,-0.23606426452228554,-0.32292340140890696,2.5882441891342625
1782477543651690240,2.246331214904785,-2.122483015060425,-0.5787510871887207,0.5059358477592468,-0.3141267001628876,0.25591760873794556,-0.9142377376556396,0.18908092379570007,-0.29015833139419556,-0.24082207679748535,0.2476341227506145,0.12220845156307805,-0.16717128447705304,0.9464650779112762,-0.2587967943297742,-0.33095665303878474,2.586326943008431
1782477543661610240,2.256251335144043,-2.385153293609619,-0.532471239566803,0.08272574841976166,-0.3181525468826294,0.2767951190471649,-0.9067322611808777,0.0763159990310669,-0.31793278455734253,-0.2549346089363098,0.24735575562585482,0.12169785492440142,-0.17839141280227933,0.9445534179290641,-0.28045729724526836,-0.33745691442710307,2.5812621415099555
1782477543671529216,2.2661702632904053,-2.4129436016082764,-0.4203833043575287,-0.01576157845556736,-0.3225919306278229,0.2986176013946533,-0.8981993198394775,0.14519324898719788,-0.16228032112121582,-0.10457777976989746,0.24424789686631362,0.12185263158277737,-0.18987438980464877,0.9431026949185908,-0.3032438340471135,-0.34480649844654176,2.5815613303423683
1782477543681449216,2.276090145111084,-2.068849802017212,-0.35667648911476135,0.25397056341171265,-0.32546737790107727,0.3186405897140503,-0.8902466893196106,0.24245959520339966,-0.08853805065155029,-0.0834166407585144,0.24075742987090412,0.12159249399002911,-0.20022967602223168,0.9418913154299468,-0.3242949793075357,-0.3504974822892819,2.5831744694311745
1782477543691369216,2.286010265350342,-2.10471773147583,-0.35804274678230286,0.17719128727912903,-0.32752516865730286,0.3378702402114868,-0.8823666572570801,0.19201189279556274,-0.042063385248184204,-0.049395978450775146,0.23696152148681268,0.12115646542161744,-0.2100899229954472,0.9407616399384832,-0.3446531450325945,-0.3554257029787491,2.585590934464738
1782477543701288192,2.295929193496704,-2.1030826568603516,-0.14270222187042236,0.1934823840856552,-0.3291819393634796,0.3565155565738678,-0.874377429485321,0.15527749061584473,0.003759711980819702,-0.01656794548034668,0.2337342087403946,0.12052986052558132,-0.2197358074752036,0.9394451115043875,-0.36453571583601374,-0.3600638688278332,2.586828428699501
1782477543711208448,2.305849313735962,-1.8942838907241821,-0.04156441241502762,0.18250499665737152,-0.3289683163166046,0.37426450848579407,-0.8670097589492798,0.21687725186347961,0.08751222491264343,-0.007639288902282715,0.23028987359156777,0.11917074946423865,-0.22867761311713847,0.9383344147105203,-0.383603519320658,-0.3626476217497411,2.5890838893193386
1782477543721128192,2.3157691955566406,-1.723942518234253,-0.0321195125579834,-0.14964285492897034,-0.3291941285133362,0.3898787498474121,-0.8600150346755981,0.22454935312271118,0.10092020034790039,-0.023957133293151855,0.22773360313599048,0.11811586660893852,-0.23673009575441525,0.937093918498534,-0.40049993291548386,-0.3655715222382832,2.589791025696385
1782477543731048448,2.3256893157958984,-1.37691068649292,0.25234702229499817,-0.2124030590057373,-0.3289141058921814,0.40235671401023865,-0.8543562293052673,0.1188005805015564,0.09692612290382385,-0.025801241397857666,0.22978931174910017,0.11599917222015986,-0.2436515307359448,0.9350801959262233,-0.4140896663974647,-0.36749552632176596,2.5816213750179267
1782477543740967168,2.3356082439422607,-1.1153416633605957,0.38176199793815613,-0.29228270053863525,-0.3272571563720703,0.4119166433811188,-0.8504278063774109,0.0812549889087677,-0.010427415370941162,-0.04697209596633911,0.23183190518600635,0.11349112673013341,-0.24880891018694104,0.9335243989111888,-0.4245564482677525,-0.3673475015542499,2.574727839308423
1782477543750887168,2.3455281257629395,-0.9131842255592346,0.5964963436126709,-0.2937859296798706,-0.32412222027778625,0.4192546010017395,-0.8480391502380371,0.057368069887161255,-0.151508629322052,-0.10844278335571289,0.2344546486761148,0.1103114561786397,-0.2526100198835843,0.9322288191293797,-0.4326241354843757,-0.3650697292746127,2.567731861696423
1782477543760807168,2.3554482460021973,-1.0419211387634277,0.6030447483062744,-0.18291348218917847,-0.3195893168449402,0.4267362356185913,-0.846025288105011,0.18227550387382507,-0.3158964216709137,-0.07940495014190674,0.23686181247405622,0.1064370918474379,-0.25623913597871373,0.9310794756284938,-0.4408808339925376,-0.36118281686710485,2.5615907690204436
1782477543770726144,2.3653671741485596,-0.635197639465332,0.4467256963253021,0.10296780616044998,-0.31529363989830017,0.43352648615837097,-0.8441828489303589,0.20041021704673767,-0.4490446448326111,0.015401721000671387,0.23828623557465436,0.10302089919263697,-0.2594133229767177,0.93022092510348,-0.4484024584960476,-0.35744595973161736,2.5577124486766163
1782477543780646400,2.3752872943878174,-0.07461151480674744,0.24903181195259094,0.35569512844085693,-0.31097543239593506,0.4373529553413391,-0.8438107967376709,0.19212472438812256,-0.3994806706905365,0.0253903865814209,0.2376673572516811,0.10052521972262589,-0.2607475259277437,0.9302793813418699,-0.45265308991098757,-0.35309239345281274,2.5592178604513496
1782477543790566144,2.385207176208496,0.2846752107143402,0.2877497673034668,0.33261215686798096,-0.3071969449520111,0.4374386668205261,-0.8451493382453918,0.067710280418396,-0.246017187833786,0.08106553554534912,0.2362839833049934,0.09898271601739671,-0.2600533482462594,0.9309911435484423,-0.4527483891957497,-0.34863504538761214,2.563414714960609
1782477543800485376,2.3951263427734375,0.2608071565628052,0.5670564770698547,0.21270279586315155,-0.3024117946624756,0.4353885352611542,-0.8479291796684265,-0.059297770261764526,-0.053857773542404175,0.136182963848114,0.23532254258757854,0.09707363782862034,-0.2580932281187093,0.9319805989710371,-0.4504698177479739,-0.3425845274298941,2.567708135239716
1782477543810405376,2.405046224594116,-0.46175697445869446,0.8474775552749634,-0.03580199554562569,-0.29604148864746094,0.43611571192741394,-0.8498014807701111,-0.10505104064941406,0.0022235214710235596,0.3456358313560486,0.23589221464563875,0.09359635075504605,-0.2575635693521372,0.932338801696738,-0.45127774253823216,-0.3352179421594359,2.5683328614205445
1782477543820325376,2.414966344833374,-1.4470280408859253,1.3204318284988403,-0.04408549144864082,-0.28679805994033813,0.44394510984420776,-0.8489167094230652,-0.12244263291358948,-0.14008161425590515,0.36942458152770996,0.23804907482532742,0.0873413458481742,-0.26060147176255494,0.9315530000722976,-0.45999665820693053,-0.32580109593184653,2.564293073803314
1782477543830244352,2.4248852729797363,-1.7403459548950195,1.4213515520095825,0.396023690700531,-0.27418407797813416,0.45820754766464233,-0.8454992771148682,-0.11241260170936584,-0.5073561072349548,0.29029297828674316,0.23987404170407683,0.07863714585539777,-0.26658314280313844,0.9301667762663647,-0.4759775370215573,-0.3135865117094409,2.5601611980027688
1782477543840164096,2.434805154800415,-0.7707444429397583,1.6040928363800049,1.031129002571106,-0.2579587996006012,0.47108298540115356,-0.8435271978378296,0.1134428083896637,-0.6672347187995911,0.1501373052597046,0.2389345722463292,0.06905908955234014,-0.2710484360811458,0.9298784559582711,-0.4905181371640529,-0.2967782472110387,2.5637717786979675
1782477543850084352,2.444725275039673,0.36726051568984985,1.3965946435928345,1.2235398292541504,-0.23946577310562134,0.47521278262138367,-0.8466575145721436,0.21021465957164764,-0.48363563418388367,0.0023276805877685547,0.23590994446819974,0.06008301924272798,-0.27029847357318,0.9314908938840553,-0.49520583556406855,-0.27563717087246326,2.5754082937192764
1782477543860004096,2.4546451568603516,0.8760923147201538,1.2989085912704468,0.9747729301452637,-0.22203804552555084,0.47161656618118286,-0.8533914089202881,0.23372629284858704,-0.13830357789993286,-0.027895212173461914,0.232293241545662,0.052808758433856615,-0.26554761219606676,0.9342031074254635,-0.49112313903953775,-0.25453958274104105,2.5900526305595104
1782477543869923328,2.464564323425293,0.8001487851142883,1.1567898988723755,0.6449028849601746,-0.20820651948451996,0.46625855565071106,-0.8597981929779053,0.22358739376068115,0.08208125829696655,0.15897732973098755,0.23017425207155598,0.04712988812000278,-0.26053726686175077,0.936439432129107,-0.4850567533450782,-0.23758389537717592,2.6005153521199076
1782477543879843328,2.4744842052459717,1.7834928035736084,0.9508031010627747,1.1602450609207153,-0.19450362026691437,0.45695236325263977,-0.8679648041725159,0.2615965008735657,-0.10426071286201477,0.22845369577407837,0.22703082933236257,0.04227650003691657,-0.2534369675797604,0.939382499270776,-0.47456590468414916,-0.22044964302119563,2.613807734424774
1782477543889763328,2.4844043254852295,2.2944531440734863,0.9023204445838928,1.0961815118789673,-0.18103674054145813,0.44070249795913696,-0.8792081475257874,0.18564487993717194,-0.32128724455833435,0.09518110752105713,0.22229785009419978,0.03876127860865352,-0.24267977978496713,0.9434976600185653,-0.45638113155394533,-0.20307062973824416,2.631497931187124
1782477543899682304,2.494323253631592,2.458977699279785,0.9601600170135498,0.8402808308601379,-0.1685253530740738,0.4211091101169586,-0.8912162184715271,0.07578243315219879,-0.16711130738258362,0.1837119460105896,0.21860347606215197,0.03575877521205821,-0.2304630306974057,0.9475339825976791,-0.434667806199434,-0.1868892230361138,2.6467278109326786
1782477543909602048,2.5042431354522705,2.481271743774414,0.919119119644165,0.6578670740127563,-0.15629930794239044,0.4000096619129181,-0.9030851721763611,0.017047598958015442,0.01620432734489441,0.17998641729354858,0.21561913298628266,0.032812149768769186,-0.2176712717633552,0.9513416853458125,-0.4115273800064264,-0.1713749470523473,2.659975895836611
1782477543919522304,2.5141632556915283,2.814244270324707,0.9601752161979675,0.5252802968025208,-0.1449792981147766,0.3767026662826538,-0.9149186611175537,-0.04325312376022339,0.10964071750640869,0.1993424892425537,0.21338128574224627,0.03032324847270683,-0.20401270422056597,0.9549490843212133,-0.386234154259582,-0.15715472446637171,2.671126306244425
1782477543929441280,2.5240821838378906,2.923750400543213,1.0508054494857788,0.39487481117248535,-0.13378502428531647,0.35072678327560425,-0.9268723130226135,-0.03358864784240723,0.010372459888458252,0.20920568704605103,0.2118752532433305,0.02797811021286743,-0.18915882519535399,0.9584076508056001,-0.35834708216368505,-0.143350232950223,2.680445164958105
1782477543939361280,2.5340023040771484,2.274536371231079,1.2815637588500977,0.34840714931488037,-0.121171735227108,0.3258851170539856,-0.937611997127533,0.0413835346698761,-0.15211805701255798,0.29620885848999023,0.21071310449053712,0.024686855778898058,-0.17488439481996712,0.9614603094386787,-0.3319478072640256,-0.12852205966094793,2.68853758520562
1782477543949281280,2.543922185897827,0.8228074312210083,1.161920189857483,0.21079838275909424,-0.10795871913433075,0.31112828850746155,-0.9442161321640015,-0.0066195279359817505,-0.31154027581214905,0.5228904485702515,0.21006746204579033,0.019874613198915154,-0.1658219955138311,0.9633170799393624,-0.31638002851704095,-0.11384250633543987,2.694001875175261
1782477543959201280,2.553842306137085,0.11519650369882584,0.6921539306640625,-0.17109385132789612,-0.09816078096628189,0.3063209652900696,-0.9468536972999573,0.12474159151315689,-0.3815162777900696,0.5475769639015198,0.2107081649469761,0.015444955182332853,-0.1622793956466197,0.9638614715407005,-0.3113257853310943,-0.103301459078765,2.6949222042974013
1782477543969120256,2.5637612342834473,0.12138315290212631,0.47954434156417847,-0.008069302886724472,-0.08949851989746094,0.30172571539878845,-0.9491847157478333,0.31523704528808594,-0.43374475836753845,0.37467604875564575,0.2117303358737108,0.01149903613313142,-0.15898244176549958,0.9642419947299398,-0.3065021992065897,-0.09401193702138502,2.6947574819866422
1782477543979040512,2.573681354522705,-0.1455010026693344,0.3868500888347626,0.04475449398159981,-0.08449260890483856,0.3010607361793518,-0.9498544335365295,0.34781354665756226,-0.3326922059059143,0.42711883783340454,0.2117938523151585,0.009088880726442485,-0.15808283606215912,0.9644016068440078,-0.3058048106937494,-0.08871970723720292,2.6955519118313496
1782477543988960256,2.583601236343384,0.1756475269794464,-0.11884482204914093,0.03710859268903732,-0.08248822391033173,0.30113497376441956,-0.9500070810317993,0.2576438784599304,-0.17749300599098206,0.4637705087661743,0.21172621299837563,0.008101560573160065,-0.15789501761174113,0.9644560340253859,-0.3058826587454853,-0.08661183893080998,2.696031369800741
1782477543998879232,2.593520164489746,0.4162351191043854,-0.1437147557735443,0.025206129997968674,-0.08315885066986084,0.29781800508499146,-0.9509937167167664,0.32697904109954834,-0.19128113985061646,0.26984137296676636,0.211560899453159,0.008826625941552688,-0.15628574912823004,0.9647480198613078,-0.30240611259254774,-0.08722229792300304,2.696546112393261
1782477544008799232,2.603440284729004,0.517960786819458,-0.41311997175216675,0.3097855746746063,-0.08497884124517441,0.2932274341583252,-0.9522585272789001,0.3626735210418701,-0.017592668533325195,0.20135825872421265,0.21047820325552263,0.01040495079391387,-0.15415083788277348,0.9653124903002355,-0.2976009178564524,-0.08900349111121124,2.6988787196187567
1782477544018719232,2.6133601665496826,0.41385596990585327,-0.2351374477148056,0.24402229487895966,-0.0876932218670845,0.28845784068107605,-0.953468382358551,0.3860483169555664,0.29343608021736145,0.17165380716323853,0.20882719873358999,0.012527677905355404,-0.1520159859313802,0.9659841914532614,-0.29261582138213593,-0.09171484305766878,2.7022592685917064
1782477544028638464,2.623279333114624,-0.5655182600021362,-0.028670188039541245,0.2573258876800537,-0.08780436217784882,0.2889559864997864,-0.9533073306083679,0.2908530533313751,0.4937130808830261,-0.03080826997756958,0.2075558465533016,0.012728933159286249,-0.15226396784932072,0.9662164824313754,-0.29313612008407436,-0.09184585817668457,2.7048296495310944
1782477544038558208,2.6331992149353027,-1.5604236125946045,0.06621558219194412,0.22300013899803162,-0.08680438250303268,0.2992750406265259,-0.9502102136611938,0.18299579620361328,0.3973802328109741,-0.11447179317474365,0.2063030098504987,0.011324010662926896,-0.15737426494076306,0.9656832744009025,-0.30393277594947377,-0.09109996332500676,2.7066907819024957
1782477544048478464,2.6431193351745605,-2.5751404762268066,0.18079142272472382,-0.41328105330467224,-0.08567940443754196,0.3179858326911926,-0.9442161321640015,-0.06265127658843994,-0.04564696550369263,-0.31016314029693604,0.20696554494983302,0.008631666765752498,-0.1667856185232073,0.9639881972507663,-0.32360428002184366,-0.09049347531468685,2.703838236560807
1782477544058398208,2.6530392169952393,-3.5305263996124268,0.36271676421165466,-0.16901405155658722,-0.08359867334365845,0.34615397453308105,-0.9344456791877747,-0.23721736669540405,-0.28740763664245605,-0.19360607862472534,0.2088468584468806,0.004160802272431783,-0.1809968415799002,0.9610441499400761,-0.35346851917037186,-0.08922584628583347,2.6976761312951796
1782477544068317184,2.6629581451416016,-4.354183673858643,0.04460056498646736,-0.39824432134628296,-0.08205683529376984,0.3820919692516327,-0.9204739928245544,-0.10504644364118576,-0.04055449366569519,-0.23017603158950806,0.2101789144398619,-0.00092173064603212,-0.19940447271645445,0.9571112101459571,-0.3920589712616511,-0.08891124900769398,2.6915934441911653
1782477544078237184,2.6728782653808594,-4.3875627517700195,-0.31547531485557556,-0.2956593334674835,-0.08459845930337906,0.42156094312667847,-0.9028452038764954,-0.13274772465229034,0.24811679124832153,-0.04617518186569214,0.21176251618029734,-0.004583055761737269,-0.22035515348568316,0.9521445188894505,-0.43516600667609995,-0.09342926433414384,2.6832348458047255
1782477544088157184,2.682798147201538,-3.9036693572998047,-0.3574031591415405,0.02172178216278553,-0.0879458487033844,0.4581465423107147,-0.8845152854919434,-0.1860562115907669,0.3612809479236603,-0.01787424087524414,0.21184818764543373,-0.007294386918127796,-0.24018567695479387,0.9473003420754436,-0.4759089189678459,-0.09910258219647741,2.677509782893045
1782477544098076416,2.6927173137664795,-3.3103902339935303,0.09181137382984161,-0.2697068452835083,-0.08902241289615631,0.48913508653640747,-0.8676530718803406,-0.4069950580596924,0.55015629529953,-0.08240491151809692,0.2117845340049591,-0.010524488016907481,-0.2570266290329391,0.9428541103894431,-0.5110978269008548,-0.10224362024890246,2.672951935806977
1782477544107996160,2.702637195587158,-2.8845996856689453,0.357074111700058,-0.7565946578979492,-0.08897441625595093,0.5145261883735657,-0.8528460264205933,-0.5588069558143616,0.7376405596733093,-0.17928898334503174,0.21424725872820582,-0.014434935031264712,-0.27086641089531777,0.9383609054319492,-0.5404549951114995,-0.10395042326131554,2.6638283063434827
1782477544117916416,2.712557315826416,-2.3400120735168457,0.27136000990867615,-0.6843013167381287,-0.08813834935426712,0.5351918339729309,-0.8401198387145996,-0.24363350868225098,0.6494852900505066,-0.2464280128479004,0.2177893074516019,-0.01859933814908143,-0.2821243349513366,0.9341454717505175,-0.5647348018835908,-0.1045292614682012,2.6531389107056325
1782477544127835392,2.7224762439727783,-1.9580588340759277,-0.05725153535604477,-0.33551111817359924,-0.08890660107135773,0.5518403649330139,-0.829197108745575,0.18962985277175903,0.24317306280136108,-0.36642056703567505,0.21990136873500205,-0.021103893902253645,-0.2914722358152899,0.930721253384582,-0.5845694298283839,-0.10681204253421635,2.6453948548517903
1782477544137755136,2.732396125793457,-2.2585179805755615,-0.19252733886241913,-0.25000128149986267,-0.09072311967611313,0.5683453679084778,-0.817773163318634,0.28789716958999634,0.06465023756027222,-0.29627102613449097,0.22076086894927,-0.022735423760698432,-0.3009925618145247,0.9274434508268915,-0.6044934248984027,-0.11048742687868489,2.639745177815412
1782477544147675392,2.742316246032715,-2.478971481323242,-0.23223285377025604,-0.08545869588851929,-0.09362507611513138,0.5874626636505127,-0.803817093372345,0.21697713434696198,0.1530768871307373,-0.18931645154953003,0.22101408165622616,-0.024040231570266052,-0.3122715532784798,0.9236131240395918,-0.6279198537557751,-0.11595311773175558,2.6341522868850795
1782477544157594112,2.752235174179077,-2.215850830078125,0.16052401065826416,-0.2426626980304718,-0.09390582144260406,0.605804443359375,-0.7900522947311401,0.18469563126564026,0.127197265625,-0.27406513690948486,0.22113208974895252,-0.02658212982395941,-0.322904386716945,0.9198514451833233,-0.6507765943886373,-0.1183052160082846,2.6297915518352277
1782477544167514368,2.762155294418335,-1.5511513948440552,0.05019582808017731,-0.42967453598976135,-0.09500191360712051,0.6205064654350281,-0.7784256339073181,0.17123481631278992,0.2851484417915344,-0.34509432315826416,0.2228562191382162,-0.02881000620054158,-0.33159792018132817,0.9162685261725814,-0.6693883588485823,-0.12144309012677532,2.622134161216111
1782477544177434112,2.7720751762390137,-0.9831454753875732,0.2325616329908371,-0.2941545248031616,-0.09592251479625702,0.6293639540672302,-0.7711678743362427,0.3289394676685333,0.3270111680030823,-0.4758261442184448,0.22453809715215767,-0.030293595824689285,-0.3368951747041947,0.9138745118689465,-0.6807344715319189,-0.12375042699780889,2.615864221288722
1782477544187354368,2.7819952964782715,-0.7776691913604736,0.020153049379587173,-0.6095436215400696,-0.0977671667933464,0.6356450319290161,-0.7657656073570251,0.4209635853767395,0.2901362180709839,-0.29165321588516235,0.22678248142994706,-0.031150862622395997,-0.3408031852221091,0.9118402175019121,-0.688843798196501,-0.12698544815914956,2.608461417423524
1782477544197273344,2.791914224624634,-0.7894392609596252,-0.04669735208153725,-0.35597842931747437,-0.1010456383228302,0.6412602663040161,-0.7606412172317505,0.4030781090259552,0.2459009885787964,-0.217523455619812,0.22875651936383273,-0.031094910150735643,-0.3445468010373883,0.9099401147971958,-0.6961395227185784,-0.1320694492884558,2.601024886103618
1782477544207193344,2.8018343448638916,-0.2892966568470001,0.034593090415000916,-0.5372907519340515,-0.10312721133232117,0.6449187994003296,-0.7572612166404724,0.34952613711357117,0.2344757318496704,-0.1745624542236328,0.2304285933586875,-0.031246068090300318,-0.3469770361371317,0.9085886519983459,-0.7009169915540051,-0.13535180697997895,2.5952997794477026
1782477544217113344,2.8117542266845703,-0.04884357005357742,-0.0006621014326810837,-0.6540189385414124,-0.10693180561065674,0.6456201672554016,-0.7561350464820862,0.18494999408721924,0.3118230700492859,-0.22483718395233154,0.2332247770151708,-0.030480042405383156,-0.3478554716689307,0.9075647800751346,-0.701835084097824,-0.14048731054139538,2.587019465688297
1782477544227032064,2.8216731548309326,0.1468459665775299,-0.012546533718705177,-0.6457558274269104,-0.11106131970882416,0.644471287727356,-0.7565197348594666,0.10187552869319916,0.26539504528045654,-0.17341190576553345,0.23601239375833183,-0.02924884745218077,-0.3476846879236778,0.9069498055850412,-0.7003316362980857,-0.14576436703460963,2.579114783710252
1782477544236952320,2.8315932750701904,0.19108639657497406,0.18524029850959778,-0.960491418838501,-0.11572034657001495,0.6419859528541565,-0.7579332590103149,0.04453808814287186,0.054394662380218506,-0.13838326930999756,0.23974038216304994,-0.027888139161159346,-0.346778909035602,0.9063614941601924,-0.6970856366945561,-0.1515087680327989,2.5692731121198324
1782477544246872064,2.841513156890869,-0.22855786979198456,0.14477062225341797,-0.9246168732643127,-0.12041030824184418,0.6410892605781555,-0.757961630821228,-0.016277901828289032,-0.05870711803436279,-0.0579410195350647,0.24436823507493674,-0.027119239342721552,-0.3468194524679937,0.9051325063703043,-0.6959167477670227,-0.1575441902968953,2.5569582687313397
1782477544256791296,2.8514323234558105,-0.14486271142959595,0.08122412860393524,-0.9695952534675598,-0.1254275143146515,0.6415603756904602,-0.7567484974861145,0.0875551849603653,-0.021046459674835205,-0.0916401743888855,0.24856581490582508,-0.026257021119655763,-0.34775899767776275,0.9036533286324961,-0.696530698281335,-0.16425208089778104,2.5449837989159705
1782477544266711296,2.8613522052764893,0.026850327849388123,0.17385300993919373,-0.9131959676742554,-0.13055141270160675,0.6405414938926697,-0.7567449808120728,0.15324120223522186,-0.12923473119735718,-0.17469727993011475,0.253128230415348,-0.025235016877633045,-0.34783716121795755,0.902385013578644,-0.6952031718848031,-0.1708354754914402,2.5326022219308353
1782477544276631296,2.871272325515747,0.07764852046966553,0.11636708676815033,-0.7284272313117981,-0.1344011425971985,0.6392248272895813,-0.7571842670440674,0.1453264355659485,-0.004184544086456299,-0.08467364311218262,0.25685549542821323,-0.02448923002567152,-0.3475746676727715,0.9014529815437994,-0.6934898423660226,-0.175671551879803,2.5228145279533356
1782477544286551296,2.881192207336426,0.36176392436027527,0.16621939837932587,-0.8371433615684509,-0.13891085982322693,0.6362401247024536,-0.7588822841644287,0.15853366255760193,0.04018199443817139,-0.07234025001525879,0.26070464375045826,-0.023160872544599084,-0.3464425461559874,0.9008187100915059,-0.6896149271687181,-0.1810424105807265,2.5129918028693012
1782477544296470272,2.891111135482788,0.35336193442344666,0.19148774445056915,-0.7155529856681824,-0.1415080726146698,0.6324880719184875,-0.7615342140197754,0.1802653819322586,0.01569002866744995,-0.00924825668334961,0.26415713324302836,-0.0225038429807408,-0.34456707054876257,0.9005488556299157,-0.6847612015852645,-0.18372424737114607,2.5052980330804644
1782477544306390272,2.901031255722046,0.05166419595479965,0.5650649070739746,-0.7035636901855469,-0.14330913126468658,0.6297513246536255,-0.763463020324707,0.08189252018928528,-0.07733738422393799,0.04639148712158203,0.26835625786419043,-0.022706497421178612,-0.34315144166869904,0.8998424641523375,-0.6812330593298241,-0.18555016679242298,2.496005942634095
1782477544316310272,2.9109511375427246,0.020881250500679016,0.4964618980884552,-0.5067952275276184,-0.14361214637756348,0.6287305355072021,-0.7642470002174377,0.14419198036193848,-0.21575140953063965,0.08098894357681274,0.2718404019230288,-0.023695677812836095,-0.34251280691962166,0.8990140688932812,-0.6799196571164204,-0.18574714554623903,2.488459097882805
1782477544326229248,2.920870304107666,0.017015207558870316,0.36612486839294434,-0.771324098110199,-0.1438722163438797,0.6277204751968384,-0.7650279998779297,0.1656769961118698,-0.2521711587905884,0.03193473815917969,0.2753371159178463,-0.024709799593540395,-0.3418704677625926,0.8981668031345752,-0.6786213936505582,-0.18589019515015437,2.480896348088055
1782477544336149248,2.9307901859283447,0.11311377584934235,0.6764393448829651,-0.5818175673484802,-0.14352473616600037,0.6263836622238159,-0.7661880850791931,0.07725583016872406,-0.19526183605194092,-0.00903475284576416,0.27925404299190953,-0.026123101259484357,-0.3409157517302863,0.8972798699702709,-0.6769052788460936,-0.1851770703144998,2.472805290607266
1782477544346069248,2.9407103061676025,0.31490787863731384,0.4138726592063904,-0.5579678416252136,-0.14289817214012146,0.6238939762115479,-0.7683334946632385,0.10049398243427277,-0.21601128578186035,-0.0444411039352417,0.28289589886815747,-0.027344970635886905,-0.3392425249681752,0.8967366218857087,-0.6737154595293411,-0.18388356748139514,2.4658543633100236
1782477544355988224,2.950629234313965,0.6371234655380249,0.49982112646102905,-0.5734253525733948,-0.14247390627861023,0.6193692088127136,-0.7720641493797302,0.12646742165088654,-0.24385040998458862,-0.015518248081207275,0.2861565047555681,-0.027918943493818002,-0.3364349404322097,0.8967422130396258,-0.6679389844448859,-0.18248343110861942,2.460337248256463
1782477544365908480,2.9605493545532227,0.9642401933670044,0.3920283615589142,-0.23846915364265442,-0.14160354435443878,0.6127092242240906,-0.7775190472602844,0.07289320230484009,-0.11177843809127808,0.019950687885284424,0.2889917131117174,-0.0281287823519195,-0.33233905086809407,0.897353511316129,-0.6594840811203648,-0.18014784764954633,2.456671017164329
1782477544375828224,2.9704692363739014,1.3228007555007935,0.5052979588508606,-0.3002009689807892,-0.13922837376594543,0.6034372448921204,-0.7851617336273193,0.06555892527103424,-0.13494664430618286,0.029958486557006836,0.2907773869731431,-0.028183937978175647,-0.32653451874886913,0.8989045491270294,-0.6478046075799473,-0.1755001432956991,2.456825709614935
1782477544385748224,2.98038911819458,1.5254346132278442,0.4553878903388977,-0.30362772941589355,-0.13710133731365204,0.591867208480835,-0.7942899465560913,-0.06930433213710785,-0.13337111473083496,0.05765664577484131,0.2932845846054965,-0.027926544716180304,-0.31949198813112717,0.9006271809828329,-0.6333733835964046,-0.17092446472493578,2.455826048192946
1782477544395667200,2.9903082847595215,1.6211305856704712,0.4692493975162506,-0.23717784881591797,-0.13485731184482574,0.5785204768180847,-0.8044424057006836,-0.004531741142272949,-0.08001583814620972,0.014128684997558594,0.29539468776007927,-0.0272377823649373,-0.31150745152120335,0.9027531463123211,-0.6169136168294295,-0.16609625323702856,2.45609180697172
1782477544405587200,3.0002281665802,1.216020941734314,0.39121583104133606,-0.4174436330795288,-0.13318635523319244,0.5666645169258118,-0.8131130337715149,-0.06230926513671875,-0.07179147005081177,0.1289241909980774,0.29757738508816584,-0.026566464454371247,-0.30452866555760566,0.9044359297741057,-0.6024519935736153,-0.16235633433561855,2.455324726331712
1782477544415507200,3.010148286819458,1.1183018684387207,0.19838163256645203,-0.4628553092479706,-0.13300439715385437,0.5568481087684631,-0.8198963403701782,-0.07863502204418182,-0.14675289392471313,0.19466745853424072,0.300198425397342,-0.025681059030463364,-0.2989854604773446,0.9054441995614256,-0.5905863253675686,-0.1608200589117402,2.4522913653043044
1782477544425426176,3.0200672149658203,0.8869175910949707,0.29502230882644653,-0.44902047514915466,-0.13325494527816772,0.5478183627128601,-0.825916588306427,-0.04905703663825989,-0.23705792427062988,0.118458092212677,0.30273695205047213,-0.024689584272083513,-0.2939934374925375,0.9062607736509615,-0.5797542256766236,-0.15996339578515595,2.4489941095491226
1782477544435346432,3.029987335205078,0.769963800907135,0.24095694720745087,-0.45691168308258057,-0.1329324096441269,0.5406564474105835,-0.8306741118431091,-0.10328890383243561,-0.20983070135116577,0.1725168228149414,0.30509141953552205,-0.02425813774478165,-0.2899559845267044,0.9067834510107523,-0.5712172776770806,-0.1586840760662678,2.4457935683515286
1782477544445266176,3.039907217025757,0.9854374527931213,0.3833557367324829,-0.4187917709350586,-0.13247272372245789,0.5328259468078613,-0.8357915282249451,-0.14819744229316711,-0.15939760208129883,0.02223867177963257,0.30782361275036574,-0.023874045621582036,-0.2855420464439796,0.9072708241035586,-0.5619365178436769,-0.1571920817935818,2.441945328948119
1782477544455185664,3.0498266220092773,0.9960850477218628,0.37419044971466064,-0.23115421831607819,-0.13085666298866272,0.5237067341804504,-0.8417884707450867,-0.08645902574062347,-0.14464789628982544,-0.05754929780960083,0.3098299940902706,-0.023569926581511167,-0.2802681380630633,0.9082398504739982,-0.5511962932919613,-0.15421645725644173,2.4403950800797
1782477544465105408,3.059746503829956,1.1023468971252441,0.28268590569496155,-0.380580872297287,-0.12943518161773682,0.5148900747299194,-0.8474283218383789,-0.08492030203342438,-0.12489068508148193,0.004105567932128906,0.3091350715982733,-0.022399266453652613,-0.2752891526680559,0.910027314733658,-0.5408794381043762,-0.15156738923608284,2.4445622593184497
1782477544475025664,3.069666624069214,1.7551995515823364,0.5606647729873657,-0.12924906611442566,-0.12740297615528107,0.5023504495620728,-0.8552265763282776,-0.0012285858392715454,-0.11335819959640503,-0.12791240215301514,0.30835445738024636,-0.020836027531839493,-0.268239776813659,0.9124312305990422,-0.5263149898924465,-0.14788231880334754,2.4498885809831386
1782477544484945408,3.0795865058898926,2.150768995285034,0.4416366219520569,-0.13571931421756744,-0.1234252080321312,0.4853489100933075,-0.8655649423599243,-0.06538704037666321,-0.061658114194869995,-0.11635339260101318,0.3075371914821532,-0.019437982856564152,-0.25853375606928847,0.9155344058232108,-0.5067621794337365,-0.14164011805201407,2.4567224716853944
1782477544494864640,3.089505672454834,2.2426042556762695,0.7106009125709534,-0.31676819920539856,-0.11974123865365982,0.4656449556350708,-0.8768333792686462,-0.08306332677602768,0.0460280179977417,-0.10119396448135376,0.3073214183124082,-0.017635534343545672,-0.2475323983001829,0.9186785267790886,-0.4843632552596579,-0.1357214652218528,2.4623706474932647
1782477544504784640,3.0994255542755127,2.2958264350891113,0.6031505465507507,-0.2967036962509155,-0.11485908180475235,0.4452241361141205,-0.8880218863487244,-0.03357841819524765,-0.009585708379745483,-0.021157801151275635,0.30697563875094197,-0.016309143979672747,-0.23605734924421148,0.9218334173421936,-0.46142454777596587,-0.1286285024016184,2.46842799947204
1782477544514704640,3.1093456745147705,2.301222324371338,0.5726770162582397,-0.3512694537639618,-0.11033754795789719,0.42484474182128906,-0.8985168933868408,-0.040770240128040314,-0.019433975219726562,0.03471684455871582,0.30699872722664917,-0.01495969844095953,-0.224761595220612,0.9246676161051618,-0.43879038622857836,-0.12218790529669499,2.473196545546961
1782477544524623616,3.119264602661133,2.2655715942382812,0.633213460445404,-0.4181992709636688,-0.10672138631343842,0.40383273363113403,-0.9085866212844849,0.04651021212339401,-0.07366308569908142,0.02385157346725464,0.3073493961543181,-0.01318158693611258,-0.21338445422005609,0.9272700236047985,-0.4157025232981034,-0.11692293117065605,2.4767867238447625
1782477544534543872,3.1291847229003906,2.3978748321533203,0.5897520184516907,-0.5440312623977661,-0.10229316353797913,0.38254016637802124,-0.9182587265968323,0.03266732394695282,-0.021212071180343628,0.10580456256866455,0.3081680124777828,-0.01188296895922681,-0.20181532105310093,0.9296030332020474,-0.3925440217457048,-0.11094165382777393,2.479303912016578
1782477544544463616,3.1391046047210693,2.780608892440796,0.4002801179885864,-0.7385442852973938,-0.10061778873205185,0.3578842282295227,-0.9283291101455688,0.0031141191720962524,0.021784961223602295,0.04116785526275635,0.3095959254748476,-0.008836870800277471,-0.18909613618755594,0.931834248577108,-0.3660010610001195,-0.10796444698061558,2.4800540170585976
1782477544554382592,3.1490235328674316,2.851592779159546,0.6121220588684082,-0.7350794672966003,-0.09838426858186722,0.3312146067619324,-0.9384121894836426,-0.016163453459739685,0.06441527605056763,0.09501314163208008,0.31134776092028155,-0.00579681763963732,-0.17538616864145942,0.9339532098121917,-0.3375905464122382,-0.10445959740823271,2.4802162272695476
1782477544564302592,3.1589436531066895,3.3355295658111572,0.5374827980995178,-0.882096529006958,-0.09513237327337265,0.3014667332172394,-0.9487189650535583,-0.036291562020778656,0.13852044939994812,0.11262887716293335,0.31349885185903714,-0.0028051728666019897,-0.1601020269046665,0.9359903065104352,-0.3062305746426517,-0.09994048598704165,2.479768549337967
1782477544574222592,3.168863534927368,3.464477062225342,0.549289345741272,-0.8096199035644531,-0.0924936905503273,0.2678801119327545,-0.9590021967887878,-0.005681365728378296,0.18977674841880798,0.05725353956222534,0.3159804571061834,0.0010745304692843013,-0.14317037591813095,0.9379005940648856,-0.2711920396114862,-0.0961504380954204,2.478547099451364
1782477544584142592,3.178783655166626,3.6144378185272217,0.46001508831977844,-0.7889096140861511,-0.08948761224746704,0.23382385075092316,-0.9681520462036133,0.09835296869277954,0.27946656942367554,0.17236042022705078,0.31789689567021984,0.004958333162731384,-0.126092799159676,0.9396901641568084,-0.2360087069283566,-0.09216947312861781,2.478230665859576
1782477544594061568,3.1887025833129883,3.9750311374664307,0.4645853340625763,-0.9135511517524719,-0.08683901280164719,0.1958467811346054,-0.976781964302063,0.13169986009597778,0.2628781795501709,0.06668674945831299,0.32013070216092565,0.009631111485476915,-0.10731382113645219,0.941226453380735,-0.19712088364940444,-0.08867004899278308,2.477125553646605
1782477544603981824,3.198622703552246,4.070393085479736,0.5492108464241028,-0.8368915319442749,-0.08320017158985138,0.15608136355876923,-0.9842338562011719,0.08912058919668198,0.22952347993850708,0.24210745096206665,0.32232630500326787,0.014163322843607782,-0.08764963690916729,0.9424556614366135,-0.1567221463965848,-0.08433243753230388,2.475894167336071
1782477544613901568,3.208542585372925,4.027302265167236,0.5690604448318481,-0.7790554165840149,-0.07837986201047897,0.11556822061538696,-0.9902023077011108,0.12346958369016647,0.14895814657211304,0.31930387020111084,0.3239084668808729,0.018348663941743525,-0.0675439064037007,0.9434958964634909,-0.11582703552331429,-0.07899070655721016,2.4756114157141873
1782477544623820544,3.218461513519287,3.930633783340454,0.5535372495651245,-0.7626563906669617,-0.07334640622138977,0.0757865384221077,-0.9944227933883667,0.13749435544013977,0.2219582200050354,0.3855818510055542,0.32538618446741113,0.022355767332862566,-0.04784161064311659,0.9441055168142575,-0.07585927749683373,-0.07362444901878462,2.4749955990509425
1782477544633740544,3.228381633758545,3.6609063148498535,0.5689614415168762,-0.6563043594360352,-0.06741215288639069,0.03786135092377663,-0.9970065951347351,0.16883732378482819,0.19251585006713867,0.4031040072441101,0.3264559631043987,0.025691124493177987,-0.028925358668120023,0.9444203190157346,-0.03787040277647065,-0.06751179369222499,2.474692727745194
1782477544643660544,3.2383015155792236,3.113370418548584,0.6286685466766357,-0.4956659972667694,-0.06113122031092644,0.0037223168183118105,-0.9981228113174438,0.18759605288505554,0.16690145432949066,0.42669641971588135,0.3269681692084459,0.02828840844678739,-0.011762956102852903,0.9445387228731901,-0.003722325425772728,-0.061169782095305235,2.4749667272641744
1782477544653579776,3.248220682144165,2.394984006881714,0.6830407381057739,-0.46627962589263916,-0.053515683859586716,-0.023874793201684952,-0.9982815384864807,0.16810919344425201,0.05623868480324745,0.5204373002052307,0.32701245150702607,0.029203298286113066,0.00252767562222443,0.9445653360207803,0.023877062586587842,-0.053556541418808765,2.4756537809768937
1782477544663499520,3.2581405639648438,1.6997121572494507,0.7297451496124268,-0.5993813276290894,-0.04540681466460228,-0.044410478323698044,-0.9979809522628784,0.16621065139770508,-0.06438468396663666,0.5048016309738159,0.32757566604321336,0.028741525319615945,0.01354478827982234,0.944290521412877,0.04442509034081235,-0.045467321818427414,2.474779551843869
1782477544673419776,3.2680606842041016,1.0749760866165161,0.549795925617218,-0.3717457950115204,-0.038453180342912674,-0.05846415087580681,-0.9975486397743225,0.23288066685199738,-0.2171095758676529,0.408757746219635,0.3295113594354665,0.027806712827584543,0.02127122168934175,0.9435023582739613,0.05849750811095123,-0.03852859803316086,2.4707199966438758
1782477544683338752,3.277979612350464,0.4859619438648224,0.41044309735298157,-0.3678083121776581,-0.032688215374946594,-0.06596717238426208,-0.9972862005233765,0.2311592847108841,-0.2801479399204254,0.31062543392181396,0.32945666392665685,0.026322256478017756,0.025768716733282723,0.9434518989204438,0.0660151135599531,-0.032765434291640985,2.4707446368658643
1782477544693258496,3.2878994941711426,0.38118839263916016,0.41740965843200684,-0.16991998255252838,-0.028657732531428337,-0.0703926756978035,-0.9971076250076294,0.255754292011261,-0.2001914381980896,0.2166205644607544,0.3288605942800765,0.025131928585823735,0.028540778588513796,0.9436125551109913,0.07045094009904007,-0.028732951612494798,2.471907613993252
1782477544703178752,3.2978196144104004,0.27177518606185913,0.44879186153411865,-0.0720926970243454,-0.024196328595280647,-0.07346054911613464,-0.9970045685768127,0.1535908579826355,-0.039485007524490356,0.17203813791275024,0.3277761366784432,0.023494705497499553,0.030752565385424237,0.9439625236992446,0.07352677807776105,-0.024264262301314815,2.4740676476943957
1782477544713098496,3.307739496231079,0.5820057392120361,0.3910207152366638,0.16606341302394867,-0.019875291734933853,-0.07765976339578629,-0.9967817664146423,0.12844157218933105,0.06327072530984879,0.12764114141464233,0.32595611975324973,0.022078803006139958,0.03349077563542509,0.9445335140552732,0.07773803603602822,-0.019936819735933003,2.477766739720321
1782477544723017728,3.3176586627960205,0.7616824507713318,0.5370500087738037,0.29344168305397034,-0.015284578315913677,-0.08423557877540588,-0.9963286519050598,0.20241837203502655,0.037070661783218384,0.14488822221755981,0.3231295808733843,0.020872717281740467,0.037416733020701476,0.9453844482574829,0.0843355166691509,-0.015339696851545221,2.483543134479722
1782477544732937472,3.327578544616699,1.138911485671997,0.23687389492988586,0.40533357858657837,-0.011623745784163475,-0.09331142157316208,-0.995569109916687,0.21685445308685303,0.022129178047180176,0.1771029829978943,0.3214353068019454,0.02053894048078995,0.04235083865270405,0.9457609452024829,0.09344736373434834,-0.011674948098053368,2.4868954071825784
1782477544742857728,3.337498664855957,1.446693778038025,0.18935774266719818,0.9812480211257935,-0.00981280766427517,-0.1063215360045433,-0.9942833781242371,0.2886824309825897,-0.061998166143894196,0.16054314374923706,0.3179599490471772,0.021609143012691876,0.048901486250803046,0.9465955072272375,0.10652287883442826,-0.009868905443107713,2.4940039908064593
1782477544752776704,3.3474175930023193,1.437563180923462,0.18671828508377075,1.121225357055664,-0.009044952690601349,-0.12028779089450836,-0.9926978349685669,0.25477248430252075,0.029742136597633362,0.3234473466873169,0.3125898572808645,0.023172120334209276,0.05580433682187592,0.9479644402427263,0.12057977565446434,-0.009111234036860164,2.505101187178059
1782477544762696704,3.357337713241577,1.7875841856002808,0.11357050389051437,1.0649778842926025,-0.008922397159039974,-0.13602615892887115,-0.990665078163147,0.12107449769973755,0.18834853172302246,0.3483158349990845,0.3074180671998286,0.02526055678162048,0.0634773173797769,0.949118940635224,0.13644916785541422,-0.009006228629154598,2.5157377565546235
1782477544772616704,3.367257595062256,1.9078965187072754,0.2869390845298767,1.4226912260055542,-0.009024185128509998,-0.15435190498828888,-0.9879747033119202,0.12110000103712082,0.24302074313163757,0.33444082736968994,0.3011186760468232,0.027694054244139305,0.07242704439168329,0.950428863967953,0.1549714595557067,-0.009133770745334047,2.528663267481034
1782477544782535680,3.377176523208618,1.648659586906433,0.5570748448371887,1.4306039810180664,-0.00670235138386488,-0.1716475635766983,-0.9851356148719788,0.08482735604047775,0.1952223926782608,0.49181896448135376,0.29396533441251027,0.028632064826383054,0.08131662486773646,0.951920328945863,0.17250181279025342,-0.0068033760300416765,2.543136300937774
1782477544792455680,3.387096643447876,1.2487488985061646,0.807959258556366,1.4341238737106323,-0.002654740121215582,-0.18582507967948914,-0.982579231262207,0.08058138191699982,0.07112476229667664,0.5345964431762695,0.286642400736243,0.028143431667019474,0.08898493326462753,0.9534809153904649,0.1869114938061879,-0.002701801096253467,2.557781528572381
1782477544802375680,3.3970165252685547,0.7119287848472595,0.9663958549499512,1.1178933382034302,0.003998470958322287,-0.19543348252773285,-0.9807088375091553,0.11985712498426437,-0.08732713758945465,0.4905049800872803,0.27993611504163624,0.025693032216716562,0.0947916795389125,0.9549818326023499,0.1966994327854057,0.004077101004046966,2.5709016520202383
1782477544812295680,3.4069366455078125,0.5177159309387207,0.9801108837127686,1.229387640953064,0.0108835743740201,-0.20129801332950592,-0.9794695973396301,0.11832784861326218,-0.24036765098571777,0.3917468190193176,0.2740577900327022,0.022611440597861705,0.09876199990507573,0.9563613703349602,0.20268287218595818,0.011111244858168225,2.582294416619893
1782477544822214656,3.416855573654175,0.12500132620334625,1.2754865884780884,1.1608163118362427,0.019378120079636574,-0.20508095622062683,-0.9785531759262085,0.20488029718399048,-0.32825949788093567,0.3138192892074585,0.26769484803393406,0.018365123631975497,0.10191242149333897,0.9579227776310733,0.20654642237170195,0.01980023998233628,2.594536775962333
1782477544832134656,3.4267756938934326,-0.4886820614337921,1.2723811864852905,0.8933452367782593,0.02984539233148098,-0.20350997149944305,-0.9786178469657898,0.14009173214435577,-0.16051894426345825,0.36603856086730957,0.262040732680327,0.01247901180091151,0.10264179153897267,0.9595017581353692,0.20494159517330693,0.03048804432508489,2.6052578799080197
1782477544842054656,3.4366955757141113,-0.623975396156311,1.324302077293396,0.8045299053192139,0.04078822210431099,-0.19804136455059052,-0.9793446660041809,0.1656784564256668,0.007398054003715515,0.3583577275276184,0.2575803848175335,0.005970792320051563,0.10144962178961084,0.9608978659447769,0.19935930685471054,0.04162443012329461,2.6136195505336053
1782477544851973632,3.4466145038604736,-0.8247785568237305,1.3460536003112793,0.6801325678825378,0.05244491994380951,-0.19161848723888397,-0.9800673127174377,0.247954860329628,0.026197955012321472,0.31225115060806274,0.253269286593524,-0.0009762536334316592,0.09982686397049834,0.9622309405612309,0.19281092379717327,0.0534605615013635,2.621675729025281
1782477544861893632,3.4565346240997314,-0.7844878435134888,1.3146334886550903,0.686041533946991,0.06416574865579605,-0.1839633733034134,-0.9808365106582642,0.23202261328697205,-0.003109380602836609,0.36657869815826416,0.24932931207759945,-0.008053974167745007,0.0975545141222188,0.9634590058265211,0.18501712542559906,0.0653263263269154,2.6290696038359984
1782477544871813632,3.46645450592041,-0.6056196093559265,1.1565325260162354,0.6649884581565857,0.075206458568573,-0.17782440781593323,-0.9811842441558838,0.312641441822052,-0.08413849771022797,0.2967207431793213,0.2454360241048348,-0.014585085723491025,0.09589142908969185,0.9645482047034583,0.17877517252154768,0.07649908605234494,2.6363948819505842
1782477544881733632,3.476374626159668,-0.39495596289634705,1.2364155054092407,0.7881779670715332,0.08581627905368805,-0.17332246899604797,-0.9811192154884338,0.32543861865997314,0.021116048097610474,0.26397138833999634,0.24160042691516864,-0.020685668179605952,0.09493419085282255,0.9654993333078762,0.17420219592939687,0.08724569818806487,2.6435723226481063
1782477544891652608,3.4862935543060303,-0.256579726934433,1.3187156915664673,0.8816285729408264,0.09688412398099899,-0.17092427611351013,-0.9805092215538025,0.2445618063211441,0.18601521849632263,0.2671303153038025,0.2367137344763354,-0.02685336796619551,0.09499619563571797,0.9665512906876723,0.17176766645673833,0.09849030193335799,2.6527500855058013
1782477544901572608,3.496213674545288,0.21653418242931366,1.4684104919433594,0.8790127635002136,0.10939601063728333,-0.1712912917137146,-0.9791280627250671,0.10650059580802917,0.2803611159324646,0.31784266233444214,0.23191174674757548,-0.03339885399517368,0.09654259963883893,0.9673577748426933,0.17214018688689908,0.11126653077495119,2.661389252567776
